# skilleye imu stream v1
# device=xiao_esp32c6 imu=mpu6050 addr=0x68
# rate_hz=200 accel_range_g=16 gyro_range_dps=2000 dlpf_hz=94
# units: accel in g, gyro in deg/s, t_us in microseconds since boot (monotonic)
# no shared clock with the camera -- tap the racket once before each take
# so both recordings share a spike to align on
seq,t_us,ax,ay,az,gx,gy,gz
0,101927657,-0.9189,-0.2021,-0.2222,-5.12,-19.76,10.98
1,101932661,-0.9209,-0.2061,-0.2178,-6.59,-19.82,10.79
2,101937658,-0.9141,-0.2031,-0.2173,-8.23,-20.12,10.43
3,101942658,-0.9126,-0.2021,-0.2217,-9.88,-20.12,10.18
4,101947658,-0.9141,-0.2070,-0.2231,-11.46,-20.12,9.82
5,101953077,-0.9136,-0.2031,-0.2261,-13.35,-20.12,9.51
6,101957658,-0.9126,-0.2085,-0.2202,-14.51,-20.18,9.33
7,101962657,-0.9116,-0.2100,-0.2222,-16.22,-19.94,8.96
8,101967658,-0.9097,-0.2021,-0.2188,-17.32,-19.88,8.60
9,101972658,-0.9048,-0.2051,-0.2256,-18.78,-19.76,8.29
10,101977658,-0.9038,-0.2070,-0.2227,-19.76,-19.63,8.05
11,101982658,-0.9058,-0.1997,-0.2222,-20.79,-19.63,7.74
12,101987658,-0.9082,-0.2051,-0.2271,-21.89,-19.27,7.32
13,101992658,-0.9077,-0.2021,-0.2271,-22.68,-19.02,7.01
14,101997660,-0.9072,-0.2007,-0.2251,-23.29,-18.96,6.52
15,102002657,-0.9038,-0.2065,-0.2207,-24.09,-18.54,6.16
16,102007658,-0.9004,-0.2007,-0.2256,-24.39,-18.35,5.85
17,102012658,-0.8994,-0.2002,-0.2222,-24.63,-17.93,5.37
18,102017658,-0.9004,-0.2017,-0.2222,-24.76,-17.68,5.18
19,102022658,-0.9019,-0.1978,-0.2227,-24.88,-17.50,4.82
20,102027658,-0.9004,-0.1987,-0.2246,-24.57,-17.20,4.45
21,102032659,-0.8984,-0.1987,-0.2241,-24.15,-16.83,4.02
22,102037701,-0.8975,-0.1963,-0.2266,-23.78,-16.46,3.78
23,102042660,-0.8984,-0.1948,-0.2236,-22.99,-16.16,3.41
24,102047658,-0.8989,-0.1978,-0.2256,-22.50,-15.91,3.23
25,102052658,-0.9014,-0.1958,-0.2295,-21.71,-15.67,2.93
26,102057658,-0.9004,-0.1963,-0.2261,-20.61,-15.30,2.87
27,102062658,-0.9038,-0.1987,-0.2207,-19.70,-14.94,2.68
28,102067659,-0.9019,-0.2017,-0.2207,-18.54,-14.70,2.50
29,102072658,-0.9028,-0.1968,-0.2266,-17.38,-14.45,2.50
30,102077658,-0.9004,-0.2012,-0.2241,-16.10,-14.09,2.38
31,102082659,-0.9038,-0.2002,-0.2197,-14.76,-13.84,2.38
32,102087658,-0.9019,-0.2012,-0.2222,-13.23,-13.66,2.38
33,102092656,-0.9043,-0.1968,-0.2256,-11.83,-13.41,2.38
34,102097658,-0.9019,-0.1997,-0.2266,-10.24,-13.23,2.44
35,102102658,-0.9014,-0.1992,-0.2280,-8.60,-13.05,2.56
36,102107658,-0.8984,-0.1958,-0.2241,-6.65,-12.87,2.68
37,102112658,-0.9009,-0.2017,-0.2310,-5.37,-12.62,2.74
38,102117660,-0.9004,-0.1987,-0.2295,-3.60,-12.56,2.80
39,102122657,-0.9019,-0.1953,-0.2349,-1.95,-12.44,3.17
40,102127658,-0.9033,-0.1968,-0.2334,-0.18,-12.26,3.29
41,102132658,-0.8989,-0.1968,-0.2290,1.28,-12.01,3.48
42,102137658,-0.9009,-0.1973,-0.2310,2.74,-12.07,3.66
43,102142658,-0.9072,-0.1978,-0.2285,4.21,-11.89,3.78
44,102147660,-0.9097,-0.1958,-0.2310,5.37,-11.59,4.02
45,102152658,-0.9136,-0.1997,-0.2290,6.59,-11.46,4.15
46,102157658,-0.9141,-0.2002,-0.2329,7.50,-11.04,4.45
47,102162658,-0.9185,-0.2017,-0.2280,8.41,-10.91,4.63
48,102167658,-0.9155,-0.2002,-0.2368,9.21,-10.61,4.82
49,102172658,-0.9126,-0.1968,-0.2290,9.94,-10.43,5.06
50,102177658,-0.9146,-0.1938,-0.2314,10.37,-10.06,5.24
51,102182657,-0.9141,-0.1973,-0.2339,10.91,-9.82,5.43
52,102187657,-0.9160,-0.2002,-0.2334,11.28,-9.63,5.61
53,102192656,-0.9136,-0.2002,-0.2427,11.71,-9.39,5.79
54,102197660,-0.9136,-0.1982,-0.2329,11.89,-9.21,5.91
55,102202802,-0.9131,-0.1982,-0.2349,12.07,-8.84,6.10
56,102207658,-0.9116,-0.2007,-0.2451,12.01,-8.54,6.10
57,102212658,-0.9121,-0.2007,-0.2329,11.89,-8.35,6.10
58,102218308,-0.9043,-0.1963,-0.2324,11.65,-7.74,6.10
59,102222658,-0.9062,-0.1963,-0.2295,11.40,-7.62,6.16
60,102227658,-0.9048,-0.1953,-0.2310,10.91,-7.20,6.22
61,102232658,-0.9033,-0.2002,-0.2295,10.24,-6.77,6.16
62,102237658,-0.9033,-0.1973,-0.2314,9.63,-6.28,6.10
63,102242658,-0.9028,-0.1943,-0.2295,8.96,-6.04,5.91
64,102247659,-0.9033,-0.1963,-0.2349,8.17,-5.73,5.85
65,102252658,-0.8979,-0.1938,-0.2349,7.26,-5.18,5.67
66,102257658,-0.8975,-0.1953,-0.2373,6.34,-4.94,5.55
67,102262658,-0.9009,-0.1973,-0.2358,5.43,-4.51,5.37
68,102267658,-0.8999,-0.1982,-0.2334,4.51,-4.02,5.12
69,102272658,-0.8979,-0.1978,-0.2358,3.48,-3.72,4.88
70,102277662,-0.9004,-0.1938,-0.2368,2.62,-3.35,4.63
71,102282658,-0.9082,-0.1968,-0.2246,1.52,-2.93,4.33
72,102287658,-0.9033,-0.1997,-0.2285,0.55,-2.56,4.02
73,102292658,-0.9028,-0.1948,-0.2280,-0.24,-2.26,3.78
74,102297660,-0.9028,-0.1978,-0.2324,-1.10,-1.83,3.54
75,102302660,-0.9097,-0.1934,-0.2310,-1.95,-1.40,3.11
76,102307658,-0.9043,-0.1963,-0.2290,-2.68,-1.10,2.87
77,102312658,-0.8994,-0.1973,-0.2334,-3.35,-0.73,2.50
78,102317656,-0.9038,-0.1924,-0.2275,-3.96,-0.37,2.20
79,102322656,-0.9062,-0.1934,-0.2285,-4.51,0.00,1.83
80,102327658,-0.9038,-0.1929,-0.2290,-5.12,0.24,1.52
81,102332658,-0.9043,-0.1943,-0.2266,-5.49,0.43,1.16
82,102337658,-0.9087,-0.1948,-0.2363,-5.79,0.79,0.91
83,102343088,-0.9106,-0.1934,-0.2334,-6.04,1.10,0.67
84,102347658,-0.9189,-0.1953,-0.2358,-6.28,1.28,0.24
85,102352658,-0.9131,-0.1934,-0.2412,-6.46,1.59,-0.12
86,102357658,-0.9126,-0.1890,-0.2446,-6.59,1.83,-0.49
87,102362658,-0.9121,-0.1890,-0.2466,-6.77,2.07,-0.79
88,102367658,-0.9111,-0.1924,-0.2422,-6.71,2.44,-1.22
89,102372657,-0.9141,-0.1870,-0.2490,-6.52,2.74,-1.71
90,102377659,-0.9092,-0.1899,-0.2495,-6.22,2.93,-2.20
91,102382656,-0.9097,-0.1875,-0.2476,-5.67,3.35,-2.56
92,102387656,-0.9097,-0.1875,-0.2554,-4.94,3.78,-2.93
93,102392656,-0.9111,-0.1885,-0.2632,-4.27,4.27,-3.35
94,102397658,-0.9180,-0.1885,-0.2617,-3.60,4.88,-3.78
95,102402657,-0.9204,-0.1890,-0.2549,-2.87,5.30,-4.21
96,102407660,-0.9258,-0.1855,-0.2632,-2.26,6.04,-4.63
97,102412656,-0.9214,-0.1982,-0.2666,-1.46,6.59,-5.00
98,102417656,-0.9219,-0.1963,-0.2661,-0.67,7.38,-5.43
99,102422656,-0.9282,-0.1963,-0.2759,0.12,8.05,-5.79
100,102427656,-0.9375,-0.1943,-0.2764,0.79,8.84,-6.04
101,102432657,-0.9458,-0.1987,-0.2832,1.40,9.57,-6.34
102,102437659,-0.9546,-0.2070,-0.2935,2.01,10.30,-6.65
103,102442657,-0.9717,-0.2188,-0.3066,2.44,10.85,-6.59
104,102448142,-0.9849,-0.2163,-0.3232,2.93,11.65,-6.77
105,102452658,-0.9873,-0.2256,-0.3267,3.17,12.20,-6.95
106,102457986,-0.9917,-0.2275,-0.3315,3.41,12.74,-7.20
107,102462658,-0.9873,-0.2251,-0.3398,3.72,13.60,-7.32
108,102467834,-0.9873,-0.2261,-0.3521,3.78,14.39,-7.74
109,102472658,-0.9858,-0.2300,-0.3506,3.96,15.61,-8.17
110,102477659,-0.9766,-0.2295,-0.3550,4.15,16.59,-8.66
111,102482658,-0.9668,-0.2349,-0.3550,4.21,17.99,-9.09
112,102487658,-0.9590,-0.2388,-0.3599,4.21,19.51,-9.63
113,102492658,-0.9497,-0.2441,-0.3647,4.39,21.04,-10.18
114,102497658,-0.9492,-0.2549,-0.3691,4.33,22.74,-10.67
115,102502658,-0.9443,-0.2607,-0.3770,4.45,24.51,-11.16
116,102507658,-0.9429,-0.2651,-0.3809,4.45,26.34,-11.71
117,102512658,-0.9404,-0.2744,-0.3887,4.33,28.11,-12.07
118,102517658,-0.9351,-0.2832,-0.3955,4.63,30.12,-12.50
119,102522658,-0.9307,-0.2896,-0.4004,5.00,32.13,-13.05
120,102527658,-0.9346,-0.2905,-0.4116,5.61,34.21,-13.48
121,102532658,-0.9326,-0.2915,-0.4224,6.59,36.40,-13.96
122,102537658,-0.9429,-0.2974,-0.4312,8.11,38.48,-14.57
123,102542658,-0.8896,-0.2969,-0.4092,10.55,40.79,-15.24
124,102547658,-0.9302,-0.3071,-0.4810,13.78,42.26,-15.61
125,102552658,-0.9771,-0.3203,-0.4751,16.83,44.21,-16.10
126,102557658,-0.9990,-0.3301,-0.4634,19.70,46.52,-16.71
127,102562658,-0.9868,-0.3511,-0.4639,22.38,48.84,-17.20
128,102568137,-0.9707,-0.3535,-0.4800,25.06,51.04,-17.80
129,102572658,-0.9629,-0.3477,-0.5024,27.44,53.23,-18.29
130,102578031,-0.9644,-0.3545,-0.5068,31.40,55.85,-19.45
131,102582658,-0.9639,-0.3643,-0.5181,35.00,58.23,-20.37
132,102587658,-0.9609,-0.3721,-0.5312,37.80,60.30,-21.22
133,102592658,-0.9565,-0.3799,-0.5420,42.44,63.35,-22.62
134,102597658,-0.9565,-0.3882,-0.5464,45.37,65.37,-23.66
135,102602658,-0.9575,-0.3950,-0.5586,48.96,68.11,-24.94
136,102607657,-0.9624,-0.4048,-0.5762,52.56,70.79,-26.34
137,102612658,-0.9609,-0.4165,-0.5825,56.52,74.15,-28.11
138,102617658,-0.9619,-0.4268,-0.5894,59.09,76.16,-29.21
139,102622719,-0.9668,-0.4409,-0.5991,62.80,79.27,-30.98
140,102627659,-0.9644,-0.4463,-0.6133,65.24,81.77,-32.20
141,102632658,-0.9634,-0.4595,-0.6245,68.78,85.06,-33.84
142,102637658,-0.9600,-0.4717,-0.6323,71.71,86.22,-35.30
143,102642658,-0.9648,-0.4785,-0.6553,74.39,88.84,-36.77
144,102647658,-0.9668,-0.4810,-0.6543,76.59,90.61,-37.93
145,102652995,-0.9712,-0.4971,-0.6753,79.70,93.23,-39.88
146,102657658,-0.9717,-0.5068,-0.6831,81.52,95.06,-41.22
147,102662658,-0.9702,-0.5239,-0.6997,83.84,97.74,-43.23
148,102667658,-0.9736,-0.5298,-0.7065,85.12,99.27,-44.57
149,102672658,-0.9785,-0.5459,-0.7148,86.52,101.28,-46.22
150,102677658,-0.9702,-0.5649,-0.7202,87.68,103.54,-47.99
151,102682656,-0.9668,-0.5767,-0.7236,88.72,105.55,-49.88
152,102687656,-0.9546,-0.5859,-0.7246,89.82,107.99,-52.26
153,102692658,-0.9478,-0.5972,-0.7339,90.79,109.57,-53.78
154,102697657,-0.9326,-0.6108,-0.7329,91.89,111.22,-55.85
155,102703297,-0.9272,-0.6294,-0.7388,93.41,113.48,-58.54
156,102707803,-0.9238,-0.6411,-0.7388,94.51,114.76,-60.43
157,102712658,-0.9180,-0.6548,-0.7422,96.16,116.77,-63.23
158,102717729,-0.9097,-0.6641,-0.7393,97.13,118.05,-65.30
159,102722658,-0.9033,-0.6802,-0.7363,98.11,119.70,-68.05
160,102727658,-0.8950,-0.6885,-0.7378,98.96,121.40,-70.91
161,102732658,-0.8926,-0.6987,-0.7393,99.39,122.87,-73.78
162,102737658,-0.8872,-0.7070,-0.7319,99.88,124.51,-76.83
163,102743045,-0.8823,-0.7212,-0.7378,99.94,126.34,-80.67
164,102747658,-0.8745,-0.7290,-0.7329,99.94,127.44,-83.17
165,102752659,-0.8706,-0.7471,-0.7319,99.70,128.90,-86.22
166,102757657,-0.8667,-0.7578,-0.7378,99.45,130.24,-89.51
167,102762658,-0.8540,-0.7671,-0.7310,99.21,131.46,-92.68
168,102767657,-0.8447,-0.7822,-0.7246,98.84,132.74,-96.10
169,102772658,-0.8296,-0.7993,-0.7197,98.41,133.96,-100.18
170,102777658,-0.8188,-0.8120,-0.7207,98.05,134.94,-102.87
171,102782658,-0.8018,-0.8281,-0.7158,97.68,135.98,-106.34
172,102787658,-0.7949,-0.8457,-0.7144,97.07,136.77,-109.70
173,102792658,-0.7852,-0.8613,-0.7051,96.10,137.80,-113.66
174,102797658,-0.7793,-0.8735,-0.6992,95.30,138.35,-116.16
175,102802659,-0.7686,-0.8828,-0.6919,94.33,139.27,-119.27
176,102807838,-0.7466,-0.8984,-0.6865,93.41,140.06,-122.20
177,102812659,-0.7290,-0.9048,-0.6772,92.44,140.61,-124.88
178,102817657,-0.7158,-0.9136,-0.6646,91.71,141.28,-127.44
179,102822658,-0.7031,-0.9189,-0.6543,90.98,141.65,-129.88
180,102827657,-0.6855,-0.9312,-0.6431,90.06,142.32,-132.68
181,102832658,-0.6699,-0.9380,-0.6333,89.57,142.56,-134.45
182,102837658,-0.6592,-0.9438,-0.6401,88.90,143.05,-136.52
183,102842658,-0.6440,-0.9443,-0.6226,88.29,143.35,-138.48
184,102847658,-0.6206,-0.9487,-0.6089,87.68,143.72,-140.73
185,102852658,-0.6118,-0.9580,-0.6094,87.32,143.90,-142.20
186,102857962,-0.5967,-0.9702,-0.6074,86.83,144.15,-143.96
187,102862658,-0.5781,-0.9727,-0.5928,86.52,144.39,-145.85
188,102867658,-0.5688,-0.9736,-0.5840,86.40,144.33,-147.26
189,102872658,-0.5513,-0.9775,-0.5752,86.22,144.21,-148.72
190,102878026,-0.5352,-0.9824,-0.5649,86.10,144.21,-150.18
191,102882658,-0.5190,-0.9883,-0.5542,86.16,144.02,-151.52
192,102887658,-0.5059,-0.9883,-0.5400,86.65,143.84,-153.11
193,102892659,-0.4980,-0.9854,-0.5376,86.83,143.60,-154.02
194,102897658,-0.4927,-0.9839,-0.5234,87.26,143.23,-155.18
195,102902657,-0.4780,-0.9756,-0.5117,87.74,143.05,-156.34
196,102907658,-0.4551,-0.9722,-0.4976,88.29,142.68,-157.50
197,102912657,-0.4419,-0.9629,-0.4829,89.09,142.38,-158.54
198,102917658,-0.4297,-0.9556,-0.4678,90.06,142.07,-159.57
199,102922658,-0.4155,-0.9370,-0.4546,91.04,141.65,-160.43
200,102927657,-0.4072,-0.9268,-0.4390,92.20,141.28,-161.28
201,102933144,-0.3950,-0.9131,-0.4258,93.29,140.67,-162.13
202,102937658,-0.3872,-0.9058,-0.4131,94.09,140.06,-163.05
203,102942966,-0.3794,-0.8931,-0.4028,94.45,139.57,-163.78
204,102947658,-0.3711,-0.8794,-0.3838,94.57,138.90,-164.57
205,102952658,-0.3672,-0.8677,-0.3735,94.45,138.23,-165.30
206,102957658,-0.3633,-0.8540,-0.3560,93.96,137.56,-165.98
207,102962658,-0.3535,-0.8418,-0.3511,93.54,136.77,-166.71
208,102967658,-0.3428,-0.8276,-0.3369,93.05,135.98,-167.26
209,102972658,-0.3379,-0.8130,-0.3193,92.44,135.00,-167.93
210,102977658,-0.3286,-0.7939,-0.3037,92.01,133.84,-168.29
211,102982657,-0.3179,-0.7729,-0.2896,91.71,132.80,-168.72
212,102987657,-0.3101,-0.7529,-0.2695,91.34,131.52,-169.09
213,102992658,-0.2969,-0.7319,-0.2607,91.16,130.18,-169.27
214,102998460,-0.2852,-0.7021,-0.2451,90.85,128.29,-169.39
215,103002658,-0.2803,-0.6870,-0.2310,90.67,127.13,-169.45
216,103007658,-0.2729,-0.6719,-0.2212,90.37,125.30,-169.15
217,103012658,-0.2598,-0.6538,-0.2104,90.06,123.41,-168.96
218,103017657,-0.2471,-0.6299,-0.1895,89.70,121.28,-168.41
219,103022658,-0.2373,-0.6094,-0.1768,89.15,119.39,-167.74
220,103027657,-0.2231,-0.5869,-0.1660,88.29,117.20,-166.89
221,103033151,-0.2070,-0.5708,-0.1616,87.50,115.12,-165.91
222,103037658,-0.1968,-0.5537,-0.1416,86.16,112.74,-164.82
223,103042658,-0.1851,-0.5361,-0.1289,84.57,110.30,-163.48
224,103047658,-0.1709,-0.5166,-0.1147,82.87,108.23,-162.07
225,103052658,-0.1553,-0.4956,-0.0947,80.98,105.91,-160.43
226,103057658,-0.1401,-0.4717,-0.0874,78.90,103.48,-158.84
227,103062658,-0.1172,-0.4507,-0.0703,76.89,101.28,-157.07
228,103067658,-0.0972,-0.4272,-0.0586,74.51,99.27,-155.30
229,103072657,-0.0723,-0.4043,-0.0518,71.89,97.01,-153.48
230,103077658,-0.0571,-0.3916,-0.0557,69.15,94.76,-151.46
231,103082661,-0.0161,-0.4302,-0.1606,65.55,92.87,-149.45
232,103087779,-0.0220,-0.4087,-0.1270,61.16,91.22,-147.38
233,103092659,-0.0371,-0.3623,-0.0176,57.01,88.96,-145.37
234,103097658,-0.0352,-0.3301,-0.0454,52.99,85.79,-143.23
235,103102658,-0.0215,-0.3018,-0.1270,48.66,85.06,-141.10
236,103107658,-0.0107,-0.2832,-0.0957,44.09,83.17,-138.90
237,103112658,0.0063,-0.2788,-0.0547,39.15,81.22,-136.77
238,103117862,0.0264,-0.2754,-0.0981,34.02,79.33,-134.51
239,103122660,0.0352,-0.2783,-0.1348,28.66,78.29,-132.32
240,103127659,0.0215,-0.2842,-0.1304,23.17,76.71,-129.88
241,103132658,0.0405,-0.2520,-0.1587,17.56,74.63,-127.26
242,103137956,0.0845,-0.2388,-0.2231,11.95,72.99,-124.76
243,103142658,0.1162,-0.2407,-0.2324,6.46,71.71,-121.89
244,103147981,0.1509,-0.2266,-0.1914,1.34,70.30,-118.90
245,103152658,0.2495,-0.1514,-0.2266,-2.99,68.90,-116.22
246,103157939,0.2783,-0.0942,-0.2935,-6.71,67.87,-113.84
247,103162658,0.3145,-0.0410,-0.3296,-9.45,66.40,-111.40
248,103167658,0.3081,-0.0923,-0.3306,-10.91,64.15,-108.48
249,103173143,0.2915,-0.1250,-0.3579,-11.22,62.32,-104.51
250,103177658,0.2505,-0.1104,-0.3604,-10.73,60.79,-99.88
251,103182659,0.1885,-0.0811,-0.3755,-9.39,58.84,-95.18
252,103187658,0.0708,-0.0840,-0.3843,-7.68,56.46,-90.43
253,103192657,-0.0166,-0.2261,-0.2251,-5.30,54.02,-85.12
254,103197660,-0.0547,-0.3291,-0.1113,-3.29,53.05,-78.35
255,103202658,-0.0620,-0.3628,-0.0298,-1.10,53.48,-71.04
256,103207659,0.0283,-0.3848,-0.0327,0.61,53.17,-65.24
257,103212660,0.1250,-0.4595,-0.1182,3.05,51.65,-58.23
258,103217656,0.1392,-0.5454,-0.1172,5.61,49.45,-50.49
259,103222658,0.1787,-0.5620,-0.1167,7.68,46.71,-42.50
260,103227657,0.2266,-0.5615,-0.1245,9.45,43.05,-34.51
261,103232658,0.2759,-0.5728,-0.1719,10.37,39.63,-26.59
262,103237658,0.3442,-0.5576,-0.1763,10.91,36.10,-18.66
263,103243005,0.4062,-0.5356,-0.1675,10.67,31.28,-9.76
264,103247658,0.4663,-0.4893,-0.1309,10.18,28.11,-4.33
265,103252658,0.5098,-0.4561,-0.1455,9.33,24.70,1.65
266,103257658,0.5527,-0.4585,-0.1123,8.11,21.46,6.59
267,103263075,0.5981,-0.5332,-0.0762,5.98,17.93,12.20
268,103267658,0.6245,-0.5996,-0.0684,4.27,15.67,15.98
269,103272658,0.6440,-0.6475,-0.0679,1.52,13.35,20.85
270,103277658,0.6470,-0.6641,-0.0815,-1.59,10.85,25.73
271,103282658,0.6357,-0.6572,-0.1089,-4.76,8.23,30.24
272,103287658,0.6187,-0.6294,-0.1235,-7.26,5.37,33.96
273,103292659,0.6001,-0.6143,-0.1133,-9.27,3.23,36.83
274,103297656,0.5723,-0.6294,-0.1147,-10.37,1.16,38.96
275,103302656,0.5605,-0.6538,-0.1133,-10.73,-0.85,40.37
276,103307658,0.5537,-0.6777,-0.1284,-10.49,-2.13,41.46
277,103312658,0.5537,-0.6958,-0.1377,-9.82,-3.60,41.71
278,103317658,0.5503,-0.7246,-0.1577,-8.96,-4.57,41.52
279,103323128,0.5610,-0.7427,-0.1709,-7.80,-5.91,40.55
280,103327658,0.5610,-0.7651,-0.1929,-7.13,-6.59,39.27
281,103332658,0.5688,-0.7778,-0.1948,-6.52,-7.20,37.44
282,103337658,0.5723,-0.7935,-0.2183,-6.16,-7.68,35.06
283,103342657,0.5728,-0.8188,-0.2358,-6.10,-8.17,32.32
284,103347993,0.5669,-0.8467,-0.2554,-6.52,-8.17,28.72
285,103352658,0.5791,-0.8735,-0.2739,-7.13,-7.74,25.67
286,103357658,0.5879,-0.8960,-0.2915,-7.80,-7.44,23.23
287,103362658,0.6025,-0.9258,-0.3120,-9.27,-6.34,19.45
288,103367782,0.5986,-0.9487,-0.3320,-10.43,-5.49,16.83
289,103372658,0.6035,-0.9639,-0.3599,-12.26,-4.27,13.60
290,103377658,0.6294,-0.9819,-0.3960,-14.27,-2.68,10.37
291,103383093,0.6416,-1.0024,-0.4277,-16.65,-0.55,6.46
292,103387658,0.6372,-1.0117,-0.4595,-18.48,1.10,3.72
293,103392658,0.6479,-1.0210,-0.4912,-20.73,3.17,0.30
294,103397658,0.6660,-1.0293,-0.5132,-23.11,5.43,-3.11
295,103402658,0.6782,-1.0322,-0.5430,-25.61,7.74,-6.52
296,103407658,0.6782,-1.0322,-0.5518,-28.23,10.24,-9.88
297,103412963,0.6846,-1.0308,-0.5708,-31.22,12.56,-13.11
298,103417659,0.7021,-1.0239,-0.5771,-33.96,15.00,-16.22
299,103422657,0.7124,-1.0195,-0.5815,-36.46,17.44,-19.15
300,103427705,0.6997,-1.0176,-0.5947,-38.60,19.88,-21.83
301,103432657,0.6919,-1.0112,-0.5986,-40.06,22.50,-24.51
302,103437658,0.6919,-1.0029,-0.6235,-41.34,24.88,-27.01
303,103442657,0.6909,-0.9868,-0.6396,-42.38,27.26,-29.39
304,103447658,0.7007,-0.9805,-0.6631,-43.29,29.76,-31.71
305,103452658,0.7075,-0.9678,-0.6719,-44.02,32.56,-33.96
306,103457658,0.6968,-0.9595,-0.6763,-45.00,35.06,-36.16
307,103462656,0.6846,-0.9551,-0.6899,-46.34,38.11,-38.17
308,103467657,0.6670,-0.9438,-0.7051,-48.05,41.10,-40.24
309,103472658,0.6807,-0.9302,-0.7236,-50.12,44.15,-42.07
310,103477658,0.7012,-0.9253,-0.7275,-52.56,47.38,-43.90
311,103482658,0.6997,-0.9180,-0.7378,-55.24,50.61,-45.43
312,103487658,0.6851,-0.9077,-0.7432,-58.05,53.96,-46.83
313,103492658,0.6743,-0.8970,-0.7393,-61.28,57.44,-48.11
314,103497658,0.6709,-0.8833,-0.7490,-64.82,61.04,-49.15
315,103502693,0.6792,-0.8667,-0.7441,-68.54,64.39,-50.24
316,103507657,0.6758,-0.8535,-0.7441,-72.26,67.99,-51.16
317,103512658,0.6689,-0.8398,-0.7427,-75.55,71.59,-52.01
318,103517658,0.6460,-0.8311,-0.7510,-78.72,75.12,-52.68
319,103522658,0.6426,-0.8135,-0.7480,-81.59,78.78,-53.41
320,103527658,0.6309,-0.8076,-0.7451,-84.09,82.50,-53.96
321,103532658,0.6099,-0.7959,-0.7397,-86.40,85.37,-54.27
322,103537658,0.6040,-0.7842,-0.7349,-88.54,88.90,-54.70
323,103542658,0.6147,-0.7769,-0.7334,-90.43,92.32,-54.94
324,103547658,0.6064,-0.7729,-0.7217,-91.95,95.73,-54.88
325,103552658,0.5938,-0.7705,-0.7129,-93.29,99.15,-54.76
326,103557658,0.5845,-0.7725,-0.7041,-94.33,102.26,-54.45
327,103562928,0.5815,-0.7734,-0.6904,-95.24,105.49,-53.96
328,103567658,0.5776,-0.7700,-0.6782,-96.22,108.72,-53.35
329,103572678,0.5762,-0.7661,-0.6675,-97.38,111.71,-52.74
330,103577657,0.5596,-0.7598,-0.6431,-98.35,114.76,-52.07
331,103582656,0.5488,-0.7510,-0.6304,-99.33,117.62,-51.34
332,103587656,0.5347,-0.7471,-0.6133,-100.30,120.67,-50.73
333,103593233,0.5210,-0.7358,-0.6064,-101.34,123.54,-50.12
334,103597764,0.5063,-0.7261,-0.5957,-102.13,126.22,-49.51
335,103602658,0.4897,-0.7212,-0.5796,-102.93,128.90,-48.84
336,103607658,0.4785,-0.7095,-0.5640,-103.78,131.65,-48.23
337,103612658,0.4658,-0.6968,-0.5503,-104.63,133.90,-47.44
338,103617658,0.4507,-0.6943,-0.5337,-105.37,136.52,-46.83
339,103622660,0.4351,-0.6846,-0.5146,-106.34,138.72,-46.16
340,103627658,0.4238,-0.6772,-0.4956,-107.26,141.04,-45.24
341,103632657,0.4155,-0.6753,-0.4834,-108.29,143.35,-44.39
342,103637658,0.4014,-0.6685,-0.4722,-109.70,145.49,-43.29
343,103642658,0.3994,-0.6621,-0.4429,-111.10,147.56,-42.07
344,103647658,0.3867,-0.6553,-0.4224,-112.68,149.82,-40.85
345,103653069,0.3774,-0.6504,-0.4136,-114.27,152.13,-39.51
346,103657658,0.3667,-0.6445,-0.3872,-115.98,154.33,-38.11
347,103662657,0.3599,-0.6387,-0.3657,-117.62,156.59,-36.52
348,103667658,0.3501,-0.6294,-0.3438,-119.02,158.66,-34.82
349,103672658,0.3457,-0.6177,-0.3252,-120.37,160.79,-33.05
350,103677658,0.3394,-0.6074,-0.3081,-121.52,162.80,-31.28
351,103682658,0.3276,-0.5991,-0.2803,-122.38,164.76,-29.27
352,103687658,0.3169,-0.5898,-0.2661,-123.05,166.71,-27.38
353,103693107,0.3042,-0.5830,-0.2368,-123.48,168.54,-25.30
354,103697658,0.2969,-0.5801,-0.2139,-123.60,170.43,-23.17
355,103702658,0.2852,-0.5742,-0.1787,-123.48,172.13,-20.98
356,103707658,0.2759,-0.5620,-0.1558,-123.17,174.02,-18.84
357,103712658,0.2690,-0.5566,-0.1260,-122.87,175.91,-16.65
358,103717658,0.2549,-0.5513,-0.1016,-122.32,177.74,-14.51
359,103722658,0.2505,-0.5444,-0.0762,-121.77,179.57,-12.32
360,103727658,0.2432,-0.5371,-0.0464,-121.28,181.59,-10.12
361,103732658,0.2378,-0.5322,-0.0225,-120.79,183.48,-7.80
362,103737663,0.2329,-0.5298,0.0112,-120.30,185.49,-5.49
363,103742656,0.2310,-0.5244,0.0308,-120.00,187.50,-3.05
364,103747656,0.2251,-0.5151,0.0532,-119.70,189.39,-0.67
365,103752658,0.2192,-0.5117,0.0864,-119.51,191.40,2.07
366,103757770,0.2158,-0.5073,0.1133,-119.33,193.29,4.63
367,103762659,0.2031,-0.5005,0.1406,-118.90,195.18,7.26
368,103767658,0.2017,-0.4946,0.1626,-118.66,196.95,9.94
369,103772658,0.1899,-0.4844,0.2012,-118.41,198.90,12.62
370,103777658,0.1812,-0.4800,0.2178,-117.99,200.55,15.43
371,103782657,0.1709,-0.4771,0.2412,-117.44,202.26,18.17
372,103787659,0.1597,-0.4707,0.2749,-116.83,203.90,20.98
373,103792658,0.1465,-0.4717,0.3022,-116.22,205.43,23.60
374,103797657,0.1382,-0.4717,0.3296,-115.61,206.89,26.46
375,103802658,0.1157,-0.4741,0.3599,-115.00,208.41,29.39
376,103807658,0.1064,-0.4727,0.3813,-114.63,209.70,31.71
377,103812659,0.0923,-0.4727,0.4028,-114.15,210.98,34.70
378,103817657,0.0820,-0.4761,0.4189,-113.72,212.44,37.68
379,103822658,0.0757,-0.4839,0.4517,-113.11,213.84,40.79
380,103827659,0.0615,-0.4932,0.4741,-112.56,215.06,44.02
381,103832659,0.0415,-0.5015,0.5020,-111.77,216.22,47.38
382,103837657,0.0356,-0.5059,0.5342,-111.04,217.38,50.73
383,103842658,0.0386,-0.5142,0.5557,-110.00,218.54,54.15
384,103847656,0.0371,-0.5254,0.5752,-108.78,219.63,57.80
385,103852658,0.0264,-0.5322,0.6021,-107.32,220.73,61.34
386,103857657,0.0054,-0.5400,0.6318,-105.55,221.59,65.06
387,103862658,-0.0063,-0.5142,0.6348,-103.60,222.38,68.78
388,103867657,-0.0029,-0.5571,0.6841,-101.95,223.41,72.32
389,103872658,-0.0293,-0.5957,0.7192,-99.94,224.15,76.22
390,103877940,-0.0278,-0.6147,0.7563,-97.38,224.88,80.98
391,103882658,-0.0464,-0.6191,0.7676,-95.67,226.16,84.27
392,103887657,-0.0117,-0.6211,0.7954,-93.35,226.77,87.68
393,103892656,-0.0698,-0.5991,0.8057,-90.67,227.26,92.13
394,103897656,-0.1143,-0.6030,0.8452,-87.93,227.56,96.10
395,103902656,-0.1450,-0.6382,0.8838,-84.94,227.74,100.30
396,103907658,-0.1724,-0.6675,0.9053,-81.65,228.23,104.57
397,103912658,-0.1934,-0.6831,0.9507,-78.05,228.60,109.02
398,103918117,-0.2251,-0.6929,1.0137,-72.99,228.90,114.39
399,103922658,-0.2461,-0.6997,1.0337,-69.15,228.84,117.93
400,103927658,-0.2783,-0.7153,1.0977,-64.09,228.23,122.50
401,103932658,-0.3276,-0.7114,1.1528,-58.23,228.11,126.89
402,103937660,-0.3530,-0.7090,1.1675,-51.59,227.99,131.04
403,103942658,-0.2700,-0.6133,1.1387,-44.63,227.56,135.00
404,103947658,-0.3052,-0.6504,1.2393,-38.35,226.59,138.48
405,103952860,-0.4219,-0.6895,1.3130,-31.65,224.70,142.32
406,103957658,-0.4409,-0.7139,1.3013,-24.76,222.32,145.98
407,103963069,-0.4595,-0.6895,1.3413,-16.22,219.27,150.00
408,103967658,-0.4995,-0.6709,1.4116,-10.49,217.80,152.74
409,103973138,-0.5728,-0.6548,1.4971,-2.13,213.90,156.34
410,103977658,-0.6660,-0.6343,1.4863,3.35,211.28,158.72
411,103982658,-0.7568,-0.6650,1.5479,9.39,208.17,161.59
412,103987660,-0.8442,-0.6890,1.6562,14.57,204.27,164.63
413,103992658,-0.9053,-0.7095,1.7178,19.21,199.94,167.74
414,103997657,-0.9722,-0.7295,1.7412,23.48,195.55,170.98
415,104002658,-1.0747,-0.7280,1.8037,27.62,190.43,174.15
416,104007657,-1.2134,-0.7046,1.8340,32.68,182.44,177.99
417,104012658,-1.3179,-0.6729,1.7969,36.16,175.91,180.43
418,104017658,-1.4536,-0.6606,1.7988,41.22,165.98,183.23
419,104022658,-1.5571,-0.6660,1.9395,47.50,154.27,185.91
420,104027658,-1.6055,-0.6997,2.1724,56.16,139.88,189.15
421,104032688,-1.5938,-0.7207,2.2832,62.38,130.06,191.34
422,104037658,-1.5278,-0.7202,2.3936,69.33,116.52,194.33
423,104042658,-1.4478,-0.6562,2.4468,74.39,101.46,197.56
424,104047658,-1.4077,-0.6021,2.5078,77.01,84.94,201.10
425,104052658,-1.4170,-0.5630,2.6025,76.22,66.28,204.94
426,104057658,-1.4873,-0.5386,2.7598,69.70,42.01,210.12
427,104062658,-1.5645,-0.5361,2.8511,62.26,24.94,213.78
428,104067658,-1.6694,-0.5366,2.9521,49.51,2.38,218.54
429,104072658,-1.7324,-0.5479,3.0898,34.88,-22.26,223.84
430,104077661,-1.7715,-0.5786,3.1460,20.43,-48.90,229.63
431,104082658,-1.7930,-0.6304,3.2402,8.11,-77.80,236.40
432,104087656,-1.8105,-0.6875,3.3174,-0.30,-109.57,244.33
433,104092678,-1.8345,-0.7573,3.3745,-4.45,-143.66,253.60
434,104097660,-1.9219,-0.8516,3.4668,-4.33,-179.63,264.45
435,104103091,-2.0410,-0.9580,3.5195,-0.61,-216.52,276.65
436,104107658,-2.1982,-1.0591,3.5801,6.46,-253.84,290.00
437,104112658,-2.3911,-1.1821,3.6128,16.46,-291.22,304.15
438,104117658,-2.5679,-1.3135,3.5972,29.09,-327.99,318.54
439,104122661,-2.7417,-1.4556,3.5552,44.27,-364.33,333.11
440,104127657,-2.9409,-1.6313,3.4829,65.12,-407.13,350.49
441,104132658,-3.0918,-1.7539,3.4116,79.45,-435.24,361.59
442,104137658,-3.2988,-1.9199,3.3179,96.65,-468.90,375.12
443,104142658,-3.4956,-2.0835,3.2007,112.38,-501.22,387.80
444,104147688,-3.6758,-2.2656,3.0796,125.37,-532.01,399.88
445,104152658,-3.8208,-2.4521,2.9248,136.89,-560.73,411.34
446,104157658,-3.9058,-2.6377,2.7715,146.40,-587.80,422.56
447,104162660,-3.8955,-2.7642,2.6064,153.78,-612.80,433.29
448,104167656,-3.8496,-2.7710,2.4756,158.72,-635.18,442.74
449,104172657,-3.8867,-2.7080,2.2993,159.39,-655.06,450.00
450,104177658,-4.1035,-2.6709,2.1772,153.60,-672.93,453.78
451,104182657,-4.3799,-2.6411,1.7388,140.98,-689.63,454.21
452,104187657,-4.5889,-2.7573,1.5698,124.82,-708.11,451.04
453,104192656,-4.6060,-3.0874,1.6831,110.00,-724.63,446.65
454,104197660,-4.5171,-3.3477,1.5923,97.87,-735.91,441.89
455,104203293,-4.4536,-3.4585,1.2422,87.01,-745.30,434.51
456,104207658,-4.5142,-3.4126,1.0156,81.10,-751.52,427.32
457,104212658,-4.6689,-3.3501,0.6763,73.90,-758.78,414.63
458,104217658,-4.7422,-3.3486,0.3906,66.22,-765.43,397.74
459,104222658,-4.6499,-3.3540,0.2700,56.77,-770.30,376.83
460,104227657,-4.4858,-3.3779,0.2148,45.55,-772.56,352.50
461,104232658,-4.5479,-3.3833,0.0693,31.34,-771.59,325.18
462,104237657,-4.5591,-3.3535,-0.1606,11.59,-767.99,295.37
463,104242658,-4.3564,-3.2759,-0.4521,-14.63,-763.05,262.68
464,104247658,-4.1177,-3.2217,-0.7681,-45.73,-756.65,227.56
465,104252658,-3.8945,-3.1108,-1.1055,-79.27,-748.90,190.37
466,104257658,-3.8442,-3.0435,-1.4136,-112.68,-738.96,150.98
467,104262656,-3.7627,-2.9497,-1.5801,-142.56,-725.61,109.82
468,104267660,-3.5449,-2.8496,-1.8276,-166.28,-707.44,67.44
469,104272657,-3.3906,-2.7729,-2.0576,-182.07,-683.78,24.94
470,104278086,-3.2573,-2.6914,-2.3232,-189.51,-657.07,-16.22
471,104282658,-3.1128,-2.6284,-2.5083,-189.09,-630.18,-55.18
472,104288110,-2.8701,-2.5054,-2.6372,-180.85,-602.01,-91.22
473,104292658,-2.5986,-2.3560,-2.7749,-165.61,-570.91,-124.63
474,104297658,-2.3916,-2.1846,-2.8813,-144.57,-537.56,-154.45
475,104302658,-2.2065,-2.0322,-2.9253,-120.00,-503.17,-180.61
476,104307658,-2.0425,-1.9043,-2.9556,-94.63,-468.84,-202.44
477,104312658,-1.8486,-1.7749,-2.9614,-70.67,-434.63,-220.06
478,104317658,-1.6816,-1.6572,-2.9492,-49.57,-400.37,-233.66
479,104322658,-1.5166,-1.5337,-2.9224,-31.65,-365.98,-243.41
480,104327658,-1.3755,-1.4287,-2.8350,-17.07,-332.50,-249.82
481,104332658,-1.2368,-1.3247,-2.7803,-5.12,-299.88,-252.99
482,104337658,-1.0820,-1.2520,-2.6729,4.09,-268.35,-253.41
483,104342658,-0.9453,-1.1621,-2.5781,12.07,-237.99,-251.28
484,104347658,-0.7783,-1.1069,-2.4429,18.35,-209.63,-247.20
485,104352658,-0.6323,-1.0288,-2.3057,23.90,-182.26,-241.46
486,104357659,-0.5493,-0.9556,-2.1709,28.66,-156.71,-234.51
487,104362658,-0.3652,-0.8545,-2.1113,32.50,-133.23,-226.46
488,104367658,-0.2690,-0.7822,-2.0259,35.49,-110.91,-217.80
489,104372658,-0.2246,-0.6943,-1.9346,38.11,-89.76,-208.66
490,104377658,-0.1240,-0.6182,-1.8037,39.45,-70.18,-199.57
491,104382658,-0.1001,-0.5435,-1.7114,39.76,-51.52,-190.61
492,104387659,0.0410,-0.4575,-1.5806,38.84,-34.70,-182.13
493,104392658,0.0596,-0.4150,-1.4565,37.32,-19.51,-174.21
494,104397658,0.1313,-0.3018,-1.3452,37.20,-5.91,-167.44
495,104402658,0.1401,-0.3057,-1.2163,37.44,6.65,-160.85
496,104407658,0.1680,-0.2715,-1.1270,38.23,17.26,-154.33
497,104412658,0.2061,-0.2827,-1.0190,38.23,26.95,-148.29
498,104417658,0.1973,-0.2520,-0.9673,37.80,35.91,-142.56
499,104422824,0.2236,-0.2261,-0.9160,36.34,43.66,-137.44
500,104427658,0.2046,-0.2266,-0.8525,34.39,50.37,-132.38
501,104432658,0.1860,-0.1919,-0.8105,32.32,56.22,-127.62
502,104437658,0.2314,-0.1631,-0.7847,29.27,61.40,-123.17
503,104442664,0.2393,-0.1689,-0.7222,25.30,65.61,-119.15
504,104447660,0.2529,-0.1553,-0.6660,20.91,68.96,-115.06
505,104452658,0.2715,-0.1567,-0.6318,15.49,72.07,-111.22
506,104457658,0.2817,-0.1572,-0.6128,9.70,75.18,-107.13
507,104462658,0.3130,-0.1587,-0.5522,3.78,77.32,-103.05
508,104468131,0.3389,-0.1567,-0.5000,-2.13,78.96,-98.84
509,104472658,0.3608,-0.1572,-0.4829,-6.89,80.24,-95.49
510,104477657,0.3984,-0.1587,-0.4351,-12.93,81.16,-90.91
511,104482658,0.3994,-0.1714,-0.3911,-18.72,81.71,-86.10
512,104487656,0.4341,-0.1543,-0.3691,-23.96,82.32,-81.22
513,104492657,0.4868,-0.1567,-0.3232,-29.27,82.07,-76.34
514,104497658,0.5068,-0.1602,-0.2817,-34.21,81.83,-71.22
515,104502658,0.5352,-0.1562,-0.2593,-38.29,81.10,-65.98
516,104507658,0.5625,-0.1699,-0.2188,-41.65,80.12,-60.73
517,104512658,0.5747,-0.1934,-0.1816,-44.27,79.15,-55.49
518,104517658,0.5708,-0.2061,-0.1533,-45.79,77.80,-49.94
519,104522658,0.5620,-0.2153,-0.1270,-46.95,76.40,-44.57
520,104527658,0.5591,-0.2227,-0.1025,-47.44,74.63,-39.33
521,104532972,0.5513,-0.2285,-0.0723,-47.20,72.50,-33.48
522,104537658,0.5615,-0.2261,-0.0508,-46.89,70.98,-29.57
523,104542657,0.5688,-0.2363,-0.0391,-46.10,69.02,-25.06
524,104547658,0.5776,-0.2500,-0.0049,-45.12,66.65,-19.88
525,104552658,0.5850,-0.2603,0.0166,-44.39,65.30,-16.65
526,104557658,0.6069,-0.2754,0.0464,-43.11,62.99,-11.95
527,104562658,0.6191,-0.2812,0.0537,-42.20,61.59,-9.09
528,104567658,0.6357,-0.2886,0.0864,-40.43,59.57,-5.18
529,104572658,0.6479,-0.2964,0.0986,-38.84,57.80,-2.20
530,104577658,0.6519,-0.3037,0.1240,-37.20,56.04,0.55
531,104582658,0.6631,-0.3125,0.1475,-35.98,54.70,2.68
532,104587658,0.6826,-0.3286,0.1675,-34.51,53.29,4.94
533,104593010,0.6953,-0.3389,0.1777,-33.05,51.22,7.62
534,104597658,0.7119,-0.3447,0.1953,-32.32,49.94,9.21
535,104602658,0.7168,-0.3467,0.2095,-31.83,47.80,11.46
536,104607658,0.7314,-0.3789,0.2329,-32.01,46.22,12.93
537,104612817,0.7681,-0.3931,0.2466,-32.56,44.57,15.00
538,104617658,0.7856,-0.3945,0.2480,-33.29,42.93,16.77
539,104622658,0.7915,-0.4150,0.2671,-34.33,41.28,18.54
540,104627658,0.8003,-0.4302,0.2739,-35.67,39.76,20.18
541,104632658,0.8184,-0.4458,0.2832,-37.44,38.17,21.71
542,104637658,0.8384,-0.4575,0.2998,-39.88,36.22,23.29
543,104642658,0.8511,-0.4722,0.3105,-41.89,35.12,24.27
544,104647658,0.8574,-0.4863,0.3154,-44.63,33.96,25.55
545,104652658,0.8604,-0.4927,0.3257,-47.74,32.74,26.71
546,104657658,0.8706,-0.5068,0.3267,-52.01,31.16,28.17
547,104662658,0.8691,-0.5107,0.3306,-55.18,30.00,29.09
548,104667658,0.8662,-0.5229,0.3374,-60.06,28.35,30.49
549,104672658,0.8628,-0.5283,0.3384,-63.23,27.56,31.28
550,104677658,0.8618,-0.5405,0.3442,-67.01,26.34,32.50
551,104682658,0.8691,-0.5562,0.3521,-70.55,25.12,33.72
552,104687658,0.8691,-0.5742,0.3574,-73.29,24.21,35.00
553,104692658,0.8726,-0.5854,0.3545,-75.24,23.11,36.34
554,104697659,0.8765,-0.6025,0.3633,-76.46,22.26,37.68
555,104702657,0.8774,-0.6123,0.3633,-76.83,21.46,38.96
556,104707658,0.8779,-0.6289,0.3657,-76.16,20.49,40.55
557,104712658,0.8804,-0.6348,0.3716,-75.12,19.94,41.59
558,104717658,0.8740,-0.6494,0.3838,-73.60,19.33,42.74
559,104722657,0.8745,-0.6509,0.3804,-71.40,18.84,43.66
560,104727658,0.8760,-0.6489,0.3823,-69.15,18.41,44.57
561,104733071,0.8726,-0.6455,0.3721,-66.04,17.68,45.37
562,104737658,0.8647,-0.6362,0.3740,-63.90,17.20,45.55
563,104742657,0.8545,-0.6382,0.3721,-61.22,16.59,45.79
564,104747656,0.8423,-0.6406,0.3633,-58.66,15.91,45.91
565,104752656,0.8438,-0.6367,0.3560,-56.16,15.49,46.04
566,104757895,0.8320,-0.6470,0.3589,-53.78,14.51,46.04
567,104762658,0.8271,-0.6475,0.3569,-51.52,13.72,46.04
568,104767658,0.8257,-0.6499,0.3491,-49.45,12.87,46.04
569,104772658,0.8149,-0.6543,0.3447,-47.38,12.01,45.98
570,104777657,0.8086,-0.6562,0.3374,-45.37,11.10,45.91
571,104782658,0.8047,-0.6602,0.3369,-43.54,10.06,45.67
572,104787656,0.7964,-0.6621,0.3330,-41.77,9.09,45.55
573,104792660,0.7876,-0.6553,0.3257,-40.18,7.99,45.30
574,104797658,0.7725,-0.6528,0.3213,-38.60,6.95,44.82
575,104802658,0.7651,-0.6460,0.3076,-37.20,5.85,44.33
576,104807658,0.7529,-0.6455,0.2896,-35.98,4.51,43.29
577,104812658,0.7446,-0.6470,0.2808,-35.61,3.72,42.56
578,104817658,0.7388,-0.6426,0.2778,-35.30,2.68,41.59
579,104822658,0.7378,-0.6396,0.2700,-35.61,1.65,40.55
580,104827658,0.7329,-0.6421,0.2671,-36.59,0.91,39.27
581,104832658,0.7324,-0.6465,0.2671,-37.80,0.12,37.93
582,104837658,0.7300,-0.6631,0.2695,-39.39,-0.37,36.65
583,104842658,0.7231,-0.6729,0.2700,-41.28,-0.91,35.49
584,104847658,0.7173,-0.6904,0.2637,-42.99,-1.34,34.39
585,104852660,0.7202,-0.6943,0.2612,-44.51,-1.71,33.29
586,104857658,0.7212,-0.7085,0.2500,-45.55,-2.13,32.26
587,104862658,0.7305,-0.7163,0.2451,-46.16,-2.62,31.40
588,104867658,0.7295,-0.7197,0.2363,-46.40,-3.05,30.67
589,104872658,0.7300,-0.7261,0.2271,-46.22,-3.54,30.06
590,104877658,0.7222,-0.7310,0.2207,-45.43,-4.09,29.51
591,104882659,0.7266,-0.7251,0.2144,-44.21,-4.70,28.84
592,104887658,0.7246,-0.7261,0.2012,-42.74,-5.30,28.29
593,104892659,0.7271,-0.7261,0.2026,-40.91,-5.85,27.80
594,104897658,0.7188,-0.7227,0.1958,-39.09,-6.40,27.26
595,104903256,0.7109,-0.7236,0.1914,-37.26,-7.07,26.65
596,104907658,0.7080,-0.7202,0.1855,-35.49,-7.62,26.22
597,104912658,0.6953,-0.7212,0.1885,-33.78,-8.05,25.67
598,104917658,0.6875,-0.7217,0.1855,-32.32,-8.48,25.12
599,104922658,0.6836,-0.7236,0.1895,-30.98,-8.72,24.70
600,104927658,0.6836,-0.7280,0.1777,-29.94,-9.09,24.39
601,104932658,0.6865,-0.7300,0.1812,-29.02,-9.39,24.09
602,104937658,0.6904,-0.7300,0.1821,-28.23,-9.57,23.72
603,104942658,0.6987,-0.7266,0.1763,-27.87,-9.70,23.48
604,104947658,0.7031,-0.7275,0.1724,-27.56,-9.88,23.17
605,104952659,0.7070,-0.7329,0.1689,-27.26,-10.00,23.11
606,104957658,0.7109,-0.7373,0.1680,-27.32,-10.00,22.93
607,104962658,0.7212,-0.7471,0.1660,-27.56,-10.18,23.11
608,104967658,0.7251,-0.7524,0.1621,-27.87,-10.49,23.29
609,104972658,0.7310,-0.7559,0.1504,-28.66,-10.73,23.48
610,104977658,0.7383,-0.7500,0.1475,-29.51,-11.16,23.72
611,104982835,0.7432,-0.7471,0.1362,-30.67,-11.77,24.09
612,104987658,0.7388,-0.7485,0.1382,-32.01,-12.20,24.45
613,104992662,0.7393,-0.7407,0.1338,-33.05,-12.80,24.82
614,104997658,0.7329,-0.7358,0.1279,-34.21,-13.29,25.18
615,105002659,0.7285,-0.7339,0.1250,-35.12,-13.90,25.55
616,105007658,0.7280,-0.7354,0.1187,-35.55,-14.39,25.98
617,105012658,0.7158,-0.7300,0.1089,-35.85,-14.94,26.34
618,105017658,0.7129,-0.7271,0.1025,-35.67,-15.24,26.52
619,105023140,0.7085,-0.7231,0.0952,-35.30,-15.85,26.77
620,105027658,0.7012,-0.7222,0.0981,-34.63,-16.40,27.01
621,105033138,0.6919,-0.7207,0.0854,-33.84,-16.89,27.20
622,105037658,0.6826,-0.7163,0.0869,-32.99,-17.26,27.32
623,105042658,0.6816,-0.7197,0.0903,-32.26,-17.68,27.44
624,105047658,0.6797,-0.7188,0.0869,-31.59,-18.11,27.38
625,105052658,0.6660,-0.7236,0.1035,-31.04,-18.11,27.26
626,105057658,0.6704,-0.7227,0.0923,-30.61,-18.48,27.20
627,105062658,0.6694,-0.7266,0.0962,-30.12,-18.60,27.07
628,105067660,0.6670,-0.7280,0.0918,-30.00,-18.96,26.89
629,105072658,0.6567,-0.7261,0.0879,-29.82,-19.09,26.65
630,105077658,0.6577,-0.7222,0.0820,-29.70,-19.21,26.34
631,105083116,0.6587,-0.7188,0.0752,-29.70,-19.39,26.10
632,105087660,0.6616,-0.7158,0.0698,-29.63,-19.51,25.73
633,105092657,0.6582,-0.7153,0.0635,-29.70,-19.63,25.30
634,105097657,0.6528,-0.7095,0.0552,-29.51,-19.70,25.06
635,105102658,0.6499,-0.6934,0.0439,-29.51,-19.70,24.70
636,105107659,0.6465,-0.6943,0.0483,-29.45,-19.76,24.39
637,105112658,0.6479,-0.6973,0.0435,-29.45,-19.76,24.21
638,105117658,0.6426,-0.6958,0.0400,-29.33,-19.51,23.96
639,105122660,0.6406,-0.6914,0.0410,-28.90,-19.33,23.72
640,105128070,0.6401,-0.6836,0.0371,-28.54,-19.09,23.78
641,105132658,0.6396,-0.6714,0.0400,-28.11,-18.78,23.60
642,105137658,0.6509,-0.6689,0.0415,-27.38,-18.29,23.54
643,105142665,0.6567,-0.6606,0.0269,-26.40,-17.80,23.48
644,105147660,0.6636,-0.6660,0.0308,-25.79,-17.26,23.41
645,105152660,0.6782,-0.6670,0.0278,-25.00,-16.89,23.41
646,105157659,0.6821,-0.6738,0.0205,-24.21,-16.40,23.48
647,105162658,0.6831,-0.6777,0.0254,-23.66,-16.16,23.60
648,105167658,0.6899,-0.6875,0.0176,-23.29,-15.61,23.90
649,105173138,0.6943,-0.6909,0.0229,-23.05,-15.30,24.21
650,105177658,0.7002,-0.6924,0.0303,-22.93,-15.06,24.51
651,105182658,0.7036,-0.6973,0.0303,-23.05,-14.70,24.94
652,105187658,0.7031,-0.7056,0.0405,-23.29,-14.57,25.12
653,105192658,0.6987,-0.7173,0.0439,-23.60,-14.27,25.73
654,105197661,0.7002,-0.7275,0.0488,-23.66,-14.21,26.16
655,105202658,0.7031,-0.7446,0.0562,-23.84,-13.78,26.89
656,105207659,0.7036,-0.7524,0.0654,-23.78,-13.90,27.38
657,105212658,0.7095,-0.7676,0.0723,-23.41,-13.78,28.11
658,105217658,0.7148,-0.7744,0.0811,-22.93,-13.60,28.72
659,105222658,0.7188,-0.7778,0.0884,-22.13,-13.60,29.45
660,105227658,0.7290,-0.7896,0.1040,-21.22,-13.60,30.12
661,105233133,0.7402,-0.8013,0.1079,-19.88,-13.72,31.04
662,105237658,0.7471,-0.8081,0.1104,-19.02,-14.02,31.65
663,105242658,0.7544,-0.8096,0.1074,-17.99,-14.15,32.38
664,105247658,0.7607,-0.8096,0.1128,-17.13,-14.63,33.29
665,105252658,0.7666,-0.8081,0.1201,-17.01,-14.76,33.72
666,105257658,0.7710,-0.8027,0.1240,-17.20,-15.24,34.21
667,105262660,0.7729,-0.8008,0.1294,-18.05,-15.79,34.63
668,105267658,0.7754,-0.7920,0.1216,-19.39,-16.28,35.06
669,105273070,0.7788,-0.7808,0.1201,-21.89,-16.83,35.30
670,105277782,0.7729,-0.7666,0.1133,-23.84,-17.26,35.43
671,105282657,0.7798,-0.7578,0.1108,-26.46,-17.80,35.37
672,105287658,0.7837,-0.7490,0.1060,-29.02,-18.23,35.37
673,105292658,0.7915,-0.7505,0.0972,-31.46,-18.60,35.30
674,105297658,0.7993,-0.7549,0.0923,-33.66,-19.09,35.30
675,105302658,0.8105,-0.7720,0.0854,-35.37,-19.57,35.55
676,105307659,0.8262,-0.7891,0.0811,-36.59,-20.00,35.91
677,105312670,0.8452,-0.8071,0.0796,-37.44,-20.24,36.40
678,105317658,0.8643,-0.8237,0.0830,-37.87,-20.37,37.01
679,105322658,0.8784,-0.8340,0.0835,-37.99,-20.49,37.62
680,105328051,0.8979,-0.8428,0.0815,-37.93,-20.30,38.54
681,105332658,0.9082,-0.8442,0.0918,-37.74,-20.00,39.27
682,105337658,0.9194,-0.8418,0.0957,-37.56,-19.57,39.88
683,105342658,0.9229,-0.8335,0.0879,-37.07,-19.02,40.55
684,105347658,0.9238,-0.8247,0.0918,-36.83,-18.11,41.10
685,105352658,0.9321,-0.8110,0.0811,-36.34,-17.20,41.59
686,105357658,0.9268,-0.8086,0.0874,-35.91,-16.16,41.95
687,105362658,0.9062,-0.7979,0.0918,-35.67,-15.00,42.20
688,105367658,0.9146,-0.7856,0.0825,-35.55,-13.90,42.26
689,105372658,0.9214,-0.7822,0.0767,-35.24,-12.62,42.26
690,105377659,0.9102,-0.7808,0.0645,-34.63,-11.46,41.89
691,105382656,0.8857,-0.7617,0.0449,-33.48,-10.49,41.77
692,105387658,0.8682,-0.7485,0.0464,-31.89,-9.33,41.40
693,105392658,0.8555,-0.7388,0.0356,-29.94,-8.54,41.04
694,105397658,0.8457,-0.7290,0.0312,-27.80,-7.56,40.61
695,105402658,0.8403,-0.7222,0.0308,-25.55,-6.71,39.88
696,105408101,0.8252,-0.7119,0.0249,-22.50,-5.73,39.09
697,105412658,0.8174,-0.7095,0.0249,-20.61,-5.18,38.41
698,105418045,0.8052,-0.7036,0.0273,-18.11,-4.33,37.50
699,105422658,0.7988,-0.7085,0.0293,-15.79,-3.60,36.52
700,105427658,0.7910,-0.7109,0.0361,-13.23,-3.05,35.49
701,105433119,0.7793,-0.7104,0.0249,-10.43,-2.13,34.09
702,105437658,0.7725,-0.7095,0.0210,-8.60,-1.65,33.05
703,105442660,0.7686,-0.7041,0.0205,-6.34,-1.10,31.59
704,105447658,0.7651,-0.7012,0.0244,-4.39,-0.43,30.12
705,105452658,0.7632,-0.6992,0.0308,-2.68,0.12,28.54
706,105458160,0.7495,-0.6963,0.0278,-0.98,0.61,26.89
707,105462658,0.7441,-0.7041,0.0400,0.61,1.22,25.18
708,105467660,0.7314,-0.7100,0.0366,2.01,1.71,23.48
709,105472658,0.7212,-0.7104,0.0396,3.48,2.26,21.65
710,105477658,0.7119,-0.7100,0.0474,5.06,2.50,19.82
711,105482659,0.7051,-0.7100,0.0454,6.71,2.87,17.87
712,105487658,0.6963,-0.7095,0.0508,8.35,3.29,15.79
713,105493091,0.6880,-0.7085,0.0547,9.88,3.48,13.78
714,105497658,0.6831,-0.7026,0.0630,11.34,3.54,11.71
715,105503052,0.6802,-0.7109,0.0596,12.74,3.60,9.63
716,105507658,0.6738,-0.7173,0.0635,14.02,3.78,7.62
717,105512660,0.6689,-0.7290,0.0566,15.00,3.60,5.73
718,105517658,0.6743,-0.7427,0.0703,15.85,3.54,3.90
719,105522657,0.6704,-0.7520,0.0654,16.83,3.41,2.01
720,105527658,0.6724,-0.7549,0.0630,17.68,3.48,0.18
721,105533145,0.6694,-0.7554,0.0576,18.41,3.41,-1.59
722,105537658,0.6704,-0.7563,0.0601,19.21,3.29,-3.41
723,105542658,0.6665,-0.7549,0.0566,19.82,3.35,-5.18
724,105548098,0.6675,-0.7568,0.0596,20.18,3.05,-6.89
725,105552658,0.6597,-0.7588,0.0566,20.49,2.99,-8.41
726,105557658,0.6592,-0.7563,0.0576,20.49,2.87,-9.94
727,105562658,0.6548,-0.7573,0.0625,20.30,2.68,-11.34
728,105567659,0.6494,-0.7534,0.0562,20.06,2.56,-12.56
729,105572658,0.6499,-0.7495,0.0562,19.51,2.32,-13.66
730,105577658,0.6416,-0.7397,0.0601,18.96,1.95,-14.76
731,105582658,0.6382,-0.7344,0.0610,18.41,1.83,-15.73
732,105587658,0.6348,-0.7324,0.0596,17.80,1.52,-16.59
733,105592980,0.6318,-0.7256,0.0625,17.32,1.28,-17.38
734,105597658,0.6309,-0.7295,0.0601,17.20,0.85,-17.87
735,105602657,0.6372,-0.7324,0.0557,17.32,0.43,-18.35
736,105607658,0.6401,-0.7373,0.0557,17.68,-0.06,-18.54
737,105612660,0.6514,-0.7358,0.0488,18.48,-0.49,-18.60
738,105617659,0.6592,-0.7378,0.0566,19.51,-0.98,-18.54
739,105622658,0.6694,-0.7407,0.0547,20.73,-1.46,-18.35
740,105627658,0.6680,-0.7485,0.0518,22.13,-2.13,-18.23
741,105632658,0.6758,-0.7515,0.0532,23.72,-2.87,-17.99
742,105637658,0.6904,-0.7559,0.0518,25.12,-3.23,-17.50
743,105643058,0.6982,-0.7661,0.0503,26.52,-3.72,-17.20
744,105647658,0.7070,-0.7646,0.0527,27.74,-4.33,-16.65
745,105652658,0.7139,-0.7681,0.0474,28.48,-4.82,-16.04
746,105657657,0.7158,-0.7681,0.0527,28.90,-5.55,-15.43
747,105662659,0.7183,-0.7676,0.0532,29.15,-5.98,-14.76
748,105667657,0.7217,-0.7651,0.0552,29.02,-6.71,-13.84
749,105672658,0.7222,-0.7637,0.0493,28.60,-7.38,-13.11
750,105677711,0.7173,-0.7632,0.0566,27.99,-7.87,-12.26
751,105682656,0.7095,-0.7583,0.0562,27.26,-8.41,-11.46
752,105687658,0.7114,-0.7539,0.0547,26.46,-8.96,-10.55
753,105692657,0.7095,-0.7520,0.0566,25.67,-9.39,-9.76
754,105697658,0.7070,-0.7422,0.0522,25.06,-9.88,-8.90
755,105702658,0.7036,-0.7314,0.0469,24.70,-10.18,-8.29
756,105707658,0.7031,-0.7280,0.0430,24.21,-10.49,-7.44
757,105713006,0.7017,-0.7261,0.0439,23.78,-10.73,-6.77
758,105717658,0.6992,-0.7202,0.0430,23.60,-10.85,-6.22
759,105722966,0.6982,-0.7197,0.0410,23.35,-10.98,-5.67
760,105727658,0.7007,-0.7163,0.0532,23.05,-10.85,-5.18
761,105733203,0.7017,-0.7139,0.0537,22.62,-10.67,-4.76
762,105737658,0.6973,-0.7100,0.0552,22.38,-10.37,-4.70
763,105742662,0.6943,-0.7061,0.0659,22.13,-9.94,-4.57
764,105747658,0.6895,-0.7061,0.0522,22.01,-9.63,-4.57
765,105753035,0.6865,-0.6938,0.0635,21.89,-9.09,-4.76
766,105757658,0.6855,-0.6909,0.0596,21.83,-8.72,-4.94
767,105763014,0.6851,-0.6816,0.0557,21.95,-8.29,-5.30
768,105767658,0.6851,-0.6772,0.0552,22.13,-7.99,-5.67
769,105772659,0.6846,-0.6685,0.0479,22.38,-7.68,-6.16
770,105777658,0.6826,-0.6694,0.0547,22.87,-7.26,-6.89
771,105782659,0.6860,-0.6685,0.0469,23.17,-6.95,-7.56
772,105787658,0.6860,-0.6650,0.0420,23.66,-6.59,-8.11
773,105792658,0.6914,-0.6660,0.0391,23.90,-6.22,-8.72
774,105797658,0.7036,-0.6719,0.0356,24.02,-6.04,-9.39
775,105802658,0.7051,-0.6758,0.0288,23.96,-5.79,-9.82
776,105808047,0.7109,-0.6792,0.0312,23.72,-5.55,-10.49
777,105812658,0.7100,-0.6831,0.0381,23.60,-5.30,-10.98
778,105817658,0.7148,-0.6948,0.0439,23.11,-5.06,-11.28
779,105822659,0.7212,-0.7012,0.0420,22.87,-5.06,-11.77
780,105827658,0.7285,-0.7158,0.0503,22.93,-4.88,-12.01
781,105832658,0.7290,-0.7280,0.0532,23.23,-4.76,-12.20
782,105837658,0.7271,-0.7383,0.0547,23.60,-4.70,-12.44
783,105842660,0.7329,-0.7432,0.0586,23.96,-4.76,-12.68
784,105847658,0.7334,-0.7402,0.0591,24.45,-4.82,-12.99
785,105852660,0.7349,-0.7446,0.0566,24.76,-4.88,-13.41
786,105857658,0.7275,-0.7437,0.0562,25.12,-5.06,-13.90
787,105862658,0.7310,-0.7451,0.0552,25.24,-5.18,-14.45
788,105868102,0.7275,-0.7476,0.0562,25.18,-5.37,-15.24
789,105872658,0.7266,-0.7534,0.0688,24.88,-5.49,-15.73
790,105877657,0.7192,-0.7534,0.0693,24.63,-5.73,-16.59
791,105882658,0.7212,-0.7588,0.0684,24.02,-5.85,-17.38
792,105887658,0.7178,-0.7612,0.0630,23.48,-6.04,-18.11
793,105892657,0.7100,-0.7598,0.0562,22.87,-6.22,-18.96
794,105897657,0.7139,-0.7603,0.0571,22.50,-6.34,-19.76
795,105902658,0.7085,-0.7534,0.0581,21.83,-6.65,-20.49
796,105907658,0.7109,-0.7603,0.0522,21.40,-6.71,-21.28
797,105912658,0.7070,-0.7593,0.0596,21.16,-6.95,-21.77
798,105917658,0.7012,-0.7612,0.0576,20.98,-6.95,-22.32
799,105923104,0.6968,-0.7622,0.0532,20.67,-7.20,-22.99
800,105927658,0.6929,-0.7627,0.0464,20.49,-7.38,-23.35
801,105932658,0.6919,-0.7607,0.0439,20.06,-7.62,-23.90
802,105937658,0.6895,-0.7520,0.0356,19.15,-7.93,-24.63
803,105942658,0.6846,-0.7451,0.0269,17.20,-8.17,-25.55
804,105947658,0.6782,-0.7363,0.0366,15.43,-8.60,-26.22
805,105952658,0.6665,-0.7295,0.0249,12.44,-8.78,-27.38
806,105958146,0.6665,-0.7168,0.0195,7.93,-9.09,-28.90
807,105962658,0.6660,-0.7148,0.0103,4.45,-9.33,-29.94
808,105967986,0.6484,-0.7026,0.0073,-1.65,-9.45,-31.59
809,105972658,0.6318,-0.6953,0.0093,-5.98,-9.51,-32.74
810,105977658,0.6226,-0.6797,0.0039,-11.95,-9.33,-34.27
811,105982658,0.6104,-0.6743,0.0024,-18.35,-9.27,-36.04
812,105987658,0.6235,-0.6650,-0.0034,-24.94,-8.84,-37.74
813,105992658,0.6323,-0.6592,-0.0186,-31.46,-8.35,-39.51
814,105997657,0.6143,-0.6489,-0.0161,-37.56,-7.87,-41.22
815,106002778,0.5981,-0.6377,-0.0352,-43.11,-7.38,-43.05
816,106007658,0.5825,-0.6196,-0.0239,-48.17,-6.52,-44.82
817,106012658,0.5723,-0.6255,-0.0249,-52.56,-5.85,-46.65
818,106017658,0.5635,-0.5869,-0.0278,-56.40,-4.82,-48.41
819,106022656,0.5571,-0.5850,-0.0464,-60.00,-3.90,-50.61
820,106027658,0.5400,-0.5835,-0.0449,-63.29,-2.74,-52.56
821,106032656,0.5283,-0.5713,-0.0488,-66.52,-1.71,-54.45
822,106037657,0.5259,-0.5532,-0.0537,-69.88,-0.61,-56.16
823,106042674,0.5283,-0.5186,-0.0703,-73.11,0.73,-58.05
824,106047805,0.5117,-0.5151,-0.0586,-76.34,2.01,-59.63
825,106052656,0.5117,-0.4902,-0.0654,-78.84,3.60,-61.28
826,106057932,0.4829,-0.4761,-0.0366,-81.46,4.88,-62.87
827,106062658,0.4556,-0.5029,-0.0415,-83.60,6.40,-64.39
828,106068142,0.4131,-0.5806,-0.0464,-84.94,7.74,-65.85
829,106072658,0.3506,-0.5391,-0.1289,-86.10,8.11,-66.28
830,106077658,0.3940,-0.4507,-0.0425,-88.11,8.23,-67.50
831,106082658,0.4482,-0.4331,0.0308,-89.76,9.21,-69.09
832,106087658,0.4644,-0.4639,0.0308,-91.04,10.85,-70.79
833,106092658,0.4619,-0.5000,-0.0220,-93.17,12.26,-72.26
834,106097658,0.4941,-0.4390,-0.0215,-96.71,12.93,-74.02
835,106102658,0.5229,-0.4487,-0.0054,-100.49,13.29,-75.98
836,106107661,0.5127,-0.4634,-0.0259,-104.21,13.17,-78.05
837,106112661,0.5029,-0.4829,-0.0317,-107.62,13.72,-79.76
838,106117658,0.4595,-0.4741,-0.0684,-110.49,13.96,-81.34
839,106122661,0.4639,-0.4653,-0.0518,-113.11,13.90,-82.99
840,106127657,0.4824,-0.4658,-0.0503,-115.37,13.84,-84.63
841,106132658,0.4937,-0.4614,-0.0679,-116.95,14.33,-86.34
842,106137658,0.5068,-0.4707,-0.0347,-117.80,14.76,-87.99
843,106142658,0.5166,-0.4722,-0.0186,-117.68,15.06,-89.39
844,106147658,0.5234,-0.4678,-0.0044,-116.71,15.55,-90.73
845,106152658,0.5234,-0.4600,-0.0322,-114.70,16.89,-92.07
846,106158092,0.5469,-0.4912,0.0332,-111.89,17.80,-92.99
847,106162658,0.5410,-0.5659,0.1313,-108.11,18.41,-93.54
848,106167658,0.5605,-0.5898,0.0322,-105.18,20.98,-93.41
849,106172656,0.5654,-0.5957,0.0425,-102.44,21.46,-93.05
850,106177656,0.5488,-0.6338,-0.0171,-99.70,22.01,-92.44
851,106182656,0.5249,-0.6113,-0.2031,-97.87,22.07,-91.52
852,106187657,0.5010,-0.5845,-0.0781,-97.20,21.28,-90.30
853,106192658,0.5068,-0.5347,-0.0923,-96.22,21.04,-89.15
854,106197660,0.5469,-0.5342,-0.1211,-96.10,20.30,-88.05
855,106202657,0.6113,-0.5640,-0.0479,-95.61,21.77,-86.46
856,106207658,0.6821,-0.5630,-0.0371,-94.94,21.16,-84.82
857,106213016,0.7622,-0.5532,-0.2632,-94.82,21.59,-83.11
858,106217658,0.8037,-0.5122,-0.3545,-94.76,23.11,-81.65
859,106222658,0.8188,-0.4858,-0.1055,-94.57,20.55,-80.24
860,106227658,0.8364,-0.4985,-0.0679,-94.51,16.40,-78.60
861,106232658,0.8608,-0.4429,-0.4150,-94.63,17.20,-76.95
862,106237658,0.8682,-0.4165,-0.4414,-95.61,18.29,-75.91
863,106242658,0.9326,-0.4214,-0.0869,-95.67,15.49,-74.45
864,106247658,0.9546,-0.4888,-0.1377,-95.61,12.32,-72.68
865,106252664,0.9946,-0.4976,-0.4385,-95.73,13.23,-70.55
866,106257658,0.9907,-0.5332,-0.2856,-96.16,13.84,-68.48
867,106262657,0.9961,-0.5112,-0.1216,-96.10,11.04,-65.98
868,106267724,1.0225,-0.4585,-0.2764,-96.83,9.76,-63.90
869,106272657,1.0093,-0.4546,-0.4038,-97.87,11.52,-61.65
870,106277820,1.0239,-0.4004,-0.2271,-98.84,10.43,-59.33
871,106282658,1.0396,-0.3960,-0.1636,-100.43,8.41,-57.20
872,106287658,1.0181,-0.4141,-0.3931,-102.32,9.33,-55.00
873,106292658,1.0352,-0.3413,-0.3438,-104.51,9.88,-52.80
874,106297658,1.0444,-0.2632,-0.2500,-107.74,8.78,-51.10
875,106302658,1.0312,-0.2681,-0.2983,-112.01,7.56,-49.76
876,106307658,1.0503,-0.2847,-0.3594,-115.98,8.90,-47.99
877,106312658,1.0420,-0.2690,-0.3105,-119.94,8.84,-46.40
878,106317658,1.0312,-0.2627,-0.2744,-123.78,7.56,-44.82
879,106322658,1.0200,-0.2451,-0.3677,-127.44,7.50,-43.41
880,106327658,1.0342,-0.2456,-0.3623,-130.67,7.56,-42.01
881,106332658,1.0620,-0.2529,-0.2944,-133.72,6.77,-40.49
882,106337658,1.0571,-0.2017,-0.3774,-136.65,6.52,-39.15
883,106342658,1.1050,-0.2354,-0.3330,-139.51,6.59,-38.05
884,106347658,1.1401,-0.2104,-0.2578,-141.04,6.34,-36.52
885,106352658,1.1768,-0.1855,-0.2778,-141.95,5.18,-35.24
886,106357658,1.1802,-0.1455,-0.3555,-142.07,5.30,-34.02
887,106362658,1.1670,-0.1074,-0.3213,-141.22,5.98,-33.17
888,106367658,1.1475,-0.0698,-0.2485,-139.33,5.98,-32.32
889,106373140,1.1265,-0.1143,-0.2642,-136.83,6.16,-31.40
890,106377658,1.1450,-0.0586,-0.2832,-133.60,7.26,-30.37
891,106382658,1.1797,-0.0522,-0.2021,-130.18,8.54,-29.57
892,106387658,1.1763,-0.0620,-0.1860,-126.52,10.00,-28.72
893,106392658,1.1572,-0.0186,-0.2056,-123.78,12.38,-27.68
894,106397658,1.1875,0.0713,-0.0723,-122.56,14.76,-26.77
895,106402658,1.2295,0.0825,-0.0181,-121.77,17.87,-25.91
896,106407658,1.2744,0.0771,-0.0566,-121.65,20.49,-24.88
897,106412658,1.2676,0.0591,0.0044,-122.01,24.63,-23.60
898,106417660,1.2725,0.0454,0.0249,-122.68,28.41,-21.52
899,106422658,1.2749,0.1025,-0.0190,-123.29,31.83,-19.21
900,106427658,1.2646,0.1211,0.0000,-123.90,35.61,-16.89
901,106432658,1.2671,0.1187,0.0063,-124.27,38.78,-14.51
902,106437954,1.2759,0.0859,-0.0376,-124.57,42.26,-11.59
903,106442658,1.2773,0.0928,-0.0815,-123.96,44.39,-9.63
904,106447658,1.2861,0.0981,-0.0708,-122.50,45.91,-7.20
905,106452662,1.2886,0.1069,-0.0576,-120.30,47.44,-4.94
906,106458143,1.2754,0.1147,-0.0625,-116.65,49.76,-2.56
907,106462658,1.2568,0.1221,-0.0669,-113.48,51.16,-1.22
908,106467658,1.2432,0.1157,-0.0986,-108.60,52.38,0.12
909,106472658,1.2114,0.1069,-0.1206,-102.80,53.66,1.40
910,106477656,1.1782,0.0986,-0.1274,-96.46,54.57,2.38
911,106482656,1.1597,0.0918,-0.1338,-90.12,55.06,2.99
912,106487658,1.1240,0.0874,-0.1509,-83.84,55.73,3.35
913,106492658,1.0874,0.0732,-0.1470,-78.11,56.46,3.54
914,106497658,1.0630,0.0596,-0.1328,-73.35,56.77,3.48
915,106502658,1.0474,0.0488,-0.1475,-69.33,57.20,2.99
916,106507658,1.0259,0.0513,-0.1494,-66.10,57.44,2.38
917,106512658,1.0010,0.0371,-0.1460,-63.78,57.62,1.65
918,106517658,0.9893,0.0298,-0.1484,-61.77,57.38,0.49
919,106522658,0.9707,0.0264,-0.1602,-60.67,57.26,-0.24
920,106527903,0.9673,0.0156,-0.1704,-59.51,57.13,-1.77
921,106532658,0.9590,0.0278,-0.1709,-58.66,57.07,-2.68
922,106538117,0.9526,0.0269,-0.1650,-57.56,56.52,-4.39
923,106542658,0.9468,0.0347,-0.1934,-56.65,56.22,-5.30
924,106547658,0.9570,0.0308,-0.2002,-55.43,55.73,-6.77
925,106552658,0.9502,0.0298,-0.1831,-54.09,55.06,-8.05
926,106557953,0.9487,0.0376,-0.1724,-52.50,54.45,-9.70
927,106562658,0.9512,0.0293,-0.1782,-51.40,54.09,-10.73
928,106567951,0.9595,0.0356,-0.1719,-49.51,53.96,-11.83
929,106572658,0.9653,0.0469,-0.1572,-48.23,53.17,-12.56
930,106577939,0.9614,0.0645,-0.1392,-46.04,53.41,-13.17
931,106582658,0.9604,0.0669,-0.1333,-44.51,53.23,-13.41
932,106587951,0.9595,0.0649,-0.1104,-41.71,52.99,-13.48
933,106592658,0.9688,0.0796,-0.1377,-39.82,53.11,-13.35
934,106597658,0.9731,0.0854,-0.1123,-37.13,52.99,-13.17
935,106602658,0.9785,0.0806,-0.0903,-34.21,52.87,-12.74
936,106607658,0.9795,0.0698,-0.1040,-31.04,52.68,-12.20
937,106612657,0.9897,0.0698,-0.1113,-27.68,52.80,-11.71
938,106617953,0.9922,0.0791,-0.0864,-24.51,52.87,-11.10
939,106622658,0.9888,0.0679,-0.0630,-21.46,52.62,-10.61
940,106627658,0.9839,0.0684,-0.0610,-18.60,52.20,-10.18
941,106632658,0.9795,0.0718,-0.0688,-16.10,51.95,-9.76
942,106637658,0.9878,0.0786,-0.0654,-13.66,51.52,-9.27
943,106642976,0.9897,0.0757,-0.0630,-11.46,51.10,-8.84
944,106647658,0.9946,0.0811,-0.0708,-9.94,50.67,-8.41
945,106652658,0.9951,0.0649,-0.0552,-8.78,50.00,-7.93
946,106658019,1.0039,0.0679,-0.0386,-8.41,49.21,-7.56
947,106662658,1.0049,0.0742,-0.0371,-8.29,48.48,-7.01
948,106667658,1.0122,0.0811,-0.0308,-8.41,47.99,-6.46
949,106672658,1.0117,0.0854,-0.0259,-8.84,47.38,-5.98
950,106677948,1.0034,0.0981,-0.0078,-9.27,46.59,-5.43
951,106682658,1.0068,0.0781,-0.0117,-9.45,45.91,-5.00
952,106687658,1.0117,0.0747,-0.0176,-9.51,45.06,-4.39
953,106692658,1.0093,0.0762,-0.0034,-9.51,44.02,-3.78
954,106697658,1.0117,0.0732,-0.0005,-9.33,42.80,-3.05
955,106702658,1.0117,0.0728,0.0054,-9.39,41.89,-2.44
956,106708003,1.0112,0.0713,0.0151,-9.70,40.85,-1.71
957,106712658,1.0117,0.0728,0.0347,-10.06,39.76,-1.16
958,106717658,1.0161,0.0674,0.0527,-10.49,38.72,-0.67
959,106722658,1.0283,0.0669,0.0527,-11.10,37.74,-0.18
960,106727954,1.0376,0.0669,0.0664,-11.52,36.71,0.37
961,106732658,1.0444,0.0693,0.0850,-11.83,35.98,0.79
962,106738003,1.0386,0.0723,0.1040,-11.77,35.12,1.34
963,106742658,1.0293,0.0654,0.1133,-11.65,34.63,1.83
964,106747658,1.0220,0.0703,0.1328,-11.34,34.21,2.44
965,106752658,1.0146,0.0649,0.1265,-10.67,33.60,2.74
966,106757658,1.0073,0.0669,0.1396,-10.06,33.29,3.17
967,106762658,1.0044,0.0728,0.1538,-9.21,32.87,3.60
968,106768037,1.0078,0.0732,0.1611,-8.29,32.74,3.72
969,106772658,1.0000,0.0684,0.1567,-7.13,32.44,3.84
970,106777658,0.9849,0.0674,0.1558,-5.73,32.26,3.84
971,106782658,0.9707,0.0610,0.1577,-3.96,31.83,3.90
972,106787656,0.9575,0.0625,0.1616,-2.20,31.52,3.84
973,106792658,0.9619,0.0742,0.1602,-0.30,31.22,3.78
974,106797658,0.9727,0.0723,0.1562,1.77,31.04,3.23
975,106802658,0.9805,0.0605,0.1401,4.51,30.67,2.74
976,106807658,0.9814,0.0620,0.1328,7.68,30.18,2.38
977,106812658,0.9717,0.0518,0.1216,10.98,29.70,1.95
978,106817658,0.9546,0.0503,0.1216,14.02,29.02,1.83
979,106822963,0.9375,0.0605,0.1201,16.46,28.41,2.07
980,106827660,0.9302,0.0649,0.1416,17.56,27.20,2.20
981,106832660,0.9160,0.0542,0.1665,14.82,25.91,2.07
982,106837658,0.9033,0.0493,0.1670,8.90,24.33,1.83
983,106842658,0.9341,0.0723,0.1616,2.26,22.32,1.52
984,106847946,0.9619,0.0630,0.1592,-3.35,20.30,0.91
985,106852658,0.9863,0.0542,0.1499,-6.40,18.54,0.73
986,106857658,1.0127,0.0542,0.1470,-7.07,17.01,0.67
987,106862658,0.9873,0.0630,0.1436,-5.37,15.79,1.04
988,106867935,0.9639,0.0718,0.1597,-2.13,15.12,1.65
989,106872658,0.9434,0.0732,0.1675,1.89,14.39,2.44
990,106877658,0.9360,0.0649,0.1606,5.98,13.84,3.17
991,106882658,0.9448,0.0688,0.1602,9.76,13.41,4.02
992,106888015,0.9600,0.0718,0.1567,12.50,12.74,4.51
993,106893151,0.9717,0.0723,0.1367,14.27,12.07,4.94
994,106897659,0.9746,0.0737,0.1333,14.76,11.16,5.24
995,106903003,0.9731,0.0708,0.1250,14.39,10.43,5.49
996,106907659,0.9805,0.0649,0.1060,13.48,9.51,5.73
997,106912658,0.9800,0.0649,0.0933,12.32,8.90,6.04
998,106917658,0.9819,0.0562,0.0972,10.85,8.29,6.16
999,106922658,0.9839,0.0552,0.0830,9.33,7.93,6.28
1000,106927950,0.9922,0.0532,0.0752,7.56,7.62,6.16
1001,106932658,1.0059,0.0566,0.0684,5.85,7.50,6.22
1002,106937953,1.0215,0.0493,0.0566,4.33,7.38,6.22
1003,106942658,1.0352,0.0459,0.0552,2.99,7.50,6.22
1004,106947939,1.0479,0.0420,0.0459,1.77,7.50,6.22
1005,106952658,1.0654,0.0449,0.0420,0.61,7.56,6.22
1006,106957658,1.0830,0.0454,0.0376,-0.67,7.87,6.28
1007,106962962,1.0972,0.0444,0.0352,-2.01,8.11,6.28
1008,106967658,1.1084,0.0366,0.0381,-3.54,8.29,6.28
1009,106972658,1.1084,0.0430,0.0303,-4.94,8.78,6.46
1010,106977658,1.1108,0.0386,0.0347,-6.34,8.96,6.52
1011,106982658,1.1064,0.0332,0.0503,-7.44,9.39,6.77
1012,106987658,1.0981,0.0254,0.0522,-8.66,10.00,7.01
1013,106992948,1.0869,0.0190,0.0542,-9.82,10.55,7.20
1014,106997658,1.0845,0.0146,0.0669,-11.10,11.16,7.32
1015,107002659,1.0747,0.0083,0.0698,-12.56,11.77,7.44
1016,107007658,1.0620,0.0039,0.0796,-14.57,12.44,7.56
1017,107012658,1.0493,0.0034,0.0854,-16.28,12.99,7.50
1018,107017658,1.0303,-0.0020,0.0928,-18.66,13.41,7.44
1019,107022658,1.0186,-0.0020,0.0977,-21.59,13.90,7.26
1020,107027956,0.9995,-0.0098,0.1147,-25.30,14.39,7.01
1021,107032658,0.9912,-0.0146,0.1128,-27.68,14.45,6.77
1022,107037658,0.9785,-0.0098,0.1152,-30.30,14.70,6.46
1023,107042658,0.9697,0.0020,0.1230,-32.32,14.63,6.16
1024,107047997,0.9541,-0.0024,0.1274,-33.72,14.57,5.67
1025,107053162,0.9497,0.0024,0.1157,-34.45,14.45,5.37
1026,107057658,0.9341,-0.0273,0.1392,-35.06,14.15,4.88
1027,107062658,0.9253,-0.0542,0.1538,-35.55,14.51,4.70
1028,107067658,0.9409,-0.0142,0.1372,-35.30,14.39,4.09
1029,107073024,0.9302,-0.0293,0.1426,-34.51,14.21,3.29
1030,107077717,0.9141,-0.0098,0.1484,-34.15,14.02,2.68
1031,107082657,0.9131,-0.0088,0.1450,-33.66,13.78,2.01
1032,107087656,0.9121,0.0269,0.1299,-33.72,13.60,1.16
1033,107093167,0.8892,-0.0093,0.1729,-34.88,13.66,0.18
1034,107097658,0.9023,-0.0312,0.1763,-35.49,13.17,-0.18
1035,107102660,0.9111,-0.0479,0.1313,-36.04,13.05,-1.16
1036,107107995,0.9336,-0.0220,0.1323,-35.98,12.74,-2.13
1037,107112659,0.9351,-0.0522,0.1597,-35.73,12.32,-2.68
1038,107117658,0.9473,-0.0693,0.1602,-35.24,11.95,-3.23
1039,107122659,0.9771,-0.0415,0.1362,-34.09,11.95,-3.78
1040,107127658,0.9912,-0.0337,0.1338,-32.44,11.71,-4.45
1041,107132658,0.9839,-0.0200,0.1694,-31.46,11.04,-4.94
1042,107137657,0.9756,-0.0220,0.1768,-30.37,11.22,-5.43
1043,107142658,0.9897,-0.0146,0.1602,-29.82,11.34,-5.91
1044,107147975,0.9854,-0.0112,0.1743,-29.51,11.28,-6.46
1045,107153768,0.9912,-0.0151,0.1890,-29.63,11.04,-6.95
1046,107157659,0.9961,-0.0088,0.1768,-29.88,11.10,-7.38
1047,107162771,0.9961,0.0029,0.1777,-30.43,11.22,-7.99
1048,107167658,0.9849,0.0098,0.1992,-31.28,11.28,-8.54
1049,107172941,0.9810,0.0186,0.1982,-32.44,11.59,-9.27
1050,107177658,0.9731,0.0264,0.1948,-33.35,12.01,-10.00
1051,107182659,0.9766,0.0244,0.1978,-34.15,12.50,-10.61
1052,107187983,0.9741,0.0352,0.1992,-35.18,13.11,-11.46
1053,107192657,0.9829,0.0293,0.1953,-35.67,13.84,-12.13
1054,107197998,0.9468,0.0352,0.1763,-35.30,14.76,-13.29
1055,107202658,0.9478,0.0439,0.1807,-34.63,15.61,-13.90
1056,107207745,0.9800,0.0615,0.1709,-34.09,16.52,-14.76
1057,107212658,0.9902,0.0591,0.1812,-34.09,17.13,-15.67
1058,107217952,0.9946,0.0513,0.1724,-34.39,18.05,-16.52
1059,107222658,0.9985,0.0347,0.1655,-35.12,18.90,-17.62
1060,107227977,1.0020,0.0322,0.1699,-36.04,19.76,-18.72
1061,107232658,0.9937,0.0469,0.1753,-36.71,20.18,-19.51
1062,107237658,1.0088,0.0547,0.1753,-37.74,20.85,-20.55
1063,107242658,1.0088,0.0425,0.1724,-38.60,21.77,-21.22
1064,107247658,1.0229,0.0596,0.1724,-39.21,22.80,-21.89
1065,107252658,1.0244,0.0591,0.1865,-39.57,23.66,-22.56
1066,107257989,1.0273,0.0669,0.1772,-39.70,24.45,-23.23
1067,107262658,1.0327,0.0684,0.1709,-39.70,25.24,-23.84
1068,107267941,1.0405,0.0752,0.1724,-39.51,26.10,-24.33
1069,107272658,1.0347,0.0718,0.1792,-39.15,26.83,-24.88
1070,107278072,1.0283,0.0791,0.2017,-39.02,27.68,-25.43
1071,107282658,1.0229,0.0684,0.2144,-39.27,28.23,-25.73
1072,107287658,1.0186,0.0776,0.2251,-40.00,29.09,-26.16
1073,107292658,1.0200,0.0859,0.2285,-41.16,29.70,-26.65
1074,107297658,1.0200,0.0894,0.2114,-42.74,30.06,-27.07
1075,107302658,1.0161,0.0879,0.2129,-44.15,30.61,-27.32
1076,107307656,1.0137,0.0825,0.2153,-45.49,31.04,-27.56
1077,107312656,1.0132,0.0928,0.2275,-46.83,31.52,-27.68
1078,107317658,1.0156,0.0879,0.2178,-47.93,32.01,-27.68
1079,107322658,1.0171,0.0688,0.1978,-48.78,31.89,-27.44
1080,107327658,1.0132,0.0693,0.1875,-49.39,32.07,-27.13
1081,107332658,1.0049,0.0601,0.2021,-50.18,32.01,-26.71
1082,107337658,0.9990,0.0566,0.2246,-51.04,31.71,-26.28
1083,107342658,0.9932,0.0649,0.2266,-51.77,31.34,-25.73
1084,107347658,0.9829,0.0664,0.2319,-52.56,31.04,-25.24
1085,107352658,0.9741,0.0723,0.2563,-53.23,30.55,-24.70
1086,107357658,0.9639,0.0737,0.2803,-53.90,30.12,-24.21
1087,107362658,0.9521,0.0767,0.2842,-54.21,29.45,-23.66
1088,107367658,0.9468,0.0718,0.2812,-54.45,28.90,-23.11
1089,107372659,0.9424,0.0776,0.2896,-54.57,28.11,-22.56
1090,107377716,0.9438,0.0732,0.2974,-54.51,27.38,-22.01
1091,107382871,0.9375,0.0737,0.2925,-54.02,26.40,-21.46
1092,107387659,0.9390,0.0786,0.2949,-53.23,25.67,-21.04
1093,107392658,0.9507,0.0762,0.2959,-52.38,24.21,-20.43
1094,107397658,0.9521,0.0801,0.2935,-51.10,23.11,-19.88
1095,107402656,0.9531,0.0767,0.3032,-49.76,21.95,-19.33
1096,107407658,0.9478,0.0732,0.3086,-48.17,20.67,-18.78
1097,107412659,0.9438,0.0693,0.3154,-46.40,19.51,-18.29
1098,107417658,0.9468,0.0737,0.3203,-44.57,18.23,-17.74
1099,107422658,0.9551,0.0762,0.3267,-42.93,17.01,-17.38
1100,107427658,0.9565,0.0762,0.3315,-41.34,15.85,-16.83
1101,107432962,0.9595,0.0786,0.3389,-40.12,14.45,-16.52
1102,107437658,0.9521,0.0796,0.3398,-39.21,13.35,-16.10
1103,107442658,0.9419,0.0806,0.3384,-38.60,12.07,-15.79
1104,107447658,0.9414,0.0840,0.3306,-38.17,11.04,-15.49
1105,107452663,0.9409,0.0889,0.3271,-37.93,9.76,-15.18
1106,107457659,0.9355,0.0903,0.3262,-37.74,8.72,-14.82
1107,107462658,0.9326,0.0879,0.3237,-37.20,7.68,-14.51
1108,107467658,0.9263,0.0854,0.3179,-36.71,6.59,-14.09
1109,107472660,0.9229,0.0913,0.3149,-36.16,5.67,-13.54
1110,107477658,0.9272,0.0962,0.3081,-35.30,4.88,-13.11
1111,107482656,0.9248,0.0923,0.3052,-34.63,3.84,-12.74
1112,107487658,0.9189,0.0918,0.3091,-33.90,2.93,-12.32
1113,107493048,0.9253,0.0938,0.3071,-33.05,2.26,-11.77
1114,107497659,0.9331,0.0913,0.3042,-32.20,1.46,-11.22
1115,107502657,0.9419,0.0879,0.3086,-31.59,0.73,-10.79
1116,107507658,0.9595,0.0859,0.3140,-30.98,0.06,-10.30
1117,107512659,0.9663,0.0830,0.3179,-30.67,-0.73,-9.88
1118,107517722,0.9751,0.0815,0.3223,-30.37,-1.46,-9.51
1119,107522656,0.9790,0.0776,0.3242,-30.24,-2.07,-9.09
1120,107527658,0.9863,0.0806,0.3179,-30.12,-2.56,-8.60
1121,107532674,0.9966,0.0850,0.3125,-30.00,-3.23,-8.17
1122,107537658,1.0044,0.0835,0.3101,-30.12,-3.66,-7.74
1123,107542656,1.0112,0.0903,0.2954,-30.12,-4.27,-7.32
1124,107547656,1.0107,0.0884,0.2900,-30.30,-4.82,-6.89
1125,107552658,1.0142,0.0947,0.2905,-30.55,-5.30,-6.34
1126,107557658,1.0171,0.0933,0.2783,-30.79,-5.67,-5.98
1127,107562699,1.0166,0.0947,0.2783,-31.04,-6.22,-5.49
1128,107567658,1.0117,0.0913,0.2749,-31.22,-6.52,-5.00
1129,107572658,1.0078,0.0938,0.2769,-31.34,-6.89,-4.51
1130,107577716,1.0039,0.0942,0.2783,-31.46,-7.26,-4.09
1131,107582657,0.9946,0.0913,0.2788,-31.59,-7.44,-3.66
1132,107587988,1.0039,0.0845,0.2920,-31.59,-7.80,-3.35
1133,107592658,1.0132,0.0835,0.2925,-31.71,-8.11,-2.99
1134,107597658,1.0171,0.0815,0.2935,-31.95,-8.35,-2.56
1135,107602658,1.0166,0.0786,0.2974,-32.26,-8.66,-2.20
1136,107608026,1.0186,0.0825,0.2925,-32.80,-8.84,-1.89
1137,107612658,1.0112,0.0830,0.3003,-33.41,-9.15,-1.59
1138,107617751,1.0083,0.0820,0.2974,-34.02,-9.27,-1.40
1139,107622658,1.0107,0.0786,0.2983,-34.76,-9.51,-1.16
1140,107627658,1.0127,0.0835,0.2998,-35.24,-9.70,-0.85
1141,107632658,1.0151,0.0771,0.2920,-35.73,-9.88,-0.61
1142,107637855,1.0220,0.0771,0.2949,-36.16,-9.94,-0.37
1143,107642658,1.0117,0.0791,0.2993,-36.40,-10.06,-0.18
1144,107647658,1.0107,0.0752,0.2969,-36.65,-10.06,0.00
1145,107653155,1.0044,0.0781,0.2939,-36.95,-9.94,0.37
1146,107657658,1.0005,0.0776,0.2930,-37.01,-9.88,0.61
1147,107662658,0.9980,0.0747,0.2910,-37.01,-9.76,0.98
1148,107668034,0.9961,0.0742,0.2871,-37.01,-9.70,1.40
1149,107672658,0.9971,0.0732,0.2852,-36.89,-9.57,1.65
1150,107677658,0.9966,0.0728,0.2886,-36.65,-9.51,2.01
1151,107682657,0.9961,0.0723,0.2822,-36.46,-9.27,2.38
1152,107687658,0.9956,0.0708,0.2832,-36.16,-9.15,2.74
1153,107692658,0.9961,0.0669,0.2847,-35.91,-9.15,3.11
1154,107697657,1.0029,0.0654,0.2827,-35.55,-9.02,3.35
1155,107702658,1.0054,0.0605,0.2817,-35.18,-8.96,3.60
1156,107707658,1.0093,0.0586,0.2881,-34.76,-8.90,3.78
1157,107712658,1.0063,0.0620,0.2949,-34.39,-8.84,4.02
1158,107717658,1.0005,0.0601,0.3008,-34.02,-8.60,4.09
1159,107722658,1.0024,0.0571,0.3047,-33.54,-8.48,4.21
1160,107727658,1.0005,0.0596,0.3032,-32.87,-8.35,4.27
1161,107732659,0.9980,0.0527,0.3101,-32.32,-8.11,4.27
1162,107737657,1.0000,0.0547,0.3149,-31.46,-7.99,4.33
1163,107742658,0.9951,0.0547,0.3135,-30.91,-7.80,4.21
1164,107747674,1.0010,0.0581,0.3140,-30.37,-7.80,4.15
1165,107752657,0.9985,0.0601,0.3213,-29.76,-7.62,4.15
1166,107757970,0.9946,0.0640,0.3242,-29.21,-7.50,3.90
1167,107762658,0.9878,0.0635,0.3315,-28.90,-7.38,3.90
1168,107768012,0.9839,0.0664,0.3359,-28.35,-7.13,3.66
1169,107772658,0.9795,0.0698,0.3320,-28.17,-7.20,3.48
1170,107777658,0.9814,0.0664,0.3345,-28.05,-7.26,3.35
1171,107783151,0.9814,0.0698,0.3398,-27.93,-7.20,3.05
1172,107787658,0.9805,0.0659,0.3369,-27.68,-6.95,2.80
1173,107792658,0.9761,0.0679,0.3384,-27.56,-7.13,2.80
1174,107797658,0.9746,0.0713,0.3413,-27.32,-6.95,2.38
1175,107802658,0.9707,0.0698,0.3389,-27.01,-6.71,2.26
1176,107807993,0.9629,0.0713,0.3398,-26.52,-6.52,2.13
1177,107812658,0.9648,0.0723,0.3374,-26.10,-6.46,2.13
1178,107817658,0.9668,0.0703,0.3389,-25.37,-6.04,2.01
1179,107822719,0.9688,0.0688,0.3413,-24.51,-5.73,1.95
1180,107827658,0.9707,0.0703,0.3408,-23.66,-5.49,1.89
1181,107832962,0.9697,0.0684,0.3354,-22.56,-4.94,1.77
1182,107837687,0.9683,0.0654,0.3379,-21.71,-4.70,1.65
1183,107842658,0.9668,0.0640,0.3374,-20.79,-4.15,1.71
1184,107847658,0.9678,0.0620,0.3320,-19.82,-3.72,1.52
1185,107852658,0.9614,0.0640,0.3257,-19.15,-3.29,1.65
1186,107857659,0.9663,0.0586,0.3296,-18.35,-2.87,1.46
1187,107863050,0.9624,0.0586,0.3223,-17.68,-1.95,1.46
1188,107867659,0.9658,0.0552,0.3179,-17.20,-1.65,1.40
1189,107872659,0.9692,0.0498,0.3110,-16.52,-1.22,1.28
1190,107877658,0.9731,0.0498,0.3110,-16.22,-0.49,1.22
1191,107882658,0.9810,0.0493,0.3115,-16.10,-0.18,1.16
1192,107887658,0.9863,0.0508,0.3027,-15.98,0.24,1.04
1193,107892658,0.9873,0.0430,0.3013,-15.98,0.73,0.98
1194,107897659,0.9951,0.0430,0.2954,-16.10,1.22,0.85
1195,107902658,0.9961,0.0391,0.2949,-16.16,1.65,0.85
1196,107907658,0.9951,0.0352,0.2886,-16.46,2.07,0.79
1197,107912658,0.9990,0.0366,0.2925,-16.52,2.38,0.85
1198,107918010,1.0005,0.0347,0.2866,-16.77,2.74,0.79
1199,107922658,1.0015,0.0308,0.2783,-16.65,2.93,0.79
1200,107927657,1.0039,0.0332,0.2783,-16.65,3.23,0.85
1201,107932658,1.0034,0.0298,0.2788,-16.40,3.54,0.85
1202,107937970,1.0068,0.0288,0.2798,-16.10,3.78,0.91
1203,107942658,1.0005,0.0327,0.2847,-15.67,3.84,0.98
1204,107947973,1.0000,0.0278,0.2944,-15.06,4.09,1.04
1205,107952658,0.9941,0.0269,0.2944,-14.63,4.21,1.04
1206,107957958,0.9902,0.0234,0.2983,-13.96,4.27,1.10
1207,107962658,0.9878,0.0269,0.3027,-13.29,4.33,1.04
1208,107968027,0.9834,0.0254,0.3057,-12.68,4.51,1.10
1209,107972658,0.9785,0.0278,0.3110,-12.32,4.45,1.04
1210,107977657,0.9790,0.0269,0.3115,-12.01,4.39,0.98
1211,107982658,0.9834,0.0273,0.3091,-11.77,4.39,0.85
1212,107987656,0.9849,0.0269,0.3110,-11.52,4.21,0.79
1213,107992656,0.9834,0.0249,0.3091,-11.46,4.15,0.61
1214,107997656,0.9917,0.0254,0.3140,-11.10,3.84,0.55
1215,108002656,0.9902,0.0303,0.3105,-10.79,3.78,0.30
1216,108007658,0.9946,0.0293,0.3091,-10.67,3.66,0.18
1217,108012658,0.9927,0.0342,0.3091,-10.37,3.41,0.12
1218,108018000,0.9839,0.0381,0.3091,-10.18,3.17,0.00
1219,108022658,0.9805,0.0415,0.3071,-9.88,2.99,0.12
1220,108027660,0.9766,0.0425,0.3037,-9.57,2.93,0.00
1221,108032658,0.9746,0.0469,0.2993,-9.33,2.62,-0.06
1222,108037658,0.9692,0.0503,0.3052,-9.15,2.50,0.00
1223,108042994,0.9673,0.0479,0.3096,-8.96,2.32,0.06
1224,108047658,0.9590,0.0537,0.3066,-8.72,2.13,0.18
1225,108052954,0.9590,0.0562,0.3057,-8.29,1.95,0.30
1226,108057658,0.9526,0.0557,0.3110,-7.93,1.71,0.43
1227,108062968,0.9541,0.0547,0.3091,-7.56,1.65,0.49
1228,108067658,0.9556,0.0586,0.3076,-7.13,1.40,0.61
1229,108072996,0.9585,0.0605,0.3037,-6.40,1.16,0.73
1230,108077658,0.9629,0.0591,0.3115,-5.67,0.98,0.98
1231,108082658,0.9653,0.0566,0.3193,-4.82,0.79,1.04
1232,108087850,0.9683,0.0542,0.3188,-4.02,0.49,1.28
1233,108092659,0.9727,0.0596,0.3228,-3.05,0.12,1.46
1234,108097658,0.9722,0.0586,0.3252,-2.20,-0.12,1.52
1235,108102658,0.9819,0.0601,0.3262,-1.34,-0.55,1.59
1236,108107658,0.9829,0.0557,0.3301,-0.67,-0.79,1.71
1237,108112659,0.9907,0.0625,0.3359,-0.12,-1.22,1.77
1238,108117658,0.9907,0.0615,0.3408,0.55,-1.40,1.77
1239,108122659,0.9893,0.0630,0.3389,1.10,-1.65,1.83
1240,108127658,0.9897,0.0688,0.3403,1.71,-1.95,1.89
1241,108132658,0.9907,0.0713,0.3359,2.32,-2.26,1.95
1242,108137658,0.9844,0.0708,0.3389,2.99,-2.26,1.95
1243,108142658,0.9800,0.0732,0.3281,3.60,-2.38,2.01
1244,108147657,0.9805,0.0718,0.3315,4.33,-2.38,2.07
1245,108152658,0.9814,0.0752,0.3262,4.94,-2.56,2.13
1246,108157972,0.9805,0.0767,0.3320,5.61,-2.50,2.20
1247,108162658,0.9785,0.0752,0.3315,6.10,-2.56,2.26
1248,108167659,0.9800,0.0771,0.3296,6.52,-2.50,2.26
1249,108172658,0.9849,0.0698,0.3306,6.71,-2.56,2.26
1250,108177659,0.9829,0.0713,0.3291,6.59,-2.74,2.26
1251,108182656,0.9824,0.0674,0.3354,6.59,-2.74,2.26
1252,108187657,0.9780,0.0698,0.3320,6.40,-2.80,2.32
1253,108192656,0.9790,0.0669,0.3267,6.46,-2.87,2.26
1254,108197661,0.9771,0.0649,0.3291,6.59,-2.80,2.13
