# skilleye imu stream v1
# device=xiao_esp32c6 imu=mpu6050 addr=0x68
# rate_hz=200 accel_range_g=16 gyro_range_dps=2000 dlpf_hz=94
# units: accel in g, gyro in deg/s, t_us in microseconds since boot (monotonic)
# no shared clock with the camera -- tap the racket once before each take
# so both recordings share a spike to align on
seq,t_us,ax,ay,az,gx,gy,gz
0,51522658,-0.8906,-0.1494,-0.2876,47.01,16.89,8.23
1,51527663,-0.8843,-0.1484,-0.2822,47.93,17.26,7.44
2,51533100,-0.8818,-0.1450,-0.2817,48.84,17.56,6.59
3,51537658,-0.8765,-0.1421,-0.2788,49.51,17.87,5.79
4,51542972,-0.8784,-0.1396,-0.2847,49.94,18.05,4.94
5,51547658,-0.8755,-0.1387,-0.2812,50.24,18.35,4.15
6,51553105,-0.8735,-0.1387,-0.2778,50.18,18.54,3.23
7,51557658,-0.8750,-0.1392,-0.2832,50.00,18.60,2.50
8,51563037,-0.8784,-0.1353,-0.2837,49.63,18.78,1.77
9,51567659,-0.8784,-0.1343,-0.2842,49.21,18.78,0.91
10,51573137,-0.8784,-0.1313,-0.2876,48.41,18.96,0.24
11,51577658,-0.8838,-0.1304,-0.2866,47.56,18.90,-0.61
12,51582658,-0.8804,-0.1270,-0.2861,46.77,18.84,-1.40
13,51587658,-0.8809,-0.1265,-0.2886,45.67,18.78,-2.13
14,51592999,-0.8857,-0.1270,-0.2881,44.63,18.54,-2.74
15,51597658,-0.8892,-0.1255,-0.2886,43.54,18.54,-3.54
16,51602658,-0.8916,-0.1221,-0.2847,42.38,18.41,-4.27
17,51607658,-0.8906,-0.1240,-0.2891,41.16,18.17,-4.94
18,51612659,-0.8867,-0.1177,-0.2837,39.94,18.11,-5.61
19,51617658,-0.8848,-0.1177,-0.2886,38.72,17.74,-6.22
20,51622656,-0.8833,-0.1162,-0.2856,37.44,17.50,-6.89
21,51627658,-0.8804,-0.1172,-0.2856,36.10,17.20,-7.56
22,51633009,-0.8818,-0.1191,-0.2861,34.76,16.83,-7.93
23,51637658,-0.8809,-0.1138,-0.2905,33.48,16.46,-8.48
24,51643154,-0.8784,-0.1147,-0.2915,32.01,16.10,-9.02
25,51647658,-0.8760,-0.1138,-0.2900,30.61,15.61,-9.45
26,51652657,-0.8691,-0.1084,-0.2856,29.27,15.18,-10.00
27,51657658,-0.8662,-0.1035,-0.2847,27.87,14.76,-10.43
28,51662658,-0.8696,-0.1050,-0.2866,26.52,14.33,-10.85
29,51667660,-0.8647,-0.1045,-0.2822,25.37,13.66,-11.28
30,51672658,-0.8750,-0.1030,-0.2915,24.02,13.23,-11.71
31,51677658,-0.8716,-0.0981,-0.2900,22.62,12.87,-12.13
32,51682658,-0.8711,-0.0977,-0.2866,21.28,12.32,-12.38
33,51688152,-0.8760,-0.0981,-0.2959,20.00,11.77,-12.56
34,51692658,-0.8755,-0.0957,-0.2964,18.54,11.46,-13.05
35,51697658,-0.8760,-0.0996,-0.3008,17.26,10.67,-13.35
36,51702658,-0.8804,-0.0977,-0.2935,15.79,10.06,-13.66
37,51707658,-0.8877,-0.0952,-0.2964,14.45,9.33,-13.90
38,51712658,-0.8823,-0.0947,-0.3003,13.05,8.66,-14.09
39,51718051,-0.8799,-0.0923,-0.3013,11.52,8.05,-14.21
40,51722658,-0.8765,-0.0942,-0.2969,10.06,7.20,-14.39
41,51727658,-0.8730,-0.0938,-0.2959,8.66,6.34,-14.57
42,51732659,-0.8687,-0.0879,-0.2964,7.20,5.55,-14.70
43,51737658,-0.8726,-0.0923,-0.3037,5.85,4.70,-14.82
44,51742658,-0.8691,-0.0918,-0.2993,4.76,3.96,-14.88
45,51747658,-0.8701,-0.0903,-0.3066,3.17,2.87,-14.94
46,51752658,-0.8682,-0.0903,-0.3096,2.07,1.95,-15.00
47,51757659,-0.8638,-0.0869,-0.3081,0.67,1.04,-14.94
48,51762657,-0.8652,-0.0903,-0.3101,-0.67,0.06,-14.94
49,51767658,-0.8677,-0.0928,-0.3101,-1.95,-0.91,-15.06
50,51772659,-0.8657,-0.0898,-0.3174,-3.29,-1.95,-15.12
51,51777658,-0.8735,-0.0952,-0.3120,-4.57,-2.74,-15.12
52,51782656,-0.8779,-0.0947,-0.3164,-5.85,-3.60,-15.06
53,51788359,-0.8750,-0.0938,-0.3193,-7.26,-4.51,-15.00
54,51792663,-0.8848,-0.0972,-0.3179,-8.35,-5.24,-14.94
55,51797658,-0.8853,-0.1001,-0.3232,-9.21,-5.91,-14.94
56,51802657,-0.8872,-0.1025,-0.3237,-10.00,-6.65,-14.88
57,51807656,-0.8857,-0.1050,-0.3306,-10.67,-7.32,-14.76
58,51812787,-0.8892,-0.1069,-0.3354,-11.34,-8.11,-14.70
59,51817658,-0.8892,-0.1060,-0.3438,-11.65,-8.66,-14.63
60,51822658,-0.8901,-0.1079,-0.3477,-11.89,-9.39,-14.57
61,51827658,-0.8911,-0.1094,-0.3521,-12.26,-9.82,-14.57
62,51832662,-0.8936,-0.1079,-0.3584,-12.62,-10.30,-14.63
63,51837658,-0.8896,-0.1138,-0.3540,-12.87,-10.49,-14.82
64,51842672,-0.8901,-0.1211,-0.3545,-13.11,-10.61,-14.82
65,51847658,-0.8813,-0.1260,-0.3608,-13.35,-10.85,-15.00
66,51852658,-0.8730,-0.1294,-0.3623,-13.60,-10.73,-15.12
67,51857657,-0.8643,-0.1260,-0.3618,-13.78,-10.61,-15.24
68,51863017,-0.8530,-0.1313,-0.3608,-14.09,-10.43,-15.49
69,51867659,-0.8442,-0.1362,-0.3584,-14.27,-10.18,-15.43
70,51872931,-0.8354,-0.1357,-0.3604,-14.51,-9.82,-15.79
71,51877658,-0.8281,-0.1377,-0.3574,-14.63,-9.51,-15.85
72,51882658,-0.8247,-0.1455,-0.3564,-14.76,-8.96,-16.04
73,51887959,-0.8193,-0.1465,-0.3652,-14.94,-8.35,-16.28
74,51892660,-0.8208,-0.1479,-0.3584,-15.12,-7.99,-16.40
75,51897977,-0.8198,-0.1514,-0.3633,-15.24,-7.20,-16.65
76,51902658,-0.8174,-0.1558,-0.3657,-15.37,-6.83,-16.83
77,51907658,-0.8149,-0.1567,-0.3643,-15.43,-6.10,-17.07
78,51912658,-0.8140,-0.1587,-0.3628,-15.67,-5.55,-17.50
79,51917658,-0.8169,-0.1650,-0.3638,-16.04,-4.63,-17.93
80,51922658,-0.8184,-0.1704,-0.3618,-16.40,-3.60,-18.29
81,51928092,-0.8252,-0.1719,-0.3594,-17.20,-2.32,-18.78
82,51932658,-0.8276,-0.1763,-0.3569,-17.68,-1.65,-19.02
83,51937658,-0.8286,-0.1758,-0.3604,-18.29,-0.61,-19.45
84,51942658,-0.8335,-0.1826,-0.3628,-18.90,0.55,-19.88
85,51947922,-0.8418,-0.1855,-0.3672,-19.51,1.52,-20.24
86,51952658,-0.8472,-0.1899,-0.3604,-19.94,2.74,-20.79
87,51957658,-0.8506,-0.1875,-0.3760,-19.94,3.60,-21.16
88,51962658,-0.8569,-0.1875,-0.3750,-20.00,4.45,-21.59
89,51967959,-0.8623,-0.1865,-0.3799,-19.63,5.24,-22.13
90,51972659,-0.8711,-0.1924,-0.3843,-18.96,6.10,-22.56
91,51977658,-0.8770,-0.1909,-0.3848,-18.05,6.77,-22.93
92,51982942,-0.8828,-0.1914,-0.3916,-16.77,7.38,-23.41
93,51987658,-0.8828,-0.1880,-0.3945,-15.37,7.80,-23.78
94,51992659,-0.8945,-0.1904,-0.3955,-13.54,8.41,-24.09
95,51997658,-0.8892,-0.1919,-0.3970,-11.65,8.78,-24.45
96,52002658,-0.8970,-0.1963,-0.4014,-9.76,9.33,-24.63
97,52007658,-0.8950,-0.1973,-0.4072,-7.74,9.76,-24.88
98,52012657,-0.8984,-0.1987,-0.4062,-5.67,10.18,-25.00
99,52017658,-0.9062,-0.2061,-0.4131,-3.84,10.49,-25.18
100,52022658,-0.9106,-0.2036,-0.4146,-1.89,10.91,-25.30
101,52027657,-0.9204,-0.2065,-0.4224,-0.30,11.28,-25.30
102,52032658,-0.9243,-0.2104,-0.4292,1.34,11.65,-25.37
103,52037658,-0.9209,-0.2090,-0.4292,2.74,11.95,-25.55
104,52042658,-0.9185,-0.2109,-0.4287,3.96,12.32,-25.55
105,52047658,-0.9160,-0.2134,-0.4424,4.82,12.68,-25.67
106,52052658,-0.9146,-0.2139,-0.4414,5.85,13.05,-25.67
107,52057973,-0.9067,-0.2158,-0.4419,6.71,13.48,-25.79
108,52062658,-0.8984,-0.2163,-0.4443,7.20,13.84,-25.79
109,52067714,-0.8901,-0.2183,-0.4380,7.74,14.33,-25.98
110,52072658,-0.8804,-0.2158,-0.4370,8.11,14.76,-26.10
111,52077658,-0.8716,-0.2212,-0.4370,8.23,15.37,-26.28
112,52082660,-0.8691,-0.2192,-0.4321,8.29,15.98,-26.52
113,52087658,-0.8613,-0.2192,-0.4316,7.99,16.52,-26.83
114,52092657,-0.8589,-0.2183,-0.4287,7.68,17.32,-27.07
115,52097656,-0.8584,-0.2236,-0.4263,7.01,18.05,-27.50
116,52102660,-0.8604,-0.2241,-0.4277,6.34,18.78,-27.93
117,52107658,-0.8652,-0.2251,-0.4399,5.43,19.51,-28.35
118,52112658,-0.8647,-0.2231,-0.4409,4.51,20.24,-28.84
119,52117697,-0.8657,-0.2280,-0.4404,3.48,20.85,-29.39
120,52122658,-0.8687,-0.2305,-0.4482,2.26,21.34,-29.94
121,52127658,-0.8716,-0.2280,-0.4521,0.91,22.01,-30.61
122,52132658,-0.8750,-0.2300,-0.4590,-0.43,22.50,-31.10
123,52137658,-0.8784,-0.2310,-0.4668,-1.77,22.80,-31.71
124,52142658,-0.8789,-0.2373,-0.4722,-3.05,23.29,-32.32
125,52147950,-0.8799,-0.2432,-0.4717,-4.45,23.60,-32.87
126,52152658,-0.8774,-0.2476,-0.4839,-5.61,23.84,-33.54
127,52157658,-0.8838,-0.2500,-0.4878,-6.83,24.15,-34.15
128,52162680,-0.8931,-0.2520,-0.4883,-8.05,24.33,-34.82
129,52167657,-0.8984,-0.2559,-0.4985,-9.15,24.70,-35.43
130,52172658,-0.8994,-0.2598,-0.5063,-10.49,25.00,-36.04
131,52178156,-0.9019,-0.2671,-0.5093,-11.65,25.18,-36.52
132,52182658,-0.8999,-0.2686,-0.5132,-12.80,25.49,-37.20
133,52187658,-0.8984,-0.2749,-0.5112,-14.15,25.91,-37.80
134,52192657,-0.8965,-0.2739,-0.5127,-15.37,26.28,-38.29
135,52197661,-0.9004,-0.2793,-0.5166,-16.52,26.71,-39.02
136,52202985,-0.9033,-0.2876,-0.5103,-17.80,27.26,-39.45
137,52207658,-0.9028,-0.2822,-0.5186,-19.21,27.87,-40.12
138,52212658,-0.8994,-0.2905,-0.5166,-20.43,28.35,-40.67
139,52217658,-0.8887,-0.2930,-0.5234,-21.46,29.21,-41.22
140,52222658,-0.8940,-0.2930,-0.5195,-22.56,29.82,-41.77
141,52227658,-0.8857,-0.2988,-0.5181,-23.48,30.55,-42.26
142,52232658,-0.8887,-0.2998,-0.5210,-24.27,31.46,-42.93
143,52237658,-0.8784,-0.2974,-0.5225,-25.06,32.13,-43.48
144,52242658,-0.8726,-0.2964,-0.5137,-25.73,33.11,-44.02
145,52247657,-0.8672,-0.2969,-0.5229,-26.34,34.02,-44.57
146,52252658,-0.8579,-0.2998,-0.5176,-26.83,34.88,-45.00
147,52257657,-0.8540,-0.3047,-0.5210,-27.20,35.67,-45.49
148,52262656,-0.8535,-0.3047,-0.5156,-27.50,36.59,-45.98
149,52267658,-0.8516,-0.3101,-0.5151,-27.68,37.50,-46.40
150,52272658,-0.8530,-0.3081,-0.5215,-27.80,38.23,-46.71
151,52277656,-0.8535,-0.2998,-0.5220,-27.56,39.15,-47.20
152,52282659,-0.8496,-0.3008,-0.5166,-27.26,40.00,-47.56
153,52287942,-0.8477,-0.3037,-0.5146,-26.52,40.91,-47.93
154,52292658,-0.8535,-0.2964,-0.5239,-26.04,41.46,-48.23
155,52297938,-0.8594,-0.2969,-0.5200,-24.88,42.56,-48.60
156,52302658,-0.8594,-0.2979,-0.5259,-24.15,43.29,-48.84
157,52307936,-0.8584,-0.2993,-0.5190,-22.87,44.39,-49.09
158,52312658,-0.8516,-0.3062,-0.5205,-21.59,45.24,-49.39
159,52317658,-0.8486,-0.3052,-0.5215,-20.55,45.79,-49.51
160,52322658,-0.8462,-0.3022,-0.5264,-19.33,46.89,-49.63
161,52327658,-0.8433,-0.3047,-0.5220,-17.80,47.68,-49.63
162,52332658,-0.8447,-0.3062,-0.5337,-16.34,48.60,-49.63
163,52337788,-0.8496,-0.3022,-0.5391,-14.27,49.70,-49.45
164,52342658,-0.8564,-0.3062,-0.5435,-12.74,50.24,-49.39
165,52347937,-0.8628,-0.3047,-0.5522,-10.18,51.16,-49.21
166,52352658,-0.8667,-0.2969,-0.5469,-8.29,51.89,-49.02
167,52357987,-0.8608,-0.3008,-0.5493,-5.37,52.80,-48.72
168,52362658,-0.8501,-0.2979,-0.5474,-3.35,53.48,-48.41
169,52368049,-0.8369,-0.2944,-0.5420,-0.30,54.39,-48.05
170,52372658,-0.8286,-0.2969,-0.5405,1.65,54.82,-47.50
171,52377658,-0.8218,-0.3003,-0.5386,4.33,55.67,-46.89
172,52382660,-0.8105,-0.2988,-0.5469,6.59,56.40,-46.22
173,52387658,-0.8057,-0.3076,-0.5493,8.84,57.20,-45.43
174,52392657,-0.8066,-0.3066,-0.5493,10.98,57.93,-44.45
175,52397656,-0.8076,-0.3096,-0.5557,13.05,58.72,-43.60
176,52402656,-0.8047,-0.3130,-0.5601,14.94,59.57,-42.68
177,52407847,-0.8086,-0.3110,-0.5674,16.83,60.73,-41.71
178,52412657,-0.8042,-0.3130,-0.5835,18.60,61.65,-40.79
179,52417937,-0.7935,-0.3179,-0.5913,20.55,63.05,-39.63
180,52422658,-0.7915,-0.3252,-0.6030,21.59,63.84,-38.90
181,52427658,-0.7842,-0.3311,-0.6074,22.56,64.94,-37.99
182,52432659,-0.7788,-0.3335,-0.6172,23.29,66.22,-37.07
183,52437658,-0.7798,-0.3418,-0.6196,23.78,67.44,-36.10
184,52442658,-0.7803,-0.3428,-0.6245,24.27,68.96,-35.18
185,52447658,-0.7847,-0.3457,-0.6357,24.76,70.37,-34.39
186,52452658,-0.7925,-0.3457,-0.6304,25.49,72.07,-33.48
187,52457658,-0.7881,-0.3491,-0.6411,26.40,73.41,-32.74
188,52462658,-0.7739,-0.3506,-0.6479,27.44,74.94,-31.77
189,52467983,-0.7568,-0.3574,-0.6484,28.84,76.77,-30.67
190,52472658,-0.7441,-0.3589,-0.6504,30.06,78.11,-29.45
191,52477658,-0.7319,-0.3604,-0.6475,31.16,79.33,-28.54
192,52482658,-0.7217,-0.3657,-0.6523,32.44,80.67,-27.44
193,52487660,-0.7134,-0.3721,-0.6660,33.60,81.77,-26.28
194,52492660,-0.7017,-0.3799,-0.6724,34.76,82.74,-24.88
195,52497658,-0.6875,-0.3857,-0.6816,35.67,84.21,-23.60
196,52502658,-0.6772,-0.3906,-0.6958,36.71,84.76,-22.26
197,52507657,-0.6665,-0.4033,-0.7051,37.38,85.67,-20.85
198,52512659,-0.6538,-0.4136,-0.7104,37.87,85.85,-19.51
199,52517657,-0.6382,-0.4370,-0.7295,38.17,85.79,-18.17
200,52522658,-0.6270,-0.4448,-0.7349,38.29,86.04,-17.44
201,52527658,-0.6157,-0.4604,-0.7417,38.54,87.99,-16.71
202,52532658,-0.5942,-0.4648,-0.7495,38.78,88.96,-16.28
203,52537658,-0.5791,-0.4761,-0.7534,39.21,90.43,-16.04
204,52542658,-0.5562,-0.4814,-0.7593,40.06,91.83,-16.16
205,52547658,-0.5444,-0.4873,-0.7588,41.10,93.48,-16.65
206,52552658,-0.5254,-0.4956,-0.7578,42.20,95.18,-17.38
207,52557685,-0.5010,-0.5068,-0.7622,43.84,97.20,-18.41
208,52562659,-0.4829,-0.5161,-0.7656,44.94,98.72,-19.27
209,52567658,-0.4663,-0.5225,-0.7646,46.46,100.37,-20.67
210,52572658,-0.4487,-0.5229,-0.7617,48.05,102.20,-22.20
211,52577658,-0.4282,-0.5298,-0.7598,49.70,104.02,-23.84
212,52582658,-0.4058,-0.5405,-0.7627,51.40,105.91,-25.73
213,52587660,-0.3726,-0.5439,-0.7603,53.54,108.05,-27.99
214,52592865,-0.3511,-0.5527,-0.7642,54.94,109.39,-29.51
215,52597660,-0.3223,-0.5659,-0.7622,56.65,110.91,-31.28
216,52602658,-0.3008,-0.5869,-0.7637,58.41,112.44,-33.23
217,52607658,-0.2856,-0.5996,-0.7671,60.00,113.66,-34.88
218,52612930,-0.2686,-0.6118,-0.7671,61.83,114.88,-36.52
219,52617658,-0.2495,-0.6196,-0.7656,63.78,116.16,-38.29
220,52622941,-0.2314,-0.6309,-0.7617,65.85,117.01,-39.82
221,52627658,-0.2095,-0.6450,-0.7715,68.17,117.93,-41.65
222,52632658,-0.1875,-0.6523,-0.7769,70.43,118.78,-43.29
223,52637662,-0.1689,-0.6567,-0.7729,72.62,119.51,-45.18
224,52642662,-0.1562,-0.6646,-0.7666,74.88,120.12,-47.13
225,52647658,-0.1431,-0.6694,-0.7603,76.71,121.04,-49.45
226,52652658,-0.1318,-0.6807,-0.7573,78.54,122.07,-51.77
227,52658043,-0.1240,-0.6963,-0.7539,80.24,122.87,-54.15
228,52662659,-0.1152,-0.7017,-0.7524,81.77,123.96,-56.77
229,52667926,-0.1074,-0.7051,-0.7583,83.35,124.82,-59.33
230,52672658,-0.1050,-0.7134,-0.7534,85.06,125.79,-62.26
231,52677656,-0.0981,-0.7139,-0.7534,86.40,126.52,-65.00
232,52682656,-0.0908,-0.7202,-0.7495,87.74,127.26,-67.74
233,52687658,-0.0840,-0.7236,-0.7461,88.60,127.93,-70.67
234,52692658,-0.0767,-0.7246,-0.7397,89.02,128.41,-73.35
235,52697658,-0.0703,-0.7314,-0.7407,88.78,129.02,-76.34
236,52702658,-0.0625,-0.7417,-0.7227,87.93,129.39,-79.02
237,52708236,-0.0425,-0.7285,-0.7153,86.83,130.00,-81.83
238,52712685,-0.0327,-0.7485,-0.7070,85.06,130.49,-84.70
239,52717657,-0.0239,-0.7583,-0.6982,83.23,130.98,-87.38
240,52722921,-0.0215,-0.7627,-0.6953,81.28,131.52,-89.88
241,52727658,-0.0132,-0.7642,-0.6914,79.45,131.77,-92.20
242,52732796,-0.0039,-0.7612,-0.6875,77.87,131.83,-94.39
243,52737659,0.0024,-0.7588,-0.6802,76.34,131.71,-96.59
244,52742658,0.0151,-0.7578,-0.6660,74.82,131.28,-98.60
245,52747658,0.0293,-0.7588,-0.6523,73.35,131.22,-100.61
246,52752662,0.0366,-0.7656,-0.6416,71.83,130.98,-102.44
247,52757658,0.0337,-0.7681,-0.6294,70.49,130.85,-104.39
248,52762950,0.0308,-0.7676,-0.6299,69.39,130.79,-106.22
249,52767658,0.0366,-0.7705,-0.6206,68.29,130.55,-107.99
250,52772658,0.0352,-0.7637,-0.6133,67.50,130.49,-109.82
251,52777659,0.0371,-0.7544,-0.6113,66.95,130.18,-111.59
252,52782658,0.0396,-0.7456,-0.6035,66.65,130.00,-113.35
253,52787659,0.0435,-0.7383,-0.5942,66.34,129.45,-114.88
254,52792662,0.0493,-0.7358,-0.5815,66.16,128.96,-116.34
255,52797658,0.0625,-0.7261,-0.5845,65.98,128.17,-117.62
256,52802931,0.0786,-0.7236,-0.5850,65.73,127.13,-118.72
257,52807658,0.0859,-0.7300,-0.5786,65.18,126.04,-119.70
258,52812952,0.0879,-0.7183,-0.5645,64.57,124.76,-120.55
259,52817658,0.0923,-0.7163,-0.5645,63.72,123.54,-121.34
260,52822969,0.0991,-0.7134,-0.5591,62.87,122.26,-122.01
261,52827658,0.1035,-0.7046,-0.5425,62.26,121.10,-122.62
262,52832658,0.1138,-0.6973,-0.5347,61.59,119.63,-123.23
263,52837775,0.1353,-0.7212,-0.7710,60.18,119.39,-123.84
264,52842658,0.1826,-0.6748,-0.6333,58.17,118.11,-124.21
265,52847658,0.1494,-0.6504,-0.5039,56.04,118.41,-125.24
266,52852658,0.1509,-0.6113,-0.6323,54.02,115.24,-125.73
267,52857936,0.1885,-0.5244,-0.9297,51.71,114.88,-126.28
268,52862658,0.2183,-0.4585,-0.8706,50.24,116.28,-126.71
269,52867658,0.2178,-0.4600,-0.7842,47.56,115.12,-127.20
270,52872658,0.1929,-0.4570,-0.7729,41.40,115.06,-127.56
271,52877658,0.1631,-0.5044,-0.7261,35.79,117.07,-127.32
272,52882954,0.1431,-0.5400,-0.5479,28.84,118.11,-126.77
273,52887658,0.1567,-0.5317,-0.4673,25.73,117.26,-126.10
274,52892660,0.2422,-0.3906,-0.4756,23.84,117.99,-125.43
275,52897875,0.3047,-0.2559,-0.4941,23.84,117.62,-124.82
276,52902661,0.2241,-0.2388,-0.4614,24.51,115.61,-123.90
277,52907658,0.1680,-0.2158,-0.5684,24.94,114.02,-122.07
278,52912740,0.1489,-0.2026,-0.5811,24.76,112.99,-119.94
279,52917658,0.1338,-0.2080,-0.4897,23.05,111.28,-117.20
280,52922946,0.1294,-0.2310,-0.4658,18.96,109.09,-113.29
281,52927658,0.1450,-0.2490,-0.4980,14.27,107.80,-109.39
282,52932658,0.1655,-0.2456,-0.5054,9.82,107.56,-106.04
283,52938014,0.1865,-0.2603,-0.4478,2.93,105.79,-100.37
284,52942659,0.2231,-0.2808,-0.4492,-1.40,103.78,-96.52
285,52947964,0.2305,-0.3154,-0.4365,-8.29,101.59,-90.43
286,52952658,0.2188,-0.3823,-0.4126,-13.05,100.61,-86.28
287,52957657,0.2202,-0.3706,-0.3569,-18.29,98.29,-80.91
288,52962938,0.2378,-0.3931,-0.3574,-23.54,95.61,-74.88
289,52967658,0.2500,-0.4321,-0.3984,-26.83,94.21,-70.91
290,52972977,0.2705,-0.5298,-0.3750,-31.65,91.22,-64.70
291,52977658,0.2886,-0.4849,-0.3403,-34.15,89.15,-61.16
292,52982674,0.3262,-0.4546,-0.3481,-36.28,87.38,-57.20
293,52987658,0.3389,-0.4189,-0.3335,-36.77,85.73,-53.54
294,52992660,0.3472,-0.4326,-0.3228,-35.55,82.93,-50.43
295,52997656,0.3135,-0.4565,-0.3271,-32.99,80.30,-46.89
296,53002658,0.2788,-0.4878,-0.3403,-29.27,77.68,-43.35
297,53007658,0.2754,-0.5225,-0.3149,-24.76,74.88,-39.82
298,53012656,0.2793,-0.5669,-0.2583,-19.45,71.83,-36.28
299,53017659,0.3389,-0.5898,-0.2778,-13.60,69.09,-32.62
300,53022658,0.3687,-0.5776,-0.3325,-7.68,66.28,-29.27
301,53027657,0.4062,-0.5532,-0.3291,-2.07,62.99,-26.28
302,53032658,0.4268,-0.5464,-0.3364,3.17,60.06,-23.60
303,53037656,0.4316,-0.5215,-0.3701,7.50,57.44,-20.98
304,53042658,0.4106,-0.4961,-0.3667,10.67,54.76,-18.72
305,53047900,0.3872,-0.4937,-0.3481,12.74,52.13,-16.71
306,53052659,0.3721,-0.4854,-0.3408,13.78,49.94,-15.06
307,53057660,0.3809,-0.4888,-0.3442,14.09,47.93,-13.54
308,53063891,0.3779,-0.4746,-0.3062,14.02,45.67,-12.32
309,53067659,0.3843,-0.5005,-0.3262,14.33,44.70,-11.71
310,53072659,0.3799,-0.4888,-0.3784,14.82,42.26,-11.04
311,53077659,0.3672,-0.4902,-0.3623,15.06,40.43,-10.79
312,53082659,0.3564,-0.4785,-0.3643,15.49,38.54,-10.79
313,53087658,0.3550,-0.4893,-0.3589,16.83,36.65,-11.34
314,53092658,0.3628,-0.4980,-0.3433,18.66,35.30,-11.71
315,53097659,0.3687,-0.5049,-0.3325,21.04,34.09,-12.32
316,53102660,0.3789,-0.5142,-0.3354,23.90,33.11,-12.99
317,53107656,0.3843,-0.5396,-0.3252,27.13,32.07,-13.66
318,53112656,0.3848,-0.5630,-0.2983,30.49,31.16,-14.21
319,53117658,0.3867,-0.5942,-0.2705,34.02,30.00,-14.70
320,53122658,0.3936,-0.6265,-0.2690,37.68,28.96,-15.18
321,53127659,0.4028,-0.6392,-0.2607,41.22,27.44,-15.73
322,53132658,0.4165,-0.6484,-0.2583,44.51,25.98,-16.28
323,53137656,0.4297,-0.6523,-0.2612,47.44,24.02,-16.83
324,53142660,0.4521,-0.6528,-0.2729,49.88,22.20,-17.50
325,53147656,0.4629,-0.6558,-0.2612,51.52,20.06,-18.17
326,53152656,0.4639,-0.6553,-0.2539,52.44,17.80,-18.78
327,53157658,0.4595,-0.6582,-0.2534,52.56,15.67,-19.45
328,53162657,0.4570,-0.6621,-0.2300,51.89,13.29,-20.37
329,53167659,0.4648,-0.6606,-0.2236,50.91,11.52,-20.79
330,53172656,0.4736,-0.6611,-0.2227,49.39,9.57,-21.28
331,53177687,0.4795,-0.6655,-0.2192,47.62,7.62,-21.71
332,53182660,0.4829,-0.6738,-0.2119,45.85,5.67,-21.83
333,53187658,0.4893,-0.6841,-0.2056,44.02,3.48,-21.77
334,53192657,0.4888,-0.7007,-0.1982,42.20,1.28,-21.46
335,53197659,0.4976,-0.7090,-0.1851,40.06,-1.40,-21.04
336,53202658,0.5127,-0.6997,-0.1875,38.90,-3.11,-20.67
337,53207658,0.5386,-0.7056,-0.1836,38.05,-5.30,-20.37
338,53212656,0.5420,-0.7114,-0.1699,37.38,-7.32,-19.94
339,53217716,0.5278,-0.7168,-0.1680,37.32,-9.21,-19.76
340,53222656,0.5229,-0.7246,-0.1528,37.07,-10.91,-19.76
341,53227715,0.5200,-0.7148,-0.1514,36.83,-12.74,-19.82
342,53232657,0.5303,-0.7026,-0.1382,36.52,-14.21,-20.06
343,53237658,0.5405,-0.6909,-0.1367,36.04,-15.49,-20.49
344,53242689,0.5435,-0.6768,-0.1343,35.30,-16.77,-20.91
345,53247658,0.5464,-0.6587,-0.1299,34.27,-17.93,-21.59
346,53252658,0.5562,-0.6445,-0.1323,33.05,-19.15,-22.20
347,53257658,0.5557,-0.6216,-0.1362,31.59,-20.24,-22.93
348,53263144,0.5605,-0.6084,-0.1245,30.24,-21.34,-23.35
349,53267658,0.5625,-0.5942,-0.1318,28.66,-22.32,-23.84
350,53272658,0.5742,-0.5801,-0.1523,27.26,-23.54,-24.21
351,53277658,0.5825,-0.5566,-0.1641,25.85,-24.51,-24.45
352,53282657,0.5903,-0.5444,-0.1719,24.57,-25.91,-24.82
353,53287658,0.5928,-0.5269,-0.1860,23.29,-26.89,-25.06
354,53293316,0.5898,-0.5151,-0.1870,21.77,-27.56,-25.30
355,53297659,0.5811,-0.5244,-0.1826,20.00,-28.23,-25.61
356,53302658,0.5903,-0.5137,-0.2017,17.50,-28.54,-25.91
357,53308208,0.6230,-0.4941,-0.2280,14.94,-28.90,-26.22
358,53312658,0.6426,-0.4990,-0.2246,12.50,-29.09,-26.34
359,53317659,0.6216,-0.4761,-0.2373,9.57,-29.02,-26.34
360,53322657,0.6353,-0.4688,-0.2471,6.89,-28.84,-26.28
361,53327658,0.6611,-0.4741,-0.2393,4.45,-28.66,-26.04
362,53333134,0.6685,-0.4761,-0.2505,2.07,-28.35,-25.43
363,53337660,0.6768,-0.4829,-0.2627,0.24,-27.93,-24.76
364,53342658,0.6846,-0.4824,-0.2686,-1.22,-27.50,-23.78
365,53347682,0.6914,-0.4873,-0.2729,-1.89,-27.26,-22.62
366,53352657,0.7012,-0.4883,-0.2754,-1.77,-26.95,-21.04
367,53357963,0.7075,-0.4966,-0.2852,-1.22,-26.65,-19.45
368,53362658,0.7251,-0.4985,-0.2861,0.18,-26.34,-17.62
369,53367983,0.7319,-0.5093,-0.2925,2.32,-26.04,-15.67
370,53372658,0.7222,-0.5161,-0.3032,4.94,-25.55,-13.66
371,53377716,0.7241,-0.5107,-0.3081,7.44,-24.88,-11.65
372,53382657,0.7476,-0.5010,-0.3145,10.49,-24.39,-9.76
373,53387917,0.7627,-0.4980,-0.3267,13.84,-23.60,-7.80
374,53392658,0.7461,-0.4990,-0.3369,17.32,-22.80,-5.91
375,53397658,0.7363,-0.5049,-0.3311,20.98,-21.71,-4.21
376,53402660,0.7349,-0.5112,-0.3389,24.27,-20.79,-2.56
377,53407658,0.7417,-0.5137,-0.3335,27.68,-19.57,-0.91
378,53413082,0.7485,-0.5146,-0.3374,30.73,-18.54,0.43
379,53417658,0.7510,-0.5166,-0.3330,33.11,-17.50,1.40
380,53422934,0.7471,-0.5176,-0.3257,36.16,-16.34,2.74
381,53427692,0.7510,-0.5195,-0.3208,37.99,-15.37,3.66
382,53432658,0.7559,-0.5215,-0.3213,39.21,-14.39,4.63
383,53437658,0.7549,-0.5283,-0.3169,39.70,-13.66,5.06
384,53442658,0.7646,-0.5264,-0.3169,39.51,-12.87,5.73
385,53447658,0.7700,-0.5308,-0.3130,38.54,-12.07,6.22
386,53452658,0.7715,-0.5371,-0.3086,37.07,-11.28,6.65
387,53457941,0.7754,-0.5400,-0.3066,34.70,-10.43,7.01
388,53462658,0.7734,-0.5420,-0.3042,32.87,-9.63,7.01
389,53467924,0.7773,-0.5503,-0.3076,30.12,-9.02,7.32
390,53472661,0.7827,-0.5527,-0.3145,27.74,-8.41,7.26
391,53477658,0.7847,-0.5547,-0.3032,25.73,-7.93,7.26
392,53482944,0.7827,-0.5610,-0.3042,22.93,-7.20,7.13
393,53487658,0.7793,-0.5625,-0.3062,20.98,-6.83,6.95
394,53492658,0.7817,-0.5630,-0.3047,18.66,-6.28,6.71
395,53497963,0.7793,-0.5581,-0.2969,16.10,-5.67,6.34
396,53502691,0.7769,-0.5630,-0.2979,14.57,-5.18,6.04
397,53507658,0.7754,-0.5576,-0.2935,12.80,-4.82,5.43
398,53512666,0.7725,-0.5664,-0.2876,11.59,-4.45,4.94
399,53517657,0.7676,-0.5640,-0.2812,10.30,-4.02,4.33
400,53522658,0.7646,-0.5640,-0.2817,9.51,-3.90,3.66
401,53527658,0.7627,-0.5596,-0.2764,8.66,-3.66,3.05
402,53532658,0.7583,-0.5654,-0.2720,7.80,-3.48,2.32
403,53537658,0.7529,-0.5659,-0.2729,7.20,-3.11,1.40
404,53542657,0.7476,-0.5640,-0.2637,6.40,-2.93,0.67
405,53547656,0.7461,-0.5684,-0.2593,5.98,-2.93,-0.18
406,53552656,0.7373,-0.5752,-0.2515,5.30,-2.68,-1.16
407,53557660,0.7383,-0.5815,-0.2534,4.63,-2.56,-1.95
408,53562658,0.7407,-0.5854,-0.2505,3.78,-2.44,-2.87
409,53567658,0.7388,-0.5864,-0.2412,2.80,-2.13,-3.84
410,53572657,0.7393,-0.5918,-0.2378,1.52,-1.77,-4.63
411,53577658,0.7358,-0.5952,-0.2373,-0.12,-1.59,-5.37
412,53582657,0.7378,-0.5952,-0.2349,-2.01,-1.46,-6.16
413,53587657,0.7368,-0.5942,-0.2329,-4.02,-1.10,-6.65
414,53592658,0.7402,-0.5898,-0.2280,-6.34,-0.79,-7.13
415,53597657,0.7456,-0.5879,-0.2300,-8.66,-0.49,-7.44
416,53602658,0.7583,-0.5854,-0.2344,-10.79,0.00,-7.74
417,53607926,0.7583,-0.5811,-0.2358,-12.62,0.43,-7.93
418,53612658,0.7603,-0.5762,-0.2407,-14.09,0.85,-7.93
419,53617660,0.7559,-0.5708,-0.2471,-15.18,1.28,-7.80
420,53622657,0.7559,-0.5654,-0.2515,-15.61,1.77,-7.62
421,53627658,0.7607,-0.5576,-0.2515,-15.79,2.20,-7.38
422,53632657,0.7622,-0.5522,-0.2500,-15.30,2.74,-7.07
423,53638130,0.7573,-0.5415,-0.2529,-14.51,3.17,-6.65
424,53642658,0.7632,-0.5400,-0.2505,-13.60,3.60,-6.40
425,53647658,0.7573,-0.5337,-0.2544,-12.38,4.21,-5.91
426,53652658,0.7573,-0.5234,-0.2529,-11.10,4.70,-5.67
427,53657658,0.7573,-0.5137,-0.2510,-9.94,5.18,-5.24
428,53662658,0.7603,-0.5029,-0.2529,-8.78,5.67,-4.88
429,53667658,0.7632,-0.4937,-0.2471,-8.05,6.10,-4.57
430,53672946,0.7622,-0.4912,-0.2500,-7.68,6.46,-4.27
431,53677658,0.7651,-0.4771,-0.2471,-7.68,6.71,-3.84
432,53683043,0.7656,-0.4692,-0.2505,-8.17,7.07,-3.66
433,53687659,0.7676,-0.4653,-0.2476,-9.09,7.38,-3.29
434,53692658,0.7656,-0.4619,-0.2422,-10.43,7.74,-3.05
435,53697658,0.7686,-0.4541,-0.2378,-12.07,8.11,-2.74
436,53702922,0.7666,-0.4521,-0.2402,-13.84,8.54,-2.44
437,53707659,0.7617,-0.4521,-0.2422,-15.61,8.96,-2.32
438,53712658,0.7622,-0.4463,-0.2427,-17.13,9.51,-2.07
439,53717658,0.7573,-0.4399,-0.2441,-18.48,10.24,-1.77
440,53722689,0.7529,-0.4473,-0.2427,-19.15,10.85,-1.65
441,53727657,0.7480,-0.4424,-0.2441,-19.39,11.71,-1.40
442,53732918,0.7495,-0.4370,-0.2368,-18.90,12.50,-1.16
443,53737658,0.7476,-0.4424,-0.2329,-18.23,13.54,-0.91
444,53742975,0.7451,-0.4414,-0.2295,-16.95,14.57,-0.73
445,53747658,0.7393,-0.4434,-0.2285,-15.43,15.61,-0.55
446,53752658,0.7417,-0.4473,-0.2280,-13.54,16.65,-0.18
447,53757769,0.7363,-0.4590,-0.2188,-11.71,17.74,0.30
448,53762657,0.7358,-0.4766,-0.2139,-10.00,18.60,0.91
449,53767692,0.7373,-0.4883,-0.2090,-8.78,19.33,1.71
450,53772657,0.7393,-0.5015,-0.2012,-7.80,20.06,2.74
451,53777737,0.7393,-0.5186,-0.2065,-7.38,20.79,3.90
452,53782657,0.7402,-0.5337,-0.2065,-7.20,21.34,5.37
453,53787731,0.7446,-0.5488,-0.2090,-7.20,21.83,6.83
454,53792657,0.7505,-0.5571,-0.2109,-7.07,22.50,8.41
455,53797658,0.7471,-0.5659,-0.2017,-6.65,22.99,10.24
456,53802659,0.7432,-0.5708,-0.2021,-5.85,23.72,12.07
457,53807658,0.7388,-0.5776,-0.2061,-4.51,24.45,13.96
458,53812659,0.7368,-0.5757,-0.2041,-2.50,25.00,15.61
459,53818165,0.7310,-0.5771,-0.2046,0.18,25.43,17.38
460,53822658,0.7256,-0.5659,-0.2080,3.48,25.85,18.84
461,53827687,0.7148,-0.5610,-0.1997,7.01,25.98,20.24
462,53832657,0.7085,-0.5562,-0.1978,10.73,26.10,21.28
463,53837658,0.7056,-0.5518,-0.1899,14.45,25.91,22.13
464,53842955,0.7041,-0.5474,-0.1807,17.93,25.79,22.87
465,53847658,0.7026,-0.5469,-0.1724,21.04,25.43,23.41
466,53852658,0.7061,-0.5498,-0.1626,23.66,25.00,23.72
467,53857658,0.7070,-0.5449,-0.1577,25.98,24.57,23.90
468,53862658,0.7158,-0.5479,-0.1533,27.87,23.96,23.96
469,53867657,0.7217,-0.5405,-0.1499,29.33,23.41,23.84
470,53872658,0.7300,-0.5464,-0.1470,30.18,22.68,23.66
471,53877660,0.7368,-0.5444,-0.1494,30.49,22.20,23.35
472,53882657,0.7437,-0.5513,-0.1426,30.43,21.65,22.74
473,53887896,0.7417,-0.5566,-0.1450,29.82,20.98,22.26
474,53892657,0.7422,-0.5679,-0.1416,28.84,20.49,21.83
475,53897658,0.7432,-0.5732,-0.1475,27.26,20.00,21.22
476,53902657,0.7397,-0.5742,-0.1538,25.61,19.45,20.49
477,53907659,0.7441,-0.5762,-0.1567,23.72,19.02,19.88
478,53912658,0.7432,-0.5762,-0.1660,21.83,18.48,19.15
479,53917662,0.7446,-0.5757,-0.1719,19.82,17.87,18.35
480,53922658,0.7393,-0.5776,-0.1753,18.11,17.13,17.62
481,53927704,0.7388,-0.5825,-0.1733,16.40,16.40,16.95
482,53932657,0.7407,-0.5796,-0.1748,14.82,15.49,16.22
483,53937658,0.7349,-0.5869,-0.1777,13.54,14.51,15.61
484,53942657,0.7251,-0.5869,-0.1855,12.38,13.72,14.82
485,53947658,0.7173,-0.5864,-0.1938,11.52,12.68,14.15
486,53952700,0.7090,-0.5874,-0.1997,10.79,11.77,13.41
487,53957673,0.6958,-0.5864,-0.2061,9.94,10.85,12.44
488,53962658,0.6870,-0.5850,-0.2148,9.09,10.00,11.77
489,53967657,0.6821,-0.5811,-0.2109,7.74,9.02,10.98
490,53972658,0.6748,-0.5796,-0.2192,5.91,8.29,10.06
491,53977658,0.6685,-0.5806,-0.2256,4.21,7.62,9.45
492,53982658,0.6616,-0.5820,-0.2266,2.13,6.83,8.72
493,53987660,0.6611,-0.5747,-0.2334,-0.12,6.10,8.05
494,53992658,0.6655,-0.5742,-0.2412,-2.38,5.30,7.50
495,53997658,0.6719,-0.5703,-0.2495,-4.45,4.76,7.13
496,54002658,0.6738,-0.5684,-0.2559,-5.98,4.02,6.95
497,54007715,0.6855,-0.5654,-0.2568,-8.05,3.11,6.71
498,54012657,0.6919,-0.5684,-0.2588,-9.09,2.44,6.65
499,54017660,0.6992,-0.5635,-0.2661,-10.12,1.46,6.71
500,54022657,0.7061,-0.5674,-0.2754,-10.98,0.61,6.83
501,54028066,0.7070,-0.5688,-0.2744,-11.46,-0.43,6.89
502,54032658,0.7085,-0.5698,-0.2803,-11.71,-1.04,6.83
503,54037660,0.7104,-0.5742,-0.2788,-11.83,-1.89,7.01
504,54042659,0.7144,-0.5757,-0.2842,-11.65,-2.56,6.83
505,54047660,0.7158,-0.5781,-0.2959,-11.10,-3.23,6.89
506,54052897,0.7134,-0.5815,-0.2949,-10.24,-4.27,6.83
507,54057658,0.7188,-0.5859,-0.2944,-9.51,-4.82,6.71
508,54062658,0.7256,-0.5815,-0.2920,-8.41,-5.55,6.71
509,54067739,0.7251,-0.5854,-0.2827,-7.44,-6.46,6.65
510,54072657,0.7261,-0.5908,-0.2808,-6.10,-7.26,6.52
511,54077658,0.7236,-0.5942,-0.2852,-5.30,-7.93,6.46
512,54082658,0.7246,-0.6030,-0.2754,-4.33,-8.72,6.40
513,54087674,0.7363,-0.6074,-0.2798,-3.35,-9.39,6.34
514,54092657,0.7520,-0.6445,-0.2725,-2.44,-10.00,6.28
515,54097658,0.7476,-0.6401,-0.2856,-2.07,-10.67,6.22
516,54102658,0.7671,-0.6685,-0.2837,-2.20,-10.91,5.85
517,54107659,0.7817,-0.6606,-0.2681,-3.17,-11.52,5.61
518,54112760,0.7603,-0.6372,-0.2603,-4.57,-11.71,4.88
519,54117659,0.7471,-0.6470,-0.2896,-6.22,-11.59,3.96
520,54122701,0.7256,-0.6694,-0.2617,-8.11,-11.59,2.93
521,54127657,0.7358,-0.6890,-0.2319,-10.00,-11.28,1.89
522,54132934,0.7500,-0.6895,-0.2339,-11.59,-10.49,0.30
523,54137658,0.7529,-0.6978,-0.2437,-12.20,-10.24,-0.43
524,54142660,0.7339,-0.6733,-0.2646,-12.62,-10.55,-1.59
525,54147721,0.6987,-0.6108,-0.3291,-13.17,-9.88,-2.87
526,54152657,0.7231,-0.5967,-0.3311,-14.39,-8.96,-4.21
527,54157660,0.7441,-0.6055,-0.2593,-15.49,-8.54,-5.43
528,54162657,0.7271,-0.6143,-0.2651,-16.28,-7.99,-6.71
529,54167660,0.7026,-0.6260,-0.3267,-16.95,-6.83,-7.87
530,54172671,0.6963,-0.6318,-0.3096,-17.50,-5.85,-8.96
531,54177657,0.6914,-0.6216,-0.2642,-17.56,-5.43,-10.24
532,54182656,0.6943,-0.5957,-0.2852,-17.56,-4.76,-11.52
533,54187659,0.6904,-0.5791,-0.3081,-17.50,-3.84,-12.80
534,54192656,0.6841,-0.5601,-0.2773,-17.50,-2.99,-14.02
535,54197661,0.6841,-0.5542,-0.2632,-17.50,-2.56,-15.12
536,54203108,0.6973,-0.5537,-0.2710,-17.68,-1.77,-16.59
537,54207658,0.6982,-0.5698,-0.2827,-17.68,-1.04,-17.38
538,54212939,0.7007,-0.5752,-0.2534,-17.74,-0.49,-18.29
539,54217659,0.7041,-0.5723,-0.2480,-17.62,-0.18,-19.09
540,54222658,0.7100,-0.5708,-0.2681,-17.50,0.43,-19.82
541,54227658,0.7158,-0.5591,-0.2588,-17.56,0.85,-20.43
542,54232658,0.7173,-0.5591,-0.2363,-17.26,1.04,-20.91
543,54237658,0.7153,-0.5605,-0.2388,-16.89,1.40,-21.40
544,54242984,0.7134,-0.5649,-0.2397,-16.65,1.59,-21.83
545,54247658,0.7012,-0.5693,-0.2236,-16.22,1.77,-22.20
546,54252658,0.6938,-0.5708,-0.2109,-15.43,1.83,-22.44
547,54257658,0.6870,-0.5669,-0.2168,-14.15,1.95,-22.80
548,54262658,0.6792,-0.5571,-0.2168,-12.62,2.13,-23.11
549,54267657,0.6650,-0.5464,-0.2031,-10.55,2.07,-23.48
550,54272658,0.6465,-0.5342,-0.1821,-7.56,2.01,-23.96
551,54277658,0.6362,-0.5166,-0.1880,-5.12,2.20,-24.27
552,54282658,0.6260,-0.5083,-0.1753,-1.59,2.38,-24.94
553,54287660,0.6191,-0.4902,-0.1587,2.32,2.38,-25.61
554,54292657,0.6133,-0.4751,-0.1606,6.83,2.56,-26.46
555,54297658,0.6108,-0.4624,-0.1689,11.34,2.56,-27.44
556,54302658,0.6094,-0.4609,-0.1719,15.55,2.32,-28.17
557,54307658,0.6094,-0.4609,-0.1753,19.27,1.83,-28.90
558,54312658,0.6206,-0.4712,-0.1860,22.01,1.04,-29.45
559,54317658,0.6338,-0.4771,-0.1934,23.60,-0.12,-30.06
560,54322711,0.6470,-0.4883,-0.1836,23.60,-1.10,-30.30
561,54327658,0.6733,-0.4961,-0.1738,21.95,-2.38,-30.30
562,54332658,0.7031,-0.5107,-0.1650,18.84,-3.41,-30.30
563,54337658,0.7339,-0.5220,-0.1548,14.27,-4.51,-30.06
564,54342658,0.7559,-0.5283,-0.1323,8.66,-5.61,-29.57
565,54347658,0.7559,-0.5269,-0.1240,2.38,-6.34,-29.02
566,54352658,0.7510,-0.5229,-0.1128,-3.84,-7.01,-28.54
567,54357658,0.7368,-0.5215,-0.1143,-9.82,-7.38,-28.05
568,54362764,0.7295,-0.5205,-0.1152,-15.12,-7.50,-27.56
569,54367658,0.7183,-0.5093,-0.1157,-19.82,-7.80,-27.07
570,54372658,0.7056,-0.5098,-0.1240,-23.78,-8.11,-26.65
571,54377658,0.6904,-0.5107,-0.1362,-27.20,-8.48,-26.16
572,54382658,0.6787,-0.5107,-0.1416,-29.88,-8.60,-25.49
573,54387658,0.6792,-0.5098,-0.1465,-31.95,-9.09,-24.70
574,54392711,0.6855,-0.5127,-0.1641,-33.60,-9.63,-23.96
575,54397657,0.6973,-0.5132,-0.1704,-34.82,-10.24,-23.05
576,54402658,0.7144,-0.5146,-0.1797,-35.73,-11.16,-22.07
577,54407657,0.7329,-0.5171,-0.1855,-36.52,-12.01,-21.10
578,54412659,0.7515,-0.5200,-0.1968,-37.07,-13.05,-20.00
579,54417657,0.7769,-0.5195,-0.2007,-37.80,-14.45,-18.78
580,54422658,0.7954,-0.5215,-0.2085,-39.02,-15.85,-17.44
581,54427658,0.8081,-0.5269,-0.2017,-40.43,-17.13,-16.04
582,54432976,0.8286,-0.5312,-0.2134,-42.13,-18.48,-14.39
583,54437658,0.8433,-0.5347,-0.2197,-44.33,-19.76,-12.80
584,54447774,0.8442,-0.5356,-0.2183,-49.39,-21.89,-9.63
585,54452710,0.8320,-0.5327,-0.2217,-51.77,-22.68,-7.99
586,54457657,0.8228,-0.5308,-0.2285,-53.66,-23.29,-6.34
587,54462658,0.8169,-0.5264,-0.2295,-54.94,-23.78,-4.82
588,54467658,0.8086,-0.5161,-0.2451,-55.43,-24.27,-3.29
589,54472658,0.7939,-0.5098,-0.2397,-54.94,-24.57,-1.77
590,54477658,0.7817,-0.5000,-0.2432,-53.60,-24.63,-0.37
591,54482656,0.7661,-0.4966,-0.2510,-51.16,-24.45,1.04
592,54487656,0.7544,-0.4839,-0.2603,-47.80,-24.33,2.62
593,54493434,0.7461,-0.4746,-0.2607,-43.78,-23.78,4.15
594,54497659,0.7256,-0.4590,-0.2588,-38.96,-23.23,5.43
595,54502657,0.7114,-0.4497,-0.2603,-33.66,-22.50,6.71
596,54508046,0.6943,-0.4355,-0.2627,-28.23,-21.59,7.87
597,54512658,0.6860,-0.4272,-0.2583,-22.62,-20.37,8.96
598,54517658,0.6802,-0.4141,-0.2622,-17.20,-19.33,10.06
599,54522659,0.6772,-0.4067,-0.2563,-11.89,-18.11,11.10
600,54527658,0.6812,-0.4019,-0.2573,-6.95,-16.83,11.95
601,54532658,0.6826,-0.4028,-0.2744,-2.44,-15.73,12.99
602,54537658,0.6953,-0.3970,-0.2817,1.52,-14.45,14.02
603,54542970,0.7021,-0.3931,-0.2905,4.94,-13.54,15.00
604,54547658,0.7095,-0.3877,-0.2915,7.99,-12.44,15.79
605,54552658,0.7109,-0.3896,-0.2959,10.79,-11.40,16.59
606,54557659,0.7207,-0.3867,-0.3145,13.11,-10.30,17.38
607,54562814,0.7246,-0.3857,-0.3213,15.06,-9.21,18.05
608,54567659,0.7236,-0.3784,-0.3242,16.52,-8.17,18.54
609,54572660,0.7183,-0.3779,-0.3213,17.62,-6.83,18.84
610,54577657,0.7085,-0.3735,-0.3281,17.99,-5.79,18.84
611,54582884,0.7002,-0.3716,-0.3340,18.41,-4.15,18.96
612,54587658,0.6978,-0.3696,-0.3462,18.17,-2.99,18.84
613,54592658,0.6992,-0.3652,-0.3496,17.74,-1.59,18.60
614,54597658,0.7056,-0.3613,-0.3496,17.01,-0.37,18.29
615,54602657,0.7158,-0.3560,-0.3643,15.79,0.91,17.74
616,54607658,0.7261,-0.3574,-0.3706,14.33,1.95,17.01
617,54612658,0.7334,-0.3623,-0.3789,12.20,2.87,16.28
618,54617658,0.7402,-0.3755,-0.3921,9.51,3.78,15.55
619,54622658,0.7402,-0.3877,-0.4023,6.10,4.70,14.57
620,54627660,0.7480,-0.4043,-0.4058,2.32,5.30,13.84
621,54632658,0.7622,-0.4204,-0.4141,-2.07,5.98,13.05
622,54637658,0.7705,-0.4331,-0.4150,-6.95,6.71,12.26
623,54642659,0.7725,-0.4399,-0.4160,-11.77,7.62,11.59
624,54647657,0.7710,-0.4512,-0.4214,-16.46,8.54,10.85
625,54652659,0.7646,-0.4619,-0.4204,-20.79,9.51,10.12
626,54657658,0.7705,-0.4688,-0.4185,-24.57,10.43,9.51
627,54662658,0.7729,-0.4741,-0.4243,-27.56,11.28,9.02
628,54667658,0.7822,-0.4795,-0.4312,-30.24,12.26,8.41
629,54672658,0.7964,-0.4849,-0.4341,-31.46,12.68,8.23
630,54677658,0.8101,-0.4941,-0.4419,-32.62,12.99,7.93
631,54682658,0.8247,-0.4951,-0.4424,-33.23,13.11,7.87
632,54687658,0.8340,-0.4976,-0.4404,-33.41,13.23,7.80
633,54692658,0.8442,-0.5044,-0.4443,-33.23,13.05,7.87
634,54697658,0.8579,-0.5024,-0.4482,-32.80,12.62,7.99
635,54702658,0.8716,-0.5083,-0.4473,-32.20,12.01,8.35
636,54707658,0.8892,-0.5137,-0.4409,-31.40,11.16,9.09
637,54712658,0.8955,-0.5146,-0.4360,-30.85,10.49,9.51
638,54717658,0.9053,-0.5093,-0.4370,-30.00,9.39,10.49
639,54722658,0.9116,-0.5151,-0.4341,-29.45,8.41,10.98
640,54727805,0.9082,-0.5127,-0.4287,-28.60,7.32,12.01
641,54732658,0.9121,-0.5107,-0.4312,-27.80,6.10,13.11
642,54737658,0.9082,-0.5044,-0.4341,-26.89,4.76,13.96
643,54742658,0.8989,-0.4995,-0.4268,-25.98,3.48,15.12
644,54747658,0.8892,-0.5000,-0.4258,-24.76,2.13,16.10
645,54752658,0.8789,-0.5000,-0.4292,-23.48,0.67,17.13
646,54757658,0.8779,-0.4883,-0.4282,-22.01,-0.67,18.23
647,54762658,0.8696,-0.4858,-0.4287,-20.49,-2.01,19.15
648,54767658,0.8535,-0.4814,-0.4326,-18.78,-3.29,20.06
649,54773153,0.8359,-0.4771,-0.4302,-16.46,-4.88,21.10
650,54777658,0.8252,-0.4731,-0.4370,-15.00,-5.91,21.65
651,54782657,0.8125,-0.4717,-0.4307,-12.93,-7.07,22.32
652,54787656,0.8071,-0.4658,-0.4316,-10.73,-8.23,22.99
653,54792657,0.7920,-0.4639,-0.4385,-8.54,-9.33,23.41
654,54797658,0.7837,-0.4546,-0.4429,-6.10,-10.37,23.72
655,54802657,0.7686,-0.4507,-0.4370,-3.72,-11.16,23.96
656,54807659,0.7598,-0.4575,-0.4399,-1.59,-12.07,24.15
657,54812658,0.7490,-0.4521,-0.4404,0.49,-12.56,24.27
658,54817658,0.7358,-0.4561,-0.4351,2.32,-13.17,24.39
659,54822658,0.7246,-0.4546,-0.4292,3.72,-13.60,24.27
660,54827658,0.7168,-0.4570,-0.4346,5.06,-14.02,24.27
661,54832658,0.7002,-0.4551,-0.4248,6.10,-14.02,24.15
662,54837657,0.6899,-0.4556,-0.4268,7.01,-14.27,24.02
663,54842659,0.6841,-0.4492,-0.4204,7.87,-14.15,23.72
664,54847658,0.6724,-0.4526,-0.4111,8.66,-14.02,23.41
665,54852658,0.6626,-0.4512,-0.4048,9.39,-13.90,23.11
666,54857659,0.6631,-0.4517,-0.4033,10.24,-13.84,22.99
667,54862658,0.6582,-0.4526,-0.3970,11.10,-13.72,22.68
668,54867658,0.6611,-0.4541,-0.3970,11.95,-13.66,22.44
669,54872658,0.6562,-0.4575,-0.3960,12.87,-13.48,21.95
670,54877658,0.6509,-0.4624,-0.3960,13.60,-13.48,21.77
671,54882658,0.6504,-0.4653,-0.3950,14.02,-13.29,21.46
672,54887658,0.6416,-0.4692,-0.3989,14.33,-13.11,20.98
673,54892658,0.6431,-0.4771,-0.4038,14.09,-12.87,20.67
674,54897658,0.6445,-0.4814,-0.4019,13.60,-12.80,20.18
675,54902658,0.6484,-0.4844,-0.4028,12.80,-12.80,19.70
676,54907658,0.6436,-0.4893,-0.4014,11.59,-12.68,19.21
677,54912666,0.6416,-0.4971,-0.4062,10.12,-12.74,18.72
678,54917657,0.6479,-0.4995,-0.4097,8.35,-12.87,18.11
679,54922947,0.6475,-0.5068,-0.4023,6.40,-13.05,17.74
680,54927658,0.6494,-0.5107,-0.4077,4.57,-13.35,17.26
681,54932871,0.6519,-0.5200,-0.4126,2.87,-13.60,16.89
682,54937659,0.6592,-0.5200,-0.4209,1.40,-14.09,16.65
683,54942658,0.6699,-0.5239,-0.4258,0.30,-14.45,16.52
684,54947661,0.6733,-0.5293,-0.4165,-0.37,-14.94,16.22
685,54953022,0.6699,-0.5312,-0.4253,-0.73,-15.49,16.04
686,54957658,0.6729,-0.5361,-0.4321,-0.85,-15.98,15.85
687,54962658,0.6714,-0.5342,-0.4302,-0.79,-16.52,15.67
688,54967658,0.6646,-0.5352,-0.4370,-0.85,-17.01,15.18
689,54972661,0.6577,-0.5425,-0.4463,-0.67,-17.32,14.76
690,54977657,0.6592,-0.5474,-0.4512,-0.67,-17.50,14.21
691,54982658,0.6553,-0.5469,-0.4561,-1.04,-17.93,13.60
692,54987658,0.6484,-0.5552,-0.4658,-1.40,-18.11,12.80
693,54992658,0.6445,-0.5576,-0.4707,-2.26,-18.29,11.89
694,54997659,0.6377,-0.5664,-0.4663,-3.48,-18.17,10.98
695,55002695,0.6313,-0.5669,-0.4683,-5.00,-17.87,10.00
696,55007658,0.6265,-0.5684,-0.4707,-6.83,-17.68,8.84
697,55012658,0.6143,-0.5674,-0.4746,-8.84,-17.20,7.68
698,55017658,0.6138,-0.5688,-0.4775,-10.91,-16.59,6.59
699,55022658,0.6079,-0.5718,-0.4731,-12.80,-15.98,5.43
700,55027701,0.6089,-0.5669,-0.4771,-14.76,-15.49,4.27
701,55032657,0.6108,-0.5654,-0.4712,-16.22,-14.82,3.17
702,55037658,0.6152,-0.5610,-0.4731,-17.56,-14.15,2.26
703,55042657,0.6187,-0.5605,-0.4688,-18.48,-13.60,1.34
704,55047658,0.6294,-0.5542,-0.4629,-19.21,-13.05,0.61
705,55052658,0.6411,-0.5522,-0.4575,-19.57,-12.50,-0.12
706,55057658,0.6440,-0.5557,-0.4541,-19.51,-12.13,-0.73
707,55062658,0.6523,-0.5479,-0.4546,-19.21,-11.83,-1.04
708,55067659,0.6646,-0.5425,-0.4438,-18.78,-11.71,-1.40
709,55072658,0.6704,-0.5376,-0.4375,-18.29,-11.65,-1.77
710,55077658,0.6704,-0.5454,-0.4390,-17.74,-11.34,-1.95
711,55082657,0.6748,-0.5410,-0.4399,-17.20,-11.34,-2.20
712,55087656,0.6763,-0.5405,-0.4395,-16.71,-11.10,-2.32
713,55092656,0.6777,-0.5371,-0.4331,-16.40,-11.16,-2.32
714,55097659,0.6777,-0.5376,-0.4292,-16.28,-11.16,-2.38
715,55102658,0.6758,-0.5298,-0.4312,-16.10,-11.04,-2.32
716,55108482,0.6729,-0.5288,-0.4248,-15.91,-10.98,-2.07
717,55112660,0.6772,-0.5327,-0.4263,-15.67,-10.98,-1.89
718,55117657,0.6777,-0.5278,-0.4238,-15.37,-10.73,-1.59
719,55122659,0.6768,-0.5234,-0.4253,-14.88,-10.55,-1.40
720,55127658,0.6743,-0.5229,-0.4277,-14.21,-10.37,-1.04
721,55132660,0.6694,-0.5186,-0.4238,-13.35,-10.12,-0.67
722,55137658,0.6680,-0.5181,-0.4243,-12.38,-9.94,-0.18
723,55142660,0.6709,-0.5176,-0.4189,-11.28,-9.70,0.24
724,55147658,0.6719,-0.5142,-0.4170,-10.12,-9.39,0.85
725,55152658,0.6753,-0.5098,-0.4106,-8.66,-9.02,1.28
726,55157658,0.6719,-0.5098,-0.4087,-7.32,-8.78,1.71
727,55162658,0.6743,-0.5137,-0.4077,-5.24,-8.60,2.44
728,55167657,0.6738,-0.5088,-0.4146,-3.60,-8.35,3.05
729,55172658,0.6782,-0.5088,-0.4165,-1.34,-8.11,3.78
730,55177658,0.6846,-0.5073,-0.4141,1.04,-7.93,4.45
731,55182659,0.6807,-0.5127,-0.4170,3.35,-7.80,5.24
732,55187657,0.6831,-0.5073,-0.4102,5.79,-7.87,6.04
733,55192658,0.6787,-0.5049,-0.4077,8.11,-7.93,6.83
734,55197660,0.6797,-0.5044,-0.4062,10.18,-7.74,7.56
735,55202658,0.6729,-0.5020,-0.4102,11.95,-7.93,8.29
736,55207658,0.6709,-0.5044,-0.4077,13.23,-7.87,8.90
737,55212658,0.6655,-0.5015,-0.4048,14.39,-7.80,9.63
738,55217658,0.6582,-0.5015,-0.4087,15.06,-7.87,10.18
739,55222658,0.6509,-0.5039,-0.4009,15.49,-7.74,10.79
740,55227658,0.6450,-0.5034,-0.4038,15.49,-7.68,11.28
741,55232730,0.6377,-0.5049,-0.4067,15.30,-7.56,11.71
742,55237657,0.6382,-0.5015,-0.4077,14.76,-7.26,12.13
743,55242659,0.6313,-0.4990,-0.4141,14.21,-7.13,12.38
744,55247658,0.6265,-0.5020,-0.4102,13.41,-6.89,12.62
745,55252658,0.6245,-0.5034,-0.4106,12.62,-6.65,12.74
746,55257658,0.6206,-0.5034,-0.4146,11.83,-6.34,12.87
747,55262659,0.6226,-0.5005,-0.4131,11.22,-6.10,12.93
748,55267660,0.6152,-0.5010,-0.4175,10.73,-5.73,12.99
749,55272658,0.6147,-0.5088,-0.4263,10.37,-5.24,13.05
750,55277658,0.6104,-0.5073,-0.4268,10.18,-5.00,13.11
751,55282663,0.6138,-0.5054,-0.4282,10.24,-4.70,13.05
752,55287657,0.6177,-0.5146,-0.4336,10.37,-4.45,12.99
753,55292658,0.6172,-0.5161,-0.4258,10.61,-4.15,13.05
754,55297657,0.6235,-0.5166,-0.4321,10.85,-3.84,12.99
755,55302658,0.6250,-0.5210,-0.4297,11.16,-3.60,12.87
756,55307659,0.6245,-0.5278,-0.4399,11.40,-3.41,12.87
757,55312931,0.6289,-0.5264,-0.4341,11.40,-3.29,12.68
758,55317658,0.6377,-0.5303,-0.4365,11.28,-3.17,12.62
759,55322682,0.6353,-0.5356,-0.4375,10.98,-2.93,12.56
760,55327657,0.6396,-0.5425,-0.4468,10.73,-2.80,12.44
761,55332660,0.6440,-0.5454,-0.4463,10.24,-2.62,12.26
762,55337657,0.6519,-0.5439,-0.4526,10.06,-2.50,12.13
763,55342658,0.6592,-0.5508,-0.4585,9.76,-2.56,12.01
764,55347660,0.6646,-0.5605,-0.4658,9.39,-2.50,11.95
765,55352658,0.6665,-0.5586,-0.4668,9.02,-2.50,11.89
766,55357681,0.6680,-0.5615,-0.4771,8.48,-2.68,11.77
767,55362657,0.6685,-0.5664,-0.4663,7.93,-2.56,11.59
768,55367658,0.6729,-0.5698,-0.4785,7.13,-2.56,11.46
769,55372658,0.6738,-0.5713,-0.4795,6.10,-2.50,11.10
770,55377657,0.6743,-0.5698,-0.4829,5.06,-2.38,10.91
771,55382658,0.6660,-0.5757,-0.4863,4.02,-2.32,10.55
772,55387657,0.6641,-0.5762,-0.4839,3.17,-2.20,10.24
773,55392656,0.6562,-0.5742,-0.4868,2.26,-2.07,9.94
774,55397658,0.6499,-0.5786,-0.4868,1.65,-1.89,9.63
775,55402657,0.6450,-0.5781,-0.4819,1.10,-1.59,9.27
776,55407656,0.6431,-0.5752,-0.4902,0.98,-1.34,8.78
777,55412658,0.6377,-0.5771,-0.4863,1.10,-1.04,8.48
778,55417660,0.6362,-0.5742,-0.4893,1.46,-0.55,7.99
779,55422657,0.6338,-0.5747,-0.4888,1.71,-0.24,7.62
780,55427658,0.6284,-0.5771,-0.4897,2.01,0.24,7.13
781,55432713,0.6230,-0.5786,-0.4922,2.38,0.67,6.59
782,55437657,0.6255,-0.5791,-0.4888,2.80,1.28,6.16
783,55442660,0.6270,-0.5728,-0.4922,2.99,1.95,5.61
784,55447658,0.6338,-0.5723,-0.4946,3.29,2.56,5.06
785,55452699,0.6357,-0.5703,-0.4907,3.54,3.11,4.51
786,55457657,0.6411,-0.5723,-0.4946,3.72,3.72,3.78
787,55462664,0.6426,-0.5732,-0.4922,3.90,4.21,3.11
788,55467657,0.6514,-0.5703,-0.4946,4.09,4.88,2.50
789,55472697,0.6562,-0.5693,-0.4902,4.33,5.37,1.77
790,55477657,0.6577,-0.5698,-0.4922,4.63,5.79,1.10
791,55482957,0.6660,-0.5630,-0.4917,4.82,6.46,0.37
792,55487658,0.6650,-0.5615,-0.4902,5.24,6.95,-0.43
793,55492658,0.6650,-0.5586,-0.4897,5.61,7.20,-1.16
794,55497658,0.6704,-0.5508,-0.4858,5.79,7.56,-1.77
795,55502658,0.6699,-0.5439,-0.4810,5.73,7.99,-2.56
796,55507658,0.6709,-0.5435,-0.4810,5.55,8.11,-3.29
797,55512659,0.6655,-0.5361,-0.4717,5.12,8.41,-3.96
798,55517658,0.6650,-0.5298,-0.4668,4.33,8.60,-4.82
799,55522681,0.6646,-0.5249,-0.4624,3.48,8.96,-5.43
800,55527661,0.6714,-0.5156,-0.4536,2.44,9.09,-6.16
801,55532658,0.6694,-0.5112,-0.4458,1.22,9.39,-6.83
802,55537658,0.6743,-0.5054,-0.4404,-0.30,9.57,-7.32
803,55542657,0.6738,-0.4995,-0.4355,-1.95,9.82,-7.93
804,55547658,0.6812,-0.4980,-0.4326,-3.84,10.06,-8.23
805,55552960,0.6855,-0.4956,-0.4263,-5.61,10.30,-8.66
806,55557658,0.6885,-0.4917,-0.4219,-7.44,10.37,-8.66
807,55562660,0.6924,-0.4897,-0.4136,-9.27,10.43,-8.78
808,55567657,0.6948,-0.4878,-0.4131,-11.04,10.49,-8.78
809,55572658,0.7002,-0.4829,-0.4038,-12.50,10.67,-8.66
810,55577658,0.7036,-0.4810,-0.4004,-13.84,10.73,-8.54
811,55582732,0.7031,-0.4780,-0.3984,-14.88,10.61,-8.35
812,55587657,0.7061,-0.4746,-0.3975,-15.61,10.85,-8.05
813,55592659,0.7065,-0.4692,-0.3887,-16.16,10.73,-7.62
814,55597658,0.7051,-0.4727,-0.3848,-16.34,10.79,-7.20
815,55602658,0.7080,-0.4663,-0.3804,-16.52,10.67,-6.77
816,55607658,0.7124,-0.4634,-0.3843,-16.65,10.43,-6.34
817,55612658,0.7114,-0.4648,-0.3726,-16.77,10.37,-5.73
818,55617658,0.7100,-0.4678,-0.3750,-16.83,10.24,-5.24
819,55622658,0.7065,-0.4634,-0.3726,-16.83,9.94,-4.63
820,55627658,0.7070,-0.4575,-0.3750,-16.95,9.82,-3.96
821,55632658,0.6997,-0.4551,-0.3755,-17.20,9.57,-3.48
822,55637658,0.7007,-0.4536,-0.3745,-17.20,9.27,-2.93
823,55642657,0.6987,-0.4487,-0.3745,-17.56,8.78,-2.26
824,55647659,0.6929,-0.4482,-0.3716,-18.29,8.41,-1.71
825,55652659,0.6865,-0.4473,-0.3784,-18.96,7.99,-1.28
826,55657658,0.6807,-0.4468,-0.3784,-20.00,7.32,-0.67
827,55662658,0.6758,-0.4434,-0.3755,-21.10,6.83,-0.24
828,55667661,0.6680,-0.4414,-0.3765,-22.44,6.28,0.24
829,55672658,0.6689,-0.4458,-0.3794,-23.90,5.79,0.67
830,55677658,0.6602,-0.4429,-0.3774,-25.43,5.24,1.16
831,55682657,0.6494,-0.4424,-0.3784,-27.13,4.82,1.52
832,55687656,0.6440,-0.4419,-0.3726,-29.09,4.51,1.89
833,55692656,0.6357,-0.4458,-0.3750,-30.85,4.21,2.32
834,55697656,0.6274,-0.4458,-0.3721,-32.62,3.90,2.68
835,55702656,0.6201,-0.4375,-0.3755,-34.15,3.72,3.05
836,55707660,0.6108,-0.4404,-0.3809,-35.49,3.60,3.48
837,55712658,0.6069,-0.4385,-0.3730,-36.40,3.35,3.84
838,55717658,0.6016,-0.4365,-0.3765,-37.01,3.05,4.39
839,55722658,0.6006,-0.4282,-0.3799,-37.20,2.74,4.63
840,55727664,0.6060,-0.4302,-0.3804,-37.26,2.56,5.06
841,55732658,0.6055,-0.4316,-0.3848,-37.38,2.26,5.49
842,55737658,0.6055,-0.4238,-0.3877,-37.38,2.01,5.79
843,55742658,0.6040,-0.4209,-0.3818,-37.20,1.52,6.16
844,55747658,0.6035,-0.4277,-0.3833,-37.07,1.34,6.46
845,55752658,0.6064,-0.4229,-0.3896,-36.77,0.98,6.77
846,55757660,0.6147,-0.4204,-0.3950,-36.22,0.55,7.13
847,55762974,0.6221,-0.4175,-0.3955,-35.61,-0.06,7.38
848,55767658,0.6196,-0.4189,-0.3926,-35.18,-0.43,7.68
849,55772688,0.6216,-0.4175,-0.3950,-34.45,-0.79,7.93
850,55777657,0.6201,-0.4165,-0.3965,-33.84,-1.52,8.23
851,55783035,0.6230,-0.4170,-0.3901,-33.17,-2.01,8.48
852,55787658,0.6226,-0.4165,-0.4023,-32.74,-2.32,8.72
853,55792696,0.6265,-0.4165,-0.4019,-32.26,-2.80,8.90
854,55797657,0.6270,-0.4209,-0.4082,-31.77,-3.23,9.15
855,55802660,0.6313,-0.4194,-0.4072,-31.22,-3.96,9.51
856,55807658,0.6328,-0.4214,-0.4141,-30.85,-4.39,9.70
857,55812658,0.6265,-0.4199,-0.4146,-30.49,-5.06,9.94
858,55817658,0.6240,-0.4233,-0.4131,-30.55,-5.67,10.18
859,55822658,0.6274,-0.4224,-0.4141,-30.79,-6.10,10.37
860,55827658,0.6304,-0.4248,-0.4170,-31.34,-6.65,10.67
861,55832658,0.6338,-0.4258,-0.4224,-32.07,-7.13,10.91
862,55837661,0.6401,-0.4302,-0.4209,-33.41,-7.56,11.22
863,55842658,0.6455,-0.4312,-0.4233,-34.33,-7.93,11.40
864,55847661,0.6509,-0.4360,-0.4248,-35.49,-8.48,11.71
865,55852658,0.6533,-0.4321,-0.4233,-36.22,-8.54,12.01
866,55857659,0.6602,-0.4341,-0.4292,-36.89,-9.09,12.32
867,55862658,0.6606,-0.4341,-0.4341,-37.01,-9.51,12.62
868,55867659,0.6709,-0.4341,-0.4365,-36.83,-10.00,13.17
869,55872658,0.6782,-0.4370,-0.4336,-36.16,-10.61,13.60
870,55877658,0.6821,-0.4395,-0.4438,-35.06,-11.16,13.90
871,55882658,0.6836,-0.4409,-0.4502,-33.66,-12.01,14.45
872,55887658,0.6880,-0.4453,-0.4502,-31.95,-12.62,15.00
873,55892658,0.6880,-0.4487,-0.4487,-29.88,-13.05,15.49
874,55897658,0.6904,-0.4497,-0.4526,-27.56,-13.78,16.10
875,55902658,0.6899,-0.4541,-0.4644,-25.18,-14.09,16.77
876,55907658,0.6841,-0.4600,-0.4600,-22.50,-14.57,17.13
877,55912657,0.6758,-0.4590,-0.4565,-19.21,-14.94,17.87
878,55917658,0.6709,-0.4585,-0.4595,-16.89,-15.24,18.35
879,55922659,0.6724,-0.4639,-0.4600,-13.84,-15.49,18.78
880,55927658,0.6719,-0.4658,-0.4697,-10.67,-15.79,19.33
881,55932658,0.6724,-0.4673,-0.4692,-7.62,-16.10,19.82
882,55937661,0.6636,-0.4702,-0.4795,-4.09,-16.34,20.49
883,55942658,0.6650,-0.4688,-0.4800,-1.77,-16.65,20.91
884,55947661,0.6616,-0.4678,-0.4819,1.28,-16.89,21.28
885,55952658,0.6597,-0.4741,-0.4819,3.11,-17.01,21.59
886,55957658,0.6636,-0.4810,-0.4995,5.24,-17.13,22.13
887,55962659,0.6636,-0.4761,-0.4932,6.52,-17.38,22.38
888,55967659,0.6621,-0.4785,-0.4995,7.80,-17.50,22.62
889,55972658,0.6582,-0.4824,-0.4980,8.96,-17.50,22.87
890,55977658,0.6538,-0.4873,-0.5083,10.00,-17.56,23.17
891,55982657,0.6504,-0.4834,-0.5142,11.16,-17.38,23.35
892,55987658,0.6450,-0.4844,-0.5176,12.38,-17.26,23.48
893,55992658,0.6445,-0.4839,-0.5171,13.72,-17.20,23.66
894,55997658,0.6353,-0.4878,-0.5249,15.00,-16.95,23.66
895,56002657,0.6309,-0.4824,-0.5322,16.52,-16.59,23.54
896,56008467,0.6289,-0.4819,-0.5332,18.54,-16.40,23.48
897,56012659,0.6226,-0.4849,-0.5312,19.94,-16.10,23.54
898,56017658,0.6211,-0.4844,-0.5303,21.89,-15.61,23.41
899,56022658,0.6250,-0.4805,-0.5332,23.96,-15.30,23.17
900,56027659,0.6157,-0.4814,-0.5391,26.04,-15.06,22.99
901,56032657,0.6177,-0.4819,-0.5391,28.05,-14.70,22.80
902,56037658,0.6157,-0.4854,-0.5469,29.94,-14.51,22.50
903,56042657,0.6138,-0.4858,-0.5522,31.65,-14.33,22.13
904,56047658,0.6177,-0.4883,-0.5522,32.80,-14.09,21.89
905,56052657,0.6191,-0.4961,-0.5547,33.48,-13.96,21.28
906,56057710,0.6187,-0.4985,-0.5630,33.66,-13.78,20.73
907,56062658,0.6172,-0.4971,-0.5605,33.23,-13.60,20.18
908,56067661,0.6172,-0.4995,-0.5610,32.32,-13.48,19.63
909,56072658,0.6167,-0.5000,-0.5601,30.91,-13.48,18.90
910,56077658,0.6123,-0.5044,-0.5669,29.33,-13.48,18.23
911,56082658,0.6128,-0.5049,-0.5615,27.38,-13.23,17.44
912,56087658,0.6108,-0.5103,-0.5552,25.43,-13.11,16.59
913,56092660,0.6050,-0.5083,-0.5566,23.29,-13.05,15.79
914,56097657,0.5996,-0.5117,-0.5615,21.28,-12.80,14.88
915,56102656,0.5933,-0.5112,-0.5557,19.39,-12.62,13.96
916,56107656,0.5850,-0.5098,-0.5532,17.80,-12.26,12.93
917,56112658,0.5791,-0.5117,-0.5479,16.65,-11.95,11.89
918,56117658,0.5742,-0.5093,-0.5488,15.79,-11.59,10.79
919,56122658,0.5752,-0.5078,-0.5425,15.12,-11.28,9.57
920,56127660,0.5781,-0.5132,-0.5483,14.94,-10.91,8.54
921,56132657,0.5781,-0.5132,-0.5483,14.88,-10.55,7.32
922,56137660,0.5791,-0.5186,-0.5474,15.00,-10.24,6.40
923,56142660,0.5835,-0.5186,-0.5415,15.24,-9.82,5.24
924,56147657,0.5859,-0.5200,-0.5420,15.55,-9.45,4.15
925,56152704,0.5913,-0.5234,-0.5498,16.04,-9.27,3.17
926,56157657,0.5884,-0.5269,-0.5396,16.65,-9.02,2.07
927,56162658,0.5986,-0.5264,-0.5439,17.13,-8.90,0.98
928,56167658,0.6021,-0.5293,-0.5439,17.62,-8.90,0.06
929,56172658,0.6050,-0.5293,-0.5454,17.80,-8.72,-1.04
930,56177658,0.6030,-0.5327,-0.5439,17.87,-8.66,-2.13
931,56183154,0.6055,-0.5327,-0.5439,17.68,-8.54,-3.05
932,56187658,0.6089,-0.5381,-0.5444,17.38,-8.60,-4.09
933,56192657,0.6084,-0.5386,-0.5400,16.71,-8.48,-5.12
934,56197660,0.6040,-0.5454,-0.5391,15.98,-8.35,-6.10
935,56202658,0.6016,-0.5474,-0.5439,15.06,-8.29,-7.07
936,56207658,0.5991,-0.5464,-0.5420,14.27,-8.29,-7.93
937,56212658,0.6030,-0.5483,-0.5454,13.35,-8.17,-8.84
938,56217658,0.5908,-0.5474,-0.5415,12.50,-8.11,-9.70
939,56222950,0.5913,-0.5493,-0.5435,11.95,-7.93,-10.49
940,56227658,0.5801,-0.5479,-0.5356,11.28,-7.80,-11.34
941,56232658,0.5732,-0.5449,-0.5352,10.91,-7.56,-12.07
942,56237658,0.5698,-0.5396,-0.5317,10.98,-7.32,-12.87
943,56243067,0.5615,-0.5381,-0.5317,10.98,-7.07,-13.60
944,56247658,0.5547,-0.5322,-0.5352,11.28,-6.71,-14.33
945,56252658,0.5479,-0.5342,-0.5293,11.52,-6.52,-15.12
946,56257658,0.5469,-0.5312,-0.5361,12.07,-6.22,-15.85
947,56262658,0.5435,-0.5303,-0.5327,12.68,-6.10,-16.59
948,56267659,0.5415,-0.5273,-0.5254,13.17,-5.91,-17.13
949,56272658,0.5400,-0.5249,-0.5283,13.54,-5.85,-17.93
950,56277658,0.5454,-0.5234,-0.5269,13.78,-5.49,-18.48
951,56282657,0.5439,-0.5239,-0.5225,14.09,-5.49,-19.09
952,56287657,0.5469,-0.5220,-0.5234,14.02,-5.43,-19.63
953,56292658,0.5469,-0.5190,-0.5210,13.84,-5.37,-20.00
954,56297657,0.5513,-0.5161,-0.5186,13.72,-5.37,-20.49
955,56302656,0.5508,-0.5127,-0.5142,13.72,-5.49,-20.91
956,56307658,0.5562,-0.5122,-0.5132,13.78,-5.67,-21.34
957,56312657,0.5605,-0.5063,-0.5068,13.84,-5.91,-21.65
958,56317660,0.5605,-0.5015,-0.5005,13.84,-6.16,-21.89
959,56322657,0.5679,-0.4961,-0.5078,13.90,-6.52,-22.07
960,56327658,0.5674,-0.4946,-0.5000,14.02,-7.07,-22.26
961,56332658,0.5654,-0.4961,-0.4937,14.15,-7.62,-22.26
962,56337658,0.5679,-0.4897,-0.4990,13.96,-7.99,-22.38
963,56342657,0.5693,-0.4883,-0.4951,13.84,-8.72,-22.38
964,56347673,0.5659,-0.4863,-0.4946,13.41,-9.33,-22.38
965,56352657,0.5669,-0.4844,-0.4946,12.68,-9.94,-22.32
966,56357658,0.5659,-0.4854,-0.5020,12.07,-10.30,-22.44
967,56362676,0.5601,-0.4854,-0.5020,11.04,-10.67,-22.38
968,56367657,0.5547,-0.4858,-0.5000,9.76,-11.22,-22.44
969,56372658,0.5522,-0.4800,-0.5020,8.84,-11.59,-22.20
970,56377671,0.5498,-0.4795,-0.5034,7.56,-11.71,-22.20
971,56382657,0.5479,-0.4849,-0.5078,6.22,-12.07,-22.07
972,56387659,0.5488,-0.4854,-0.5049,4.88,-12.32,-22.01
973,56392658,0.5435,-0.4790,-0.5103,3.90,-12.62,-21.89
974,56397658,0.5435,-0.4814,-0.5093,2.99,-12.68,-21.89
975,56402658,0.5483,-0.4771,-0.5151,2.38,-12.87,-21.65
976,56407658,0.5508,-0.4775,-0.5117,2.07,-13.11,-21.34
977,56412658,0.5508,-0.4736,-0.5186,2.07,-13.23,-21.10
978,56417658,0.5581,-0.4751,-0.5142,2.44,-13.48,-20.91
979,56422658,0.5605,-0.4692,-0.5176,3.05,-13.90,-20.61
980,56427763,0.5684,-0.4707,-0.5142,3.60,-14.21,-20.00
981,56432737,0.5693,-0.4673,-0.5244,4.33,-14.57,-19.70
982,56437658,0.5742,-0.4697,-0.5205,4.94,-15.00,-19.33
983,56442658,0.5786,-0.4692,-0.5259,5.37,-15.55,-18.72
984,56447658,0.5859,-0.4683,-0.5317,5.61,-15.91,-18.11
985,56452658,0.5850,-0.4751,-0.5332,5.61,-16.40,-17.50
986,56457661,0.5830,-0.4727,-0.5400,5.12,-16.59,-16.83
987,56462658,0.5825,-0.4731,-0.5405,4.57,-16.89,-16.40
988,56467661,0.5850,-0.4717,-0.5474,3.48,-17.07,-15.67
989,56472659,0.5845,-0.4707,-0.5464,2.62,-17.07,-15.24
990,56477658,0.5825,-0.4717,-0.5474,1.34,-17.13,-14.63
991,56482658,0.5825,-0.4741,-0.5479,0.06,-17.20,-14.02
992,56487735,0.5840,-0.4717,-0.5547,-0.91,-17.13,-13.54
993,56492657,0.5869,-0.4712,-0.5557,-1.77,-17.20,-12.80
994,56497658,0.5879,-0.4702,-0.5654,-2.26,-17.13,-12.20
995,56502941,0.5986,-0.4712,-0.5732,-2.32,-16.95,-11.28
996,56507658,0.6011,-0.4697,-0.5728,-2.01,-16.95,-10.67
997,56512661,0.6060,-0.4697,-0.5850,-1.16,-17.01,-9.82
998,56517657,0.6099,-0.4746,-0.5815,0.06,-16.83,-8.90
999,56522660,0.6118,-0.4717,-0.5908,1.71,-16.65,-8.11
1000,56527658,0.6162,-0.4736,-0.5913,3.60,-16.65,-7.13
1001,56532657,0.6128,-0.4673,-0.5938,5.73,-16.52,-6.22
1002,56537658,0.6133,-0.4722,-0.5972,7.80,-16.22,-5.49
1003,56542681,0.6084,-0.4707,-0.6025,10.18,-15.98,-4.51
1004,56547657,0.6030,-0.4663,-0.6094,12.68,-15.67,-3.84
1005,56552658,0.5938,-0.4673,-0.6099,15.00,-15.18,-3.23
1006,56557657,0.5898,-0.4658,-0.6143,17.26,-14.70,-2.74
1007,56562661,0.5889,-0.4639,-0.6274,19.51,-14.27,-2.26
1008,56567661,0.5854,-0.4653,-0.6265,21.65,-13.90,-1.71
1009,56572658,0.5820,-0.4629,-0.6338,23.41,-13.23,-1.40
1010,56577658,0.5742,-0.4678,-0.6338,25.12,-12.62,-1.10
1011,56582658,0.5791,-0.4663,-0.6426,26.52,-12.07,-0.98
1012,56587658,0.5791,-0.4673,-0.6421,27.62,-11.34,-0.79
1013,56592658,0.5728,-0.4697,-0.6426,28.29,-10.49,-0.73
1014,56597661,0.5718,-0.4702,-0.6445,28.48,-9.76,-0.85
1015,56602656,0.5781,-0.4741,-0.6484,28.41,-8.96,-0.98
1016,56607658,0.5781,-0.4717,-0.6460,28.05,-8.05,-1.16
1017,56612658,0.5776,-0.4712,-0.6440,27.68,-7.07,-1.40
1018,56617658,0.5776,-0.4702,-0.6421,27.20,-6.34,-1.71
1019,56622661,0.5825,-0.4741,-0.6445,26.71,-5.49,-2.01
1020,56627658,0.5859,-0.4727,-0.6436,26.46,-4.70,-2.26
1021,56632791,0.5859,-0.4746,-0.6431,26.28,-3.96,-2.62
1022,56637658,0.5854,-0.4756,-0.6382,26.40,-3.17,-2.93
1023,56642658,0.5879,-0.4751,-0.6333,26.89,-2.44,-3.35
1024,56647658,0.5942,-0.4707,-0.6260,27.68,-1.83,-3.78
1025,56653070,0.5942,-0.4707,-0.6245,28.72,-1.28,-4.09
1026,56657658,0.5908,-0.4673,-0.6255,30.37,-0.67,-4.27
1027,56662658,0.5903,-0.4619,-0.6221,32.26,-0.18,-4.76
1028,56667658,0.5928,-0.4609,-0.6172,34.39,0.24,-5.18
1029,56672719,0.5952,-0.4595,-0.6001,36.59,0.98,-5.67
1030,56677658,0.5942,-0.4512,-0.5938,38.84,1.22,-5.98
1031,56682658,0.5947,-0.4507,-0.5845,41.22,1.65,-6.34
1032,56687659,0.5928,-0.4453,-0.5747,43.41,2.07,-6.89
1033,56692657,0.5981,-0.4438,-0.5610,45.55,2.38,-7.38
1034,56697660,0.5981,-0.4404,-0.5474,47.50,2.56,-7.80
1035,56702658,0.6016,-0.4346,-0.5347,49.33,2.74,-8.29
1036,56707657,0.6025,-0.4375,-0.5249,50.98,2.68,-8.66
1037,56712658,0.6128,-0.4380,-0.5156,52.62,2.68,-9.09
1038,56717658,0.6230,-0.4351,-0.5103,54.15,2.50,-9.27
1039,56722658,0.6343,-0.4399,-0.5049,55.61,2.01,-9.45
1040,56727658,0.6470,-0.4395,-0.4907,56.95,1.46,-9.57
1041,56732658,0.6572,-0.4434,-0.4829,58.17,0.79,-9.57
1042,56737658,0.6675,-0.4448,-0.4824,58.96,0.00,-9.57
1043,56742658,0.6719,-0.4512,-0.4824,59.21,-0.85,-9.57
1044,56747658,0.6724,-0.4570,-0.4731,59.02,-1.95,-9.45
1045,56752659,0.6670,-0.4624,-0.4634,58.23,-2.87,-9.39
1046,56757658,0.6660,-0.4736,-0.4692,57.01,-3.72,-9.33
1047,56762657,0.6606,-0.4751,-0.4663,55.55,-4.39,-9.21
1048,56767658,0.6567,-0.4761,-0.4717,54.02,-5.00,-9.21
1049,56773153,0.6475,-0.4829,-0.4658,52.44,-5.55,-9.33
1050,56777658,0.6367,-0.4902,-0.4629,51.22,-6.28,-9.51
1051,56783143,0.6265,-0.5010,-0.4668,50.18,-6.65,-9.76
1052,56787658,0.6196,-0.5049,-0.4697,49.70,-7.26,-9.88
1053,56792658,0.6118,-0.5044,-0.4629,49.82,-7.50,-9.94
1054,56797658,0.6025,-0.5034,-0.4551,50.85,-7.99,-10.24
1055,56802796,0.5879,-0.5083,-0.4526,52.50,-8.48,-10.30
1056,56807658,0.5815,-0.5151,-0.4614,55.06,-9.15,-10.37
1057,56812658,0.5913,-0.5283,-0.4775,58.05,-9.94,-10.37
1058,56817658,0.5942,-0.5308,-0.4834,61.10,-10.98,-10.18
1059,56822659,0.5898,-0.5376,-0.4795,63.48,-11.89,-10.30
1060,56827658,0.5659,-0.5562,-0.4741,64.76,-12.56,-10.49
1061,56832658,0.5483,-0.5654,-0.4673,65.00,-13.23,-10.79
1062,56837658,0.5337,-0.5742,-0.4678,63.96,-13.41,-11.10
1063,56842658,0.5288,-0.5840,-0.4702,62.07,-13.72,-11.46
1064,56847657,0.5317,-0.5820,-0.4678,59.33,-13.96,-11.89
1065,56852660,0.5327,-0.5820,-0.4678,56.10,-14.02,-12.44
1066,56857679,0.5308,-0.5815,-0.4502,52.62,-14.39,-12.99
1067,56862660,0.5308,-0.5825,-0.4448,48.84,-14.63,-13.48
1068,56867657,0.5259,-0.5840,-0.4399,46.04,-14.76,-13.84
1069,56872658,0.5264,-0.5869,-0.4336,42.07,-15.18,-14.21
1070,56877658,0.5249,-0.5903,-0.4399,39.45,-15.67,-14.39
1071,56882657,0.5269,-0.5908,-0.4365,37.68,-16.28,-14.70
1072,56887717,0.5269,-0.5928,-0.4434,35.12,-17.20,-14.94
1073,56892658,0.5205,-0.5942,-0.4453,33.41,-17.68,-15.18
1074,56898427,0.4946,-0.6035,-0.4507,30.37,-18.35,-15.79
1075,56902672,0.4819,-0.6123,-0.4487,28.17,-18.60,-16.16
1076,56907688,0.4722,-0.6240,-0.4580,25.00,-18.84,-16.83
1077,56912658,0.4556,-0.6255,-0.4517,21.40,-18.96,-17.38
1078,56918193,0.4409,-0.6328,-0.4531,17.20,-18.90,-18.29
1079,56922658,0.4390,-0.6377,-0.4541,14.57,-18.96,-18.84
1080,56927658,0.4326,-0.6357,-0.4604,11.71,-18.78,-19.57
1081,56932658,0.4302,-0.6416,-0.4692,9.15,-18.78,-20.55
1082,56937658,0.4287,-0.6421,-0.4644,7.38,-18.54,-21.10
1083,56942658,0.4297,-0.6479,-0.4673,6.10,-18.41,-21.89
1084,56947659,0.4287,-0.6431,-0.4697,5.67,-18.23,-22.62
1085,56952658,0.4287,-0.6357,-0.4688,5.67,-18.11,-23.41
1086,56957658,0.4370,-0.6367,-0.4639,6.16,-18.11,-24.09
1087,56962658,0.4365,-0.6372,-0.4629,6.95,-18.05,-24.63
1088,56967658,0.4478,-0.6416,-0.4585,7.74,-18.23,-25.18
1089,56972658,0.4526,-0.6426,-0.4609,8.66,-18.41,-25.67
1090,56977658,0.4546,-0.6426,-0.4541,9.51,-18.35,-26.04
1091,56982658,0.4526,-0.6377,-0.4517,10.55,-18.66,-26.65
1092,56987734,0.4487,-0.6382,-0.4546,11.52,-18.90,-27.20
1093,56992657,0.4531,-0.6367,-0.4463,12.32,-19.33,-27.68
1094,56997658,0.4556,-0.6357,-0.4487,12.99,-19.82,-28.23
1095,57002658,0.4663,-0.6401,-0.4521,13.48,-20.37,-28.72
1096,57007659,0.4678,-0.6396,-0.4502,13.90,-21.04,-29.09
1097,57012658,0.4736,-0.6392,-0.4517,13.96,-21.83,-29.63
1098,57017658,0.4736,-0.6396,-0.4531,13.96,-22.56,-30.00
1099,57022659,0.4751,-0.6357,-0.4463,13.90,-23.35,-30.49
1100,57027657,0.4775,-0.6362,-0.4526,13.60,-24.02,-30.79
1101,57032658,0.4785,-0.6318,-0.4458,13.23,-24.76,-31.22
1102,57037734,0.4766,-0.6284,-0.4492,12.32,-25.49,-31.71
1103,57042658,0.4805,-0.6343,-0.4556,11.04,-26.34,-32.26
1104,57047657,0.4810,-0.6333,-0.4624,9.21,-26.89,-32.62
1105,57052658,0.4766,-0.6328,-0.4624,6.83,-27.38,-33.05
1106,57057657,0.4775,-0.6240,-0.4595,4.21,-28.05,-33.41
1107,57062874,0.4785,-0.6216,-0.4556,1.10,-28.48,-33.78
1108,57067658,0.4761,-0.6177,-0.4536,-2.26,-29.02,-34.09
1109,57072658,0.4722,-0.6187,-0.4536,-6.77,-29.70,-34.45
1110,57077658,0.4639,-0.6128,-0.4600,-9.63,-30.18,-34.76
1111,57082731,0.4624,-0.6147,-0.4531,-13.11,-30.79,-34.88
1112,57087658,0.4609,-0.6133,-0.4595,-15.98,-31.34,-35.00
1113,57092658,0.4604,-0.6084,-0.4551,-17.93,-31.77,-35.18
1114,57097658,0.4521,-0.5933,-0.4473,-18.84,-32.56,-35.37
1115,57102658,0.4531,-0.5879,-0.4570,-18.54,-32.87,-35.55
1116,57108259,0.4546,-0.5918,-0.4507,-16.59,-33.66,-35.73
1117,57112658,0.4565,-0.5840,-0.4551,-14.21,-34.33,-35.79
1118,57117659,0.4663,-0.5830,-0.4619,-10.00,-35.06,-35.85
1119,57122974,0.4761,-0.5747,-0.4590,-4.76,-36.04,-35.85
1120,57127793,0.4868,-0.5669,-0.4575,1.40,-37.01,-35.79
1121,57132743,0.4956,-0.5625,-0.4556,8.35,-38.54,-35.67
1122,57137656,0.5093,-0.5547,-0.4521,15.49,-40.00,-35.49
1123,57142658,0.5210,-0.5459,-0.4512,23.11,-41.71,-35.37
1124,57147657,0.5322,-0.5488,-0.4502,30.37,-43.41,-34.94
1125,57152660,0.5444,-0.5425,-0.4395,37.32,-45.61,-34.57
1126,57157661,0.5503,-0.5352,-0.4277,44.88,-48.17,-34.15
1127,57162660,0.5537,-0.5264,-0.4150,49.33,-49.94,-33.84
1128,57167656,0.5596,-0.5234,-0.4058,54.09,-52.07,-33.48
1129,57173145,0.5601,-0.5186,-0.3965,57.87,-54.33,-33.11
1130,57177658,0.5664,-0.5132,-0.3965,60.37,-56.46,-32.80
1131,57182657,0.5688,-0.5083,-0.3809,61.83,-58.78,-32.50
1132,57188293,0.5737,-0.5093,-0.3760,62.13,-61.46,-32.01
1133,57192657,0.5747,-0.5146,-0.3760,61.22,-63.48,-31.65
1134,57197661,0.5811,-0.5220,-0.3765,59.33,-65.98,-31.04
1135,57202656,0.5854,-0.5190,-0.3730,56.71,-68.60,-30.30
1136,57207656,0.6011,-0.5210,-0.3755,53.48,-71.16,-29.70
1137,57212658,0.6030,-0.5146,-0.3599,49.70,-73.72,-28.96
1138,57217660,0.6172,-0.5005,-0.4082,45.61,-76.10,-28.29
1139,57222657,0.5981,-0.4751,-0.4194,40.55,-79.63,-28.05
1140,57227940,0.5825,-0.4683,-0.4658,35.43,-81.34,-27.93
1141,57232658,0.5806,-0.4937,-0.4170,29.21,-84.51,-27.93
1142,57237658,0.5830,-0.4468,-0.3330,23.54,-86.71,-27.93
1143,57242658,0.5688,-0.3950,-0.4224,17.80,-87.44,-28.54
1144,57247659,0.5181,-0.4370,-0.3979,12.38,-87.50,-29.02
1145,57252658,0.4888,-0.4189,-0.3013,7.44,-89.02,-29.09
1146,57257658,0.4736,-0.3989,-0.3184,2.99,-91.28,-29.02
1147,57262658,0.4717,-0.3994,-0.3921,-0.67,-91.89,-29.09
1148,57267658,0.4780,-0.4058,-0.3379,-3.54,-92.93,-28.90
1149,57272658,0.4800,-0.4185,-0.2515,-5.24,-95.00,-28.41
1150,57277743,0.4766,-0.4185,-0.2847,-5.98,-96.95,-27.74
1151,57282657,0.4590,-0.4048,-0.3301,-5.37,-97.68,-26.89
1152,57287873,0.4443,-0.3989,-0.2734,-3.66,-99.70,-25.91
1153,57292658,0.4346,-0.3994,-0.2466,-0.12,-102.26,-24.57
1154,57297676,0.4370,-0.4019,-0.2988,4.70,-104.63,-22.99
1155,57302657,0.4502,-0.3940,-0.3081,11.34,-106.89,-21.16
1156,57307899,0.4619,-0.3853,-0.2402,19.51,-110.12,-19.21
1157,57312659,0.4727,-0.3887,-0.2349,28.96,-113.72,-16.83
1158,57317656,0.4736,-0.3906,-0.2710,39.27,-116.52,-14.39
1159,57322656,0.4717,-0.3848,-0.2505,50.06,-119.76,-11.40
1160,57327658,0.4771,-0.3857,-0.2104,61.34,-123.60,-8.29
1161,57332657,0.4736,-0.3936,-0.2354,72.62,-127.38,-4.88
1162,57337660,0.4727,-0.3960,-0.2749,83.84,-130.98,-1.04
1163,57342658,0.4629,-0.4043,-0.2505,94.94,-135.06,3.29
1164,57347658,0.4497,-0.4072,-0.2324,105.79,-139.39,7.56
1165,57352658,0.4268,-0.4082,-0.2495,116.40,-143.41,12.38
1166,57357657,0.4150,-0.4155,-0.2651,126.83,-146.77,17.26
1167,57362662,0.4077,-0.4331,-0.2520,136.04,-150.67,22.20
1168,57367658,0.3955,-0.4468,-0.2773,144.70,-154.63,27.74
1169,57372658,0.3643,-0.4546,-0.3003,152.74,-158.05,33.29
1170,57377658,0.3403,-0.4517,-0.2866,160.30,-160.98,38.90
1171,57382658,0.3140,-0.4580,-0.2671,167.26,-164.02,44.57
1172,57387657,0.2822,-0.4697,-0.2749,173.41,-166.59,50.37
1173,57392658,0.2583,-0.4751,-0.2988,178.96,-168.41,56.10
1174,57398393,0.2554,-0.4336,-0.2363,183.54,-170.30,61.65
1175,57402658,0.2183,-0.4331,-0.2280,186.95,-171.83,67.38
1176,57407658,0.1777,-0.4502,-0.2690,189.51,-172.93,73.35
1177,57412658,0.1436,-0.4517,-0.2749,190.98,-173.90,79.39
1178,57417658,0.1250,-0.4541,-0.2446,191.71,-175.24,85.30
1179,57422658,0.1191,-0.4609,-0.2632,191.65,-176.22,91.16
1180,57427707,0.1362,-0.4546,-0.3047,190.79,-176.71,96.71
1181,57432657,0.1343,-0.4658,-0.3120,188.54,-177.20,101.83
1182,57437660,0.1230,-0.4834,-0.3433,185.30,-178.11,106.59
1183,57442683,0.0938,-0.5000,-0.3848,180.91,-178.60,110.91
1184,57447717,0.0645,-0.5269,-0.3989,175.24,-178.78,114.76
1185,57452658,0.0303,-0.5396,-0.3882,169.45,-179.21,117.26
1186,57457658,-0.0132,-0.5698,-0.4312,160.67,-179.15,119.76
1187,57462658,-0.0571,-0.6753,-0.4785,149.76,-178.90,121.59
1188,57467658,-0.1748,-0.7251,-0.4595,137.26,-179.02,123.48
1189,57472658,-0.2598,-0.6870,-0.3853,125.37,-179.09,125.49
1190,57477658,-0.2593,-0.6729,-0.4263,114.02,-177.32,127.20
1191,57482657,-0.2368,-0.6904,-0.3848,103.60,-175.61,129.15
1192,57487657,-0.2026,-0.6987,-0.3442,94.33,-174.76,131.04
1193,57492658,-0.1831,-0.7051,-0.3765,85.98,-173.60,132.80
1194,57497657,-0.1812,-0.7070,-0.4243,78.17,-171.95,134.27
1195,57502657,-0.1919,-0.6943,-0.4146,71.10,-170.85,135.37
1196,57507658,-0.2163,-0.6597,-0.4121,63.84,-170.06,136.10
1197,57512658,-0.2607,-0.6743,-0.4673,56.52,-168.96,136.71
1198,57517660,-0.3042,-0.7100,-0.4966,49.15,-167.80,137.13
1199,57522658,-0.3164,-0.7427,-0.4922,42.01,-167.13,137.80
1200,57527657,-0.3110,-0.7480,-0.4629,35.79,-166.77,138.78
1201,57532658,-0.2666,-0.7373,-0.4619,29.27,-165.24,139.57
1202,57537658,-0.2393,-0.7490,-0.4365,25.00,-164.02,139.70
1203,57542658,-0.2402,-0.7529,-0.4155,19.15,-162.44,139.45
1204,57547659,-0.2856,-0.7612,-0.4307,13.05,-160.43,138.84
1205,57552827,-0.3418,-0.8091,-0.4463,7.74,-158.35,138.72
1206,57557657,-0.3813,-0.7686,-0.3916,3.90,-157.01,139.21
1207,57562658,-0.3843,-0.7539,-0.4136,1.16,-155.24,139.82
1208,57567658,-0.3887,-0.7534,-0.4619,-1.10,-153.29,140.24
1209,57572658,-0.4160,-0.7432,-0.4736,-3.11,-151.52,140.55
1210,57577662,-0.4443,-0.7290,-0.4673,-4.70,-149.94,140.91
1211,57582660,-0.4673,-0.7017,-0.4751,-5.85,-147.93,141.22
1212,57587788,-0.4971,-0.7178,-0.4971,-7.32,-145.55,141.28
1213,57592658,-0.5195,-0.7031,-0.4878,-8.35,-143.17,141.40
1214,57597658,-0.5391,-0.6675,-0.4272,-8.84,-141.04,140.98
1215,57602658,-0.5649,-0.6729,-0.4731,-9.45,-138.17,140.43
1216,57607657,-0.5625,-0.6978,-0.4746,-9.82,-135.00,139.82
1217,57612658,-0.5405,-0.7139,-0.4365,-9.63,-132.01,139.02
1218,57617658,-0.5225,-0.7217,-0.4360,-8.96,-129.15,138.23
1219,57622658,-0.5146,-0.7354,-0.4097,-7.80,-125.85,137.13
1220,57627689,-0.5176,-0.7412,-0.4351,-6.46,-122.26,135.73
1221,57632657,-0.5171,-0.7544,-0.4072,-5.12,-118.54,134.02
1222,57637659,-0.5073,-0.7754,-0.3916,-3.72,-114.88,132.01
1223,57642657,-0.4902,-0.8076,-0.3979,-2.44,-110.85,129.63
1224,57647817,-0.5239,-0.8545,-0.4155,-1.71,-106.77,127.07
1225,57652657,-0.5400,-0.8999,-0.4160,-1.34,-103.05,124.57
1226,57657658,-0.5376,-0.9346,-0.4111,-1.77,-99.27,121.65
1227,57662658,-0.5586,-0.9824,-0.4170,-3.05,-95.00,118.48
1228,57667658,-0.5835,-1.0225,-0.4160,-5.24,-90.30,115.06
1229,57672658,-0.6118,-1.0601,-0.4185,-8.11,-85.55,111.16
1230,57677658,-0.6357,-1.0898,-0.4321,-11.46,-80.61,107.07
1231,57682672,-0.6528,-1.1069,-0.4399,-14.51,-75.73,102.50
1232,57687657,-0.6729,-1.1289,-0.4502,-17.20,-70.79,97.74
1233,57693134,-0.6909,-1.1392,-0.4595,-19.27,-65.00,91.77
1234,57697658,-0.6953,-1.1582,-0.4722,-19.76,-61.34,88.05
1235,57702658,-0.7031,-1.1714,-0.4839,-19.15,-56.89,82.87
1236,57707658,-0.7197,-1.1997,-0.5093,-17.44,-52.80,77.99
1237,57712660,-0.7188,-1.1982,-0.5312,-14.63,-49.33,73.23
1238,57717657,-0.7188,-1.2129,-0.5479,-10.73,-46.16,68.41
1239,57722659,-0.7354,-1.2329,-0.5786,-5.98,-43.48,63.90
1240,57727658,-0.7480,-1.2632,-0.5977,-0.61,-41.52,59.51
1241,57732657,-0.7500,-1.2930,-0.6191,5.18,-39.70,55.30
1242,57737659,-0.7500,-1.3232,-0.6284,11.16,-38.35,51.28
1243,57742658,-0.7539,-1.3433,-0.6406,17.07,-37.38,47.07
1244,57747658,-0.7520,-1.3716,-0.6611,22.80,-36.40,42.99
1245,57752675,-0.7510,-1.3867,-0.6807,28.17,-35.30,38.66
1246,57757657,-0.7456,-1.3984,-0.6987,32.99,-34.51,34.27
1247,57762658,-0.7383,-1.4097,-0.7134,37.32,-33.54,29.94
1248,57767658,-0.7285,-1.4185,-0.7319,40.73,-32.50,25.43
1249,57772658,-0.7036,-1.4287,-0.7456,43.11,-31.22,20.85
1250,57777658,-0.6909,-1.4253,-0.7632,44.27,-29.70,15.98
1251,57782657,-0.6841,-1.4185,-0.7793,44.70,-27.87,10.98
1252,57788401,-0.6528,-1.3960,-0.8096,43.54,-25.24,4.63
1253,57792658,-0.6284,-1.3706,-0.8228,42.01,-23.41,0.24
1254,57797658,-0.5781,-1.3325,-0.8320,38.96,-20.55,-5.49
1255,57802657,-0.5332,-1.2935,-0.8501,34.76,-17.50,-11.59
1256,57807658,-0.4985,-1.2520,-0.8574,29.21,-14.27,-17.99
1257,57812657,-0.4873,-1.2119,-0.8799,22.38,-10.61,-24.57
1258,57817658,-0.4780,-1.1636,-0.8999,14.39,-6.59,-31.34
1259,57822657,-0.4673,-1.1313,-0.9175,5.49,-2.50,-38.11
1260,57827658,-0.4551,-1.0942,-0.9219,-3.54,2.20,-44.82
1261,57832657,-0.4321,-1.0674,-0.9321,-12.56,6.83,-51.34
1262,57837658,-0.4092,-1.0415,-0.9336,-21.16,11.59,-57.68
1263,57842658,-0.3901,-1.0186,-0.9351,-28.78,16.52,-63.72
1264,57847658,-0.3813,-1.0010,-0.9360,-35.43,21.65,-69.33
1265,57852658,-0.3823,-0.9795,-0.9204,-40.85,26.65,-74.70
1266,57857658,-0.3755,-0.9653,-0.9102,-45.37,31.59,-79.63
1267,57862658,-0.3804,-0.9541,-0.9092,-48.84,36.46,-84.09
1268,57867658,-0.3818,-0.9438,-0.9053,-51.46,41.28,-88.35
1269,57872658,-0.3853,-0.9390,-0.8989,-53.35,46.16,-92.07
1270,57877658,-0.3857,-0.9312,-0.8877,-54.70,51.10,-95.43
1271,57882659,-0.3872,-0.9258,-0.8706,-55.49,55.91,-98.48
1272,57887658,-0.3926,-0.9072,-0.8628,-56.16,60.61,-101.40
1273,57892658,-0.3945,-0.8936,-0.8594,-56.40,65.61,-103.96
1274,57897657,-0.3994,-0.8872,-0.8564,-56.16,70.18,-106.22
1275,57902658,-0.4038,-0.8745,-0.8535,-55.55,74.76,-108.29
1276,57907658,-0.4102,-0.8638,-0.8535,-54.63,79.45,-110.18
1277,57912658,-0.4111,-0.8555,-0.8569,-53.66,84.27,-111.89
1278,57917658,-0.4180,-0.8486,-0.8643,-52.56,87.74,-113.23
1279,57922720,-0.4224,-0.8491,-0.8628,-51.46,92.20,-114.70
1280,57927660,-0.4336,-0.8647,-0.8564,-50.79,96.65,-115.85
1281,57932679,-0.4316,-0.8730,-0.8623,-50.79,101.10,-116.77
1282,57937657,-0.4419,-0.8857,-0.8633,-51.10,105.91,-117.68
1283,57942658,-0.4478,-0.8892,-0.8613,-51.83,110.24,-118.23
1284,57947717,-0.4551,-0.8916,-0.8618,-52.68,114.76,-118.78
1285,57952657,-0.4492,-0.8950,-0.8594,-53.48,119.21,-119.15
1286,57957658,-0.4507,-0.9019,-0.8555,-54.09,123.41,-119.51
1287,57962658,-0.4502,-0.9116,-0.8535,-54.33,127.50,-119.76
1288,57967658,-0.4536,-0.9204,-0.8374,-54.27,131.46,-119.94
1289,57972661,-0.4570,-0.9331,-0.8306,-53.72,135.37,-120.00
1290,57977658,-0.4531,-0.9541,-0.8325,-52.93,139.09,-119.88
1291,57982658,-0.4502,-0.9663,-0.8237,-52.01,142.68,-119.63
1292,57987658,-0.4497,-0.9702,-0.8101,-50.73,145.85,-119.33
1293,57992657,-0.4448,-0.9756,-0.8125,-49.45,149.09,-119.09
1294,57997658,-0.4473,-0.9736,-0.7998,-48.29,152.32,-118.72
1295,58002706,-0.4316,-0.9663,-0.7896,-47.13,155.18,-118.41
1296,58007657,-0.4214,-0.9648,-0.7773,-46.28,157.74,-118.05
1297,58012658,-0.4028,-0.9604,-0.7754,-45.85,160.06,-117.62
1298,58017658,-0.3921,-0.9473,-0.7607,-45.61,162.26,-117.26
1299,58022658,-0.3804,-0.9399,-0.7466,-45.91,163.96,-116.89
1300,58027658,-0.3721,-0.9287,-0.7354,-46.28,165.67,-116.34
1301,58032658,-0.3584,-0.9155,-0.7202,-46.89,167.20,-115.79
1302,58037940,-0.3481,-0.9023,-0.6943,-47.38,168.35,-115.37
1303,58042657,-0.3423,-0.9038,-0.6953,-47.93,169.33,-114.88
1304,58048133,-0.3325,-0.8931,-0.6777,-48.96,171.04,-114.27
1305,58052658,-0.3242,-0.8721,-0.6895,-49.51,171.89,-113.84
1306,58057659,-0.3105,-0.8613,-0.6597,-50.18,172.87,-113.41
1307,58062657,-0.3120,-0.8496,-0.6299,-50.79,173.66,-112.93
1308,58067658,-0.3032,-0.8271,-0.6250,-51.28,174.51,-112.38
1309,58072658,-0.2949,-0.8218,-0.6328,-51.40,175.37,-111.95
1310,58077658,-0.2739,-0.8042,-0.5840,-51.10,175.85,-111.46
1311,58082657,-0.2637,-0.7705,-0.5752,-49.94,176.10,-111.16
1312,58087660,-0.2407,-0.7490,-0.6177,-48.17,176.89,-110.79
1313,58092657,-0.2339,-0.7446,-0.5918,-46.22,177.20,-110.49
1314,58097656,-0.2241,-0.7476,-0.5605,-43.78,176.65,-110.06
1315,58102657,-0.2231,-0.7397,-0.5405,-41.16,175.49,-109.45
1316,58107656,-0.2031,-0.7134,-0.5620,-38.17,175.30,-109.09
1317,58112658,-0.2056,-0.6963,-0.6523,-35.06,176.28,-108.48
1318,58117658,-0.1870,-0.6792,-0.5552,-31.89,175.85,-107.87
1319,58122658,-0.1592,-0.6763,-0.4424,-28.84,173.54,-107.20
1320,58127674,-0.1343,-0.7485,-0.4668,-26.10,171.52,-106.52
1321,58132657,-0.1113,-0.7544,-0.4956,-22.87,170.43,-105.43
1322,58137658,-0.0903,-0.7153,-0.4253,-19.76,168.23,-104.63
1323,58142657,-0.0664,-0.6826,-0.3867,-17.01,165.55,-103.96
1324,58147658,-0.0791,-0.6616,-0.4399,-14.82,164.02,-103.29
1325,58152659,-0.0620,-0.6406,-0.4087,-13.23,162.62,-102.50
1326,58157657,-0.0405,-0.6343,-0.3286,-12.20,160.55,-101.52
1327,58162658,-0.0439,-0.6416,-0.3218,-11.52,158.17,-100.49
1328,58167658,-0.0020,-0.6406,-0.3423,-11.40,156.52,-99.21
1329,58172658,0.0308,-0.6221,-0.3120,-11.34,154.51,-97.99
1330,58177657,0.0518,-0.6050,-0.2695,-11.65,151.71,-96.65
1331,58182658,0.0547,-0.5806,-0.3071,-12.26,148.96,-95.37
1332,58187657,0.0527,-0.5562,-0.3135,-13.11,146.34,-93.84
1333,58192658,0.0605,-0.5322,-0.2832,-14.27,143.23,-92.38
1334,58197661,0.0664,-0.5132,-0.2881,-15.73,139.70,-90.85
1335,58202656,0.0791,-0.4985,-0.3096,-17.56,136.52,-89.21
1336,58207914,0.1084,-0.4980,-0.2988,-19.94,133.23,-87.50
1337,58212658,0.1367,-0.5000,-0.2676,-22.68,129.70,-85.61
1338,58217660,0.1602,-0.5122,-0.2744,-25.55,126.16,-83.72
1339,58222658,0.1855,-0.5317,-0.2808,-28.11,123.11,-81.59
1340,58227658,0.2100,-0.5532,-0.2646,-30.43,119.94,-79.39
1341,58232658,0.2393,-0.5742,-0.2354,-31.95,116.59,-77.38
1342,58237657,0.2676,-0.5801,-0.2261,-32.87,113.35,-75.43
1343,58242660,0.2847,-0.5806,-0.2056,-33.05,110.73,-73.66
1344,58247657,0.2939,-0.5830,-0.1948,-32.93,107.56,-72.01
1345,58252658,0.2915,-0.5806,-0.1826,-32.50,104.21,-70.43
1346,58257656,0.2876,-0.5771,-0.1943,-31.65,100.91,-69.15
1347,58262658,0.2896,-0.5693,-0.1797,-30.61,97.68,-67.93
1348,58267657,0.2944,-0.5649,-0.1768,-29.33,94.45,-66.77
1349,58273134,0.2969,-0.5527,-0.1597,-27.62,90.49,-65.49
1350,58277658,0.3071,-0.5503,-0.1416,-26.46,88.41,-64.63
1351,58282658,0.3306,-0.5415,-0.1196,-25.00,85.18,-63.66
1352,58287659,0.3608,-0.5361,-0.1084,-23.60,82.26,-62.62
1353,58292658,0.3916,-0.5234,-0.1138,-22.50,79.33,-61.71
1354,58297664,0.4146,-0.5122,-0.1055,-21.89,76.28,-60.55
1355,58302660,0.4326,-0.4829,-0.1138,-22.38,73.23,-59.45
1356,58307728,0.4517,-0.4648,-0.1323,-24.09,70.00,-58.54
1357,58312657,0.4761,-0.4453,-0.1377,-26.77,66.83,-57.26
1358,58317658,0.4990,-0.4189,-0.1343,-30.73,63.66,-55.91
1359,58322658,0.5215,-0.3945,-0.1328,-35.49,60.61,-54.39
1360,58327658,0.5410,-0.3735,-0.1313,-40.73,57.56,-52.68
1361,58332658,0.5537,-0.3555,-0.1357,-46.52,54.76,-50.73
1362,58337662,0.5698,-0.3384,-0.1514,-52.50,51.83,-48.66
1363,58342657,0.5786,-0.3398,-0.1455,-58.48,48.90,-46.40
1364,58348129,0.5742,-0.3643,-0.1479,-64.33,46.28,-43.78
1365,58352658,0.5698,-0.3506,-0.1509,-70.12,43.96,-41.04
1366,58357658,0.5850,-0.3223,-0.1426,-75.37,41.83,-38.48
1367,58362658,0.5957,-0.2969,-0.1562,-79.76,39.27,-35.98
1368,58367660,0.6187,-0.2803,-0.1572,-83.35,37.13,-33.41
1369,58372659,0.6328,-0.2690,-0.1709,-85.85,35.06,-31.04
1370,58377657,0.6519,-0.2749,-0.1934,-87.07,33.11,-28.48
1371,58382658,0.6602,-0.2793,-0.2114,-87.07,30.79,-25.67
1372,58387657,0.6606,-0.2808,-0.2261,-86.04,28.90,-23.05
1373,58392658,0.6592,-0.2930,-0.2432,-84.15,27.01,-20.18
1374,58397658,0.6553,-0.2578,-0.2563,-82.07,25.18,-17.07
1375,58402658,0.6646,-0.2500,-0.2705,-79.21,23.35,-14.27
1376,58407658,0.6821,-0.2666,-0.2690,-75.49,21.83,-11.59
1377,58412658,0.6899,-0.2876,-0.2651,-71.22,20.24,-9.15
1378,58417658,0.6924,-0.3159,-0.2739,-66.16,18.96,-6.71
1379,58422658,0.6890,-0.3281,-0.2812,-60.61,18.23,-4.39
1380,58427659,0.6758,-0.3252,-0.2861,-54.57,17.50,-2.20
1381,58432658,0.6729,-0.3149,-0.2930,-48.35,16.89,-0.43
1382,58437658,0.6650,-0.3018,-0.2949,-42.20,16.46,1.28
1383,58443049,0.6606,-0.2822,-0.2988,-35.91,16.46,2.68
1384,58447658,0.6523,-0.2705,-0.3125,-29.88,16.34,3.72
1385,58452677,0.6406,-0.2568,-0.3193,-23.72,16.34,4.76
1386,58457657,0.6372,-0.2520,-0.3232,-17.68,16.40,5.55
1387,58462659,0.6318,-0.2490,-0.3218,-11.83,16.83,6.40
1388,58467657,0.6299,-0.2471,-0.3267,-6.28,17.07,7.20
1389,58472658,0.6367,-0.2383,-0.3296,-0.98,17.44,7.99
1390,58477657,0.6357,-0.2324,-0.3359,3.90,17.99,8.66
1391,58482658,0.6514,-0.2246,-0.3159,8.48,18.48,9.33
1392,58487657,0.6558,-0.2271,-0.3086,12.68,19.09,10.00
1393,58492656,0.6538,-0.2227,-0.3086,16.65,19.63,10.61
1394,58497658,0.6606,-0.2271,-0.3115,21.10,20.73,11.40
1395,58502659,0.6611,-0.2334,-0.3164,24.09,21.16,11.95
1396,58507657,0.6714,-0.2529,-0.3252,27.74,21.65,12.44
1397,58512659,0.6831,-0.2705,-0.3306,31.22,22.32,13.05
1398,58517657,0.6958,-0.2935,-0.3394,34.15,22.62,13.78
1399,58522658,0.7051,-0.3037,-0.3501,36.71,22.68,14.45
1400,58527658,0.7075,-0.3130,-0.3506,38.66,22.93,15.06
1401,58532658,0.7061,-0.3267,-0.3398,39.88,22.93,15.43
1402,58537658,0.7061,-0.3218,-0.3345,40.12,23.11,15.79
1403,58542658,0.7100,-0.3159,-0.3472,39.15,23.05,16.04
1404,58547660,0.7222,-0.3213,-0.3540,36.71,22.68,16.10
1405,58552658,0.7412,-0.3369,-0.3506,32.93,22.20,16.22
1406,58557658,0.7578,-0.3540,-0.3511,28.23,21.34,16.40
1407,58562658,0.7705,-0.3687,-0.3555,22.87,20.37,16.83
1408,58567657,0.7896,-0.3838,-0.3574,17.20,19.39,17.38
1409,58572992,0.8062,-0.3979,-0.3682,11.71,18.11,17.93
1410,58577658,0.8130,-0.4219,-0.3794,6.34,16.65,18.78
1411,58582657,0.8159,-0.4385,-0.3774,1.77,14.94,19.51
1412,58587658,0.8115,-0.4531,-0.3726,-1.83,13.41,20.30
1413,58593103,0.8101,-0.4600,-0.3740,-4.82,11.95,21.28
1414,58597658,0.8057,-0.4624,-0.3765,-7.20,10.55,21.95
1415,58602658,0.7939,-0.4648,-0.3604,-8.78,9.27,22.68
1416,58607659,0.7856,-0.4624,-0.3462,-9.76,8.29,23.17
1417,58612657,0.7642,-0.4668,-0.3354,-10.12,7.50,23.48
1418,58617699,0.7437,-0.4639,-0.3140,-9.76,6.89,23.72
1419,58622657,0.7368,-0.4453,-0.3115,-8.35,7.01,23.90
1420,58627658,0.7266,-0.4580,-0.3022,-6.10,7.13,23.84
1421,58632658,0.7227,-0.4673,-0.3232,-3.72,7.13,23.90
1422,58637658,0.7222,-0.4731,-0.3203,-1.59,7.38,23.78
1423,58642704,0.7153,-0.4873,-0.2998,1.89,7.56,23.60
1424,58647657,0.7119,-0.4858,-0.3052,4.21,7.80,23.48
1425,58652750,0.7017,-0.4907,-0.2988,7.74,8.78,23.23
1426,58657657,0.6890,-0.4863,-0.2983,10.30,9.33,23.11
1427,58662656,0.6724,-0.4810,-0.2998,13.29,10.18,22.74
1428,58667656,0.6616,-0.4800,-0.2983,16.65,11.52,22.32
1429,58672656,0.6484,-0.4976,-0.3018,20.00,12.68,21.83
1430,58677658,0.6338,-0.5181,-0.3042,23.17,14.15,21.40
1431,58682657,0.6348,-0.5439,-0.3325,26.16,15.12,20.91
1432,58687658,0.6357,-0.5625,-0.3438,28.41,16.04,20.12
1433,58692658,0.6421,-0.5605,-0.3467,29.82,17.20,19.39
1434,58697658,0.6455,-0.5557,-0.3481,30.30,18.48,17.87
1435,58702658,0.6514,-0.5615,-0.3472,29.88,19.57,16.59
1436,58708154,0.6592,-0.5820,-0.3574,27.80,20.85,14.39
1437,58712658,0.6675,-0.5996,-0.3545,24.76,22.32,12.32
1438,58717658,0.6782,-0.6123,-0.3452,21.46,23.29,10.67
1439,58722658,0.6846,-0.6274,-0.3413,15.43,24.88,8.23
1440,58727658,0.6938,-0.6343,-0.3330,10.98,26.10,6.65
1441,58732658,0.6968,-0.6348,-0.3247,5.18,27.68,4.70
1442,58737950,0.6943,-0.6304,-0.3306,-1.34,29.63,2.38
1443,58742658,0.6973,-0.6138,-0.3286,-5.06,30.85,0.85
1444,58747658,0.6973,-0.6089,-0.3311,-8.84,32.44,-0.91
1445,58752658,0.7012,-0.6045,-0.3398,-11.52,33.60,-2.68
1446,58757657,0.7002,-0.6060,-0.3306,-13.23,34.76,-4.33
1447,58762661,0.6968,-0.6084,-0.3433,-14.09,35.85,-6.04
1448,58767658,0.6987,-0.6099,-0.3447,-14.45,36.34,-7.20
1449,58772658,0.6934,-0.6055,-0.3535,-14.82,36.89,-8.60
1450,58777658,0.7017,-0.5972,-0.3491,-15.91,37.50,-10.00
1451,58783325,0.7061,-0.5679,-0.3457,-18.29,38.35,-12.13
1452,58787658,0.7046,-0.5645,-0.3403,-20.61,38.84,-13.60
1453,58792658,0.7104,-0.5571,-0.3379,-24.45,39.27,-15.18
1454,58797659,0.7202,-0.5645,-0.3281,-28.84,40.00,-16.83
1455,58802657,0.7236,-0.5635,-0.3105,-33.96,40.67,-18.48
1456,58807657,0.7236,-0.5688,-0.2983,-39.02,41.04,-19.88
1457,58812658,0.7236,-0.5708,-0.2993,-43.84,41.77,-21.40
1458,58817658,0.7217,-0.5688,-0.2905,-47.99,42.38,-22.62
1459,58822658,0.7227,-0.5708,-0.2788,-51.22,43.23,-23.96
1460,58827658,0.7285,-0.5601,-0.2861,-53.60,43.78,-25.12
1461,58832658,0.7354,-0.5513,-0.2769,-54.88,44.21,-26.16
1462,58837897,0.7432,-0.5449,-0.2744,-55.24,44.57,-27.13
1463,58842658,0.7104,-0.5454,-0.2534,-54.70,44.70,-27.93
1464,58847658,0.7456,-0.5283,-0.2529,-53.90,44.94,-28.60
1465,58852658,0.7588,-0.5264,-0.2573,-52.26,45.37,-29.27
1466,58857730,0.7671,-0.5093,-0.2412,-50.12,45.24,-29.57
1467,58862658,0.7778,-0.4932,-0.2500,-47.50,45.30,-29.88
1468,58867661,0.7764,-0.4839,-0.2515,-43.78,45.18,-30.30
1469,58872658,0.7822,-0.4658,-0.2422,-41.22,44.94,-30.37
1470,58877753,0.7808,-0.4736,-0.2495,-38.23,44.51,-30.37
1471,58882658,0.7910,-0.4497,-0.2612,-36.10,43.35,-29.70
1472,58887657,0.8179,-0.3853,-0.2661,-33.96,42.50,-29.39
1473,58892658,0.8320,-0.3979,-0.2144,-32.32,41.65,-29.39
1474,58897658,0.8398,-0.3730,-0.2207,-30.18,40.55,-29.57
1475,58902660,0.8413,-0.3589,-0.2417,-27.44,39.70,-29.76
1476,58907657,0.8428,-0.3574,-0.2358,-24.21,38.41,-29.94
1477,58912791,0.8486,-0.3643,-0.2271,-20.67,36.83,-29.94
1478,58917658,0.8677,-0.3755,-0.2388,-17.01,35.12,-29.70
1479,58922658,0.8887,-0.3789,-0.2456,-13.41,33.54,-29.33
1480,58927658,0.9082,-0.3760,-0.2358,-9.88,31.65,-28.78
1481,58932686,0.9272,-0.3691,-0.2388,-6.46,29.57,-28.05
1482,58937657,0.9375,-0.3613,-0.2373,-2.99,27.62,-27.26
1483,58942658,0.9517,-0.3452,-0.2461,0.37,25.67,-26.28
1484,58947657,0.9492,-0.3423,-0.2344,3.48,23.41,-25.06
1485,58952658,0.9399,-0.3267,-0.2349,6.52,21.40,-23.90
1486,58957657,0.9390,-0.3105,-0.2407,9.51,19.33,-22.56
1487,58962658,0.9351,-0.2930,-0.2378,12.32,17.32,-21.22
1488,58967658,0.9307,-0.2710,-0.2461,15.00,15.43,-19.94
1489,58972658,0.9238,-0.2437,-0.2505,17.50,13.66,-18.72
1490,58977658,0.9185,-0.2231,-0.2603,19.82,12.13,-17.68
1491,58983002,0.9155,-0.2021,-0.2666,21.83,10.67,-16.52
1492,58987658,0.9082,-0.1855,-0.2690,23.35,9.33,-15.49
1493,58992658,0.9004,-0.1724,-0.2759,24.51,7.99,-14.33
1494,58997658,0.8979,-0.1655,-0.2817,24.76,7.07,-13.48
1495,59002658,0.8955,-0.1553,-0.2871,24.70,5.91,-12.38
1496,59007658,0.8809,-0.1562,-0.3086,23.78,4.70,-11.28
1497,59012658,0.8784,-0.1582,-0.3286,22.13,3.29,-10.12
1498,59017658,0.8740,-0.1616,-0.3398,19.63,1.83,-8.72
1499,59022658,0.8618,-0.1631,-0.3486,16.52,0.12,-7.38
1500,59028344,0.8496,-0.1572,-0.3623,12.13,-1.95,-5.37
1501,59032658,0.8359,-0.1523,-0.3638,8.90,-3.35,-3.96
1502,59037658,0.8159,-0.1450,-0.3662,4.63,-5.00,-2.20
1503,59042658,0.7915,-0.1450,-0.3574,0.24,-6.77,-0.18
1504,59047658,0.7715,-0.1484,-0.3579,-4.27,-8.23,1.59
1505,59052669,0.7695,-0.1562,-0.3516,-8.54,-9.57,3.66
1506,59057661,0.7588,-0.1626,-0.3560,-12.50,-10.73,6.04
1507,59062657,0.7559,-0.1602,-0.3535,-16.16,-11.71,8.29
1508,59067658,0.7524,-0.1509,-0.3525,-19.33,-13.05,10.79
1509,59072912,0.7383,-0.1479,-0.3589,-22.26,-14.15,13.29
1510,59077658,0.7261,-0.1440,-0.3706,-24.63,-15.12,15.85
1511,59082657,0.7129,-0.1411,-0.3628,-26.65,-16.46,18.41
1512,59087656,0.7017,-0.1431,-0.3716,-28.11,-17.74,20.85
1513,59092714,0.6899,-0.1426,-0.3813,-29.21,-19.15,23.54
1514,59097656,0.6826,-0.1450,-0.3931,-29.88,-20.43,26.22
1515,59102656,0.6768,-0.1431,-0.4053,-30.12,-22.01,29.02
1516,59107659,0.6665,-0.1504,-0.4141,-30.30,-23.60,31.95
1517,59112830,0.6616,-0.1465,-0.4189,-30.43,-25.61,35.00
1518,59117657,0.6519,-0.1387,-0.4160,-30.79,-27.62,38.29
1519,59122656,0.6519,-0.1411,-0.4116,-31.28,-29.51,41.59
1520,59127797,0.6528,-0.1372,-0.4058,-32.01,-31.46,44.82
1521,59132659,0.6582,-0.1338,-0.4194,-32.99,-33.54,48.23
1522,59137658,0.6655,-0.1255,-0.4414,-34.09,-35.85,51.65
1523,59142656,0.6685,-0.1157,-0.4556,-35.61,-38.54,54.94
1524,59147656,0.6680,-0.1025,-0.4458,-37.01,-41.22,58.23
1525,59152658,0.6768,-0.0903,-0.4385,-38.41,-43.90,61.28
1526,59157656,0.6689,-0.0815,-0.4380,-39.70,-46.28,64.02
1527,59162657,0.6665,-0.0879,-0.4438,-41.10,-48.78,66.65
1528,59167657,0.6646,-0.1055,-0.4351,-42.87,-51.40,69.15
1529,59172685,0.6772,-0.1196,-0.4438,-44.63,-53.72,71.46
1530,59177657,0.6812,-0.1421,-0.4575,-46.95,-56.16,73.72
1531,59182658,0.6802,-0.1758,-0.4785,-49.09,-58.35,75.85
1532,59187657,0.6875,-0.2085,-0.4868,-51.10,-60.61,77.99
1533,59192841,0.6831,-0.2319,-0.4980,-52.56,-62.50,80.06
1534,59197662,0.6841,-0.2651,-0.5176,-53.48,-64.09,81.77
1535,59202658,0.6812,-0.2969,-0.5513,-53.84,-65.30,83.29
1536,59207658,0.6836,-0.3218,-0.5752,-53.60,-66.10,84.70
1537,59212658,0.6807,-0.3491,-0.6045,-52.87,-66.28,85.55
1538,59217658,0.6763,-0.3652,-0.6235,-51.77,-65.85,85.73
1539,59222658,0.6758,-0.3896,-0.6626,-50.12,-64.82,86.22
1540,59227658,0.6665,-0.4077,-0.6904,-48.84,-63.84,86.34
1541,59233322,0.6592,-0.4282,-0.7271,-46.83,-61.77,85.37
1542,59237658,0.6577,-0.4478,-0.7529,-45.61,-60.12,84.88
1543,59242774,0.6538,-0.4678,-0.8047,-44.45,-57.07,83.78
1544,59247658,0.6543,-0.4785,-0.8311,-44.02,-54.45,82.99
1545,59252658,0.6558,-0.4863,-0.8643,-44.09,-51.28,81.59
1546,59257658,0.6523,-0.4810,-0.8906,-44.63,-47.44,80.06
1547,59262658,0.6372,-0.4966,-0.9248,-45.43,-43.23,78.29
1548,59267962,0.6196,-0.5142,-0.9443,-46.83,-37.99,76.10
1549,59272659,0.6118,-0.5264,-0.9546,-48.17,-34.09,74.51
1550,59277658,0.6035,-0.5347,-0.9697,-50.06,-29.33,72.20
1551,59282657,0.5962,-0.5337,-0.9736,-52.50,-24.09,69.70
1552,59287658,0.5972,-0.5249,-0.9785,-55.18,-19.09,67.26
1553,59292657,0.5815,-0.5083,-0.9634,-58.48,-14.21,64.63
1554,59297658,0.5771,-0.5117,-0.9458,-61.40,-9.21,62.07
1555,59302658,0.5815,-0.5146,-0.9233,-64.09,-4.57,59.70
1556,59307738,0.5859,-0.5059,-0.8989,-66.04,-0.24,57.44
1557,59312657,0.5952,-0.4976,-0.8667,-67.20,3.72,55.49
1558,59317658,0.6167,-0.4766,-0.8672,-68.05,7.13,53.66
1559,59322707,0.6250,-0.4624,-0.8452,-68.41,10.06,52.13
1560,59327657,0.6265,-0.4688,-0.8145,-68.54,12.80,50.61
1561,59332658,0.6221,-0.4800,-0.7734,-68.41,15.18,49.33
1562,59337979,0.5986,-0.4731,-0.7446,-68.11,17.74,48.11
1563,59342658,0.5923,-0.4692,-0.7280,-67.87,19.76,47.38
1564,59347658,0.5981,-0.4551,-0.7109,-67.38,21.52,46.59
1565,59352658,0.5796,-0.4468,-0.6938,-67.01,23.17,45.79
1566,59358047,0.5669,-0.4458,-0.6553,-66.71,24.51,45.06
1567,59362658,0.5562,-0.4448,-0.6318,-66.34,25.49,44.63
1568,59367705,0.5503,-0.4517,-0.6104,-65.79,26.59,44.21
1569,59372658,0.5576,-0.4512,-0.5903,-65.00,27.50,43.90
1570,59377658,0.5518,-0.4482,-0.5732,-63.66,28.29,43.66
1571,59382658,0.5503,-0.4458,-0.5591,-62.32,28.84,43.35
1572,59387659,0.5444,-0.4395,-0.5503,-60.85,29.45,43.17
1573,59392658,0.5474,-0.4424,-0.5381,-59.57,29.70,42.93
1574,59397656,0.5850,-0.4478,-0.5288,-58.05,30.06,42.87
1575,59402656,0.5850,-0.4492,-0.5054,-56.52,30.24,42.80
1576,59407656,0.6421,-0.4570,-0.4902,-54.88,30.37,42.87
1577,59412658,0.6323,-0.4624,-0.5073,-52.56,30.49,43.17
1578,59417658,0.6504,-0.4609,-0.4902,-49.21,30.49,43.54
1579,59422658,0.6167,-0.4561,-0.4668,-45.12,30.06,43.96
1580,59427658,0.6021,-0.4453,-0.4751,-40.55,29.63,44.33
1581,59432658,0.5991,-0.4414,-0.4634,-35.55,29.33,44.82
1582,59437689,0.6138,-0.4360,-0.4185,-30.24,28.23,45.30
1583,59442658,0.6147,-0.4312,-0.3936,-24.76,27.07,46.04
1584,59447657,0.6011,-0.4321,-0.4185,-17.93,25.37,46.95
1585,59452658,0.5972,-0.4336,-0.4355,-13.35,23.78,47.68
1586,59458102,0.6011,-0.4199,-0.4341,-6.95,20.98,48.66
1587,59462681,0.5957,-0.4199,-0.4380,-3.23,18.90,49.21
1588,59467658,0.5791,-0.4199,-0.4468,0.61,17.26,49.82
1589,59472688,0.5386,-0.4189,-0.4551,3.54,15.61,50.18
1590,59477657,0.4941,-0.4146,-0.4570,5.49,13.96,50.49
1591,59483129,0.4546,-0.4170,-0.4614,6.59,12.62,50.55
1592,59487659,0.4473,-0.4170,-0.4688,6.71,11.83,50.37
1593,59492658,0.4341,-0.4233,-0.4814,6.16,10.91,50.18
1594,59497657,0.4443,-0.4370,-0.4829,5.00,10.00,49.76
1595,59502710,0.4502,-0.4541,-0.4907,3.05,9.21,49.27
1596,59507657,0.4712,-0.4746,-0.4990,0.55,8.35,48.48
1597,59512738,0.5015,-0.4834,-0.5146,-2.38,7.44,47.74
1598,59517657,0.5283,-0.4976,-0.5586,-5.61,6.28,46.77
1599,59522658,0.5566,-0.5078,-0.6025,-9.27,5.06,45.79
1600,59527657,0.5835,-0.5078,-0.6230,-13.41,3.84,44.70
1601,59532658,0.6172,-0.5127,-0.6460,-18.84,2.44,43.35
1602,59537658,0.6284,-0.5171,-0.6592,-22.56,1.77,42.20
1603,59542658,0.6392,-0.5195,-0.6772,-27.01,1.28,40.73
1604,59547657,0.6392,-0.5166,-0.7026,-31.22,0.73,39.15
1605,59552769,0.6353,-0.5088,-0.7339,-34.39,0.37,37.44
1606,59557658,0.6338,-0.5024,-0.7588,-36.89,0.06,35.61
1607,59562658,0.6299,-0.4907,-0.7822,-38.29,-0.06,33.48
1608,59567658,0.6230,-0.4873,-0.8081,-39.09,0.06,31.10
1609,59572658,0.6006,-0.4800,-0.8359,-39.27,0.12,28.66
1610,59578067,0.5791,-0.4746,-0.8716,-39.09,0.49,25.91
1611,59582658,0.5566,-0.4663,-0.8862,-39.15,1.16,23.17
1612,59587658,0.5474,-0.4712,-0.9004,-39.33,1.83,20.49
1613,59592658,0.5454,-0.4673,-0.9263,-39.94,2.87,17.44
1614,59597658,0.5391,-0.4648,-0.9429,-41.22,3.84,14.51
1615,59602658,0.5269,-0.4673,-0.9565,-43.11,4.82,11.52
1616,59607658,0.5273,-0.4692,-0.9673,-45.73,6.04,8.54
1617,59612658,0.5347,-0.4790,-0.9839,-49.15,7.38,5.49
1618,59617658,0.5479,-0.4839,-0.9971,-53.23,8.78,2.56
1619,59622658,0.5552,-0.4922,-1.0024,-57.99,10.18,-0.30
1620,59628132,0.5659,-0.4927,-1.0103,-63.17,11.52,-2.99
1621,59632658,0.5835,-0.4956,-1.0205,-68.60,12.80,-5.43
1622,59637658,0.6152,-0.4917,-1.0215,-74.15,13.84,-7.68
1623,59642658,0.6484,-0.4873,-1.0317,-79.33,14.70,-9.76
1624,59647658,0.6802,-0.4829,-1.0347,-84.15,15.55,-11.34
1625,59652691,0.7070,-0.4810,-1.0601,-88.66,16.28,-12.99
1626,59657657,0.7329,-0.4653,-1.0830,-93.05,17.13,-14.33
1627,59663144,0.7524,-0.4482,-1.1001,-97.20,17.93,-15.79
1628,59667658,0.7461,-0.4512,-1.1079,-101.52,18.78,-17.20
1629,59672658,0.7461,-0.4307,-1.1104,-106.34,20.18,-18.90
1630,59677658,0.7612,-0.4150,-1.1270,-111.04,21.95,-20.61
1631,59682658,0.7471,-0.4019,-1.1113,-115.91,23.72,-22.56
1632,59687658,0.7236,-0.3921,-1.1045,-120.67,25.67,-24.57
1633,59692659,0.7134,-0.3789,-1.1172,-125.30,27.62,-26.77
1634,59697656,0.7119,-0.3652,-1.1167,-129.39,30.06,-28.84
1635,59702656,0.7065,-0.3604,-1.1021,-133.54,31.95,-30.91
1636,59707656,0.7095,-0.3535,-1.0854,-137.68,34.27,-32.68
1637,59712656,0.7144,-0.3486,-1.0615,-141.77,36.16,-34.45
1638,59717716,0.7261,-0.3491,-1.0366,-145.98,37.93,-35.85
1639,59722657,0.7598,-0.3472,-1.0029,-150.37,39.45,-36.95
1640,59727658,0.8789,-0.3428,-0.9614,-155.12,40.55,-37.80
1641,59732658,0.8853,-0.3496,-0.9604,-160.18,41.77,-38.35
1642,59737706,0.8657,-0.3486,-0.9565,-165.24,42.68,-38.96
1643,59742657,0.8633,-0.3413,-0.9443,-170.00,43.35,-39.27
1644,59747677,0.8872,-0.3330,-0.9434,-174.39,44.21,-39.45
1645,59752657,0.9131,-0.3203,-0.9482,-178.60,45.06,-39.76
1646,59757658,0.9238,-0.3208,-0.9434,-182.50,45.98,-39.82
1647,59762659,0.9180,-0.3213,-0.9360,-186.28,46.83,-39.57
1648,59767657,0.9136,-0.3218,-0.9341,-189.88,47.74,-39.27
1649,59772658,0.9014,-0.3105,-0.9395,-193.35,48.72,-38.60
1650,59777657,0.8936,-0.2949,-0.9321,-196.71,49.88,-37.93
1651,59782659,0.8779,-0.2720,-0.9307,-199.76,50.98,-37.32
1652,59787657,0.8452,-0.2461,-0.9370,-202.62,52.26,-36.71
1653,59792658,0.8213,-0.2100,-0.9526,-205.30,53.84,-36.10
1654,59797658,0.7939,-0.1689,-0.9644,-207.62,55.30,-35.43
1655,59802658,0.7886,-0.1392,-0.9756,-209.94,57.01,-34.76
1656,59807660,0.7969,-0.0996,-0.9941,-212.13,58.84,-33.84
1657,59812690,0.8198,-0.0806,-1.0054,-214.51,60.67,-32.74
1658,59817658,0.8521,-0.0610,-1.0200,-217.01,62.80,-31.40
1659,59822658,0.8662,-0.0449,-1.0327,-219.57,64.88,-29.76
1660,59828147,0.8667,-0.0410,-1.0400,-222.56,67.07,-27.80
1661,59832658,0.8672,-0.0430,-1.0381,-225.06,68.78,-26.10
1662,59838140,0.8550,-0.0527,-1.0215,-229.15,71.59,-23.17
1663,59842658,0.8584,-0.0581,-1.0020,-231.83,73.54,-20.91
1664,59848114,0.8521,-0.0679,-0.9639,-235.30,76.46,-17.32
1665,59852658,0.8359,-0.0669,-0.9370,-237.38,78.54,-14.57
1666,59857659,0.8149,-0.0757,-0.9106,-239.51,81.10,-11.22
1667,59862658,0.7769,-0.0874,-0.8799,-241.22,84.02,-7.50
1668,59867658,0.7437,-0.1079,-0.8374,-242.62,85.06,-2.87
1669,59872658,0.7192,-0.1108,-0.8110,-243.17,87.80,0.37
1670,59877912,0.6963,-0.1309,-0.7749,-242.87,90.67,5.61
1671,59882658,0.6812,-0.1396,-0.7471,-242.01,92.62,9.27
1672,59888147,0.6577,-0.1440,-0.7173,-240.00,95.43,14.76
1673,59892658,0.6377,-0.1484,-0.6968,-237.99,97.44,18.48
1674,59897659,0.6099,-0.1499,-0.6665,-234.88,99.88,23.35
1675,59902657,0.5884,-0.1509,-0.6396,-230.91,102.50,28.17
1676,59907658,0.5659,-0.1567,-0.6162,-226.22,105.06,33.17
1677,59912657,0.5508,-0.1675,-0.5815,-221.04,107.87,38.17
1678,59917658,0.5234,-0.1812,-0.5527,-215.12,110.67,43.29
1679,59922658,0.4951,-0.1919,-0.5132,-208.78,113.41,48.41
1680,59927658,0.4717,-0.1987,-0.4927,-201.89,116.52,53.60
1681,59932657,0.4419,-0.2104,-0.4531,-194.70,119.33,58.66
1682,59937658,0.4199,-0.2271,-0.4106,-187.13,122.20,63.78
1683,59942657,0.3882,-0.2368,-0.3706,-179.45,125.43,68.90
1684,59947657,0.3594,-0.2441,-0.3276,-171.59,128.41,74.09
1685,59952658,0.3320,-0.2437,-0.2822,-163.78,131.34,79.09
1686,59957666,0.2983,-0.2432,-0.2476,-155.91,134.39,83.96
1687,59962658,0.2651,-0.2427,-0.1992,-148.54,137.26,88.96
1688,59967658,0.2378,-0.2466,-0.1519,-141.52,140.24,94.21
1689,59972658,0.2124,-0.2529,-0.1167,-135.18,143.11,99.15
1690,59977658,0.1846,-0.2549,-0.0742,-129.45,145.67,104.27
1691,59982658,0.1475,-0.2612,-0.0195,-124.45,148.48,109.27
1692,59987657,0.1309,-0.2622,0.0088,-119.63,151.16,114.15
1693,59992657,0.1191,-0.2554,0.0278,-115.43,153.72,119.39
1694,59997658,0.1035,-0.2461,0.0483,-111.59,156.10,124.33
1695,60002658,0.0801,-0.2319,0.0767,-108.17,158.35,129.27
1696,60007658,0.0615,-0.2158,0.0845,-105.18,160.37,134.09
1697,60012658,0.0410,-0.2075,0.1035,-102.44,162.13,138.96
1698,60017658,0.0127,-0.2061,0.1260,-100.06,164.09,143.54
1699,60022658,-0.0161,-0.2031,0.1538,-97.93,165.85,148.29
1700,60027658,-0.0371,-0.2061,0.1729,-96.04,167.32,152.80
1701,60032658,-0.0640,-0.1982,0.2021,-93.90,169.27,158.48
1702,60037658,-0.0864,-0.1934,0.2222,-92.50,170.61,162.20
1703,60042658,-0.1069,-0.1978,0.2451,-90.91,172.44,166.95
1704,60047658,-0.1274,-0.1973,0.2725,-88.78,174.45,172.62
1705,60052658,-0.1440,-0.2041,0.2881,-87.44,175.91,176.40
1706,60057658,-0.1499,-0.2056,0.3120,-85.61,177.68,181.22
1707,60062658,-0.1509,-0.2051,0.3315,-83.66,179.27,186.16
1708,60067658,-0.1655,-0.2041,0.3506,-81.52,181.16,190.98
1709,60072997,-0.1938,-0.2026,0.3809,-79.21,182.74,196.10
1710,60077658,-0.2021,-0.2085,0.4033,-76.71,184.57,201.16
1711,60082658,-0.2231,-0.2227,0.4321,-73.72,186.52,207.20
1712,60087658,-0.2446,-0.2368,0.4331,-71.71,187.68,211.46
1713,60092660,-0.2656,-0.2656,0.4517,-69.33,189.27,216.83
1714,60097658,-0.2793,-0.2861,0.4780,-66.95,190.55,222.38
1715,60102658,-0.2910,-0.3076,0.5029,-64.70,191.65,228.11
1716,60107658,-0.3096,-0.3374,0.5205,-62.56,192.68,234.09
1717,60112658,-0.3350,-0.3584,0.5391,-60.73,193.41,240.12
1718,60117658,-0.3613,-0.3838,0.5742,-59.27,193.90,246.52
1719,60122659,-0.3760,-0.4180,0.6084,-58.17,194.27,252.93
1720,60127658,-0.3789,-0.4629,0.6494,-57.38,194.39,259.82
1721,60132658,-0.4087,-0.5024,0.6797,-56.83,194.51,266.89
1722,60137658,-0.4683,-0.5615,0.7349,-56.40,194.02,274.27
1723,60142658,-0.4946,-0.5962,0.7944,-55.85,193.41,281.83
1724,60147658,-0.5215,-0.6504,0.8633,-54.88,192.74,289.51
1725,60152658,-0.5503,-0.7134,0.9272,-53.41,191.83,297.26
1726,60157658,-0.5952,-0.7617,0.9888,-51.04,190.49,305.06
1727,60162658,-0.6465,-0.8013,1.0444,-47.01,188.84,312.87
1728,60167658,-0.7241,-0.8438,1.1079,-40.85,187.26,320.43
1729,60172658,-0.8042,-0.8789,1.1733,-33.05,184.63,327.99
1730,60177658,-0.8965,-0.9087,1.2290,-23.90,181.77,335.30
1731,60182658,-0.9961,-0.9443,1.2974,-13.54,178.84,342.62
1732,60187658,-1.0972,-0.9844,1.3828,-3.05,174.88,349.76
1733,60192658,-1.2046,-1.0635,1.4507,7.32,170.43,357.07
1734,60197660,-1.3672,-1.1787,1.5078,16.28,165.43,364.70
1735,60202658,-1.4980,-1.2700,1.5693,23.78,159.27,372.93
1736,60207658,-1.6104,-1.3672,1.6782,29.94,151.34,381.40
1737,60212658,-1.7349,-1.4541,1.8003,35.00,142.32,390.37
1738,60217658,-1.8735,-1.5117,1.9277,39.88,131.77,399.45
1739,60223888,-1.9868,-1.5493,2.0811,45.12,116.46,410.12
1740,60227659,-2.0420,-1.5742,2.2119,48.72,103.96,417.07
1741,60232658,-2.1177,-1.5903,2.3550,53.41,86.52,425.43
1742,60237656,-2.1626,-1.6074,2.5156,58.35,65.49,433.84
1743,60242658,-2.1953,-1.6543,2.6982,62.93,41.16,442.62
1744,60247657,-2.2261,-1.7158,2.8955,66.34,13.23,452.20
1745,60252659,-2.2686,-1.7788,3.0620,67.68,-18.23,462.56
1746,60257658,-2.3281,-1.8374,3.2217,66.28,-53.35,473.48
1747,60262658,-2.3867,-1.9062,3.3774,62.20,-92.26,484.63
1748,60267658,-2.4868,-1.9829,3.4951,56.16,-135.00,495.91
1749,60272658,-2.6519,-2.0615,3.5864,50.43,-181.28,506.95
1750,60277658,-2.8579,-2.1436,3.6631,46.46,-230.61,517.20
1751,60282659,-3.0869,-2.2324,3.7109,45.85,-282.74,526.59
1752,60287657,-3.3457,-2.3521,3.7129,49.63,-336.65,535.12
1753,60292656,-3.6240,-2.4878,3.6641,57.38,-391.34,542.68
1754,60297656,-3.9121,-2.6514,3.5972,68.60,-445.73,549.45
1755,60302656,-4.2095,-2.8105,3.5103,82.56,-499.63,555.30
1756,60307656,-4.4873,-3.0967,3.2700,98.05,-551.89,560.49
1757,60312656,-4.7324,-3.3682,3.1094,113.05,-602.44,565.24
1758,60317658,-5.0054,-3.6255,2.9082,126.40,-650.18,568.84
1759,60322658,-5.2324,-3.9297,2.6494,136.65,-695.73,571.04
1760,60327657,-5.4531,-4.2012,2.3833,142.68,-739.02,572.38
1761,60332658,-5.6567,-4.4307,2.1323,144.45,-779.27,571.65
1762,60337659,-5.8027,-4.6758,1.8677,144.51,-816.46,569.88
1763,60342658,-5.9170,-4.9121,1.6016,144.15,-851.10,567.01
1764,60347658,-6.0122,-5.1470,1.3389,143.17,-883.23,563.11
1765,60352658,-6.1787,-5.3735,1.1240,141.83,-912.44,557.68
1766,60357658,-6.4023,-5.5342,0.9468,139.02,-938.72,549.51
1767,60362658,-6.6450,-5.6494,0.8384,134.45,-960.49,537.56
1768,60367658,-6.8521,-5.7021,0.6660,127.56,-975.67,520.85
1769,60372659,-7.0244,-5.7148,0.4878,117.80,-983.78,498.05
1770,60377658,-7.0444,-5.7456,0.2983,104.27,-983.23,467.93
1771,60382658,-7.0205,-5.8442,-0.1704,90.24,-968.29,430.24
1772,60387658,-6.7944,-6.1577,-1.3081,79.57,-944.70,386.46
1773,60392658,-5.7080,-6.4814,-1.8452,72.07,-918.11,339.15
1774,60397659,-5.7554,-6.0454,-2.3970,69.02,-880.91,287.62
1775,60402658,-5.4067,-5.8149,-2.8262,60.91,-843.35,229.57
1776,60407659,-4.8252,-5.6870,-2.8198,43.90,-806.04,167.99
1777,60412657,-4.3555,-5.7852,-2.9307,20.12,-768.41,105.67
1778,60417658,-3.9624,-5.6665,-3.2085,-6.65,-727.80,43.54
1779,60422658,-3.5488,-5.5386,-3.2822,-33.90,-687.87,-18.11
1780,60427658,-3.1685,-5.3540,-3.3325,-56.77,-647.87,-77.56
1781,60432660,-2.8711,-5.1934,-3.3887,-71.65,-607.32,-133.60
1782,60437658,-2.6865,-4.9976,-3.3521,-76.52,-574.51,-175.06
1783,60442658,-2.4082,-4.7026,-3.3252,-74.45,-535.24,-222.26
1784,60447658,-2.1636,-4.3320,-3.2114,-61.22,-489.33,-271.83
1785,60452658,-2.0571,-4.1079,-3.1045,-47.50,-460.43,-300.30
1786,60458116,-1.9243,-3.7505,-2.9409,-19.82,-419.33,-335.49
1787,60462658,-1.8413,-3.4893,-2.8257,2.62,-393.90,-354.27
1788,60467661,-1.6890,-3.1250,-2.6753,39.76,-358.84,-375.85
1789,60472658,-1.5615,-2.8540,-2.5557,72.50,-332.26,-387.99
1790,60477658,-1.4609,-2.6450,-2.4473,99.27,-312.68,-394.27
1791,60482658,-1.2837,-2.3267,-2.3467,138.48,-286.04,-399.39
1792,60487658,-1.1724,-2.1304,-2.2920,162.62,-269.88,-400.18
1793,60492658,-1.0728,-1.8916,-2.1885,188.90,-251.65,-398.72
1794,60497658,-0.9858,-1.6787,-2.1206,210.12,-235.24,-394.94
1795,60502658,-0.9033,-1.4775,-2.0532,225.85,-220.12,-389.57
1796,60507658,-0.8291,-1.2910,-1.9800,235.61,-206.16,-383.35
1797,60512658,-0.7505,-1.1304,-1.8945,239.39,-193.41,-376.34
1798,60517658,-0.6982,-0.9658,-1.8237,236.89,-181.28,-368.72
1799,60522658,-0.6621,-0.8345,-1.7358,228.72,-169.76,-360.98
1800,60527658,-0.6162,-0.7188,-1.6475,215.79,-158.54,-352.99
1801,60532658,-0.5884,-0.6123,-1.5488,198.84,-147.74,-344.94
1802,60537658,-0.5859,-0.5181,-1.4326,179.09,-136.95,-336.95
1803,60542658,-0.5386,-0.4238,-1.3262,158.29,-126.52,-328.90
1804,60547658,-0.4863,-0.3364,-1.2095,137.50,-116.10,-320.61
1805,60552658,-0.4556,-0.2739,-1.1123,118.29,-105.85,-312.07
1806,60557658,-0.3530,-0.1787,-1.0049,98.54,-94.33,-301.10
1807,60562658,-0.3218,-0.1245,-0.9409,87.99,-86.34,-293.23
1808,60567658,-0.2842,-0.0688,-0.9097,78.60,-77.13,-282.93
1809,60572658,-0.2183,-0.0122,-0.8862,73.41,-68.41,-271.83
1810,60577661,-0.1201,0.0552,-0.8691,72.32,-58.72,-257.80
1811,60582658,-0.0767,0.0825,-0.8481,74.45,-52.74,-248.11
1812,60587657,-0.0298,0.1128,-0.8281,79.70,-45.73,-235.49
1813,60592658,0.0386,0.1411,-0.8081,86.71,-39.39,-222.56
1814,60597657,0.0815,0.1636,-0.7866,94.63,-33.78,-209.70
1815,60602776,0.1235,0.1792,-0.7510,102.44,-28.90,-196.77
1816,60607658,0.1489,0.1782,-0.7075,109.39,-24.57,-184.09
1817,60612657,0.1899,0.1855,-0.6763,114.57,-20.55,-171.71
1818,60617658,0.2109,0.1929,-0.6294,117.50,-16.77,-157.62
1819,60622658,0.2236,0.1943,-0.6006,116.95,-14.51,-148.60
1820,60627658,0.2368,0.1865,-0.5547,113.11,-12.07,-137.74
1821,60632657,0.2476,0.1816,-0.5127,106.34,-9.70,-127.62
1822,60637658,0.2603,0.1826,-0.4751,96.52,-7.68,-118.05
1823,60642658,0.2856,0.1895,-0.4258,81.83,-5.61,-107.38
1824,60647658,0.3086,0.1924,-0.3979,70.91,-4.21,-100.67
1825,60652757,0.3276,0.1924,-0.3828,56.59,-2.74,-92.68
1826,60657658,0.3271,0.1982,-0.3447,41.89,-1.22,-85.00
1827,60662658,0.3301,0.1978,-0.3096,25.43,0.18,-76.22
1828,60667658,0.3296,0.1929,-0.2910,15.67,0.85,-70.55
1829,60672658,0.3281,0.1929,-0.2637,5.18,1.65,-63.72
1830,60677658,0.3408,0.1992,-0.2407,-3.17,2.44,-57.07
1831,60682658,0.3511,0.1982,-0.2207,-9.02,2.80,-50.61
1832,60687659,0.3477,0.1948,-0.1997,-12.93,2.93,-44.63
1833,60692658,0.3447,0.1929,-0.1748,-15.00,2.80,-38.90
1834,60697658,0.3462,0.1851,-0.1597,-15.67,2.62,-33.35
1835,60702733,0.3428,0.1855,-0.1357,-15.37,2.20,-28.11
1836,60707657,0.3506,0.1860,-0.1201,-14.21,1.59,-23.29
1837,60712734,0.3540,0.1914,-0.1021,-12.87,0.73,-18.66
1838,60717657,0.3638,0.1948,-0.0908,-11.46,0.00,-14.51
1839,60722658,0.3760,0.1973,-0.0781,-10.49,-0.79,-10.49
1840,60727979,0.3906,0.1938,-0.0625,-9.82,-1.89,-6.95
1841,60732658,0.4106,0.2012,-0.0649,-9.63,-2.99,-3.54
1842,60738032,0.4399,0.2061,-0.0537,-10.00,-4.21,-0.30
1843,60742658,0.4800,0.2090,-0.0581,-10.98,-5.55,2.50
1844,60747658,0.5093,0.2192,-0.0635,-12.32,-7.26,5.24
1845,60752658,0.5361,0.2217,-0.0586,-13.84,-8.96,7.80
1846,60757658,0.5605,0.2251,-0.0547,-15.37,-10.73,10.12
1847,60762658,0.5835,0.2285,-0.0479,-16.59,-12.99,12.44
1848,60767658,0.5986,0.2275,-0.0547,-17.44,-14.88,14.63
1849,60772658,0.6118,0.2202,-0.0449,-17.87,-17.01,16.71
1850,60777658,0.6309,0.2202,-0.0244,-17.87,-19.21,18.54
1851,60782658,0.6489,0.2197,-0.0186,-17.99,-21.28,20.30
1852,60787658,0.6431,0.2007,-0.0068,-17.99,-23.23,21.95
1853,60792658,0.6489,0.1968,-0.0039,-18.60,-25.55,23.60
1854,60797658,0.6592,0.1880,-0.0034,-19.45,-27.80,25.06
1855,60802658,0.6558,0.1821,0.0059,-20.67,-30.18,26.46
1856,60807661,0.6519,0.1733,0.0122,-22.32,-32.44,27.87
1857,60812658,0.6416,0.1602,0.0269,-24.63,-34.82,29.02
1858,60817659,0.6299,0.1450,0.0229,-27.56,-37.07,30.49
1859,60823171,0.6230,0.1343,0.0317,-31.16,-39.45,31.59
1860,60827658,0.6201,0.1250,0.0415,-35.43,-41.52,32.74
1861,60832658,0.6157,0.1260,0.0488,-40.24,-43.66,33.60
1862,60837658,0.6162,0.1191,0.0498,-45.37,-45.67,34.57
1863,60842658,0.6162,0.1113,0.0557,-50.79,-47.62,35.37
1864,60847658,0.6304,0.1138,0.0532,-56.04,-49.27,36.22
1865,60852658,0.6431,0.1108,0.0493,-61.34,-51.16,36.95
1866,60857658,0.6528,0.0991,0.0444,-66.40,-52.74,37.68
1867,60862658,0.6665,0.0889,0.0400,-71.04,-54.51,38.54
1868,60867658,0.6689,0.0781,0.0449,-75.43,-56.16,39.45
1869,60872657,0.6694,0.0669,0.0396,-79.39,-57.56,40.43
1870,60877658,0.6719,0.0532,0.0327,-82.93,-59.15,41.71
1871,60882658,0.6729,0.0371,0.0332,-86.28,-60.43,43.11
1872,60887658,0.6738,0.0234,0.0327,-89.45,-61.89,44.82
1873,60892657,0.6655,0.0117,0.0229,-92.56,-63.35,46.59
1874,60897658,0.6655,-0.0054,0.0254,-95.85,-64.82,48.60
1875,60902656,0.6621,-0.0195,0.0146,-99.27,-66.34,50.67
1876,60907656,0.6582,-0.0229,0.0088,-102.68,-67.93,52.87
1877,60912660,0.6646,-0.0220,0.0044,-106.16,-69.33,55.00
1878,60917657,0.6763,-0.0195,0.0049,-109.57,-70.98,57.26
1879,60922658,0.6899,-0.0200,0.0103,-113.05,-72.26,59.39
1880,60927657,0.6968,-0.0220,-0.0068,-116.10,-73.54,61.59
1881,60932658,0.7061,-0.0283,0.0010,-118.66,-74.94,63.60
1882,60937658,0.7129,-0.0405,-0.0151,-120.73,-76.16,65.73
1883,60942658,0.7144,-0.0420,-0.0171,-122.20,-77.32,67.93
1884,60948084,0.7163,-0.0547,-0.0210,-123.35,-78.54,70.06
1885,60952658,0.7095,-0.0693,-0.0171,-123.78,-79.70,72.26
1886,60958004,0.6929,-0.0859,-0.0610,-123.54,-80.79,74.51
1887,60962658,0.6973,-0.1006,-0.0498,-122.07,-82.20,77.13
1888,60968128,0.6929,-0.1084,-0.0303,-120.12,-83.23,79.88
1889,60972658,0.6875,-0.1221,-0.0386,-117.56,-84.09,82.56
1890,60977658,0.6812,-0.1392,-0.0493,-114.76,-85.06,85.49
1891,60982658,0.6841,-0.1611,-0.0518,-111.77,-85.85,88.17
1892,60987858,0.6953,-0.1865,-0.0518,-108.78,-86.65,91.59
1893,60992746,0.6812,-0.1851,-0.0674,-105.67,-87.50,95.18
1894,60997658,0.6514,-0.1836,-0.0474,-102.74,-87.93,98.66
1895,61002658,0.6284,-0.1831,-0.0356,-100.00,-87.99,101.83
1896,61008021,0.6216,-0.1909,-0.0283,-97.38,-88.23,105.18
1897,61012658,0.6270,-0.1987,-0.0298,-95.06,-88.17,108.23
1898,61017658,0.6455,-0.1992,-0.0371,-93.11,-88.17,111.28
1899,61022658,0.6553,-0.2002,-0.0376,-91.40,-87.99,114.27
1900,61027658,0.6416,-0.2183,-0.0273,-90.43,-87.99,116.95
1901,61032658,0.6406,-0.2500,-0.0400,-90.24,-87.68,119.39
1902,61037658,0.6328,-0.2427,-0.0728,-90.49,-87.99,123.05
1903,61042658,0.6128,-0.2461,-0.0581,-90.73,-87.87,125.30
1904,61047658,0.6113,-0.2759,-0.0239,-91.16,-88.29,128.05
1905,61052657,0.6406,-0.2690,-0.0952,-91.10,-88.05,130.85
1906,61057857,0.6436,-0.2681,-0.1064,-91.22,-87.62,133.78
1907,61062658,0.6489,-0.2891,-0.0674,-91.04,-87.62,136.10
1908,61067662,0.6299,-0.3286,-0.0679,-91.10,-87.74,139.45
1909,61072658,0.6177,-0.3267,-0.0972,-91.16,-87.99,141.71
1910,61077658,0.6143,-0.3428,-0.0952,-91.46,-88.11,144.94
1911,61082658,0.6025,-0.3511,-0.0952,-91.34,-89.15,148.90
1912,61087658,0.5859,-0.3716,-0.1040,-91.04,-89.82,151.40
1913,61092660,0.5806,-0.3784,-0.1270,-90.61,-90.30,154.51
1914,61097658,0.5796,-0.3755,-0.1201,-89.76,-91.10,157.50
1915,61102658,0.5796,-0.3647,-0.1143,-88.66,-91.89,160.30
1916,61107660,0.5879,-0.3545,-0.1323,-87.01,-92.80,162.87
1917,61112657,0.5918,-0.3579,-0.1514,-85.30,-93.41,165.24
1918,61117658,0.5991,-0.3633,-0.1494,-82.93,-95.12,167.68
1919,61122658,0.6074,-0.3906,-0.1895,-80.30,-96.34,170.24
1920,61127658,0.6113,-0.4297,-0.2109,-77.50,-97.68,172.80
1921,61132687,0.6079,-0.4648,-0.2256,-74.70,-99.09,175.98
1922,61137658,0.6021,-0.4990,-0.2256,-72.07,-100.49,179.33
1923,61142658,0.5913,-0.5278,-0.2363,-69.94,-101.71,182.99
1924,61147658,0.5688,-0.5537,-0.2461,-68.23,-102.87,187.50
1925,61152658,0.5493,-0.5664,-0.2407,-67.74,-103.41,191.46
1926,61157658,0.5288,-0.5723,-0.2358,-67.74,-104.02,194.45
1927,61162658,0.4985,-0.5806,-0.2339,-68.11,-104.27,198.17
1928,61168036,0.4629,-0.5845,-0.2407,-69.21,-104.45,202.56
1929,61172658,0.4434,-0.6030,-0.2231,-70.00,-104.45,205.30
1930,61178110,0.4126,-0.6035,-0.2290,-71.22,-104.39,208.96
1931,61182658,0.4072,-0.5947,-0.2422,-71.95,-104.33,211.10
1932,61187658,0.3940,-0.5796,-0.2500,-72.38,-104.09,213.66
1933,61192657,0.3848,-0.5610,-0.2554,-72.50,-104.27,215.67
1934,61197661,0.3691,-0.5532,-0.2749,-71.95,-104.33,217.26
1935,61202659,0.3521,-0.5566,-0.2944,-70.98,-104.21,218.54
1936,61207657,0.3335,-0.5635,-0.3135,-69.63,-104.27,219.82
1937,61212658,0.3120,-0.5747,-0.3232,-68.11,-104.51,220.91
1938,61217657,0.2935,-0.5942,-0.3394,-66.83,-104.57,221.83
1939,61222656,0.2852,-0.6162,-0.3574,-66.04,-104.45,222.87
1940,61227658,0.2778,-0.6533,-0.3647,-65.67,-104.27,223.90
1941,61232656,0.2832,-0.6929,-0.3740,-66.10,-104.15,225.30
1942,61237660,0.2861,-0.7339,-0.3901,-67.13,-103.72,226.89
1943,61242809,0.2808,-0.7651,-0.4048,-68.72,-103.29,228.72
1944,61247656,0.2734,-0.7993,-0.4116,-71.04,-102.74,230.73
1945,61252658,0.2690,-0.8223,-0.4229,-73.78,-102.32,232.74
1946,61257657,0.2637,-0.8423,-0.4385,-76.89,-102.07,234.82
1947,61262658,0.2456,-0.8457,-0.4312,-79.88,-101.71,236.77
1948,61267661,0.2275,-0.8447,-0.4458,-82.93,-101.52,238.78
1949,61272658,0.2031,-0.8359,-0.4492,-84.15,-101.52,239.94
1950,61277658,0.1636,-0.8262,-0.4570,-84.76,-101.71,241.52
1951,61282658,0.1367,-0.8198,-0.4590,-83.96,-101.89,242.68
1952,61287658,0.1216,-0.8169,-0.4707,-82.50,-102.56,243.48
1953,61292658,0.0977,-0.8271,-0.4814,-79.88,-103.17,244.21
1954,61297658,0.0713,-0.8291,-0.4883,-75.73,-104.33,245.12
1955,61302658,0.0503,-0.8267,-0.4961,-72.56,-105.00,245.43
1956,61307658,0.0205,-0.8242,-0.4990,-68.29,-105.43,245.67
1957,61312658,-0.0044,-0.8281,-0.5083,-63.60,-105.98,245.61
1958,61317658,-0.0190,-0.8359,-0.5117,-58.54,-106.59,245.43
1959,61322657,-0.0293,-0.8584,-0.5332,-53.17,-106.83,245.43
1960,61327658,-0.0278,-0.8799,-0.5527,-47.80,-107.20,245.43
1961,61332698,-0.0312,-0.9004,-0.5659,-42.50,-107.56,245.61
1962,61337658,-0.0396,-0.9243,-0.5601,-37.74,-107.80,246.10
1963,61342658,-0.0522,-0.9434,-0.5703,-33.48,-107.80,246.83
1964,61347658,-0.0684,-0.9546,-0.5698,-30.06,-107.74,247.56
1965,61352658,-0.0830,-0.9688,-0.5801,-27.62,-107.44,248.54
1966,61357658,-0.1030,-0.9805,-0.5830,-26.28,-107.20,249.57
1967,61362658,-0.1196,-0.9839,-0.5786,-25.73,-107.13,250.67
1968,61367658,-0.1343,-0.9844,-0.5806,-25.85,-107.13,251.89
1969,61372658,-0.1460,-0.9824,-0.5796,-26.22,-107.13,253.11
1970,61377658,-0.1650,-0.9800,-0.5781,-26.77,-107.32,254.27
1971,61382658,-0.1836,-0.9746,-0.5776,-27.38,-107.56,255.43
1972,61387658,-0.2139,-0.9697,-0.5801,-27.56,-107.93,256.52
1973,61392657,-0.2441,-0.9648,-0.5737,-27.32,-108.41,257.26
1974,61397661,-0.2793,-0.9570,-0.5825,-26.46,-108.72,257.93
1975,61402658,-0.3101,-0.9487,-0.5820,-25.00,-108.96,258.35
1976,61407658,-0.3423,-0.9438,-0.5918,-23.17,-109.21,258.48
1977,61412658,-0.3779,-0.9395,-0.5923,-21.16,-109.21,258.48
1978,61417762,-0.4136,-0.9414,-0.5981,-18.90,-109.02,258.35
1979,61422660,-0.4277,-0.9258,-0.5845,-16.22,-108.54,257.87
1980,61427688,-0.4419,-0.9243,-0.5962,-13.17,-107.93,257.32
1981,61432657,-0.4678,-0.9268,-0.5996,-10.00,-107.20,256.59
1982,61437660,-0.4932,-0.9160,-0.5996,-6.52,-106.22,255.79
1983,61442657,-0.5244,-0.9175,-0.6006,-2.74,-104.88,254.94
1984,61447658,-0.5498,-0.9092,-0.5942,1.40,-103.60,254.27
1985,61452658,-0.5781,-0.9014,-0.5898,5.67,-102.01,253.66
1986,61457658,-0.5991,-0.8892,-0.5898,10.00,-100.30,253.05
1987,61462658,-0.6182,-0.8721,-0.5781,14.63,-98.54,252.68
1988,61467661,-0.6362,-0.8550,-0.5684,19.21,-96.52,252.50
1989,61472658,-0.6553,-0.8438,-0.5610,24.02,-94.51,252.50
1990,61477945,-0.6641,-0.8428,-0.5596,28.96,-92.80,252.80
1991,61482659,-0.6904,-0.8486,-0.5532,34.02,-91.22,253.41
1992,61487657,-0.7197,-0.8545,-0.5493,39.02,-89.33,254.27
1993,61492657,-0.7388,-0.8525,-0.5591,43.96,-87.44,255.30
1994,61497658,-0.7725,-0.8643,-0.5605,48.66,-85.24,256.22
1995,61502657,-0.7974,-0.8774,-0.5747,53.17,-83.11,257.32
1996,61507656,-0.8247,-0.8857,-0.5947,57.62,-80.79,258.35
1997,61512661,-0.8589,-0.8965,-0.6045,61.77,-78.11,259.21
1998,61517658,-0.8965,-0.9004,-0.6016,65.18,-75.30,259.82
1999,61522658,-0.9395,-0.9004,-0.6040,67.87,-72.50,260.24
2000,61527658,-0.9648,-0.8989,-0.6074,70.24,-69.33,260.61
2001,61532658,-0.9844,-0.8940,-0.6030,72.20,-66.04,260.91
2002,61537658,-1.0059,-0.8833,-0.5986,74.21,-62.87,260.98
2003,61542658,-1.0259,-0.8706,-0.6016,76.34,-59.51,261.04
2004,61547658,-1.0410,-0.8608,-0.5928,78.54,-56.34,261.16
2005,61553146,-1.0645,-0.8413,-0.5874,80.85,-53.29,261.04
2006,61557658,-1.0884,-0.8232,-0.5718,83.29,-50.06,260.91
2007,61563143,-1.1104,-0.8062,-0.5762,85.67,-47.20,260.85
2008,61567658,-1.1343,-0.7876,-0.5625,87.93,-44.27,260.73
2009,61573020,-1.1602,-0.7661,-0.5518,90.18,-41.52,260.49
2010,61577658,-1.1753,-0.7495,-0.5430,92.32,-38.66,260.30
2011,61582658,-1.1919,-0.7319,-0.5312,94.21,-36.16,260.06
2012,61587658,-1.2070,-0.7153,-0.5225,95.91,-33.66,260.06
2013,61592658,-1.2231,-0.6982,-0.5088,97.20,-31.34,259.88
2014,61597658,-1.2314,-0.6841,-0.5059,98.23,-29.02,259.82
2015,61602658,-1.2378,-0.6636,-0.4907,98.84,-26.83,259.63
2016,61607658,-1.2437,-0.6514,-0.4824,99.02,-24.70,259.33
2017,61612657,-1.2578,-0.6367,-0.4639,98.90,-22.80,259.15
2018,61617659,-1.2700,-0.6216,-0.4512,98.60,-20.55,258.66
2019,61622658,-1.2749,-0.6060,-0.4551,98.23,-18.41,258.05
2020,61627657,-1.2788,-0.6011,-0.4409,97.62,-16.40,257.26
2021,61632658,-1.2856,-0.5933,-0.4365,96.95,-14.21,256.40
2022,61637659,-1.2876,-0.5771,-0.4395,95.98,-12.26,255.30
2023,61642658,-1.2822,-0.5566,-0.4312,95.18,-10.24,253.96
2024,61647657,-1.2847,-0.5493,-0.4175,94.15,-8.11,252.44
2025,61652658,-1.2822,-0.5522,-0.4204,92.93,-6.22,250.85
2026,61657661,-1.2817,-0.5474,-0.4233,91.34,-4.45,249.33
2027,61662658,-1.2710,-0.5361,-0.4121,89.88,-3.11,247.93
2028,61667658,-1.2593,-0.5176,-0.4170,87.68,-1.10,245.61
2029,61672657,-1.2744,-0.5234,-0.4238,86.28,0.06,244.09
2030,61677759,-1.2944,-0.5005,-0.4331,84.63,1.59,241.59
2031,61682658,-1.2979,-0.4912,-0.4292,83.78,2.26,239.70
2032,61687658,-1.3008,-0.4946,-0.4419,83.05,3.48,236.95
2033,61692658,-1.2842,-0.4780,-0.4482,82.62,4.02,234.51
2034,61698100,-1.2778,-0.4619,-0.4438,82.68,4.39,232.01
2035,61702658,-1.2788,-0.4683,-0.4585,82.80,4.70,229.88
2036,61708004,-1.2793,-0.4409,-0.4512,83.54,4.70,226.40
2037,61712658,-1.2617,-0.4429,-0.4312,84.09,4.88,223.96
2038,61717660,-1.2529,-0.4209,-0.4487,84.82,5.30,220.67
2039,61722658,-1.2476,-0.4077,-0.4331,85.73,5.67,217.26
2040,61727658,-1.2397,-0.3984,-0.4131,87.07,6.16,213.66
2041,61733083,-1.2261,-0.3931,-0.3989,88.66,7.01,209.09
2042,61737658,-1.2100,-0.4033,-0.3975,89.88,7.93,206.10
2043,61742659,-1.1865,-0.4062,-0.3975,91.46,8.78,202.38
2044,61747658,-1.1587,-0.4014,-0.3994,93.11,9.63,198.54
2045,61752658,-1.1289,-0.3960,-0.3960,95.85,10.55,194.09
2046,61757658,-1.1104,-0.3906,-0.3921,97.99,11.16,190.98
2047,61762658,-1.0771,-0.3789,-0.3813,101.22,12.01,186.95
2048,61767659,-1.0547,-0.3662,-0.3730,105.18,12.93,182.87
2049,61772658,-1.0371,-0.3589,-0.3730,109.51,13.60,178.66
2050,61777658,-1.0229,-0.3525,-0.3770,114.33,14.39,174.45
2051,61782658,-1.0034,-0.3408,-0.3716,119.57,15.18,170.12
2052,61787657,-1.0039,-0.4277,-0.4160,124.57,15.73,166.46
2053,61792657,-0.9746,-0.4243,-0.4282,128.35,14.88,163.41
2054,61797656,-0.9438,-0.3252,-0.3584,131.89,15.24,159.76
2055,61802656,-0.9590,-0.2534,-0.3203,137.56,16.22,155.00
2056,61808187,-1.0259,-0.2412,-0.3560,145.61,17.56,148.60
2057,61812658,-1.0669,-0.2192,-0.3862,151.95,18.41,144.27
2058,61817657,-1.0811,-0.2192,-0.3813,160.43,19.27,138.96
2059,61822657,-1.0732,-0.2314,-0.3716,169.51,19.88,133.90
2060,61827658,-1.0522,-0.2354,-0.3745,178.78,20.79,128.72
2061,61832658,-1.0342,-0.2241,-0.3813,189.88,21.40,122.38
2062,61837658,-1.0190,-0.2163,-0.3638,197.07,22.01,118.23
2063,61842659,-1.0098,-0.2051,-0.3413,206.10,22.44,113.05
2064,61847658,-1.0020,-0.2046,-0.3403,214.70,23.17,107.87
2065,61852657,-0.9888,-0.2104,-0.3267,222.87,24.09,102.93
2066,61857658,-0.9824,-0.2202,-0.3066,230.30,24.82,98.05
2067,61862658,-0.9702,-0.2344,-0.2974,236.83,25.43,93.35
2068,61868012,-0.9453,-0.2388,-0.2969,243.48,26.16,88.35
2069,61872661,-0.9238,-0.2427,-0.2939,248.17,26.65,83.90
2070,61877658,-0.9067,-0.2339,-0.2866,251.52,26.71,80.67
2071,61882658,-0.8896,-0.2227,-0.2803,255.37,26.77,76.59
2072,61887658,-0.8745,-0.2124,-0.2769,258.78,26.77,72.74
2073,61892657,-0.8652,-0.2046,-0.2646,262.01,26.77,68.78
2074,61897658,-0.8442,-0.1938,-0.2593,265.24,26.40,64.27
2075,61902658,-0.8359,-0.1958,-0.2603,267.01,26.16,61.52
2076,61907658,-0.8364,-0.1943,-0.2529,269.02,25.55,57.38
2077,61912658,-0.8374,-0.1968,-0.2397,269.76,25.24,54.70
2078,61917959,-0.8354,-0.1973,-0.2417,270.00,24.57,51.65
2079,61922658,-0.8315,-0.1953,-0.2388,269.63,24.02,48.60
2080,61927658,-0.8262,-0.1963,-0.2515,268.17,23.11,45.24
2081,61932658,-0.8271,-0.1982,-0.2422,266.77,22.20,43.11
2082,61937658,-0.8286,-0.1890,-0.2520,264.45,21.22,40.61
2083,61942658,-0.8350,-0.1851,-0.2656,261.83,19.94,38.05
2084,61947660,-0.8418,-0.1870,-0.2588,258.84,18.41,35.67
2085,61952658,-0.8433,-0.1807,-0.2739,255.61,16.83,33.35
2086,61957658,-0.8501,-0.1768,-0.2686,251.95,15.12,31.10
2087,61962658,-0.8462,-0.1714,-0.2705,247.93,13.48,28.96
2088,61967658,-0.8428,-0.1768,-0.2754,243.35,11.95,26.95
2089,61972658,-0.8472,-0.1870,-0.2681,237.93,10.06,25.06
2090,61977658,-0.8530,-0.1914,-0.2734,231.83,8.54,23.29
2091,61982658,-0.8584,-0.2017,-0.2695,224.94,6.77,21.89
2092,61987658,-0.8594,-0.2124,-0.2700,217.56,5.06,20.49
2093,61992659,-0.8623,-0.2158,-0.2744,209.70,3.54,19.27
2094,61997677,-0.8726,-0.2192,-0.2671,201.40,2.20,18.11
2095,62002883,-0.8770,-0.2168,-0.2681,192.87,1.04,16.95
2096,62007658,-0.8721,-0.2290,-0.2847,184.15,0.06,15.91
2097,62012658,-0.8989,-0.2329,-0.2773,175.12,-1.10,15.00
2098,62017658,-0.9019,-0.2334,-0.2778,166.04,-2.38,14.09
2099,62022658,-0.8970,-0.2344,-0.2822,156.89,-3.35,13.17
2100,62027658,-0.8926,-0.2412,-0.2773,147.56,-4.09,12.38
2101,62032657,-0.8848,-0.2397,-0.2646,138.35,-4.63,11.65
2102,62038015,-0.8711,-0.2397,-0.2603,129.57,-5.12,10.91
2103,62042658,-0.8594,-0.2373,-0.2666,120.49,-5.24,10.30
2104,62047659,-0.8521,-0.2402,-0.2725,111.71,-5.73,9.70
2105,62052658,-0.8394,-0.2412,-0.2686,103.35,-6.04,9.09
2106,62057657,-0.8262,-0.2476,-0.2676,95.18,-6.52,8.35
2107,62062658,-0.8213,-0.2515,-0.2783,87.20,-6.71,7.74
2108,62067658,-0.8198,-0.2539,-0.2754,79.21,-7.13,7.26
2109,62072912,-0.8149,-0.2563,-0.2822,71.71,-7.44,6.71
2110,62077659,-0.8101,-0.2549,-0.2847,64.15,-7.74,6.22
2111,62082658,-0.8120,-0.2598,-0.2949,57.01,-7.99,5.67
2112,62087658,-0.8120,-0.2588,-0.2979,49.94,-8.60,5.12
2113,62092658,-0.8096,-0.2593,-0.3062,43.29,-9.09,4.45
2114,62097657,-0.8018,-0.2627,-0.3057,36.95,-9.76,3.84
2115,62102656,-0.7969,-0.2549,-0.3105,30.98,-10.24,3.05
2116,62107659,-0.7886,-0.2554,-0.3149,25.24,-10.85,2.50
2117,62112659,-0.7871,-0.2490,-0.3198,20.06,-11.46,1.65
2118,62117658,-0.7817,-0.2451,-0.3203,15.18,-12.13,0.85
2119,62122658,-0.7896,-0.2490,-0.3325,10.49,-12.74,0.06
2120,62127658,-0.7886,-0.2480,-0.3306,6.22,-13.48,-0.91
2121,62132657,-0.7920,-0.2466,-0.3359,2.32,-14.27,-1.71
2122,62137658,-0.7944,-0.2466,-0.3447,-1.28,-14.88,-2.62
2123,62142959,-0.7964,-0.2515,-0.3496,-4.51,-15.61,-3.41
2124,62147658,-0.7905,-0.2490,-0.3535,-7.62,-16.28,-4.27
2125,62152660,-0.7861,-0.2529,-0.3574,-10.24,-16.95,-5.06
2126,62157658,-0.7896,-0.2520,-0.3555,-12.74,-17.62,-5.91
2127,62162658,-0.7939,-0.2539,-0.3628,-15.06,-18.29,-6.77
2128,62167658,-0.7944,-0.2573,-0.3662,-17.26,-18.84,-7.50
2129,62172658,-0.7969,-0.2598,-0.3740,-19.02,-19.51,-8.29
2130,62177658,-0.7954,-0.2603,-0.3711,-20.61,-20.00,-9.02
2131,62182658,-0.7915,-0.2671,-0.3745,-21.71,-20.67,-9.82
2132,62187658,-0.7871,-0.2646,-0.3823,-22.62,-21.04,-10.55
2133,62192658,-0.7920,-0.2607,-0.3896,-23.05,-21.59,-11.34
