# skilleye imu stream v1
# device=xiao_esp32c6 imu=mpu6050 addr=0x68
# rate_hz=200 accel_range_g=16 gyro_range_dps=2000 dlpf_hz=94
# units: accel in g, gyro in deg/s, t_us in microseconds since boot (monotonic)
# no shared clock with the camera -- tap the racket once before each take
# so both recordings share a spike to align on
seq,t_us,ax,ay,az,gx,gy,gz
0,374317315,-0.7358,-0.7148,0.1416,-12.68,-18.66,0.73
1,374321988,-0.7402,-0.7114,0.1431,-15.37,-19.82,-0.61
2,374326984,-0.7339,-0.7095,0.1401,-18.60,-21.22,-2.26
3,374331984,-0.7314,-0.7075,0.1289,-21.34,-22.38,-4.09
4,374336984,-0.7324,-0.7031,0.1348,-23.84,-23.66,-5.61
5,374341984,-0.7295,-0.7026,0.1274,-26.16,-24.94,-7.20
6,374346984,-0.7314,-0.7002,0.1279,-28.05,-26.04,-8.84
7,374351984,-0.7275,-0.6997,0.1221,-29.88,-27.07,-10.18
8,374357043,-0.7266,-0.6929,0.1157,-31.95,-28.35,-12.07
9,374361983,-0.7290,-0.6919,0.1084,-32.87,-29.09,-13.05
10,374366984,-0.7280,-0.6885,0.1118,-34.02,-30.18,-14.51
11,374371984,-0.7300,-0.6836,0.1006,-35.30,-31.28,-16.10
12,374376984,-0.7329,-0.6880,0.0977,-35.98,-32.07,-17.07
13,374381984,-0.7354,-0.6812,0.0918,-36.95,-33.35,-18.41
14,374386983,-0.7368,-0.6772,0.0879,-37.62,-34.27,-19.57
15,374391982,-0.7407,-0.6777,0.0845,-38.23,-34.76,-20.43
16,374396984,-0.7471,-0.6768,0.0806,-39.15,-35.79,-21.59
17,374401984,-0.7456,-0.6777,0.0732,-39.76,-36.83,-22.44
18,374406984,-0.7495,-0.6753,0.0649,-40.49,-37.62,-23.23
19,374411984,-0.7500,-0.6719,0.0688,-41.10,-38.35,-23.84
20,374416984,-0.7505,-0.6704,0.0576,-41.83,-38.96,-24.51
21,374421984,-0.7520,-0.6699,0.0537,-42.26,-39.82,-25.06
22,374427391,-0.7480,-0.6611,0.0508,-42.74,-40.55,-25.73
23,374431985,-0.7456,-0.6528,0.0518,-43.23,-41.16,-26.16
24,374436983,-0.7432,-0.6548,0.0454,-43.66,-41.77,-26.65
25,374441984,-0.7388,-0.6479,0.0439,-43.90,-42.56,-27.07
26,374446982,-0.7344,-0.6426,0.0317,-44.39,-43.29,-27.56
27,374451984,-0.7324,-0.6353,0.0400,-44.57,-43.78,-27.80
28,374456983,-0.7349,-0.6333,0.0327,-45.00,-44.39,-28.11
29,374461985,-0.7295,-0.6304,0.0249,-45.43,-45.06,-28.41
30,374466984,-0.7261,-0.6284,0.0176,-45.91,-45.61,-28.60
31,374471984,-0.7246,-0.6284,0.0239,-46.40,-46.22,-28.78
32,374476983,-0.7280,-0.6226,0.0210,-47.01,-46.71,-28.96
33,374481984,-0.7300,-0.6265,0.0112,-47.50,-47.07,-28.96
34,374486982,-0.7305,-0.6323,0.0059,-48.29,-47.44,-28.90
35,374491984,-0.7378,-0.6367,0.0068,-49.15,-47.74,-28.78
36,374496984,-0.7412,-0.6421,0.0073,-49.88,-47.87,-28.41
37,374501982,-0.7417,-0.6353,0.0063,-50.67,-47.93,-28.17
38,374507173,-0.7451,-0.6396,0.0010,-51.34,-47.93,-27.74
39,374511984,-0.7437,-0.6401,-0.0005,-51.89,-47.93,-27.20
40,374516985,-0.7363,-0.6421,0.0034,-52.32,-47.80,-26.77
41,374521984,-0.7354,-0.6353,-0.0049,-52.50,-47.80,-26.16
42,374526985,-0.7324,-0.6353,0.0049,-52.26,-47.68,-25.55
43,374531984,-0.7314,-0.6289,-0.0044,-51.89,-47.56,-24.88
44,374536984,-0.7295,-0.6304,-0.0049,-51.28,-47.38,-24.27
45,374541983,-0.7256,-0.6265,-0.0049,-50.37,-47.44,-23.72
46,374546984,-0.7246,-0.6304,-0.0088,-49.15,-47.50,-22.93
47,374551986,-0.7197,-0.6289,-0.0156,-47.87,-47.80,-22.01
48,374557108,-0.7095,-0.6265,-0.0186,-46.22,-48.11,-21.28
49,374561984,-0.7036,-0.6255,-0.0220,-44.57,-48.41,-20.43
50,374566982,-0.6978,-0.6255,-0.0220,-42.80,-48.84,-19.70
51,374571983,-0.6958,-0.6265,-0.0288,-40.98,-49.45,-18.78
52,374576984,-0.6968,-0.6284,-0.0205,-39.27,-49.57,-17.87
53,374581984,-0.6924,-0.6265,-0.0308,-37.56,-50.06,-16.95
54,374586984,-0.6885,-0.6323,-0.0249,-35.79,-50.55,-15.98
55,374591983,-0.6865,-0.6279,-0.0269,-34.09,-50.85,-15.12
56,374596982,-0.6846,-0.6289,-0.0298,-32.50,-51.28,-14.21
57,374601984,-0.6812,-0.6265,-0.0303,-30.73,-51.65,-13.17
58,374606984,-0.6846,-0.6323,-0.0342,-29.27,-51.95,-12.32
59,374611984,-0.6875,-0.6309,-0.0415,-27.74,-52.20,-11.28
60,374616984,-0.6841,-0.6279,-0.0381,-26.40,-52.32,-10.43
61,374621986,-0.6855,-0.6313,-0.0386,-25.12,-52.62,-9.51
62,374627411,-0.6895,-0.6294,-0.0439,-24.09,-52.68,-8.60
63,374631984,-0.6943,-0.6313,-0.0405,-23.05,-52.93,-7.74
64,374636986,-0.6973,-0.6348,-0.0532,-22.38,-52.87,-6.83
65,374641984,-0.6982,-0.6328,-0.0557,-21.77,-52.93,-5.85
66,374646983,-0.7075,-0.6411,-0.0518,-21.22,-52.80,-5.00
67,374651984,-0.7056,-0.6367,-0.0542,-21.04,-52.74,-4.15
68,374656984,-0.7095,-0.6396,-0.0586,-20.91,-52.50,-3.17
69,374662046,-0.7095,-0.6406,-0.0532,-21.04,-52.01,-2.44
70,374666984,-0.7100,-0.6431,-0.0542,-21.22,-51.59,-1.59
71,374671984,-0.7070,-0.6421,-0.0518,-21.59,-51.10,-0.73
72,374676984,-0.7104,-0.6416,-0.0586,-21.89,-50.55,0.00
73,374681983,-0.7139,-0.6401,-0.0532,-22.38,-50.00,0.85
74,374686986,-0.7134,-0.6421,-0.0513,-22.99,-49.33,1.59
75,374691984,-0.7095,-0.6421,-0.0586,-23.48,-48.48,2.44
76,374696984,-0.7129,-0.6450,-0.0513,-24.02,-47.87,3.05
77,374701983,-0.7119,-0.6470,-0.0571,-24.51,-46.95,3.78
78,374706984,-0.7134,-0.6465,-0.0518,-25.00,-46.34,4.45
79,374711984,-0.7124,-0.6455,-0.0620,-25.43,-45.49,5.12
80,374716984,-0.7148,-0.6460,-0.0596,-25.79,-44.63,5.73
81,374721988,-0.7134,-0.6484,-0.0649,-25.79,-43.78,6.34
82,374726984,-0.7129,-0.6455,-0.0679,-26.04,-43.05,6.95
83,374731984,-0.7114,-0.6479,-0.0698,-26.04,-42.26,7.50
84,374736984,-0.7056,-0.6465,-0.0693,-25.79,-41.59,8.05
85,374741984,-0.7075,-0.6460,-0.0703,-25.55,-40.85,8.54
86,374746984,-0.7065,-0.6455,-0.0708,-25.24,-40.18,9.09
87,374752186,-0.7070,-0.6489,-0.0679,-24.76,-39.39,9.27
88,374756984,-0.7026,-0.6445,-0.0649,-24.09,-38.72,9.76
89,374762492,-0.7046,-0.6504,-0.0664,-23.23,-38.05,10.30
90,374766984,-0.6963,-0.6538,-0.0654,-22.56,-37.38,10.55
91,374771986,-0.6978,-0.6558,-0.0615,-21.59,-36.83,10.85
92,374776984,-0.7007,-0.6611,-0.0571,-20.67,-36.10,11.22
93,374781984,-0.6968,-0.6587,-0.0605,-19.45,-35.55,11.40
94,374786983,-0.6992,-0.6646,-0.0566,-18.11,-35.06,11.59
95,374791982,-0.6987,-0.6616,-0.0571,-16.71,-34.70,11.71
96,374796982,-0.6997,-0.6621,-0.0566,-15.12,-34.15,11.71
97,374801982,-0.6943,-0.6582,-0.0547,-13.35,-33.78,11.71
98,374807346,-0.6904,-0.6592,-0.0566,-11.59,-33.54,11.59
99,374811984,-0.6948,-0.6631,-0.0508,-9.88,-33.35,11.40
100,374817231,-0.6978,-0.6631,-0.0483,-7.99,-32.93,11.22
101,374821984,-0.6987,-0.6670,-0.0425,-6.40,-32.80,10.98
102,374826985,-0.6968,-0.6631,-0.0479,-4.94,-32.62,10.67
103,374831984,-0.7051,-0.6641,-0.0469,-3.54,-32.32,10.37
104,374836984,-0.7061,-0.6675,-0.0459,-2.38,-32.20,9.88
105,374841984,-0.7153,-0.6709,-0.0420,-1.40,-32.20,9.51
106,374846984,-0.7261,-0.6709,-0.0366,-0.73,-31.83,8.84
107,374851984,-0.7271,-0.6797,-0.0366,-0.18,-31.59,8.35
108,374856984,-0.7256,-0.6831,-0.0322,0.00,-31.52,7.68
109,374861984,-0.7266,-0.6821,-0.0366,0.00,-31.52,7.20
110,374866984,-0.7329,-0.6875,-0.0327,-0.30,-31.65,6.65
111,374871984,-0.7397,-0.6943,-0.0278,-0.67,-31.71,6.04
112,374876984,-0.7432,-0.6982,-0.0234,-1.52,-31.83,5.43
113,374881984,-0.7490,-0.7017,-0.0205,-2.56,-32.01,4.94
114,374886983,-0.7500,-0.7065,-0.0151,-3.96,-32.07,4.45
115,374891985,-0.7515,-0.7100,-0.0078,-5.61,-32.32,3.84
116,374896984,-0.7476,-0.7144,-0.0190,-7.26,-32.32,3.29
117,374902318,-0.7520,-0.7144,-0.0132,-9.09,-32.50,2.93
118,374906984,-0.7529,-0.7197,-0.0112,-10.85,-32.56,2.50
119,374911984,-0.7480,-0.7148,-0.0063,-12.56,-32.93,2.07
120,374916984,-0.7476,-0.7207,-0.0107,-14.27,-32.99,1.65
121,374921984,-0.7412,-0.7212,-0.0059,-15.98,-33.17,1.34
122,374926985,-0.7334,-0.7261,-0.0132,-17.44,-33.35,1.04
123,374931984,-0.7329,-0.7256,-0.0127,-18.78,-33.78,0.79
124,374936984,-0.7280,-0.7271,-0.0093,-19.94,-33.96,0.55
125,374941985,-0.7251,-0.7290,-0.0088,-21.04,-34.21,0.43
126,374946984,-0.7188,-0.7266,-0.0083,-21.77,-34.70,0.30
127,374951984,-0.7163,-0.7305,0.0020,-22.44,-34.88,0.37
128,374956984,-0.7109,-0.7300,-0.0049,-22.74,-35.30,0.37
129,374961984,-0.7012,-0.7305,-0.0054,-22.80,-35.73,0.30
130,374966983,-0.6929,-0.7349,-0.0068,-22.68,-36.16,0.49
131,374971984,-0.6899,-0.7397,-0.0039,-22.32,-36.52,0.55
132,374976984,-0.6860,-0.7378,-0.0063,-21.71,-37.01,0.73
133,374981986,-0.6860,-0.7417,-0.0039,-20.98,-37.32,0.98
134,374986983,-0.6880,-0.7427,-0.0010,-19.94,-37.62,1.28
135,374991984,-0.6943,-0.7446,-0.0044,-18.78,-38.05,1.34
136,374996984,-0.7002,-0.7480,-0.0093,-17.44,-38.41,1.71
137,375001984,-0.7031,-0.7520,-0.0103,-15.98,-38.48,1.71
138,375006983,-0.7139,-0.7529,-0.0049,-14.33,-38.84,1.95
139,375011984,-0.7231,-0.7539,-0.0083,-12.87,-38.90,2.13
140,375016984,-0.7388,-0.7549,-0.0044,-11.16,-38.96,2.20
141,375021984,-0.7446,-0.7632,-0.0059,-9.51,-38.90,2.26
142,375026984,-0.7476,-0.7632,-0.0024,-7.93,-39.02,2.13
143,375031986,-0.7412,-0.7603,0.0024,-6.28,-39.09,2.07
144,375036984,-0.7412,-0.7583,0.0039,-4.63,-39.15,2.01
145,375041988,-0.7373,-0.7554,0.0151,-2.56,-39.27,1.77
146,375046986,-0.7378,-0.7568,0.0186,-1.16,-39.27,1.59
147,375051983,-0.7402,-0.7559,0.0171,0.55,-39.39,1.34
148,375056984,-0.7368,-0.7505,0.0161,2.26,-39.45,1.10
149,375061985,-0.7378,-0.7539,0.0283,3.66,-39.39,0.61
150,375066984,-0.7402,-0.7500,0.0273,5.06,-39.57,0.06
151,375071984,-0.7388,-0.7476,0.0410,6.34,-39.63,-0.24
152,375076984,-0.7358,-0.7456,0.0376,7.26,-39.70,-0.85
153,375081984,-0.7407,-0.7446,0.0381,7.93,-39.70,-1.52
154,375087239,-0.7422,-0.7412,0.0391,8.35,-39.63,-2.07
155,375091984,-0.7446,-0.7437,0.0454,8.60,-39.51,-2.50
156,375096983,-0.7485,-0.7432,0.0498,8.54,-39.63,-3.11
157,375101982,-0.7515,-0.7437,0.0464,8.05,-39.51,-3.60
158,375107448,-0.7544,-0.7461,0.0557,7.38,-39.33,-4.27
159,375111984,-0.7549,-0.7422,0.0605,6.65,-39.33,-4.63
160,375116985,-0.7466,-0.7432,0.0586,5.91,-39.15,-5.24
161,375121984,-0.7451,-0.7402,0.0645,4.82,-39.02,-5.73
162,375126983,-0.7354,-0.7378,0.0645,3.54,-38.90,-6.34
163,375131985,-0.7310,-0.7363,0.0732,2.68,-38.66,-6.77
164,375136984,-0.7271,-0.7310,0.0737,1.71,-38.54,-7.38
165,375141986,-0.7236,-0.7285,0.0732,0.73,-38.35,-7.80
166,375146985,-0.7163,-0.7231,0.0728,-0.12,-38.29,-8.29
167,375151984,-0.7139,-0.7256,0.0801,-1.10,-38.17,-8.84
168,375157285,-0.7139,-0.7231,0.0830,-2.26,-37.93,-9.51
169,375161984,-0.7139,-0.7217,0.0825,-2.87,-37.87,-9.88
170,375166984,-0.7114,-0.7217,0.0815,-3.72,-37.74,-10.12
171,375171983,-0.7134,-0.7207,0.0869,-4.45,-37.44,-10.73
172,375176984,-0.7119,-0.7192,0.0845,-5.12,-37.20,-11.22
173,375182477,-0.7100,-0.7207,0.0913,-5.98,-37.01,-11.71
174,375186984,-0.7075,-0.7207,0.0913,-6.46,-36.89,-11.95
175,375191984,-0.7153,-0.7236,0.0942,-7.01,-36.52,-12.38
176,375196989,-0.7139,-0.7183,0.0972,-7.68,-36.46,-12.68
177,375201984,-0.7144,-0.7241,0.0928,-8.05,-36.10,-13.17
178,375206984,-0.7109,-0.7222,0.1001,-8.54,-35.67,-13.48
179,375211984,-0.7114,-0.7212,0.1030,-8.96,-35.43,-13.96
180,375216984,-0.7021,-0.7148,0.0991,-9.02,-35.18,-14.39
181,375221984,-0.7012,-0.7119,0.1099,-9.15,-34.88,-14.82
182,375226984,-0.6992,-0.7144,0.1016,-9.15,-34.82,-15.24
183,375231984,-0.6963,-0.7119,0.1064,-9.21,-34.57,-15.67
184,375236983,-0.7012,-0.7134,0.1079,-9.09,-34.45,-15.98
185,375241984,-0.7012,-0.7100,0.1191,-8.90,-34.21,-16.34
186,375246984,-0.6992,-0.7090,0.1118,-8.84,-33.78,-16.77
187,375251986,-0.6978,-0.7065,0.1099,-8.66,-33.78,-17.01
188,375256984,-0.6938,-0.7090,0.1152,-8.66,-33.66,-17.32
189,375261984,-0.6880,-0.7114,0.1104,-8.48,-33.41,-17.44
190,375266984,-0.6787,-0.7085,0.1196,-8.48,-33.23,-17.68
191,375271984,-0.6748,-0.7075,0.1177,-8.48,-33.17,-17.80
192,375276984,-0.6699,-0.7080,0.1196,-8.48,-33.11,-17.87
193,375281984,-0.6680,-0.7046,0.1094,-8.48,-32.99,-18.05
194,375287098,-0.6641,-0.7095,0.1187,-8.48,-32.93,-18.05
195,375291984,-0.6680,-0.7061,0.1104,-8.48,-32.56,-18.05
196,375296984,-0.6660,-0.7051,0.1162,-8.72,-32.50,-17.99
197,375301984,-0.6646,-0.7012,0.1211,-8.84,-32.13,-17.93
198,375306983,-0.6606,-0.7012,0.1196,-8.84,-31.77,-17.93
199,375312325,-0.6533,-0.7017,0.1245,-8.90,-31.65,-18.05
200,375316985,-0.6533,-0.7021,0.1167,-8.96,-31.28,-17.93
201,375322355,-0.6538,-0.7007,0.1172,-8.90,-31.16,-17.87
202,375326984,-0.6533,-0.6987,0.1182,-8.78,-30.85,-17.93
203,375331984,-0.6548,-0.6982,0.1143,-8.60,-30.55,-17.87
204,375337075,-0.6494,-0.6997,0.1143,-8.48,-30.37,-17.74
205,375341983,-0.6548,-0.6982,0.1172,-8.66,-29.94,-17.74
206,375346984,-0.6519,-0.6963,0.1147,-8.54,-29.45,-17.68
207,375351986,-0.6538,-0.7002,0.1118,-8.60,-29.02,-17.62
208,375356984,-0.6558,-0.7036,0.1162,-8.60,-28.60,-17.56
209,375361983,-0.6582,-0.6987,0.1172,-8.60,-28.29,-17.32
210,375366984,-0.6577,-0.6973,0.1094,-8.66,-27.68,-17.13
211,375371984,-0.6538,-0.6992,0.1118,-8.78,-27.26,-17.07
212,375376982,-0.6484,-0.6953,0.1108,-8.78,-26.59,-16.95
213,375381984,-0.6421,-0.6929,0.1182,-8.72,-26.28,-16.77
214,375386983,-0.6406,-0.6929,0.1230,-8.54,-25.73,-16.52
215,375391982,-0.6421,-0.6958,0.1172,-8.60,-25.30,-16.40
216,375397657,-0.6362,-0.6938,0.1143,-8.48,-24.82,-16.34
217,375401986,-0.6318,-0.6924,0.1187,-8.48,-24.51,-16.10
218,375407597,-0.6362,-0.6938,0.1099,-8.60,-24.09,-15.85
219,375411984,-0.6396,-0.6909,0.1089,-8.78,-23.41,-15.55
220,375416984,-0.6382,-0.6885,0.1040,-8.84,-22.99,-15.24
221,375421984,-0.6367,-0.6885,0.1084,-9.09,-22.56,-15.06
222,375426982,-0.6265,-0.6875,0.1089,-9.33,-22.01,-14.88
223,375431984,-0.6284,-0.6851,0.1079,-9.27,-21.52,-14.57
224,375436988,-0.6245,-0.6851,0.1094,-9.39,-21.04,-14.27
225,375441985,-0.6299,-0.6895,0.1113,-9.70,-20.55,-13.90
226,375446984,-0.6294,-0.6953,0.1108,-10.06,-19.94,-13.54
227,375451984,-0.6304,-0.6938,0.1128,-10.49,-19.21,-13.23
228,375456986,-0.6309,-0.6938,0.1133,-11.10,-18.48,-12.74
229,375461983,-0.6250,-0.6978,0.1143,-11.59,-17.93,-12.20
230,375466984,-0.6201,-0.6943,0.1055,-12.07,-17.13,-11.77
231,375471984,-0.6201,-0.6934,0.1006,-12.32,-16.65,-11.46
232,375476984,-0.6143,-0.6914,0.1016,-12.44,-15.98,-10.98
233,375481984,-0.6123,-0.6919,0.1055,-12.44,-15.55,-10.49
234,375486984,-0.6074,-0.6899,0.1040,-12.26,-14.88,-10.00
235,375492128,-0.6045,-0.6860,0.1069,-12.07,-14.45,-9.57
236,375496984,-0.6045,-0.6860,0.1030,-11.89,-13.96,-9.09
237,375501988,-0.6040,-0.6851,0.1030,-11.52,-13.48,-8.60
238,375506984,-0.6035,-0.6802,0.1001,-11.34,-12.80,-8.17
239,375511984,-0.6030,-0.6802,0.1045,-11.04,-12.32,-7.68
240,375516986,-0.5977,-0.6812,0.1030,-10.73,-12.01,-7.20
241,375521983,-0.5938,-0.6846,0.1074,-10.55,-11.52,-6.77
242,375526984,-0.5933,-0.6855,0.0972,-10.61,-11.04,-6.16
243,375531984,-0.5981,-0.6895,0.1016,-10.85,-10.43,-5.55
244,375536984,-0.5918,-0.6860,0.1021,-11.22,-9.88,-4.94
245,375541985,-0.5923,-0.6899,0.1045,-11.71,-9.51,-4.39
246,375546984,-0.5942,-0.6885,0.0938,-12.38,-8.72,-3.78
247,375551984,-0.5962,-0.6860,0.0947,-12.93,-8.17,-3.11
248,375556984,-0.5947,-0.6895,0.1001,-13.54,-7.62,-2.56
249,375561982,-0.5918,-0.6924,0.0977,-14.02,-7.13,-1.83
250,375566984,-0.5938,-0.6924,0.0957,-14.57,-6.52,-1.28
251,375571984,-0.5933,-0.6948,0.1021,-15.18,-5.91,-0.55
252,375576984,-0.5938,-0.6973,0.0996,-15.61,-5.24,0.06
253,375581983,-0.6011,-0.6982,0.1040,-15.98,-4.57,0.73
254,375586986,-0.6074,-0.7012,0.1016,-16.04,-3.78,1.40
255,375591983,-0.6074,-0.6978,0.0908,-15.91,-3.23,1.95
256,375596984,-0.6050,-0.7002,0.1001,-15.55,-2.44,2.56
257,375601983,-0.6045,-0.7021,0.0918,-15.06,-1.89,3.11
258,375606984,-0.6138,-0.7051,0.0903,-14.21,-1.22,3.60
259,375612478,-0.6099,-0.7056,0.0884,-13.29,-0.37,4.02
260,375616984,-0.6143,-0.7119,0.0957,-12.26,0.00,4.51
261,375621984,-0.6196,-0.7109,0.0884,-11.04,0.79,4.94
262,375626988,-0.6201,-0.7114,0.0894,-9.82,1.34,5.43
263,375631984,-0.6216,-0.7114,0.0923,-8.54,1.89,5.85
264,375636984,-0.6162,-0.7119,0.0879,-7.07,2.38,6.16
265,375641984,-0.6206,-0.7139,0.0854,-5.79,2.99,6.46
266,375646984,-0.6211,-0.7158,0.0889,-4.27,3.48,6.95
267,375651984,-0.6226,-0.7144,0.0815,-3.05,3.96,7.26
268,375657064,-0.6274,-0.7153,0.0874,-1.83,4.33,7.50
269,375661984,-0.6294,-0.7158,0.0845,-0.67,4.76,7.80
270,375666984,-0.6353,-0.7139,0.0923,0.30,5.37,8.23
271,375671983,-0.6343,-0.7158,0.0854,1.10,5.79,8.54
272,375676984,-0.6372,-0.7222,0.0801,1.71,6.34,8.90
273,375681982,-0.6372,-0.7241,0.0854,2.26,6.71,9.15
274,375686982,-0.6343,-0.7207,0.0830,2.56,7.20,9.45
275,375691982,-0.6421,-0.7236,0.0869,2.74,7.68,9.70
276,375696982,-0.6426,-0.7222,0.0811,2.80,8.17,10.12
277,375701982,-0.6479,-0.7261,0.0815,2.80,8.72,10.37
278,375707083,-0.6494,-0.7261,0.0815,2.68,9.15,10.79
279,375711984,-0.6499,-0.7271,0.0786,2.68,9.57,11.16
280,375716984,-0.6504,-0.7344,0.0898,2.56,10.12,11.52
281,375722473,-0.6509,-0.7314,0.0806,2.32,10.43,11.59
282,375726984,-0.6465,-0.7241,0.0869,2.26,10.91,11.95
283,375731984,-0.6504,-0.7329,0.0811,2.20,11.28,12.32
284,375736984,-0.6528,-0.7300,0.0864,2.13,11.71,12.68
285,375741984,-0.6431,-0.7305,0.0908,2.13,12.07,13.05
286,375746985,-0.6406,-0.7305,0.0918,2.26,12.26,13.29
287,375751984,-0.6387,-0.7329,0.0864,2.44,12.50,13.60
288,375756984,-0.6333,-0.7319,0.0938,2.68,12.62,13.90
289,375761985,-0.6265,-0.7310,0.0898,3.17,12.87,14.33
290,375766984,-0.6279,-0.7314,0.0815,3.84,12.99,14.57
291,375771984,-0.6284,-0.7300,0.0850,4.39,12.99,14.88
292,375776984,-0.6245,-0.7310,0.0879,5.12,12.68,15.24
293,375781984,-0.6274,-0.7349,0.0913,5.79,12.87,15.55
294,375786984,-0.6211,-0.7305,0.0898,6.71,12.87,15.85
295,375792137,-0.6191,-0.7319,0.0879,7.50,12.68,16.22
296,375796984,-0.6191,-0.7339,0.0859,8.48,12.56,16.40
297,375802117,-0.6206,-0.7339,0.0928,9.39,12.68,16.77
298,375806984,-0.6255,-0.7378,0.0898,10.12,12.50,16.83
299,375811984,-0.6294,-0.7378,0.0903,10.79,12.38,16.95
300,375816984,-0.6289,-0.7412,0.0942,11.28,12.32,17.07
301,375821983,-0.6289,-0.7402,0.0898,11.65,12.44,17.20
302,375826988,-0.6265,-0.7417,0.0952,11.95,12.38,17.26
303,375831984,-0.6313,-0.7437,0.0933,12.07,12.32,17.20
304,375836984,-0.6318,-0.7466,0.0933,12.20,12.26,17.26
305,375841984,-0.6367,-0.7441,0.0913,12.26,12.32,17.32
306,375846984,-0.6401,-0.7456,0.0835,12.20,12.32,17.20
307,375851984,-0.6465,-0.7500,0.0894,12.01,12.32,17.20
308,375856984,-0.6504,-0.7515,0.0869,11.77,12.62,16.95
309,375861984,-0.6553,-0.7520,0.0894,11.52,12.68,16.95
310,375866984,-0.6553,-0.7573,0.0908,11.40,12.87,16.83
311,375871982,-0.6597,-0.7559,0.0840,11.28,13.05,16.65
312,375876986,-0.6602,-0.7534,0.0859,11.28,13.35,16.40
313,375881982,-0.6641,-0.7544,0.0791,11.34,13.17,16.10
314,375887200,-0.6641,-0.7524,0.0796,11.28,13.35,15.91
315,375891984,-0.6646,-0.7539,0.0791,11.46,13.54,15.61
316,375896984,-0.6641,-0.7563,0.0742,11.65,13.60,15.37
317,375901984,-0.6689,-0.7520,0.0796,11.71,13.54,15.00
318,375907265,-0.6719,-0.7524,0.0737,11.83,13.60,14.76
319,375912427,-0.6807,-0.7510,0.0723,11.77,13.60,14.27
320,375916984,-0.6748,-0.7524,0.0708,11.83,13.48,13.90
321,375921984,-0.6714,-0.7515,0.0703,11.83,13.60,13.54
322,375927274,-0.6777,-0.7524,0.0728,11.83,13.54,13.05
323,375931984,-0.6831,-0.7563,0.0659,11.77,13.48,12.62
324,375936984,-0.6831,-0.7510,0.0703,11.46,13.48,12.32
325,375941984,-0.6826,-0.7554,0.0640,11.40,13.54,11.77
326,375946984,-0.6841,-0.7500,0.0732,10.91,13.60,11.22
327,375952423,-0.6816,-0.7456,0.0684,10.49,13.90,10.61
328,375956984,-0.6816,-0.7441,0.0664,10.12,13.78,10.12
329,375961984,-0.6797,-0.7417,0.0703,9.63,14.02,9.45
330,375966985,-0.6772,-0.7383,0.0703,9.21,14.27,8.66
331,375971984,-0.6748,-0.7334,0.0713,8.66,14.63,7.87
332,375976984,-0.6724,-0.7310,0.0723,7.99,15.00,7.07
333,375981983,-0.6709,-0.7290,0.0776,7.20,15.37,6.22
334,375986982,-0.6694,-0.7261,0.0801,6.28,15.73,5.43
335,375991982,-0.6694,-0.7202,0.0781,5.37,16.16,4.51
336,375996982,-0.6670,-0.7236,0.0757,4.21,16.65,3.54
337,376001984,-0.6631,-0.7192,0.0845,2.74,17.20,2.68
338,376007443,-0.6646,-0.7217,0.0830,0.85,17.99,1.59
339,376011986,-0.6631,-0.7227,0.0879,-0.49,18.41,0.91
340,376016984,-0.6699,-0.7217,0.0864,-2.62,19.27,-0.06
341,376022358,-0.6670,-0.7173,0.0869,-4.33,19.94,-0.79
342,376027409,-0.6670,-0.7217,0.0894,-5.79,20.55,-1.65
343,376032518,-0.6685,-0.7197,0.0903,-7.56,21.22,-2.32
344,376036984,-0.6689,-0.7173,0.0967,-8.84,21.95,-2.74
345,376041984,-0.6665,-0.7178,0.0996,-10.18,22.38,-3.29
346,376047385,-0.6748,-0.7153,0.0996,-11.71,23.23,-4.02
347,376051984,-0.6709,-0.7183,0.0957,-12.62,23.78,-4.45
348,376057424,-0.6689,-0.7168,0.0894,-13.60,24.33,-4.94
349,376061984,-0.6763,-0.7144,0.0952,-14.09,25.00,-5.37
350,376066984,-0.6714,-0.7173,0.0986,-14.51,25.30,-5.55
351,376071986,-0.6772,-0.7158,0.0991,-14.76,25.91,-5.73
352,376076983,-0.6714,-0.7139,0.1030,-15.00,26.28,-6.04
353,376081984,-0.6689,-0.7168,0.1025,-14.82,26.65,-6.16
354,376086984,-0.6675,-0.7153,0.1021,-14.70,27.13,-6.16
355,376091983,-0.6660,-0.7104,0.1030,-14.33,27.26,-6.16
356,376096984,-0.6660,-0.7134,0.1035,-14.02,27.50,-5.98
357,376101984,-0.6670,-0.7129,0.1060,-13.48,27.50,-5.85
358,376106984,-0.6733,-0.7188,0.0986,-12.68,27.62,-5.61
359,376111984,-0.6665,-0.7236,0.0967,-12.01,27.62,-5.06
360,376116986,-0.6670,-0.7271,0.1001,-11.22,27.50,-4.63
361,376121984,-0.6724,-0.7319,0.0918,-10.37,27.50,-4.09
362,376126983,-0.6714,-0.7319,0.0913,-9.39,27.26,-3.35
363,376131984,-0.6777,-0.7373,0.0908,-8.23,26.89,-2.44
364,376136984,-0.6763,-0.7344,0.0908,-7.20,26.71,-1.71
365,376141984,-0.6787,-0.7368,0.0938,-6.04,26.59,-0.85
366,376146986,-0.6846,-0.7373,0.0918,-4.63,26.40,0.00
367,376151984,-0.6841,-0.7378,0.0854,-3.23,26.16,0.79
368,376156985,-0.6919,-0.7354,0.0918,-1.71,25.91,1.71
369,376161984,-0.6914,-0.7373,0.0898,0.06,25.85,2.87
370,376166984,-0.6963,-0.7363,0.0898,1.34,25.67,3.54
371,376171985,-0.7007,-0.7368,0.0908,2.93,25.55,4.45
372,376176984,-0.7026,-0.7319,0.0869,4.45,25.30,5.43
373,376181984,-0.7026,-0.7393,0.0908,6.22,24.94,6.28
374,376186984,-0.6992,-0.7363,0.0898,7.74,24.63,7.13
375,376191984,-0.7007,-0.7339,0.0854,9.51,24.21,7.99
376,376196989,-0.6904,-0.7334,0.0884,11.52,23.78,9.02
377,376201984,-0.6860,-0.7339,0.0845,12.87,23.29,9.63
378,376206984,-0.6782,-0.7319,0.0908,14.45,22.74,10.43
379,376211984,-0.6763,-0.7222,0.0894,16.22,22.07,11.16
380,376216984,-0.6729,-0.7173,0.0874,17.87,21.52,11.89
381,376221984,-0.6636,-0.7173,0.0894,19.82,20.67,12.74
382,376227204,-0.6611,-0.7104,0.0942,21.28,20.06,13.35
383,376231984,-0.6558,-0.7070,0.0938,22.87,19.21,13.90
384,376236983,-0.6533,-0.7017,0.0967,24.09,18.66,14.27
385,376241985,-0.6519,-0.6973,0.0913,25.79,17.68,14.82
386,376246984,-0.6543,-0.6895,0.0898,26.95,16.95,15.00
387,376251984,-0.6567,-0.6851,0.0859,27.99,16.34,15.18
388,376256984,-0.6641,-0.6831,0.0830,28.72,15.61,15.37
389,376261984,-0.6641,-0.6807,0.0903,29.27,14.94,15.49
390,376266984,-0.6729,-0.6782,0.0869,29.33,14.33,15.37
391,376271985,-0.6719,-0.6768,0.0840,29.33,13.84,15.37
392,376276984,-0.6738,-0.6729,0.0845,28.96,13.11,15.12
393,376281982,-0.6807,-0.6699,0.0806,28.11,12.62,15.06
394,376286984,-0.6865,-0.6699,0.0864,27.20,12.13,14.82
395,376291983,-0.6904,-0.6699,0.0728,25.79,11.59,14.51
396,376296982,-0.6953,-0.6719,0.0791,24.21,11.22,14.33
397,376301983,-0.7041,-0.6748,0.0786,22.50,10.85,14.15
398,376307902,-0.7085,-0.6768,0.0737,20.43,10.55,13.96
399,376311986,-0.7090,-0.6719,0.0776,18.29,10.30,13.72
400,376316984,-0.7119,-0.6729,0.0728,16.10,10.00,13.35
401,376321984,-0.7124,-0.6772,0.0723,13.90,9.82,13.23
402,376326988,-0.7168,-0.6738,0.0713,11.65,9.57,12.99
403,376332381,-0.7183,-0.6792,0.0713,9.57,9.70,12.80
404,376336984,-0.7217,-0.6748,0.0728,7.56,9.39,12.68
405,376342284,-0.7231,-0.6748,0.0713,5.73,9.27,12.50
406,376346984,-0.7183,-0.6772,0.0757,4.02,8.96,12.26
407,376351984,-0.7139,-0.6714,0.0698,2.62,8.84,12.20
408,376356984,-0.7124,-0.6699,0.0635,1.40,8.54,11.83
409,376361984,-0.7095,-0.6719,0.0703,0.43,8.29,11.59
410,376367397,-0.7065,-0.6729,0.0659,-0.37,7.87,11.59
411,376371984,-0.7075,-0.6689,0.0679,-0.98,7.56,11.46
412,376376986,-0.7036,-0.6743,0.0684,-1.46,7.13,11.34
413,376381984,-0.7012,-0.6724,0.0654,-2.01,6.71,11.34
414,376386984,-0.6968,-0.6763,0.0723,-2.38,6.46,11.16
415,376391982,-0.6963,-0.6792,0.0693,-2.74,6.16,11.16
416,376396984,-0.6948,-0.6777,0.0669,-3.29,5.55,11.16
417,376402604,-0.6914,-0.6792,0.0698,-3.60,5.24,11.04
418,376406984,-0.6934,-0.6792,0.0679,-4.09,4.70,11.10
419,376411984,-0.6875,-0.6826,0.0664,-4.51,4.27,11.04
420,376416984,-0.6875,-0.6860,0.0674,-4.63,3.90,11.22
421,376421984,-0.6836,-0.6890,0.0664,-4.94,3.41,11.16
422,376426984,-0.6855,-0.6895,0.0688,-5.18,2.87,11.28
423,376431984,-0.6851,-0.6904,0.0630,-5.00,2.50,11.34
424,376436983,-0.6846,-0.6919,0.0640,-5.18,2.01,11.40
425,376441984,-0.6895,-0.6943,0.0586,-5.06,1.59,11.59
426,376446984,-0.6929,-0.6934,0.0605,-4.88,1.16,11.77
427,376451984,-0.6948,-0.7012,0.0576,-4.51,0.67,11.83
428,376456984,-0.7002,-0.6992,0.0435,-4.09,0.24,12.07
429,376461984,-0.6982,-0.7002,0.0508,-3.54,-0.18,12.26
430,376467475,-0.7031,-0.7021,0.0469,-2.99,-0.43,12.50
431,376471984,-0.7104,-0.7046,0.0469,-2.32,-0.85,12.74
432,376476984,-0.7153,-0.7051,0.0396,-1.52,-1.22,12.99
433,376481986,-0.7168,-0.7075,0.0425,-0.67,-1.52,13.05
434,376486983,-0.7256,-0.7061,0.0317,0.24,-1.71,13.29
435,376492427,-0.7266,-0.7080,0.0347,1.40,-2.01,13.48
436,376496984,-0.7246,-0.7075,0.0293,2.56,-2.20,13.72
437,376501982,-0.7275,-0.7075,0.0244,3.90,-2.38,13.78
438,376506984,-0.7285,-0.7114,0.0254,5.00,-2.44,13.96
439,376511984,-0.7319,-0.7085,0.0249,6.34,-2.68,14.15
440,376517383,-0.7310,-0.7124,0.0254,7.56,-2.93,14.27
441,376521984,-0.7285,-0.7119,0.0244,8.72,-3.05,14.51
442,376526984,-0.7319,-0.7090,0.0166,9.51,-3.29,14.63
443,376531984,-0.7217,-0.7100,0.0132,10.49,-3.23,14.94
444,376536984,-0.7217,-0.7134,0.0151,11.28,-3.41,15.24
445,376541984,-0.7178,-0.7090,0.0229,11.71,-3.48,15.49
446,376546988,-0.7129,-0.7085,0.0200,12.13,-3.60,15.67
447,376551984,-0.7090,-0.7056,0.0137,12.50,-3.66,15.98
448,376556984,-0.7046,-0.7051,0.0234,12.87,-3.78,16.22
449,376561984,-0.7002,-0.7041,0.0200,12.93,-3.90,16.28
450,376566984,-0.6968,-0.7012,0.0142,12.80,-3.96,16.40
451,376572480,-0.6919,-0.6987,0.0122,12.74,-3.96,16.34
452,376576984,-0.6943,-0.6978,0.0190,12.50,-4.02,16.28
453,376581983,-0.6973,-0.6973,0.0151,12.20,-4.02,16.04
454,376587068,-0.6978,-0.6938,0.0220,11.65,-4.02,15.85
455,376591982,-0.7007,-0.6978,0.0220,10.98,-3.90,15.49
456,376596982,-0.7017,-0.6992,0.0244,10.24,-3.90,15.06
457,376601982,-0.7026,-0.7012,0.0210,9.21,-3.96,14.63
458,376607238,-0.7090,-0.7036,0.0264,8.05,-3.78,14.15
459,376611984,-0.7075,-0.7051,0.0278,6.83,-3.78,13.72
460,376616984,-0.7114,-0.7104,0.0283,5.49,-3.66,13.11
461,376621986,-0.7090,-0.7148,0.0254,4.21,-3.60,12.56
462,376626984,-0.7114,-0.7134,0.0264,2.87,-3.60,12.01
463,376631984,-0.7148,-0.7148,0.0293,1.59,-3.54,11.40
464,376636984,-0.7178,-0.7178,0.0278,0.24,-3.41,10.79
465,376641984,-0.7202,-0.7202,0.0356,-1.04,-3.17,10.24
466,376646984,-0.7256,-0.7192,0.0327,-2.26,-2.93,9.51
467,376651984,-0.7305,-0.7231,0.0322,-3.29,-2.93,8.96
468,376656984,-0.7344,-0.7236,0.0337,-4.51,-2.74,8.29
469,376661984,-0.7383,-0.7295,0.0386,-5.55,-2.50,7.68
470,376666983,-0.7358,-0.7290,0.0391,-6.71,-2.56,7.01
471,376671984,-0.7339,-0.7329,0.0347,-7.32,-2.44,6.28
472,376676984,-0.7383,-0.7275,0.0415,-7.93,-2.50,5.61
473,376681984,-0.7407,-0.7319,0.0381,-8.54,-2.38,4.94
474,376686986,-0.7393,-0.7314,0.0488,-8.96,-2.32,4.27
475,376691984,-0.7397,-0.7339,0.0464,-9.09,-2.32,3.48
476,376696984,-0.7329,-0.7319,0.0459,-9.15,-2.44,2.80
477,376701984,-0.7310,-0.7324,0.0439,-9.02,-2.56,2.13
478,376706984,-0.7285,-0.7280,0.0464,-8.66,-2.87,1.52
479,376711984,-0.7256,-0.7285,0.0532,-8.29,-2.99,0.85
480,376716983,-0.7192,-0.7285,0.0474,-7.74,-3.05,0.24
481,376721984,-0.7227,-0.7285,0.0449,-7.01,-3.54,-0.43
482,376726984,-0.7202,-0.7295,0.0532,-6.40,-3.90,-0.98
483,376731984,-0.7178,-0.7319,0.0522,-5.61,-4.39,-1.52
484,376736984,-0.7192,-0.7295,0.0542,-4.88,-4.70,-2.07
485,376742202,-0.7153,-0.7266,0.0508,-4.21,-5.12,-2.56
486,376746984,-0.7163,-0.7227,0.0498,-3.41,-5.55,-3.05
487,376751984,-0.7212,-0.7266,0.0557,-2.93,-6.10,-3.48
488,376756984,-0.7246,-0.7280,0.0537,-2.62,-6.52,-3.90
489,376761984,-0.7275,-0.7256,0.0527,-2.26,-7.07,-4.39
490,376766984,-0.7280,-0.7285,0.0503,-2.32,-7.50,-4.82
491,376771985,-0.7324,-0.7271,0.0552,-2.56,-7.74,-5.24
492,376776984,-0.7354,-0.7300,0.0552,-2.80,-8.35,-5.61
493,376781984,-0.7373,-0.7261,0.0566,-3.29,-8.84,-6.10
494,376786986,-0.7402,-0.7275,0.0601,-3.78,-9.39,-6.65
495,376791984,-0.7466,-0.7261,0.0659,-4.45,-10.00,-7.13
496,376796984,-0.7471,-0.7266,0.0674,-5.12,-10.43,-7.56
497,376801983,-0.7510,-0.7241,0.0664,-5.79,-10.91,-8.17
498,376806984,-0.7534,-0.7261,0.0718,-6.71,-11.28,-8.54
499,376811983,-0.7568,-0.7222,0.0703,-7.44,-11.77,-9.09
500,376816984,-0.7607,-0.7246,0.0728,-8.23,-12.13,-9.70
501,376821983,-0.7627,-0.7236,0.0767,-9.15,-12.56,-10.12
502,376826984,-0.7642,-0.7271,0.0747,-9.94,-13.11,-10.79
503,376831984,-0.7603,-0.7212,0.0811,-10.79,-13.41,-11.46
504,376836984,-0.7520,-0.7246,0.0894,-11.59,-13.96,-11.95
505,376841984,-0.7500,-0.7236,0.0845,-12.44,-14.70,-12.74
506,376846984,-0.7461,-0.7246,0.0854,-12.80,-15.37,-13.29
507,376852470,-0.7471,-0.7231,0.0913,-13.60,-16.10,-14.02
508,376856984,-0.7437,-0.7246,0.0913,-14.02,-16.65,-14.63
509,376862399,-0.7397,-0.7241,0.0942,-14.82,-17.56,-15.24
510,376866984,-0.7378,-0.7271,0.1025,-15.30,-18.23,-15.79
511,376871984,-0.7358,-0.7227,0.0977,-15.91,-18.84,-16.40
512,376876984,-0.7368,-0.7285,0.1030,-16.46,-19.76,-17.13
513,376881983,-0.7368,-0.7271,0.1108,-17.01,-20.67,-17.68
514,376886982,-0.7422,-0.7295,0.1089,-17.68,-21.65,-18.29
515,376891982,-0.7412,-0.7295,0.1152,-18.41,-22.44,-18.78
516,376896982,-0.7358,-0.7349,0.1108,-19.21,-23.29,-19.27
517,376901986,-0.7456,-0.7373,0.1162,-19.94,-24.09,-19.82
518,376906984,-0.7510,-0.7397,0.1172,-20.79,-24.88,-20.37
519,376912391,-0.7573,-0.7388,0.1182,-21.83,-25.61,-20.98
520,376916984,-0.7603,-0.7417,0.1177,-22.32,-26.22,-21.40
521,376921984,-0.7593,-0.7466,0.1221,-23.11,-26.89,-22.13
522,376926984,-0.7607,-0.7490,0.1250,-23.78,-27.62,-22.62
523,376931984,-0.7681,-0.7529,0.1299,-24.39,-28.23,-23.29
524,376936984,-0.7686,-0.7520,0.1309,-25.00,-29.09,-23.96
525,376941984,-0.7690,-0.7573,0.1392,-25.43,-29.82,-24.63
526,376946984,-0.7681,-0.7622,0.1372,-25.91,-30.67,-25.24
527,376951984,-0.7651,-0.7627,0.1401,-26.28,-31.40,-25.91
528,376956984,-0.7598,-0.7700,0.1460,-26.46,-32.20,-26.59
529,376961984,-0.7593,-0.7676,0.1426,-26.59,-33.11,-27.26
530,376966983,-0.7607,-0.7705,0.1416,-26.46,-33.96,-28.05
531,376971984,-0.7632,-0.7734,0.1470,-26.22,-34.82,-28.78
532,376976985,-0.7651,-0.7769,0.1470,-25.91,-35.73,-29.57
533,376982055,-0.7622,-0.7871,0.1499,-25.61,-36.71,-30.43
534,376986984,-0.7622,-0.7861,0.1572,-25.12,-37.44,-30.98
535,376991986,-0.7651,-0.7886,0.1543,-24.51,-38.48,-31.77
536,376996984,-0.7588,-0.7925,0.1562,-23.96,-39.33,-32.38
537,377001984,-0.7632,-0.7969,0.1558,-23.60,-40.30,-33.11
538,377006984,-0.7642,-0.8018,0.1611,-23.17,-41.34,-33.84
539,377011984,-0.7607,-0.8018,0.1616,-23.05,-42.44,-34.27
540,377016984,-0.7598,-0.8110,0.1650,-23.05,-43.54,-35.00
541,377021984,-0.7568,-0.8105,0.1694,-23.35,-44.45,-35.61
542,377026983,-0.7524,-0.8140,0.1675,-23.72,-45.61,-36.04
543,377031984,-0.7461,-0.8135,0.1733,-24.27,-46.83,-36.77
544,377036984,-0.7422,-0.8154,0.1787,-24.63,-47.56,-37.32
545,377041984,-0.7417,-0.8179,0.1802,-24.94,-48.60,-37.87
546,377046984,-0.7407,-0.8188,0.1846,-25.24,-49.57,-38.54
547,377051984,-0.7378,-0.8262,0.1836,-25.24,-50.49,-39.33
548,377056987,-0.7329,-0.8262,0.1807,-25.24,-51.40,-39.88
549,377061984,-0.7261,-0.8232,0.1899,-25.12,-52.38,-40.79
550,377066984,-0.7231,-0.8262,0.1899,-24.82,-53.35,-41.52
551,377071984,-0.7178,-0.8296,0.1899,-24.45,-54.39,-42.13
552,377076984,-0.7192,-0.8291,0.1953,-23.96,-55.12,-42.74
553,377081985,-0.7134,-0.8306,0.1914,-23.35,-56.10,-43.41
554,377086985,-0.7158,-0.8315,0.1929,-22.87,-57.07,-43.96
555,377091984,-0.7144,-0.8340,0.1831,-22.20,-58.23,-44.63
556,377096984,-0.7114,-0.8403,0.1865,-21.59,-59.15,-45.24
557,377101984,-0.7007,-0.8447,0.1880,-20.91,-60.37,-45.79
558,377106984,-0.6958,-0.8462,0.1855,-20.30,-61.34,-46.34
559,377111984,-0.6929,-0.8491,0.1768,-19.76,-62.56,-46.89
560,377117200,-0.6855,-0.8550,0.1860,-19.21,-63.66,-47.32
561,377121984,-0.6865,-0.8599,0.1821,-18.72,-64.82,-47.87
562,377126984,-0.6870,-0.8584,0.1890,-18.17,-65.79,-48.35
563,377131984,-0.6904,-0.8667,0.1860,-17.99,-66.77,-48.96
564,377136984,-0.6909,-0.8745,0.1812,-17.87,-67.50,-49.45
565,377141984,-0.6968,-0.8794,0.1836,-17.99,-68.23,-50.12
566,377146984,-0.6963,-0.8813,0.1821,-17.87,-69.09,-50.61
567,377151983,-0.7002,-0.8857,0.1851,-18.05,-69.76,-51.10
568,377156983,-0.7012,-0.8872,0.1860,-18.17,-70.49,-51.71
569,377161984,-0.7012,-0.8970,0.1865,-18.11,-71.04,-52.50
570,377166984,-0.6978,-0.9004,0.1826,-17.93,-71.77,-53.11
571,377171984,-0.6948,-0.9014,0.1821,-17.87,-72.32,-53.72
572,377176984,-0.6909,-0.9067,0.1841,-17.93,-73.11,-54.57
573,377181983,-0.6924,-0.9136,0.1841,-17.93,-73.84,-55.30
574,377186983,-0.6948,-0.9214,0.1909,-17.93,-74.45,-56.16
575,377191982,-0.6953,-0.9268,0.1826,-17.56,-75.00,-56.83
576,377196985,-0.6895,-0.9297,0.1880,-17.01,-75.49,-57.62
577,377201982,-0.6851,-0.9297,0.1802,-15.91,-76.10,-58.60
578,377207493,-0.6836,-0.9316,0.1855,-14.76,-76.59,-59.63
579,377211984,-0.6738,-0.9287,0.1841,-13.41,-77.13,-60.61
580,377216984,-0.6680,-0.9321,0.1870,-12.20,-77.74,-61.65
581,377221984,-0.6616,-0.9302,0.1855,-10.79,-78.48,-62.74
582,377226984,-0.6533,-0.9292,0.1787,-9.39,-79.27,-63.78
583,377231982,-0.6445,-0.9297,0.1787,-8.29,-79.82,-64.88
584,377236984,-0.6406,-0.9282,0.1792,-6.95,-80.67,-65.98
585,377241984,-0.6333,-0.9238,0.1831,-5.91,-81.46,-67.13
586,377246984,-0.6289,-0.9219,0.1797,-5.12,-82.38,-68.23
587,377251984,-0.6245,-0.9199,0.1797,-4.51,-83.23,-69.33
588,377256984,-0.6211,-0.9229,0.1797,-4.33,-84.09,-70.24
589,377261984,-0.6191,-0.9214,0.1880,-4.51,-85.06,-71.22
590,377266984,-0.6221,-0.9272,0.1816,-5.12,-85.85,-72.20
591,377271984,-0.6245,-0.9326,0.1885,-6.52,-86.71,-73.23
592,377276984,-0.6260,-0.9351,0.1875,-8.35,-87.56,-74.21
593,377281984,-0.6221,-0.9321,0.1875,-10.49,-88.54,-75.18
594,377287001,-0.6172,-0.9277,0.1992,-12.87,-89.45,-76.22
595,377291984,-0.6021,-0.9277,0.1938,-15.30,-90.43,-77.32
596,377296985,-0.5977,-0.9263,0.1982,-17.87,-91.46,-78.41
597,377301984,-0.5894,-0.9214,0.1963,-20.30,-92.20,-79.57
598,377306984,-0.5840,-0.9189,0.2017,-22.68,-92.74,-80.79
599,377311984,-0.5815,-0.9165,0.1987,-24.82,-94.02,-82.07
600,377316984,-0.5776,-0.9116,0.2075,-26.77,-94.88,-83.41
601,377321984,-0.5732,-0.9102,0.1958,-28.35,-95.91,-84.76
602,377327239,-0.5684,-0.9043,0.1973,-30.00,-96.95,-85.98
603,377331984,-0.5625,-0.9009,0.2021,-31.34,-97.87,-87.38
604,377336984,-0.5596,-0.8965,0.2012,-32.68,-98.72,-88.66
605,377341984,-0.5571,-0.9004,0.1997,-33.90,-99.70,-89.94
606,377346984,-0.5488,-0.8999,0.1963,-35.18,-100.49,-91.22
607,377351984,-0.5459,-0.8921,0.2046,-36.52,-101.34,-92.44
608,377356984,-0.5342,-0.8960,0.1909,-37.87,-102.07,-93.41
609,377361984,-0.5210,-0.8960,0.1846,-39.15,-102.99,-94.57
610,377366984,-0.5127,-0.8955,0.1821,-40.85,-103.78,-95.43
611,377371984,-0.5088,-0.8979,0.1821,-42.44,-104.57,-96.34
612,377376984,-0.5059,-0.8960,0.1709,-44.27,-105.12,-96.95
613,377381984,-0.5020,-0.9043,0.1748,-46.34,-105.73,-97.56
614,377386984,-0.5024,-0.9087,0.1724,-48.66,-106.22,-98.17
615,377392515,-0.4946,-0.9077,0.1714,-51.10,-106.59,-98.84
616,377396984,-0.4883,-0.9136,0.1699,-53.66,-106.89,-99.45
617,377401986,-0.4795,-0.9126,0.1675,-56.28,-107.26,-100.12
618,377406984,-0.4702,-0.9082,0.1602,-58.48,-107.68,-100.91
619,377411984,-0.4585,-0.9087,0.1567,-60.43,-107.80,-101.59
620,377416984,-0.4507,-0.9102,0.1470,-61.89,-108.35,-102.62
621,377421984,-0.4424,-0.9058,0.1558,-62.80,-108.66,-103.41
622,377426984,-0.4365,-0.9058,0.1479,-63.54,-108.90,-104.33
623,377431983,-0.4272,-0.9023,0.1460,-63.72,-109.09,-105.24
624,377436984,-0.4170,-0.9028,0.1367,-63.48,-109.33,-106.16
625,377441984,-0.4121,-0.8999,0.1338,-62.93,-109.51,-106.89
626,377447421,-0.4062,-0.8955,0.1362,-61.77,-109.45,-107.56
627,377451984,-0.4009,-0.8911,0.1274,-60.55,-109.63,-108.17
628,377457436,-0.3970,-0.8916,0.1255,-59.02,-109.63,-108.60
629,377462486,-0.3877,-0.8818,0.1123,-57.32,-109.70,-108.96
630,377466984,-0.3789,-0.8857,0.1089,-55.67,-109.63,-109.27
631,377471984,-0.3716,-0.8887,0.1050,-54.21,-109.45,-109.21
632,377476984,-0.3589,-0.8921,0.1016,-52.93,-109.57,-108.96
633,377481983,-0.3481,-0.8911,0.0972,-51.59,-109.57,-108.60
634,377486985,-0.3428,-0.8867,0.0908,-50.43,-109.51,-108.17
635,377492042,-0.3276,-0.8872,0.0894,-49.51,-109.57,-107.50
636,377496982,-0.3188,-0.8867,0.0830,-48.48,-109.57,-106.83
637,377501983,-0.3076,-0.8940,0.0781,-47.68,-109.57,-105.91
638,377506982,-0.2969,-0.8979,0.0708,-46.95,-109.45,-105.00
639,377511986,-0.2886,-0.8999,0.0718,-46.28,-109.51,-104.09
640,377516984,-0.2764,-0.8965,0.0718,-45.67,-109.39,-103.05
641,377521984,-0.2695,-0.8892,0.0679,-44.70,-109.15,-102.20
642,377526984,-0.2651,-0.8892,0.0532,-43.54,-108.96,-101.16
643,377531984,-0.2559,-0.8848,0.0444,-42.13,-108.48,-100.18
644,377536984,-0.2539,-0.8813,0.0483,-40.24,-107.87,-99.27
645,377541984,-0.2466,-0.8770,0.0337,-38.23,-107.32,-98.41
646,377546984,-0.2290,-0.8760,0.0244,-35.91,-106.77,-97.32
647,377551984,-0.2158,-0.8813,0.0171,-34.33,-106.22,-96.59
648,377556985,-0.2026,-0.8818,0.0200,-32.44,-105.79,-95.49
649,377561984,-0.1899,-0.8774,0.0098,-30.61,-105.06,-94.45
650,377566984,-0.1812,-0.8770,-0.0005,-28.72,-104.57,-93.23
651,377571984,-0.1670,-0.8730,-0.0059,-26.71,-103.96,-92.07
652,377576983,-0.1519,-0.8682,-0.0142,-24.57,-103.60,-90.73
653,377581984,-0.1348,-0.8667,-0.0205,-22.20,-103.11,-89.39
654,377586982,-0.1260,-0.8677,-0.0303,-20.06,-102.80,-88.05
655,377591984,-0.1147,-0.8667,-0.0352,-17.93,-102.44,-86.71
656,377596984,-0.1045,-0.8691,-0.0361,-15.79,-102.07,-85.30
657,377601984,-0.0991,-0.8647,-0.0430,-13.84,-101.77,-84.02
658,377606989,-0.1016,-0.8657,-0.0513,-11.77,-101.22,-82.56
659,377611984,-0.0972,-0.8647,-0.0566,-10.30,-100.85,-81.59
660,377616984,-0.0923,-0.8677,-0.0601,-9.09,-100.30,-80.49
661,377621984,-0.0869,-0.8711,-0.0659,-7.87,-99.82,-79.27
662,377626984,-0.0762,-0.8701,-0.0654,-6.77,-99.21,-78.23
663,377631984,-0.0742,-0.8604,-0.0698,-5.49,-98.54,-77.26
664,377636984,-0.0786,-0.8652,-0.0737,-4.70,-98.11,-76.40
665,377641984,-0.0693,-0.8696,-0.0747,-4.02,-97.50,-75.73
666,377646984,-0.0566,-0.8750,-0.0767,-4.09,-96.95,-74.76
667,377651984,-0.0449,-0.8794,-0.0815,-4.27,-96.71,-74.27
668,377656984,-0.0278,-0.8794,-0.0850,-4.82,-96.16,-73.54
669,377661984,-0.0171,-0.8726,-0.0884,-5.06,-95.85,-72.93
670,377666984,-0.0151,-0.8765,-0.0952,-5.12,-95.43,-72.56
671,377672204,-0.0103,-0.8833,-0.0996,-4.94,-95.24,-72.20
672,377676984,0.0005,-0.8872,-0.1079,-4.51,-94.82,-71.52
673,377681984,0.0015,-0.8896,-0.1064,-4.21,-94.27,-71.10
674,377686984,0.0029,-0.8931,-0.1025,-3.60,-93.96,-70.55
675,377692476,0.0000,-0.8960,-0.1055,-2.87,-93.11,-69.94
676,377696984,-0.0010,-0.8994,-0.1084,-2.56,-92.68,-69.70
677,377701984,0.0015,-0.9038,-0.1162,-2.07,-92.26,-69.45
678,377706985,0.0103,-0.9077,-0.1040,-1.83,-91.52,-69.09
679,377711984,0.0264,-0.9106,-0.1104,-1.34,-90.79,-68.60
680,377716984,0.0356,-0.9170,-0.1157,-0.55,-90.37,-68.29
681,377721984,0.0444,-0.9116,-0.1177,0.18,-89.88,-67.93
682,377726984,0.0508,-0.9165,-0.1211,0.98,-89.39,-67.80
683,377731983,0.0562,-0.9146,-0.1191,2.13,-88.90,-67.32
684,377737073,0.0630,-0.9155,-0.1245,3.72,-88.23,-67.20
685,377741983,0.0625,-0.9185,-0.1304,5.12,-87.62,-66.83
686,377746984,0.0684,-0.9268,-0.1313,6.59,-87.01,-66.52
687,377751984,0.0752,-0.9238,-0.1304,7.68,-86.52,-66.28
688,377756984,0.0894,-0.9321,-0.1333,8.41,-85.91,-65.98
689,377761984,0.0918,-0.9346,-0.1357,8.96,-85.06,-65.67
690,377766984,0.0918,-0.9380,-0.1338,9.09,-84.57,-65.55
691,377771984,0.0977,-0.9351,-0.1333,9.09,-83.78,-65.43
692,377776984,0.1006,-0.9272,-0.1357,8.96,-83.11,-65.24
693,377781983,0.1084,-0.9287,-0.1421,8.84,-82.32,-65.37
694,377786984,0.1226,-0.9307,-0.1465,8.54,-81.71,-65.37
695,377791982,0.1318,-0.9336,-0.1436,8.17,-81.22,-65.49
696,377796985,0.1318,-0.9331,-0.1460,7.93,-80.55,-65.49
697,377801983,0.1328,-0.9385,-0.1440,7.50,-79.88,-65.49
698,377806982,0.1372,-0.9370,-0.1440,6.89,-79.21,-65.49
699,377811985,0.1377,-0.9341,-0.1484,6.40,-78.60,-65.67
700,377816984,0.1553,-0.9331,-0.1606,5.79,-77.99,-65.85
701,377821983,0.1577,-0.9316,-0.1611,5.30,-77.38,-65.98
702,377827410,0.1719,-0.9248,-0.1646,4.88,-76.95,-66.22
703,377831984,0.1763,-0.9233,-0.1685,4.51,-76.59,-66.46
704,377836984,0.1812,-0.9204,-0.1768,4.09,-76.52,-66.89
705,377841984,0.1865,-0.9155,-0.1802,3.72,-76.28,-67.32
706,377846984,0.1899,-0.9106,-0.1831,3.41,-75.91,-67.74
707,377851984,0.1904,-0.9009,-0.1821,2.99,-75.67,-68.05
708,377857364,0.1914,-0.8931,-0.1860,2.68,-75.24,-68.54
709,377861984,0.1860,-0.8936,-0.1885,2.38,-75.00,-69.09
710,377866984,0.1895,-0.8867,-0.1943,2.01,-74.39,-69.57
711,377871984,0.1909,-0.8823,-0.1899,1.65,-73.96,-70.12
712,377876984,0.1880,-0.8765,-0.1904,0.85,-73.35,-70.67
713,377881984,0.1895,-0.8662,-0.1890,0.00,-72.56,-71.40
714,377886984,0.1865,-0.8530,-0.1924,-1.10,-72.01,-72.01
715,377892350,0.1880,-0.8423,-0.1895,-2.32,-71.10,-73.05
716,377896984,0.1860,-0.8359,-0.1890,-3.23,-70.49,-73.66
717,377901984,0.2065,-0.8452,-0.2358,-4.63,-69.63,-74.57
718,377906984,0.2070,-0.8491,-0.2661,-6.40,-68.66,-75.49
719,377911985,0.1992,-0.8516,-0.2227,-7.50,-67.74,-76.34
720,377916984,0.2056,-0.8521,-0.2085,-8.60,-66.40,-77.50
721,377921983,0.2266,-0.8423,-0.2246,-10.18,-64.94,-78.66
722,377926984,0.2280,-0.8159,-0.2778,-11.16,-64.21,-79.70
723,377931984,0.2285,-0.8149,-0.2358,-12.38,-63.23,-80.73
724,377936984,0.2456,-0.8140,-0.2397,-13.48,-62.01,-81.71
725,377941984,0.2710,-0.8198,-0.2935,-15.06,-61.04,-82.80
726,377946989,0.2861,-0.8003,-0.2998,-17.32,-59.76,-83.84
727,377951983,0.2974,-0.7993,-0.2827,-18.72,-58.90,-84.57
728,377956984,0.3179,-0.8037,-0.3359,-21.10,-58.05,-85.37
729,377962338,0.3872,-0.8062,-0.4751,-23.66,-57.38,-85.79
730,377966984,0.4766,-0.7964,-0.6182,-25.85,-56.95,-86.10
731,377971984,0.5225,-0.7725,-0.6084,-29.57,-55.06,-86.52
732,377976984,0.4121,-0.7539,-0.5376,-32.87,-52.80,-86.95
733,377981984,0.3271,-0.7368,-0.5024,-36.40,-50.85,-86.83
734,377986984,0.3271,-0.7222,-0.4424,-39.70,-49.76,-86.46
735,377991984,0.3857,-0.7104,-0.4160,-42.87,-48.54,-86.04
736,377997361,0.4390,-0.6675,-0.4795,-45.55,-47.80,-85.43
737,378001984,0.4531,-0.5688,-0.7222,-47.26,-47.99,-85.73
738,378006986,0.5010,-0.6992,-0.4521,-47.80,-47.56,-85.49
739,378011984,0.5195,-0.6079,-0.5815,-50.67,-46.04,-84.70
740,378016984,0.5200,-0.5894,-0.6187,-55.00,-44.94,-84.39
741,378021987,0.5186,-0.6001,-0.6528,-59.88,-43.66,-83.60
742,378026984,0.5347,-0.6069,-0.5874,-65.24,-42.20,-82.32
743,378031984,0.5435,-0.5991,-0.5396,-71.40,-40.43,-80.67
744,378036984,0.5356,-0.6206,-0.5845,-78.23,-38.35,-78.78
745,378041984,0.5400,-0.6504,-0.4941,-85.79,-36.46,-76.59
746,378046984,0.5200,-0.6523,-0.4707,-93.41,-34.51,-74.27
747,378051984,0.4751,-0.7041,-0.4785,-100.55,-32.68,-71.77
748,378056984,0.4253,-0.6807,-0.5659,-107.50,-31.10,-69.33
749,378061984,0.3916,-0.6470,-0.5513,-113.11,-29.39,-67.38
750,378066984,0.3940,-0.6460,-0.5332,-117.13,-27.07,-65.43
751,378071984,0.4194,-0.6455,-0.5620,-119.82,-24.94,-63.72
752,378076984,0.4575,-0.6362,-0.5713,-121.22,-22.62,-62.01
753,378081984,0.4814,-0.6440,-0.5718,-120.73,-20.24,-60.49
754,378087582,0.4893,-0.6572,-0.5713,-118.48,-17.56,-59.21
755,378091984,0.4917,-0.6748,-0.5835,-114.21,-14.76,-57.62
756,378096982,0.5029,-0.6890,-0.6055,-108.11,-12.13,-56.22
757,378101983,0.5107,-0.6880,-0.6089,-100.43,-9.09,-54.82
758,378107502,0.5352,-0.6938,-0.6250,-91.83,-6.16,-53.66
759,378111984,0.5532,-0.6973,-0.6416,-82.56,-3.05,-52.44
760,378116987,0.5591,-0.6938,-0.6514,-73.35,0.24,-51.22
761,378121984,0.5557,-0.6924,-0.6606,-64.45,3.41,-49.94
762,378126984,0.5576,-0.6855,-0.6685,-56.04,6.77,-48.78
763,378131984,0.5542,-0.6802,-0.6689,-48.48,10.00,-47.56
764,378136984,0.5640,-0.6758,-0.6753,-41.89,13.54,-46.40
765,378141984,0.5708,-0.6621,-0.6802,-36.65,17.13,-45.24
766,378146984,0.5840,-0.6582,-0.6851,-32.50,20.98,-44.15
767,378151984,0.6021,-0.6597,-0.6816,-29.39,24.76,-43.05
768,378156984,0.6011,-0.6602,-0.6841,-27.26,28.60,-41.89
769,378162391,0.6064,-0.6616,-0.6948,-26.04,32.44,-40.85
770,378166984,0.6108,-0.6724,-0.7007,-25.55,36.40,-39.70
771,378171984,0.6123,-0.6782,-0.7031,-25.43,40.37,-38.66
772,378176983,0.6240,-0.6836,-0.6963,-25.73,44.45,-37.68
773,378181984,0.6221,-0.6880,-0.6938,-26.83,48.66,-36.77
774,378186984,0.6221,-0.6826,-0.6787,-28.35,52.93,-35.91
775,378191983,0.6201,-0.6758,-0.6724,-30.55,56.95,-35.18
776,378196986,0.6167,-0.6694,-0.6709,-32.80,61.16,-34.51
777,378201984,0.6191,-0.6675,-0.6641,-35.49,65.06,-33.90
778,378206984,0.6089,-0.6631,-0.6523,-38.48,69.09,-33.23
779,378211984,0.6064,-0.6553,-0.6445,-41.83,73.05,-32.56
780,378216985,0.6084,-0.6475,-0.6357,-45.24,76.89,-31.83
781,378221984,0.6064,-0.6416,-0.6284,-48.60,80.98,-31.10
782,378226986,0.6016,-0.6318,-0.6216,-52.01,85.55,-30.24
783,378231983,0.6045,-0.6250,-0.6050,-54.94,86.65,-29.45
784,378236984,0.5977,-0.6147,-0.6079,-57.93,91.22,-28.29
785,378241984,0.5923,-0.6108,-0.5894,-60.55,94.82,-27.13
786,378246984,0.5962,-0.6050,-0.5825,-63.23,98.48,-25.85
787,378251984,0.5776,-0.5820,-0.5674,-65.91,101.95,-24.57
788,378256984,0.5664,-0.5693,-0.5640,-68.17,105.37,-23.29
789,378261984,0.5767,-0.5669,-0.5479,-70.06,108.84,-21.83
790,378266984,0.5674,-0.5562,-0.5405,-71.65,112.26,-20.18
791,378271984,0.5493,-0.5503,-0.5254,-72.62,115.49,-18.41
792,378276985,0.5454,-0.5371,-0.5127,-73.41,118.78,-16.71
793,378281984,0.5342,-0.5264,-0.4995,-73.84,122.07,-14.88
794,378286984,0.5273,-0.5166,-0.4868,-74.02,125.18,-12.80
795,378291984,0.5181,-0.5142,-0.4609,-74.09,128.35,-10.85
796,378296984,0.5156,-0.5078,-0.4370,-73.66,131.59,-8.66
797,378301984,0.5059,-0.5112,-0.4121,-73.48,134.63,-6.46
798,378306985,0.4956,-0.5020,-0.4009,-73.17,137.68,-4.15
799,378311984,0.4780,-0.4795,-0.3901,-72.93,140.55,-1.89
800,378316984,0.4761,-0.4697,-0.3564,-72.13,143.41,0.24
801,378321985,0.4771,-0.4712,-0.3403,-71.10,146.16,2.62
802,378326984,0.4595,-0.4644,-0.3140,-69.76,148.84,5.00
803,378332144,0.4478,-0.4600,-0.2920,-68.41,151.52,7.32
804,378336984,0.4351,-0.4536,-0.2783,-66.65,154.02,9.88
805,378341984,0.4219,-0.4531,-0.2534,-64.70,156.46,12.32
806,378346984,0.4116,-0.4468,-0.2231,-62.62,158.96,14.76
807,378351984,0.3989,-0.4448,-0.1934,-60.61,161.28,17.07
808,378356984,0.3906,-0.4453,-0.1753,-58.23,163.29,19.57
809,378361984,0.3813,-0.4351,-0.1440,-55.98,165.49,22.13
810,378366984,0.3726,-0.4404,-0.1099,-53.41,167.56,24.33
811,378371984,0.3657,-0.4346,-0.0889,-51.10,169.57,26.71
812,378376984,0.3550,-0.4365,-0.0654,-48.29,171.52,29.02
813,378381983,0.3398,-0.4316,-0.0420,-45.49,173.23,31.04
814,378386982,0.3301,-0.4248,-0.0127,-42.68,175.12,33.23
815,378391982,0.3203,-0.4238,0.0083,-40.00,176.83,35.12
816,378396982,0.3149,-0.3843,0.0444,-36.89,178.60,36.71
817,378401985,0.2959,-0.4155,0.0825,-33.66,180.30,38.11
818,378406984,0.2778,-0.4287,0.1055,-30.67,182.01,39.70
819,378411984,0.2656,-0.4292,0.1299,-27.68,183.96,41.34
820,378416984,0.2588,-0.4219,0.1494,-24.88,185.55,42.87
821,378421984,0.2617,-0.4165,0.1689,-22.44,187.32,44.51
822,378426985,0.2607,-0.4185,0.1860,-20.00,188.72,46.16
823,378431983,0.2456,-0.4209,0.2090,-17.80,190.12,47.87
824,378436983,0.2295,-0.4224,0.2378,-15.67,191.52,49.76
825,378441984,0.2212,-0.4194,0.2607,-13.48,192.87,51.46
826,378446982,0.1997,-0.4277,0.2856,-11.16,194.21,53.35
827,378451984,0.2046,-0.4209,0.3032,-8.96,195.37,55.30
828,378456984,0.2114,-0.4248,0.3306,-6.83,196.28,57.38
829,378461986,0.2290,-0.4346,0.3589,-4.88,197.32,59.45
830,378466984,0.2266,-0.4429,0.3755,-2.80,198.11,61.65
831,378471984,0.2202,-0.4634,0.4092,-0.61,198.84,64.02
832,378476984,0.2231,-0.4839,0.4424,1.52,199.39,66.40
833,378481989,0.2495,-0.4712,0.4717,3.60,200.00,68.90
834,378486984,0.2280,-0.5146,0.5093,5.73,200.49,71.89
835,378491984,0.2124,-0.5259,0.5181,7.26,200.61,73.96
836,378496985,0.1938,-0.5479,0.5596,8.90,200.43,76.59
837,378501984,0.1753,-0.5693,0.6089,10.91,200.43,79.21
838,378506984,0.1611,-0.5845,0.6353,12.80,199.94,82.20
839,378511984,0.1509,-0.5864,0.6626,14.63,199.33,85.49
840,378516984,0.1479,-0.5835,0.7183,16.65,198.41,87.99
841,378521984,0.1699,-0.5762,0.7588,18.60,197.50,89.27
842,378526985,0.1572,-0.5610,0.7920,20.43,196.16,92.01
843,378531984,0.1782,-0.5630,0.8271,22.44,194.82,94.15
844,378536984,0.1729,-0.5552,0.8628,24.88,192.87,96.77
845,378541984,0.1455,-0.5522,0.9092,26.52,191.40,98.35
846,378546984,0.1313,-0.5957,0.9648,28.35,189.45,100.49
847,378552183,0.1191,-0.6089,0.9751,30.55,187.26,102.74
848,378556984,0.0986,-0.6250,0.9995,33.05,184.57,104.63
849,378561984,0.0903,-0.6387,1.0854,35.73,181.65,106.52
850,378566984,0.0493,-0.6494,1.1299,38.84,178.72,108.48
851,378571984,0.0244,-0.6504,1.1099,41.83,175.30,110.00
852,378576984,0.0210,-0.6514,1.1416,44.76,171.52,111.52
853,378581984,0.0366,-0.6841,1.2104,48.35,166.46,113.17
854,378587489,0.0469,-0.7070,1.2422,51.28,162.13,114.63
855,378591984,0.0718,-0.6895,1.2256,53.23,158.05,115.61
856,378597375,0.1040,-0.6987,1.2646,56.28,152.26,117.07
857,378601984,0.1074,-0.7300,1.3296,58.23,148.41,117.99
858,378606984,0.0781,-0.7476,1.3262,60.49,142.93,119.27
859,378611984,0.0527,-0.7583,1.3423,62.62,137.01,120.43
860,378616984,0.0605,-0.7769,1.4214,65.00,131.22,121.65
861,378621984,-0.0117,-0.7900,1.4727,67.38,125.37,122.80
862,378626984,-0.0312,-0.8032,1.4961,69.94,117.80,124.02
863,378631985,-0.0259,-0.8037,1.5273,71.95,112.56,124.76
864,378636984,0.0112,-0.7749,1.5513,74.51,105.91,125.61
865,378641984,0.0361,-0.8193,1.5825,77.62,98.90,126.16
866,378646983,-0.0464,-0.8140,1.6040,81.04,91.71,127.07
867,378651982,-0.0942,-0.8428,1.6128,84.39,84.88,127.38
868,378656984,-0.0610,-0.8394,1.6240,87.68,76.65,128.05
869,378661984,-0.1108,-0.8032,1.6538,91.46,68.29,128.35
870,378667467,-0.1157,-0.8398,1.6890,94.27,58.35,128.41
871,378671984,-0.1416,-0.8672,1.6968,95.00,51.89,128.72
872,378676984,-0.0923,-0.8813,1.6987,95.85,43.05,128.96
873,378681983,-0.1558,-0.8647,1.7622,95.55,34.21,129.21
874,378687026,-0.1685,-0.8574,1.7705,93.29,25.30,129.27
875,378691982,-0.1484,-0.8501,1.7661,90.12,15.91,129.33
876,378696983,-0.1489,-0.8447,1.7783,86.34,6.22,129.39
877,378701986,-0.1265,-0.8584,1.8086,82.50,-3.29,129.63
878,378706983,-0.2329,-0.8530,1.8018,78.60,-13.54,129.63
879,378711984,-0.1763,-0.8662,1.7812,73.29,-26.28,130.06
880,378716984,-0.1846,-0.8657,1.8096,69.51,-35.06,130.18
881,378721984,-0.1802,-0.8682,1.8140,64.82,-45.98,130.73
882,378726984,-0.1968,-0.8745,1.7871,60.18,-57.01,131.34
883,378731986,-0.1880,-0.8809,1.7939,55.79,-68.54,132.07
884,378736984,-0.1895,-0.8794,1.8081,51.83,-79.88,132.80
885,378741984,-0.2065,-0.8911,1.7964,48.29,-91.04,133.54
886,378746984,-0.2319,-0.9097,1.7734,45.55,-102.44,134.39
887,378751984,-0.2402,-0.9238,1.7759,43.35,-113.60,135.06
888,378756985,-0.2539,-0.9380,1.7700,41.95,-124.57,135.79
889,378761983,-0.2676,-0.9517,1.7598,41.46,-135.37,136.52
890,378766984,-0.2925,-0.9644,1.7407,41.77,-146.10,137.32
891,378771984,-0.3184,-0.9795,1.7334,42.87,-156.52,137.99
892,378776984,-0.3374,-0.9893,1.7129,44.63,-166.65,138.60
893,378781984,-0.3613,-1.0059,1.6919,46.95,-176.46,139.21
894,378786984,-0.3809,-1.0112,1.6729,49.94,-186.10,139.94
895,378791984,-0.3975,-1.0254,1.6475,53.17,-195.24,140.55
896,378796984,-0.4165,-1.0425,1.6191,56.77,-204.15,141.04
897,378801984,-0.4341,-1.0596,1.5928,60.49,-212.62,141.65
898,378806984,-0.4663,-1.0767,1.5737,64.21,-220.49,142.32
899,378811982,-0.4961,-1.0884,1.5425,67.93,-228.17,142.80
900,378816984,-0.5083,-1.1040,1.5220,71.71,-235.43,143.29
901,378821984,-0.5366,-1.1162,1.5015,75.37,-242.38,143.66
902,378826984,-0.5586,-1.1299,1.4766,78.90,-248.96,143.90
903,378831984,-0.5781,-1.1470,1.4585,82.01,-255.12,144.21
904,378836985,-0.5996,-1.1714,1.4399,84.63,-260.98,144.33
905,378841984,-0.6021,-1.1987,1.4189,86.77,-266.46,144.51
906,378846984,-0.6245,-1.2241,1.4077,88.35,-271.89,144.82
907,378851984,-0.6543,-1.2461,1.3940,89.76,-276.95,145.12
908,378856984,-0.6807,-1.2769,1.3711,91.34,-281.95,145.73
909,378861988,-0.6899,-1.2993,1.3540,93.29,-286.65,145.98
910,378866984,-0.7031,-1.3330,1.3267,95.67,-292.93,146.59
911,378871984,-0.7134,-1.3643,1.3115,98.11,-295.85,147.13
912,378876984,-0.7192,-1.3960,1.2881,101.59,-300.06,147.68
913,378881984,-0.7236,-1.4365,1.2549,105.91,-304.57,148.41
914,378886984,-0.7207,-1.4624,1.2222,110.55,-308.96,149.27
915,378891984,-0.7153,-1.4941,1.1909,115.30,-312.99,150.30
916,378896984,-0.7104,-1.5278,1.1602,120.24,-316.89,151.10
917,378901984,-0.7080,-1.5522,1.1313,124.76,-320.55,152.20
918,378906984,-0.6963,-1.5630,1.0894,129.45,-324.09,152.99
919,378911984,-0.6826,-1.5771,1.0527,130.43,-327.32,153.72
920,378916984,-0.6699,-1.5933,1.0146,132.68,-330.49,154.27
921,378921984,-0.6602,-1.6206,0.9678,133.66,-333.35,154.63
922,378927031,-0.6436,-1.6553,0.9214,133.11,-336.59,154.76
923,378931984,-0.6274,-1.6611,0.8711,132.26,-338.41,154.70
924,378936986,-0.6230,-1.6772,0.8330,129.09,-340.73,154.09
925,378941984,-0.6211,-1.6987,0.8062,125.18,-342.32,152.99
926,378946984,-0.6230,-1.7300,0.7715,118.05,-343.90,151.10
927,378951984,-0.6245,-1.7417,0.7275,112.62,-344.63,149.39
928,378956984,-0.6304,-1.7559,0.6899,103.72,-345.67,146.28
929,378961984,-0.6279,-1.7661,0.6553,97.26,-345.91,143.60
930,378966984,-0.6201,-1.7881,0.5815,87.50,-346.46,139.02
931,378971984,-0.6226,-1.8086,0.5229,79.82,-346.59,134.76
932,378976984,-0.6143,-1.8159,0.4663,72.62,-346.83,130.18
933,378981983,-0.6143,-1.8086,0.4243,67.44,-346.77,126.10
934,378986982,-0.6108,-1.8101,0.3511,60.18,-346.77,119.27
935,378991982,-0.6074,-1.8071,0.2812,54.70,-346.22,113.23
936,378996982,-0.5957,-1.8179,0.2104,49.94,-345.37,106.71
937,379001988,-0.5918,-1.8174,0.1260,45.67,-344.33,99.88
938,379007671,-0.5903,-1.8228,0.0464,42.01,-342.93,92.44
939,379011985,-0.5820,-1.8242,-0.0195,38.96,-340.91,85.06
940,379016984,-0.5771,-1.8013,-0.1074,36.71,-338.23,77.44
941,379021984,-0.5850,-1.7759,-0.1655,34.57,-335.18,69.02
942,379026984,-0.5840,-1.7627,-0.2144,32.50,-331.22,60.30
943,379031984,-0.5615,-1.7573,-0.2607,30.79,-326.40,51.34
944,379036984,-0.5400,-1.7295,-0.3325,29.51,-320.91,42.26
945,379041985,-0.5269,-1.7114,-0.3940,28.90,-314.82,32.87
946,379046984,-0.5254,-1.6978,-0.4619,28.78,-308.48,23.60
947,379051984,-0.5083,-1.6826,-0.5210,29.15,-301.83,14.57
948,379056984,-0.4912,-1.6611,-0.5879,29.82,-294.82,5.79
949,379061983,-0.4692,-1.6426,-0.6362,30.85,-287.87,-2.74
950,379066984,-0.4492,-1.6206,-0.6816,32.07,-280.61,-11.10
951,379071984,-0.4360,-1.5874,-0.7202,33.11,-273.23,-19.21
952,379077472,-0.4160,-1.5498,-0.7573,33.60,-265.30,-27.07
953,379081984,-0.3936,-1.5195,-0.7832,33.11,-257.50,-34.63
954,379086984,-0.3730,-1.4912,-0.8037,31.59,-249.27,-41.77
955,379091984,-0.3462,-1.4565,-0.8159,29.15,-240.79,-48.60
956,379096984,-0.3208,-1.4165,-0.8242,25.85,-231.89,-55.00
957,379101984,-0.2993,-1.3647,-0.8311,21.65,-222.93,-61.04
958,379106984,-0.2778,-1.3301,-0.8408,16.83,-213.60,-66.77
959,379111984,-0.2480,-1.2856,-0.8403,11.52,-204.33,-72.01
960,379116985,-0.2202,-1.2412,-0.8428,5.79,-194.88,-76.46
961,379121984,-0.1807,-1.2031,-0.8340,-0.06,-185.49,-80.85
962,379126984,-0.1514,-1.1558,-0.8447,-5.37,-176.04,-84.51
963,379131984,-0.1182,-1.1094,-0.8413,-10.37,-166.71,-87.80
964,379137480,-0.0938,-1.0635,-0.8364,-14.39,-157.26,-90.55
965,379141985,-0.0757,-1.0229,-0.8330,-17.38,-147.99,-92.93
966,379146984,-0.0557,-0.9785,-0.8306,-19.15,-139.15,-94.88
967,379151984,-0.0264,-0.9409,-0.8262,-19.63,-130.30,-96.22
968,379156984,0.0005,-0.8994,-0.8140,-18.90,-121.34,-97.01
969,379161984,0.0161,-0.8662,-0.8154,-17.13,-112.80,-97.38
970,379166984,0.0332,-0.8364,-0.7930,-14.51,-104.21,-97.38
971,379171984,0.0625,-0.8003,-0.7637,-11.40,-95.67,-96.89
972,379176984,0.0874,-0.7749,-0.7612,-8.05,-87.56,-96.10
973,379181984,0.0991,-0.7495,-0.7432,-4.70,-79.39,-94.63
974,379186984,0.1045,-0.7310,-0.7222,-1.16,-71.59,-93.11
975,379191983,0.1226,-0.7095,-0.7031,2.62,-64.02,-91.16
976,379196987,0.1328,-0.6938,-0.6807,6.16,-56.46,-88.96
977,379201984,0.1470,-0.6763,-0.6680,9.70,-49.33,-86.46
978,379206984,0.1733,-0.6631,-0.6318,12.99,-42.38,-83.78
979,379211984,0.2002,-0.6450,-0.6221,15.85,-35.55,-80.73
980,379216984,0.2339,-0.6304,-0.6035,18.35,-28.96,-77.44
981,379221984,0.2559,-0.6074,-0.5674,20.43,-22.80,-73.96
982,379226984,0.2778,-0.5962,-0.5376,21.89,-16.65,-70.61
983,379231986,0.2930,-0.5908,-0.5278,22.93,-10.85,-67.07
984,379236985,0.3110,-0.5825,-0.4927,23.72,-5.49,-63.60
985,379241984,0.3286,-0.5786,-0.4712,24.21,-0.73,-59.94
986,379246982,0.3418,-0.5781,-0.4600,24.70,3.78,-56.40
987,379251985,0.3623,-0.5698,-0.4419,25.06,7.99,-52.93
988,379256984,0.3799,-0.5654,-0.4136,25.12,11.59,-49.45
989,379261984,0.3945,-0.5625,-0.3945,25.12,14.82,-46.16
990,379267523,0.4058,-0.5605,-0.3652,25.00,17.80,-42.99
991,379271984,0.4253,-0.5625,-0.3340,24.51,20.61,-39.88
992,379276984,0.4419,-0.5610,-0.3008,23.60,23.29,-36.95
993,379281983,0.4580,-0.5742,-0.2759,22.44,25.55,-34.09
994,379286982,0.4697,-0.5762,-0.2432,20.91,27.62,-31.28
995,379291982,0.4829,-0.5806,-0.2183,18.66,29.39,-28.60
996,379297309,0.4946,-0.5903,-0.1943,15.91,31.40,-25.98
997,379301984,0.5107,-0.5928,-0.1694,12.74,32.93,-23.41
998,379307074,0.5244,-0.5996,-0.1450,8.96,34.39,-20.98
999,379311984,0.5366,-0.6006,-0.1201,5.00,35.79,-18.72
1000,379316984,0.5435,-0.6035,-0.1025,0.67,36.95,-16.46
1001,379321984,0.5542,-0.6030,-0.0811,-3.96,37.99,-14.39
1002,379326984,0.5649,-0.6089,-0.0615,-8.54,38.84,-12.44
1003,379332397,0.5742,-0.6211,-0.0474,-12.93,39.63,-10.49
1004,379336984,0.5845,-0.6245,-0.0234,-17.01,40.24,-8.54
1005,379341984,0.5977,-0.6328,-0.0103,-20.67,40.85,-6.71
1006,379346986,0.6079,-0.6431,0.0073,-23.78,41.04,-4.88
1007,379351984,0.6230,-0.6538,0.0205,-26.46,41.16,-3.23
1008,379356984,0.6328,-0.6631,0.0391,-28.48,41.04,-1.71
1009,379361984,0.6426,-0.6763,0.0601,-30.00,41.04,-0.24
1010,379366984,0.6572,-0.6865,0.0737,-31.04,40.55,1.22
1011,379371984,0.6689,-0.6958,0.0771,-31.77,40.12,2.44
1012,379376983,0.6787,-0.7124,0.0923,-32.20,39.57,3.48
1013,379381986,0.6895,-0.7202,0.1064,-32.56,38.84,4.57
1014,379386984,0.7031,-0.7422,0.1157,-32.93,37.99,5.43
1015,379391984,0.7080,-0.7461,0.1182,-33.60,37.13,6.28
1016,379396984,0.7095,-0.7607,0.1235,-34.51,36.22,6.95
1017,379401984,0.7222,-0.7710,0.1299,-35.79,35.18,7.68
1018,379406984,0.7246,-0.7817,0.1309,-37.44,34.02,8.23
1019,379411984,0.7310,-0.7949,0.1240,-39.27,32.80,8.84
1020,379416984,0.7349,-0.8057,0.1245,-41.40,31.46,9.27
1021,379421984,0.7383,-0.8242,0.1128,-43.41,30.18,9.94
1022,379426984,0.7251,-0.8350,0.1167,-45.91,28.90,10.43
1023,379431984,0.7188,-0.8438,0.1050,-48.60,27.44,10.91
1024,379436984,0.7271,-0.8623,0.1021,-51.16,25.79,11.59
1025,379441984,0.7183,-0.8843,0.0923,-54.09,24.27,12.13
1026,379446984,0.7129,-0.8926,0.0840,-57.26,22.74,12.74
1027,379451985,0.7065,-0.8999,0.0786,-60.43,21.22,13.17
1028,379456984,0.7036,-0.9077,0.0757,-63.66,19.70,13.72
1029,379461984,0.6948,-0.9116,0.0688,-67.26,18.23,14.15
1030,379466985,0.6919,-0.9189,0.0581,-71.16,16.95,14.39
1031,379472514,0.6836,-0.9258,0.0444,-76.10,15.49,14.76
1032,379476984,0.6738,-0.9312,0.0371,-79.57,14.57,15.06
1033,379481984,0.6733,-0.9429,0.0176,-84.33,13.23,15.43
1034,379486984,0.6748,-0.9463,0.0020,-90.30,11.83,15.91
1035,379491984,0.6792,-0.9463,-0.0122,-94.63,10.73,16.34
1036,379496984,0.6777,-0.9492,-0.0171,-99.94,9.57,16.71
1037,379501984,0.6660,-0.9380,-0.0288,-105.06,8.54,17.01
1038,379506984,0.6597,-0.9312,-0.0361,-110.24,7.50,17.13
1039,379511984,0.6538,-0.9189,-0.0444,-115.30,7.07,17.07
1040,379516984,0.6509,-0.9043,-0.0352,-120.67,6.77,16.40
1041,379521984,0.6509,-0.8960,-0.0239,-123.90,7.26,15.79
1042,379527378,0.6484,-0.8809,-0.0337,-127.80,8.23,14.45
1043,379531984,0.6489,-0.8760,-0.0410,-130.85,9.76,12.99
1044,379537413,0.6230,-0.8701,-0.0571,-133.29,12.07,10.73
1045,379541984,0.5952,-0.8755,-0.0835,-134.27,13.54,9.27
1046,379546985,0.5757,-0.8750,-0.1226,-134.70,15.18,7.62
1047,379551984,0.5591,-0.8701,-0.1411,-134.51,16.52,6.22
1048,379556984,0.5513,-0.8706,-0.1348,-133.54,17.80,4.94
1049,379561987,0.5762,-0.8711,-0.1377,-131.89,19.45,3.35
1050,379566984,0.5615,-0.8472,-0.1270,-130.30,20.43,2.50
1051,379571984,0.4897,-0.8110,-0.1348,-128.41,21.83,1.10
1052,379576984,0.4805,-0.8032,-0.1909,-127.68,22.93,0.06
1053,379581984,0.4814,-0.8237,-0.2456,-128.41,23.84,-1.04
1054,379586982,0.4907,-0.7847,-0.1543,-128.72,25.06,-2.26
1055,379592506,0.5005,-0.8130,-0.1104,-128.60,27.01,-3.66
1056,379596985,0.5181,-0.8213,-0.1309,-129.45,28.11,-3.96
1057,379601982,0.5122,-0.7803,-0.2065,-131.77,28.60,-4.57
1058,379606984,0.5151,-0.7715,-0.2007,-134.33,29.51,-5.37
1059,379611984,0.4937,-0.7583,-0.2017,-136.59,30.55,-6.28
1060,379617164,0.4717,-0.7319,-0.1914,-138.90,31.34,-7.01
1061,379621984,0.4746,-0.7007,-0.1968,-141.10,32.07,-7.44
1062,379626984,0.4819,-0.6689,-0.1694,-142.80,32.80,-7.56
1063,379631984,0.4780,-0.6587,-0.1406,-144.51,33.11,-7.38
1064,379636984,0.4727,-0.6509,-0.1475,-146.22,33.54,-6.83
1065,379641984,0.4741,-0.6333,-0.1470,-147.62,33.78,-6.28
1066,379646985,0.4712,-0.6177,-0.1406,-149.02,34.09,-5.61
1067,379651984,0.4648,-0.6055,-0.1460,-150.49,34.51,-4.57
1068,379656984,0.4526,-0.5869,-0.1533,-152.26,34.76,-3.54
1069,379661984,0.4478,-0.5796,-0.1626,-154.02,34.94,-2.20
1070,379666984,0.4438,-0.5693,-0.1675,-156.16,35.43,-0.79
1071,379671984,0.4458,-0.5669,-0.1768,-158.35,35.67,0.85
1072,379677193,0.4521,-0.5669,-0.1709,-160.79,36.10,2.62
1073,379681984,0.4580,-0.5703,-0.1738,-163.48,36.46,4.76
1074,379686984,0.4590,-0.5742,-0.1865,-165.91,36.71,6.71
1075,379692281,0.4482,-0.5762,-0.2148,-168.05,37.07,9.27
1076,379696984,0.4512,-0.5781,-0.2261,-169.02,37.50,10.98
1077,379701984,0.4556,-0.5898,-0.2295,-169.94,37.87,13.72
1078,379706983,0.4653,-0.5923,-0.2217,-170.37,38.35,15.55
1079,379711982,0.4785,-0.5928,-0.2251,-170.85,38.78,17.99
1080,379716984,0.4854,-0.5918,-0.2246,-171.22,39.21,20.37
1081,379721982,0.4893,-0.5884,-0.2139,-171.59,39.51,22.99
1082,379727013,0.4878,-0.5903,-0.2134,-171.83,39.88,25.85
1083,379731983,0.4883,-0.5889,-0.2148,-172.01,40.30,28.54
1084,379736984,0.4897,-0.5820,-0.2129,-172.20,40.49,31.59
1085,379741984,0.4922,-0.5830,-0.2124,-172.56,40.85,34.70
1086,379746984,0.4927,-0.5840,-0.2090,-172.74,41.16,37.87
1087,379751984,0.4971,-0.5811,-0.2085,-172.99,41.40,41.04
1088,379756986,0.4985,-0.5859,-0.2017,-173.29,41.83,44.45
1089,379761984,0.4927,-0.5845,-0.1831,-173.54,42.01,47.80
1090,379766984,0.4966,-0.5884,-0.1938,-173.78,42.50,52.26
1091,379771984,0.4927,-0.5889,-0.1929,-173.84,42.74,55.12
1092,379776984,0.4897,-0.5923,-0.1924,-173.96,42.99,58.66
1093,379781984,0.4863,-0.5884,-0.1865,-173.90,43.35,62.38
1094,379786984,0.4829,-0.5874,-0.1831,-173.84,43.60,66.10
1095,379791982,0.4795,-0.5840,-0.1851,-173.72,43.96,69.94
1096,379796984,0.4771,-0.5859,-0.1831,-173.23,44.09,73.54
1097,379802439,0.4668,-0.5811,-0.1855,-172.62,44.39,77.80
1098,379806985,0.4619,-0.5776,-0.1777,-171.95,44.39,80.85
1099,379811984,0.4570,-0.5679,-0.1865,-170.79,44.39,84.15
1100,379816984,0.4521,-0.5654,-0.1919,-169.45,44.51,87.26
1101,379821985,0.4438,-0.5581,-0.1899,-167.87,44.39,90.67
1102,379826984,0.4419,-0.5527,-0.1895,-166.16,44.27,94.09
1103,379831984,0.4258,-0.5435,-0.1865,-164.33,43.90,97.13
1104,379836984,0.4131,-0.5381,-0.1890,-162.38,43.35,100.12
1105,379841984,0.3950,-0.5317,-0.1885,-160.12,42.80,103.66
1106,379846984,0.3911,-0.5239,-0.1846,-158.66,42.32,105.85
1107,379851984,0.3789,-0.5239,-0.1860,-157.07,41.59,108.41
1108,379856985,0.3770,-0.5249,-0.1870,-155.61,40.73,111.22
1109,379861984,0.3818,-0.5303,-0.1846,-154.63,39.63,114.02
1110,379866984,0.3809,-0.5386,-0.1792,-153.90,38.41,117.01
1111,379871984,0.3901,-0.5557,-0.1836,-153.60,36.95,119.88
1112,379876984,0.3950,-0.5659,-0.1846,-153.96,35.37,123.23
1113,379881983,0.3989,-0.5786,-0.1860,-154.57,33.78,126.46
1114,379887371,0.3955,-0.5991,-0.1812,-156.16,31.83,130.61
1115,379892613,0.3926,-0.6079,-0.1821,-157.93,30.00,133.96
1116,379896984,0.3853,-0.6221,-0.1860,-159.45,28.66,136.71
1117,379901983,0.3735,-0.6299,-0.1895,-161.46,26.95,140.24
1118,379907750,0.3599,-0.6392,-0.1919,-163.66,24.70,144.27
1119,379911985,0.3467,-0.6396,-0.1987,-165.06,23.29,146.89
1120,379916984,0.3306,-0.6484,-0.2075,-166.65,21.28,150.73
1121,379921984,0.3169,-0.6504,-0.2134,-167.44,19.88,153.05
1122,379926984,0.2954,-0.6553,-0.2261,-168.11,18.05,156.46
1123,379931984,0.2764,-0.6621,-0.2285,-168.17,16.28,159.09
1124,379936984,0.2563,-0.6621,-0.2412,-167.93,14.88,161.40
1125,379941984,0.2339,-0.6714,-0.2500,-167.32,13.41,163.66
1126,379946984,0.2134,-0.6733,-0.2559,-166.34,12.13,165.79
1127,379951984,0.1909,-0.6816,-0.2700,-165.06,10.73,167.80
1128,379956984,0.1641,-0.6768,-0.2808,-163.23,9.51,169.57
1129,379961985,0.1372,-0.6738,-0.2930,-161.28,8.48,171.04
1130,379966984,0.1143,-0.6807,-0.3052,-158.66,7.62,172.26
1131,379971984,0.0942,-0.6870,-0.3174,-155.61,6.71,173.48
1132,379976984,0.0903,-0.6963,-0.3247,-152.26,5.91,174.63
1133,379981984,0.0874,-0.7017,-0.3354,-148.66,5.18,175.73
1134,379986983,0.0771,-0.7051,-0.3457,-144.63,4.45,176.95
1135,379991986,0.0713,-0.7129,-0.3633,-140.18,4.15,177.87
1136,379996982,0.0591,-0.7139,-0.3696,-135.67,3.60,179.09
1137,380001984,0.0571,-0.7183,-0.3779,-130.67,3.17,180.24
1138,380006984,0.0581,-0.7314,-0.3931,-125.61,2.62,181.40
1139,380011984,0.0630,-0.7456,-0.3945,-120.55,2.26,182.62
1140,380017465,0.0703,-0.7539,-0.4033,-115.55,1.83,184.02
1141,380022426,0.0747,-0.7681,-0.4004,-110.67,1.46,185.55
1142,380026984,0.0698,-0.7671,-0.4077,-105.91,1.04,186.95
1143,380031984,0.0640,-0.7690,-0.4067,-101.40,1.04,188.35
1144,380036984,0.0576,-0.7754,-0.4136,-96.83,0.98,189.94
1145,380041984,0.0527,-0.7769,-0.4219,-92.32,0.91,191.40
1146,380046984,0.0547,-0.7783,-0.4297,-87.50,1.16,193.05
1147,380051984,0.0459,-0.7808,-0.4346,-82.74,1.46,194.63
1148,380056984,0.0376,-0.7695,-0.4355,-77.44,1.77,196.22
1149,380061985,0.0308,-0.7690,-0.4331,-72.07,2.13,197.74
1150,380066984,0.0298,-0.7651,-0.4409,-66.22,2.56,199.45
1151,380072115,0.0225,-0.7632,-0.4404,-60.24,3.05,201.16
1152,380076984,0.0176,-0.7573,-0.4487,-53.90,3.48,202.99
1153,380081984,0.0088,-0.7515,-0.4521,-47.26,3.72,204.70
1154,380086984,0.0005,-0.7500,-0.4570,-40.49,4.15,206.46
1155,380091984,-0.0103,-0.7539,-0.4517,-33.48,4.76,208.17
1156,380096984,-0.0273,-0.7588,-0.4634,-26.34,5.43,209.94
1157,380101984,-0.0396,-0.7715,-0.4727,-19.15,6.16,211.71
1158,380106984,-0.0503,-0.7773,-0.4834,-12.13,7.32,213.54
1159,380112420,-0.0703,-0.7866,-0.4971,-5.12,8.41,215.30
1160,380116985,-0.0830,-0.7959,-0.5049,1.89,9.82,217.01
1161,380121984,-0.1045,-0.8027,-0.5107,8.96,11.65,218.72
1162,380127211,-0.1201,-0.8032,-0.5195,15.79,13.41,220.37
1163,380131984,-0.1348,-0.8037,-0.5200,22.20,15.37,221.83
1164,380136984,-0.1465,-0.8115,-0.5254,28.66,17.50,223.23
1165,380141984,-0.1519,-0.8159,-0.5352,34.94,19.57,224.76
1166,380147470,-0.1602,-0.8188,-0.5396,40.79,21.77,226.10
1167,380151984,-0.1689,-0.8198,-0.5347,46.52,23.90,227.44
1168,380156984,-0.1792,-0.8179,-0.5430,51.89,26.28,228.66
1169,380161984,-0.1919,-0.8223,-0.5474,56.89,28.48,229.88
1170,380166986,-0.2051,-0.8267,-0.5449,61.46,30.73,231.16
1171,380171984,-0.2178,-0.8242,-0.5488,65.73,32.93,232.13
1172,380176983,-0.2329,-0.8228,-0.5459,69.63,35.43,233.05
1173,380181983,-0.2588,-0.8291,-0.5552,73.05,37.68,233.90
1174,380186983,-0.2715,-0.8374,-0.5596,76.04,40.00,234.63
1175,380191982,-0.2832,-0.8442,-0.5586,78.35,42.20,235.30
1176,380196985,-0.2983,-0.8511,-0.5649,80.24,44.39,235.98
1177,380201982,-0.3101,-0.8672,-0.5718,81.65,46.65,236.59
1178,380207434,-0.3223,-0.8730,-0.5737,82.44,48.84,236.89
1179,380211984,-0.3394,-0.8774,-0.5771,83.05,50.91,237.44
1180,380216984,-0.3506,-0.8799,-0.5791,83.17,52.80,237.87
1181,380221984,-0.3691,-0.8940,-0.5830,83.23,54.63,238.17
1182,380226984,-0.3828,-0.9014,-0.5903,82.93,56.34,238.35
1183,380231984,-0.3994,-0.9048,-0.5806,82.38,58.23,238.60
1184,380236984,-0.4116,-0.9062,-0.5859,81.59,60.18,238.48
1185,380241984,-0.4409,-0.9136,-0.5879,80.55,62.13,238.29
1186,380246984,-0.4600,-0.9199,-0.5820,79.39,64.15,237.62
1187,380251984,-0.4824,-0.9214,-0.5864,77.87,66.28,236.95
1188,380256984,-0.5010,-0.9258,-0.5771,76.16,68.23,236.04
1189,380261986,-0.5142,-0.9302,-0.5698,74.33,70.24,235.18
1190,380266983,-0.5322,-0.9258,-0.5688,72.32,72.26,234.15
1191,380271984,-0.5488,-0.9292,-0.5640,70.18,74.45,232.99
1192,380276984,-0.5649,-0.9399,-0.5649,67.99,76.59,231.89
1193,380281984,-0.5850,-0.9434,-0.5586,65.85,78.60,230.73
1194,380286984,-0.6021,-0.9531,-0.5591,63.90,80.61,229.45
1195,380291984,-0.6172,-0.9614,-0.5591,62.20,82.50,228.23
1196,380296984,-0.6367,-0.9575,-0.5527,60.91,85.55,226.83
1197,380301984,-0.6514,-0.9575,-0.5562,59.88,86.04,225.30
1198,380306984,-0.6680,-0.9546,-0.5591,59.27,87.32,223.66
1199,380311984,-0.6743,-0.9570,-0.5547,59.02,89.76,221.89
1200,380316984,-0.6875,-0.9590,-0.5532,58.96,91.46,220.24
1201,380321984,-0.6992,-0.9648,-0.5469,58.90,93.11,218.41
1202,380326984,-0.7104,-0.9692,-0.5430,58.90,94.63,216.59
1203,380331984,-0.7153,-0.9722,-0.5410,58.66,96.10,214.76
1204,380336984,-0.7173,-0.9805,-0.5273,58.41,97.50,212.93
1205,380341984,-0.7231,-0.9849,-0.5127,57.99,98.66,211.10
1206,380347486,-0.7388,-0.9883,-0.5176,57.62,99.88,209.27
1207,380351984,-0.7529,-1.0005,-0.5103,57.20,100.79,207.56
1208,380356984,-0.7563,-1.0049,-0.5068,57.20,101.77,205.43
1209,380361984,-0.7695,-1.0068,-0.5020,57.13,102.50,203.48
1210,380366984,-0.7749,-1.0103,-0.4937,57.26,103.05,201.28
1211,380371985,-0.7827,-1.0073,-0.4829,57.56,103.72,199.02
1212,380376984,-0.7852,-1.0078,-0.4824,58.11,104.21,196.65
1213,380381984,-0.7886,-1.0117,-0.4761,58.96,104.76,194.33
1214,380386984,-0.7837,-1.0083,-0.4717,59.88,105.12,191.83
1215,380391983,-0.7881,-1.0068,-0.4668,61.16,105.49,189.39
1216,380396986,-0.7803,-1.0059,-0.4595,62.74,105.61,186.83
1217,380401982,-0.7812,-0.9985,-0.4473,64.39,105.85,184.33
1218,380406986,-0.7808,-1.0010,-0.4443,66.40,106.04,181.65
1219,380411983,-0.7832,-0.9883,-0.4404,68.54,106.22,179.09
1220,380416984,-0.7793,-0.9854,-0.4238,70.49,106.46,176.28
1221,380421984,-0.7837,-0.9785,-0.4160,72.74,106.71,173.17
1222,380426987,-0.7866,-0.9697,-0.4087,74.33,106.95,170.37
1223,380431984,-0.7856,-0.9692,-0.4004,75.49,107.01,168.05
1224,380436984,-0.7759,-0.9663,-0.3892,76.77,107.13,165.24
1225,380441984,-0.7690,-0.9590,-0.3804,77.93,107.38,162.44
1226,380446984,-0.7612,-0.9551,-0.3682,79.09,107.44,159.63
1227,380451984,-0.7563,-0.9497,-0.3550,80.43,107.56,156.71
1228,380456984,-0.7480,-0.9463,-0.3491,81.95,107.74,153.96
1229,380461984,-0.7349,-0.9482,-0.3389,83.66,107.44,151.40
1230,380466984,-0.7217,-0.9463,-0.3359,85.43,107.26,148.96
1231,380471985,-0.7124,-0.9429,-0.3252,87.50,106.83,146.46
1232,380476984,-0.7070,-0.9390,-0.3218,89.88,106.34,144.15
1233,380481982,-0.7075,-0.9312,-0.3159,92.62,105.79,141.77
1234,380486982,-0.6992,-0.9204,-0.3003,95.12,105.24,139.27
1235,380491982,-0.6924,-0.9185,-0.3013,97.80,104.45,136.95
1236,380496982,-0.6855,-0.9097,-0.2871,100.67,103.78,134.57
1237,380501982,-0.6772,-0.9097,-0.2769,103.48,102.99,132.20
1238,380506984,-0.6641,-0.9536,-0.2935,105.98,101.83,130.30
1239,380511984,-0.6543,-0.8501,-0.2246,108.35,101.04,128.29
1240,380516984,-0.6509,-0.8428,-0.2529,110.91,100.12,125.73
1241,380521984,-0.6685,-0.8545,-0.2539,113.48,99.21,123.29
1242,380526984,-0.6553,-0.8774,-0.2305,115.61,97.99,121.34
1243,380531984,-0.6523,-0.8667,-0.2153,117.50,97.13,119.15
1244,380536984,-0.6567,-0.8501,-0.2251,119.39,95.98,116.89
1245,380541984,-0.6631,-0.8379,-0.2139,121.10,94.76,114.63
1246,380546984,-0.6621,-0.8325,-0.1953,122.62,93.72,112.44
1247,380551984,-0.6587,-0.8379,-0.1953,124.02,92.32,110.55
1248,380557433,-0.6455,-0.8276,-0.1870,125.49,90.67,108.35
1249,380561984,-0.6406,-0.8262,-0.1782,126.04,89.45,106.89
1250,380566984,-0.6382,-0.8291,-0.1592,126.65,88.48,105.24
1251,380571984,-0.6353,-0.8301,-0.1626,127.87,85.73,103.54
1252,380576985,-0.6304,-0.8306,-0.1616,128.48,85.30,102.13
1253,380581984,-0.6284,-0.8218,-0.1479,127.32,85.12,100.73
1254,380586984,-0.6206,-0.8154,-0.1431,128.84,82.68,99.39
