# skilleye imu stream v1
# device=xiao_esp32c6 imu=mpu6050 addr=0x68
# rate_hz=200 accel_range_g=16 gyro_range_dps=2000 dlpf_hz=94
# units: accel in g, gyro in deg/s, t_us in microseconds since boot (monotonic)
# no shared clock with the camera -- tap the racket once before each take
# so both recordings share a spike to align on
seq,t_us,ax,ay,az,gx,gy,gz
0,408173299,0.0127,-0.1606,-0.8711,2.26,-1.34,1.89
1,408178612,0.0117,-0.1646,-0.8774,2.26,-1.16,2.01
2,408183296,0.0083,-0.1660,-0.8726,2.26,-1.10,2.01
3,408188840,0.0205,-0.1646,-0.8726,2.38,-1.16,2.01
4,408193295,0.0239,-0.1592,-0.8740,2.13,-1.22,1.95
5,408198294,0.0293,-0.1602,-0.8794,2.32,-1.10,2.07
6,408203294,0.0317,-0.1567,-0.8735,2.26,-1.28,2.13
7,408208294,0.0371,-0.1558,-0.8730,2.20,-1.22,2.07
8,408213296,0.0293,-0.1543,-0.8740,2.32,-1.22,2.07
9,408218294,0.0366,-0.1533,-0.8706,2.32,-1.22,2.13
10,408223294,0.0366,-0.1509,-0.8721,2.32,-1.28,2.07
11,408228294,0.0405,-0.1504,-0.8760,2.32,-1.28,2.13
12,408233294,0.0410,-0.1538,-0.8770,2.32,-1.34,2.07
13,408238294,0.0371,-0.1523,-0.8735,2.32,-1.28,2.01
14,408243294,0.0244,-0.1592,-0.8745,2.44,-1.34,2.01
15,408248294,0.0083,-0.1597,-0.8691,2.32,-1.40,2.07
16,408253294,0.0371,-0.1538,-0.8721,2.38,-1.28,1.95
17,408258294,0.0337,-0.1577,-0.8760,2.32,-1.34,1.95
18,408263294,0.0205,-0.1597,-0.8750,2.26,-1.22,1.89
19,408268294,0.0249,-0.1587,-0.8745,2.32,-1.28,1.89
20,408273294,0.0117,-0.1631,-0.8687,2.32,-1.40,1.83
21,408278294,0.0122,-0.1587,-0.8716,2.20,-1.34,1.89
22,408283448,0.0327,-0.1509,-0.8735,2.13,-1.10,1.83
23,408288296,0.0439,-0.1514,-0.8696,2.26,-1.10,1.83
24,408293296,0.0366,-0.1572,-0.8760,2.13,-1.22,1.77
25,408298296,0.0332,-0.1597,-0.8711,2.13,-1.34,1.77
26,408303296,0.0273,-0.1626,-0.8784,2.20,-1.10,1.89
27,408308296,0.0239,-0.1606,-0.8726,2.20,-1.22,1.77
28,408313296,0.0190,-0.1592,-0.8696,2.13,-1.10,1.89
29,408318296,0.0269,-0.1543,-0.8765,2.13,-1.16,1.95
30,408323296,0.0137,-0.1621,-0.8789,2.13,-1.04,1.95
31,408328297,0.0200,-0.1602,-0.8755,2.20,-1.28,1.89
32,408333296,0.0073,-0.1582,-0.8779,2.26,-1.16,1.77
33,408338296,0.0161,-0.1577,-0.8740,2.26,-1.16,1.95
34,408343388,0.0137,-0.1538,-0.8799,2.26,-1.16,1.95
35,408348368,0.0249,-0.1572,-0.8760,2.13,-1.16,1.95
36,408353394,0.0464,-0.1523,-0.8765,2.20,-1.22,1.83
37,408358432,0.0366,-0.1514,-0.8770,2.26,-1.40,1.89
38,408363296,0.0327,-0.1582,-0.8779,2.32,-1.34,1.83
39,408368296,0.0225,-0.1597,-0.8789,2.38,-1.40,1.83
40,408373295,0.0142,-0.1641,-0.8774,2.38,-1.46,1.83
41,408378296,0.0093,-0.1602,-0.8779,2.38,-1.52,1.77
42,408383294,0.0186,-0.1567,-0.8779,2.50,-1.52,1.77
43,408388294,0.0200,-0.1553,-0.8784,2.50,-1.52,1.83
44,408393294,0.0225,-0.1558,-0.8735,2.56,-1.46,1.71
45,408398294,0.0220,-0.1533,-0.8779,2.38,-1.65,1.83
46,408403294,0.0420,-0.1523,-0.8765,2.44,-1.71,1.77
47,408408366,0.0259,-0.1567,-0.8750,2.56,-1.65,1.77
48,408413297,0.0151,-0.1621,-0.8740,2.44,-1.71,1.77
49,408418294,0.0400,-0.1484,-0.8721,2.50,-1.59,1.77
50,408423294,0.0171,-0.1592,-0.8730,2.50,-1.52,1.83
51,408428294,0.0356,-0.1538,-0.8750,2.56,-1.65,1.77
52,408433294,0.0234,-0.1592,-0.8770,2.50,-1.65,1.71
53,408438294,0.0181,-0.1558,-0.8735,2.50,-1.65,1.77
54,408443295,0.0220,-0.1582,-0.8716,2.44,-1.46,1.77
55,408448297,0.0200,-0.1577,-0.8711,2.56,-1.59,1.83
56,408453296,0.0376,-0.1538,-0.8730,2.44,-1.52,1.95
57,408458766,0.0122,-0.1631,-0.8735,2.32,-1.40,1.77
58,408463296,0.0161,-0.1577,-0.8765,2.38,-1.34,1.77
59,408468296,0.0381,-0.1543,-0.8765,2.26,-1.40,1.77
60,408473295,0.0210,-0.1611,-0.8730,2.32,-1.34,1.83
61,408478294,0.0391,-0.1543,-0.8770,2.32,-1.40,1.83
62,408483294,0.0142,-0.1650,-0.8770,2.26,-1.28,1.83
63,408488294,0.0303,-0.1528,-0.8765,2.26,-1.40,1.71
64,408493294,0.0273,-0.1582,-0.8765,2.32,-1.34,1.83
65,408498294,0.0249,-0.1523,-0.8691,2.26,-1.40,1.77
66,408503296,0.0244,-0.1567,-0.8740,2.20,-1.34,1.71
67,408508297,0.0225,-0.1514,-0.8755,2.13,-1.34,1.71
68,408513296,0.0288,-0.1523,-0.8721,2.20,-1.34,1.59
69,408518295,0.0132,-0.1553,-0.8755,2.20,-1.40,1.65
70,408523295,0.0312,-0.1479,-0.8721,2.20,-1.46,1.52
71,408528294,0.0137,-0.1621,-0.8755,2.13,-1.28,1.52
72,408533294,0.0381,-0.1523,-0.8730,2.26,-1.52,1.59
73,408538294,0.0229,-0.1641,-0.8750,2.26,-1.59,1.65
74,408543294,0.0400,-0.1606,-0.8691,2.20,-1.46,1.65
75,408548294,0.0303,-0.1577,-0.8755,2.44,-1.40,1.65
76,408553294,0.0239,-0.1626,-0.8779,2.38,-1.65,1.71
77,408558294,0.0342,-0.1558,-0.8760,2.38,-1.65,1.65
78,408563294,0.0195,-0.1611,-0.8755,2.50,-1.59,1.65
79,408568294,0.0259,-0.1528,-0.8677,2.50,-1.71,1.77
80,408573458,0.0171,-0.1606,-0.8750,2.50,-1.71,1.83
81,408578296,0.0239,-0.1528,-0.8696,2.50,-1.65,1.77
82,408583296,0.0400,-0.1567,-0.8784,2.56,-1.77,1.77
83,408588417,0.0200,-0.1572,-0.8726,2.50,-1.77,1.83
84,408593296,0.0371,-0.1519,-0.8740,2.50,-1.65,1.77
85,408598295,0.0298,-0.1602,-0.8716,2.56,-1.65,1.77
86,408603296,0.0161,-0.1616,-0.8711,2.68,-1.71,1.65
87,408608296,0.0366,-0.1553,-0.8789,2.56,-1.59,1.65
88,408613296,0.0151,-0.1582,-0.8765,2.62,-1.59,1.65
89,408618296,0.0332,-0.1567,-0.8740,2.50,-1.65,1.71
90,408623295,0.0205,-0.1553,-0.8682,2.50,-1.46,1.65
91,408628294,0.0298,-0.1606,-0.8701,2.44,-1.46,1.71
92,408633294,0.0073,-0.1626,-0.8716,2.56,-1.46,1.65
93,408638294,0.0181,-0.1562,-0.8721,2.50,-1.52,1.65
94,408643294,0.0347,-0.1548,-0.8765,2.44,-1.46,1.65
95,408648295,0.0327,-0.1611,-0.8779,2.32,-1.40,1.65
96,408653297,0.0239,-0.1577,-0.8687,2.50,-1.65,1.71
97,408658296,0.0381,-0.1509,-0.8716,2.44,-1.34,1.77
98,408663296,0.0273,-0.1562,-0.8794,2.44,-1.40,1.65
99,408668296,0.0342,-0.1489,-0.8735,2.44,-1.40,1.59
100,408673460,0.0186,-0.1611,-0.8667,2.44,-1.46,1.71
101,408678296,0.0337,-0.1562,-0.8740,2.44,-1.40,1.59
102,408683296,0.0229,-0.1558,-0.8779,2.44,-1.40,1.71
103,408688296,0.0361,-0.1548,-0.8740,2.56,-1.22,1.59
104,408693296,0.0195,-0.1567,-0.8740,2.38,-1.46,1.77
105,408698296,0.0264,-0.1631,-0.8730,2.38,-1.52,1.77
106,408703296,0.0210,-0.1562,-0.8745,2.44,-1.52,1.71
107,408708296,0.0410,-0.1523,-0.8735,2.50,-1.52,1.71
108,408713296,0.0229,-0.1626,-0.8804,2.44,-1.52,1.77
109,408718296,0.0210,-0.1592,-0.8779,2.56,-1.40,1.77
110,408723296,0.0239,-0.1621,-0.8779,2.44,-1.59,1.83
111,408728593,0.0303,-0.1548,-0.8755,2.44,-1.65,1.77
112,408733643,0.0107,-0.1646,-0.8716,2.44,-1.59,1.89
113,408738296,0.0220,-0.1533,-0.8711,2.56,-1.34,1.89
114,408743296,0.0361,-0.1567,-0.8721,2.50,-1.59,1.83
115,408748295,0.0166,-0.1582,-0.8735,2.56,-1.46,1.77
116,408753294,0.0342,-0.1558,-0.8750,2.50,-1.46,1.89
117,408758294,0.0259,-0.1553,-0.8735,2.50,-1.52,1.83
118,408763294,0.0210,-0.1602,-0.8711,2.56,-1.52,1.83
119,408768294,0.0171,-0.1611,-0.8765,2.44,-1.46,1.83
120,408774316,0.0249,-0.1641,-0.8706,2.38,-1.40,1.83
121,408778296,0.0151,-0.1567,-0.8765,2.38,-1.40,1.83
122,408783296,0.0234,-0.1523,-0.8779,2.38,-1.40,1.95
123,408788294,0.0366,-0.1523,-0.8745,2.38,-1.28,1.83
124,408793294,0.0156,-0.1606,-0.8774,2.50,-1.40,1.83
125,408798294,0.0283,-0.1533,-0.8701,2.50,-1.40,1.83
126,408803294,0.0396,-0.1548,-0.8721,2.44,-1.40,1.89
127,408808294,0.0210,-0.1582,-0.8740,2.38,-1.46,1.83
128,408813297,0.0215,-0.1582,-0.8765,2.38,-1.40,1.83
129,408818772,0.0376,-0.1533,-0.8755,2.38,-1.52,1.83
130,408823296,0.0269,-0.1621,-0.8735,2.50,-1.40,1.77
131,408828296,0.0303,-0.1528,-0.8740,2.50,-1.52,1.77
132,408833296,0.0156,-0.1587,-0.8696,2.56,-1.46,1.77
133,408838298,0.0366,-0.1519,-0.8711,2.44,-1.52,1.83
134,408843296,0.0405,-0.1504,-0.8711,2.38,-1.52,1.77
135,408848296,0.0396,-0.1553,-0.8750,2.38,-1.34,1.89
136,408853296,0.0391,-0.1533,-0.8765,2.44,-1.46,1.83
137,408858296,0.0186,-0.1655,-0.8779,2.38,-1.34,1.95
138,408863382,0.0098,-0.1621,-0.8760,2.38,-1.46,1.89
139,408868478,0.0166,-0.1577,-0.8687,2.50,-1.52,1.95
140,408873322,0.0200,-0.1631,-0.8730,2.38,-1.40,1.89
141,408878594,0.0107,-0.1650,-0.8760,2.32,-1.52,1.95
142,408883403,0.0200,-0.1631,-0.8726,2.38,-1.46,2.01
143,408888296,0.0356,-0.1587,-0.8691,2.32,-1.34,2.07
144,408893296,0.0356,-0.1592,-0.8745,2.38,-1.22,2.20
145,408898605,0.0254,-0.1587,-0.8711,2.32,-1.22,2.13
146,408903415,0.0103,-0.1636,-0.8716,2.20,-1.10,2.13
147,408908439,0.0190,-0.1602,-0.8701,2.26,-1.04,2.26
148,408913435,0.0361,-0.1533,-0.8726,2.26,-0.98,2.07
149,408918320,0.0161,-0.1582,-0.8799,2.32,-0.91,2.07
150,408923295,0.0361,-0.1499,-0.8745,2.38,-0.85,2.13
151,408928297,0.0249,-0.1572,-0.8745,2.26,-0.91,2.13
152,408933296,0.0195,-0.1543,-0.8691,2.20,-0.98,2.07
153,408938296,0.0361,-0.1528,-0.8696,2.20,-1.10,2.07
154,408943297,0.0352,-0.1553,-0.8789,2.20,-1.10,2.13
155,408948299,0.0264,-0.1592,-0.8779,2.26,-1.04,2.01
156,408953296,0.0420,-0.1499,-0.8750,2.26,-0.98,1.95
157,408958296,0.0249,-0.1606,-0.8838,2.38,-1.16,2.07
158,408963296,0.0142,-0.1592,-0.8726,2.44,-1.10,1.95
159,408968602,0.0303,-0.1523,-0.8735,2.44,-1.28,1.95
160,408973296,0.0269,-0.1514,-0.8740,2.32,-1.22,2.01
161,408978296,0.0151,-0.1602,-0.8765,2.50,-1.16,2.07
162,408983296,0.0298,-0.1592,-0.8843,2.56,-1.34,2.01
163,408988296,0.0469,-0.1519,-0.8809,2.50,-1.28,2.07
164,408993296,0.0435,-0.1455,-0.8789,2.56,-1.46,2.07
165,408998296,0.0425,-0.1440,-0.8804,2.56,-1.52,2.07
166,409003296,0.0464,-0.1450,-0.8857,2.50,-1.46,1.83
167,409008299,0.0376,-0.1514,-0.8872,2.56,-1.71,1.77
168,409013296,0.0356,-0.1479,-0.8818,2.50,-1.65,1.65
169,409018296,0.0283,-0.1509,-0.8784,2.56,-1.77,1.52
170,409023296,0.0200,-0.1553,-0.8784,2.56,-1.83,1.46
171,409028296,0.0234,-0.1538,-0.8804,2.56,-1.83,1.34
172,409033295,0.0181,-0.1577,-0.8755,2.62,-1.89,1.28
173,409038294,0.0312,-0.1494,-0.8745,2.68,-1.89,1.10
174,409043294,0.0391,-0.1499,-0.8745,2.68,-1.95,1.16
175,409048294,0.0273,-0.1562,-0.8799,2.74,-1.89,1.16
176,409053294,0.0210,-0.1567,-0.8730,2.99,-1.95,1.16
177,409058294,0.0234,-0.1597,-0.8789,2.87,-1.77,1.10
178,409063294,0.0166,-0.1616,-0.8677,2.93,-1.95,1.16
179,409068294,0.0371,-0.1592,-0.8672,2.80,-1.71,1.22
180,409073294,0.0435,-0.1577,-0.8735,2.74,-1.65,1.40
181,409078298,0.0425,-0.1572,-0.8726,2.74,-1.52,1.40
182,409083670,0.0425,-0.1528,-0.8735,2.68,-1.59,1.34
183,409088296,0.0400,-0.1553,-0.8770,2.62,-1.71,1.46
184,409093457,0.0381,-0.1553,-0.8779,2.74,-1.52,1.52
185,409098295,0.0352,-0.1582,-0.8809,2.80,-1.71,1.59
186,409103508,0.0254,-0.1631,-0.8794,2.62,-1.65,1.52
187,409108294,0.0142,-0.1626,-0.8774,2.62,-1.77,1.59
188,409113320,0.0210,-0.1616,-0.8716,2.50,-1.77,1.71
189,409118296,0.0361,-0.1528,-0.8770,2.62,-1.71,1.71
190,409123787,0.0381,-0.1558,-0.8730,2.68,-1.83,1.83
191,409128296,0.0366,-0.1567,-0.8730,2.74,-1.95,1.83
192,409133296,0.0376,-0.1592,-0.8750,2.62,-1.89,1.89
193,409138296,0.0161,-0.1655,-0.8760,2.62,-1.83,1.89
194,409143296,0.0317,-0.1611,-0.8765,2.62,-1.83,2.01
195,409148297,0.0200,-0.1670,-0.8784,2.50,-1.71,2.07
196,409153296,0.0044,-0.1670,-0.8706,2.62,-1.59,2.20
197,409158296,0.0029,-0.1606,-0.8706,2.32,-1.59,2.20
198,409163295,-0.0005,-0.1660,-0.8784,2.32,-1.59,2.13
199,409168318,0.0024,-0.1558,-0.8716,2.26,-1.59,2.26
200,409173604,0.0020,-0.1509,-0.8726,2.13,-1.46,2.01
201,409178702,0.0005,-0.1479,-0.8765,2.13,-1.28,1.77
202,409183296,0.0059,-0.1509,-0.8721,2.13,-1.40,1.65
203,409188296,0.0059,-0.1460,-0.8745,2.01,-1.28,1.46
204,409193295,0.0083,-0.1406,-0.8716,2.07,-1.10,1.16
205,409198298,0.0195,-0.1416,-0.8730,2.13,-1.16,0.98
206,409203296,0.0410,-0.1362,-0.8667,2.13,-1.28,0.73
207,409208296,0.0366,-0.1445,-0.8760,2.13,-1.22,0.67
208,409213785,0.0317,-0.1548,-0.8730,2.20,-1.22,0.55
209,409218296,0.0381,-0.1567,-0.8677,2.20,-1.16,0.55
210,409223296,0.0376,-0.1602,-0.8735,2.20,-1.16,0.55
211,409228296,0.0293,-0.1680,-0.8765,2.13,-1.28,0.73
212,409233296,0.0288,-0.1772,-0.8711,2.13,-1.04,0.79
213,409238295,0.0229,-0.1792,-0.8667,2.20,-1.04,0.85
214,409243294,0.0234,-0.1807,-0.8721,2.20,-0.98,1.28
215,409248294,0.0254,-0.1865,-0.8701,2.20,-0.79,1.59
216,409253294,0.0083,-0.1831,-0.8711,2.20,-0.91,1.89
217,409258294,0.0020,-0.1797,-0.8735,2.01,-0.79,2.13
218,409263294,0.0049,-0.1738,-0.8735,2.07,-0.61,2.26
219,409268294,0.0029,-0.1699,-0.8740,1.95,-0.49,2.32
220,409273294,0.0078,-0.1660,-0.8691,1.71,-0.43,2.38
221,409278294,0.0229,-0.1685,-0.8760,1.71,-0.55,2.44
222,409283294,0.0396,-0.1626,-0.8770,1.59,-0.37,2.50
223,409288294,0.0454,-0.1611,-0.8726,1.52,-0.24,2.50
224,409293294,0.0508,-0.1597,-0.8755,1.52,-0.24,2.62
225,409298294,0.0439,-0.1636,-0.8765,1.46,-0.18,2.74
226,409303294,0.0342,-0.1704,-0.8760,1.46,-0.12,2.80
227,409308294,0.0396,-0.1641,-0.8750,1.46,-0.06,2.93
228,409313294,0.0591,-0.1611,-0.8750,1.46,-0.18,2.99
229,409318294,0.0659,-0.1567,-0.8726,1.40,-0.30,3.23
230,409323294,0.0474,-0.1646,-0.8711,1.59,-0.30,3.35
231,409328298,0.0488,-0.1558,-0.8740,1.59,-0.30,3.54
232,409333506,0.0376,-0.1538,-0.8838,1.71,-0.49,3.48
233,409338296,0.0288,-0.1509,-0.8867,1.77,-0.43,3.41
234,409343294,0.0400,-0.1445,-0.8843,1.89,-0.61,3.35
235,409348294,0.0288,-0.1514,-0.8843,1.89,-0.73,3.35
236,409353294,0.0181,-0.1528,-0.8848,2.01,-0.61,2.99
237,409358294,0.0176,-0.1475,-0.8828,2.01,-0.91,3.05
238,409363296,0.0371,-0.1392,-0.8862,2.13,-1.10,2.99
239,409368296,0.0376,-0.1470,-0.8901,2.26,-1.10,2.80
240,409373296,0.0273,-0.1533,-0.8828,2.20,-1.34,2.62
241,409378296,0.0317,-0.1475,-0.8809,2.32,-1.52,2.62
242,409383418,0.0278,-0.1475,-0.8843,2.56,-1.65,2.38
243,409388296,0.0049,-0.1553,-0.8857,2.68,-1.83,2.26
244,409393296,0.0200,-0.1440,-0.8828,2.68,-2.07,2.01
245,409398295,0.0391,-0.1431,-0.8823,2.93,-2.20,1.95
246,409403296,0.0303,-0.1455,-0.8794,3.11,-2.32,1.89
247,409408295,0.0132,-0.1533,-0.8794,3.11,-2.56,1.83
248,409413296,0.0127,-0.1465,-0.8838,3.29,-2.74,1.65
249,409418294,0.0283,-0.1450,-0.8789,3.29,-2.93,1.59
250,409423294,0.0195,-0.1479,-0.8779,3.29,-2.87,1.46
251,409428296,0.0039,-0.1577,-0.8765,3.35,-2.87,1.22
252,409433295,0.0015,-0.1558,-0.8774,3.29,-2.87,1.22
253,409438297,0.0137,-0.1460,-0.8662,3.17,-2.74,0.98
254,409443296,0.0215,-0.1489,-0.8667,3.29,-2.62,0.85
255,409448296,0.0220,-0.1553,-0.8687,3.11,-2.80,0.79
256,409453297,0.0210,-0.1606,-0.8638,3.11,-2.44,0.79
257,409458296,0.0146,-0.1641,-0.8696,2.99,-2.38,0.73
258,409463299,0.0088,-0.1665,-0.8657,2.87,-2.20,0.85
259,409468296,0.0146,-0.1699,-0.8701,2.80,-2.20,0.91
260,409473296,0.0234,-0.1631,-0.8677,2.80,-2.07,1.04
261,409478296,0.0298,-0.1689,-0.8701,2.80,-2.01,1.16
262,409483296,0.0151,-0.1699,-0.8760,2.74,-2.01,1.40
263,409488762,0.0034,-0.1743,-0.8853,2.68,-2.01,1.59
264,409493296,0.0034,-0.1738,-0.8735,2.87,-1.95,1.59
265,409498366,0.0010,-0.1704,-0.8784,2.74,-2.01,1.71
266,409503295,0.0063,-0.1660,-0.8779,2.74,-1.95,1.71
267,409508431,0.0186,-0.1562,-0.8784,2.74,-2.01,1.83
268,409513296,0.0054,-0.1567,-0.8760,2.74,-2.32,1.83
269,409518295,0.0059,-0.1572,-0.8789,2.87,-2.38,1.77
270,409523296,-0.0098,-0.1572,-0.8887,3.11,-2.44,1.65
271,409528370,-0.0049,-0.1499,-0.8818,2.99,-2.50,1.46
272,409533297,0.0103,-0.1421,-0.8799,3.11,-2.62,1.28
273,409538296,0.0171,-0.1382,-0.8789,3.17,-2.62,1.16
274,409543295,0.0215,-0.1475,-0.8750,3.05,-2.87,0.91
275,409548295,0.0151,-0.1436,-0.8774,3.23,-2.74,0.73
276,409553294,-0.0015,-0.1504,-0.8735,3.23,-2.80,0.55
277,409558294,-0.0088,-0.1558,-0.8784,3.29,-2.80,0.37
278,409563294,0.0039,-0.1553,-0.8740,3.17,-2.80,0.12
279,409568755,0.0327,-0.1548,-0.8784,3.17,-2.80,0.12
280,409573297,0.0225,-0.1431,-0.8745,3.29,-2.80,-0.06
281,409578296,0.0015,-0.1660,-0.8779,3.17,-2.68,0.00
282,409583299,0.0034,-0.1680,-0.8667,2.99,-2.56,-0.06
283,409588296,0.0083,-0.1611,-0.8701,3.11,-2.50,0.00
284,409593296,0.0122,-0.1694,-0.8667,2.99,-2.38,0.06
285,409598296,0.0190,-0.1655,-0.8657,2.80,-2.38,0.00
286,409603295,0.0093,-0.1655,-0.8726,2.87,-2.20,0.06
287,409608296,0.0288,-0.1621,-0.8628,2.68,-2.01,0.18
288,409613295,0.0308,-0.1626,-0.8691,2.44,-2.01,0.24
289,409618296,0.0156,-0.1631,-0.8687,2.32,-1.77,0.24
290,409623296,0.0156,-0.1694,-0.8726,2.26,-1.65,0.37
291,409628296,0.0171,-0.1631,-0.8647,2.07,-1.52,0.37
292,409633296,0.0210,-0.1636,-0.8696,1.89,-1.28,0.61
293,409638296,0.0166,-0.1606,-0.8735,1.95,-1.10,0.61
294,409643296,0.0151,-0.1660,-0.8760,1.71,-1.16,0.61
295,409648295,0.0186,-0.1592,-0.8760,1.71,-0.98,0.73
296,409653295,0.0396,-0.1475,-0.8735,1.77,-0.98,0.61
297,409658297,0.0337,-0.1436,-0.8735,1.65,-1.10,0.55
298,409663294,0.0479,-0.1392,-0.8789,1.71,-1.10,0.30
299,409668294,0.0269,-0.1489,-0.8809,1.83,-1.28,0.37
300,409673295,0.0386,-0.1362,-0.8809,1.95,-1.16,0.06
301,409678296,0.0537,-0.1367,-0.8779,1.95,-1.34,0.00
302,409683296,0.0444,-0.1436,-0.8765,2.01,-1.34,-0.12
303,409688296,0.0386,-0.1470,-0.8760,2.07,-1.40,-0.24
304,409693296,0.0371,-0.1562,-0.8726,2.20,-1.46,-0.43
305,409698296,0.0239,-0.1543,-0.8755,2.20,-1.52,-0.49
306,409703296,0.0195,-0.1631,-0.8735,2.44,-1.52,-0.49
307,409708296,0.0215,-0.1592,-0.8794,2.44,-1.52,-0.43
308,409713296,0.0190,-0.1636,-0.8735,2.38,-1.59,-0.43
309,409718296,0.0454,-0.1577,-0.8711,2.44,-1.52,-0.37
310,409723296,0.0498,-0.1636,-0.8740,2.50,-1.59,-0.24
311,409728296,0.0356,-0.1655,-0.8774,2.38,-1.65,-0.18
312,409733296,0.0347,-0.1665,-0.8716,2.44,-1.46,0.00
313,409738296,0.0503,-0.1650,-0.8726,2.38,-1.59,0.12
314,409743851,0.0503,-0.1709,-0.8794,2.38,-1.65,0.30
315,409748295,0.0449,-0.1729,-0.8784,2.26,-1.65,0.49
316,409753295,0.0293,-0.1748,-0.8770,2.26,-1.83,0.79
317,409758294,0.0288,-0.1738,-0.8789,2.38,-1.77,0.91
318,409763294,0.0288,-0.1733,-0.8770,2.44,-1.77,1.10
319,409768294,0.0435,-0.1704,-0.8735,2.44,-1.83,1.40
320,409773294,0.0527,-0.1655,-0.8701,2.32,-1.77,1.40
321,409778592,0.0518,-0.1655,-0.8779,2.38,-1.71,1.59
322,409783928,0.0488,-0.1636,-0.8726,2.32,-1.65,1.59
323,409788297,0.0371,-0.1641,-0.8672,2.32,-1.65,1.77
324,409793296,0.0239,-0.1611,-0.8633,2.38,-1.59,1.83
325,409798296,0.0420,-0.1362,-0.8682,2.32,-1.46,1.65
326,409803296,0.0464,-0.1270,-0.8545,2.20,-1.34,1.52
327,409808296,0.0376,-0.1128,-0.8472,2.07,-0.98,1.04
328,409813296,0.0601,-0.1030,-0.8398,2.01,-0.79,0.49
329,409818295,0.0542,-0.1157,-0.8452,1.71,-0.37,-0.18
330,409823769,0.0435,-0.1274,-0.8574,1.46,0.00,-0.61
331,409828296,0.0366,-0.1465,-0.8696,1.22,0.37,-0.79
332,409833296,0.0264,-0.1538,-0.8799,0.98,0.61,-0.91
333,409838296,0.0234,-0.1587,-0.8813,0.49,0.67,-1.10
334,409843590,0.0151,-0.1606,-0.8813,0.18,0.79,-0.98
335,409848296,0.0117,-0.1689,-0.8848,0.06,0.91,-1.04
336,409853296,0.0103,-0.1758,-0.8828,0.06,0.79,-0.98
337,409858296,0.0308,-0.1772,-0.8882,-0.06,0.85,-0.73
338,409863298,0.0054,-0.1909,-0.8906,0.00,0.55,-0.30
339,409868296,0.0132,-0.1875,-0.8970,-0.06,0.43,0.12
340,409873296,0.0381,-0.1836,-0.8901,0.12,0.06,0.67
341,409878296,0.0425,-0.1846,-0.9004,0.30,-0.30,0.85
342,409883296,0.0234,-0.1934,-0.9038,0.67,-0.73,1.40
343,409888296,0.0283,-0.1929,-0.9038,1.28,-1.28,1.89
344,409893296,0.0288,-0.1875,-0.8994,1.71,-1.52,2.32
345,409898296,0.0391,-0.1846,-0.8955,2.07,-2.13,2.80
346,409903295,0.0469,-0.1763,-0.8994,2.50,-2.44,3.29
347,409908385,0.0527,-0.1689,-0.8970,2.74,-2.87,3.60
348,409913406,0.0469,-0.1592,-0.8867,3.17,-3.11,3.78
349,409918297,0.0396,-0.1533,-0.8774,3.48,-3.23,3.90
350,409923372,0.0186,-0.1562,-0.8696,3.60,-3.41,4.02
351,409928295,0.0200,-0.1411,-0.8677,3.78,-3.48,3.78
352,409933296,0.0342,-0.1348,-0.8560,3.72,-3.35,3.60
353,409938475,0.0161,-0.1406,-0.8584,3.78,-3.29,3.29
354,409943296,0.0298,-0.1274,-0.8594,3.54,-2.99,2.99
355,409948295,0.0103,-0.1338,-0.8452,3.41,-2.68,2.62
356,409953295,0.0269,-0.1196,-0.8462,3.17,-2.38,2.13
357,409958294,0.0181,-0.1299,-0.8477,2.80,-1.89,1.71
358,409963294,0.0112,-0.1294,-0.8457,2.38,-1.34,1.34
359,409968294,0.0083,-0.1377,-0.8511,2.01,-0.91,0.91
360,409973294,0.0269,-0.1411,-0.8521,1.59,-0.43,0.73
361,409978294,0.0088,-0.1509,-0.8652,1.16,-0.06,0.49
362,409983296,0.0244,-0.1558,-0.8691,0.85,0.24,0.30
363,409988366,0.0190,-0.1602,-0.8740,0.55,0.43,0.37
364,409993296,0.0327,-0.1641,-0.8882,0.30,0.30,0.43
365,409998296,0.0161,-0.1714,-0.9038,0.30,0.12,0.67
366,410003296,0.0425,-0.1665,-0.8965,0.43,0.12,0.73
367,410008296,0.0293,-0.1802,-0.8994,0.61,-0.30,0.98
368,410013295,0.0308,-0.1763,-0.8999,1.10,-0.98,1.28
369,410018296,0.0415,-0.1719,-0.8940,1.59,-1.46,1.52
370,410023407,0.0269,-0.1777,-0.8979,2.01,-1.95,1.89
371,410028296,0.0376,-0.1694,-0.8960,2.44,-2.56,2.20
372,410033296,0.0405,-0.1694,-0.8896,3.11,-3.05,2.44
373,410038296,0.0234,-0.1675,-0.8843,3.60,-3.41,2.68
374,410043296,0.0410,-0.1597,-0.8760,4.02,-3.72,2.93
375,410048296,0.0107,-0.1587,-0.8696,4.39,-3.90,2.87
376,410053296,0.0205,-0.1465,-0.8706,4.51,-3.96,2.87
377,410058296,0.0156,-0.1421,-0.8687,4.57,-3.90,2.74
378,410063296,0.0117,-0.1357,-0.8623,4.76,-3.84,2.68
379,410068297,0.0137,-0.1338,-0.8564,4.63,-3.78,2.26
380,410073296,-0.0054,-0.1343,-0.8540,4.39,-3.35,1.89
381,410078296,0.0117,-0.1221,-0.8481,4.09,-2.93,1.52
382,410083296,0.0161,-0.1309,-0.8442,3.72,-2.32,1.10
383,410088296,0.0381,-0.1372,-0.8433,3.29,-1.95,0.91
384,410093297,0.0215,-0.1528,-0.8447,2.80,-1.34,0.61
385,410098296,0.0117,-0.1479,-0.8486,2.32,-0.67,0.55
386,410103296,0.0156,-0.1626,-0.8530,1.83,-0.12,0.49
387,410108296,0.0000,-0.1675,-0.8599,1.34,0.37,0.49
388,410113321,0.0234,-0.1694,-0.8667,0.91,0.49,0.73
389,410118296,0.0015,-0.1841,-0.8721,0.61,0.91,0.85
390,410123297,0.0151,-0.1855,-0.8843,0.24,1.10,1.16
391,410128296,0.0376,-0.1841,-0.8813,0.24,1.22,1.52
392,410133296,0.0371,-0.1904,-0.8901,0.24,1.04,1.89
393,410138297,0.0215,-0.1890,-0.8906,0.43,0.85,2.32
394,410143296,0.0054,-0.1855,-0.8936,0.55,0.55,2.68
395,410148296,0.0176,-0.1758,-0.8994,0.91,0.06,3.05
396,410153678,0.0264,-0.1685,-0.8931,1.22,-0.43,3.29
397,410158295,0.0483,-0.1655,-0.8950,1.71,-0.79,3.54
398,410163295,0.0420,-0.1650,-0.8931,2.13,-1.22,3.72
399,410168294,0.0146,-0.1626,-0.8989,2.44,-1.65,3.78
400,410173294,0.0176,-0.1543,-0.8916,2.87,-2.13,3.90
401,410178294,0.0166,-0.1450,-0.8896,3.41,-2.38,3.84
402,410183345,0.0146,-0.1362,-0.8853,3.54,-2.80,3.72
403,410188296,0.0254,-0.1284,-0.8818,3.84,-3.05,3.54
404,410193295,0.0361,-0.1255,-0.8745,4.02,-3.11,3.29
405,410198298,0.0498,-0.1299,-0.8730,4.15,-3.35,3.05
406,410203296,0.0479,-0.1279,-0.8647,4.27,-3.48,2.74
407,410208296,0.0415,-0.1328,-0.8677,4.39,-3.35,2.50
408,410213296,0.0249,-0.1382,-0.8604,4.15,-3.23,2.26
409,410218296,0.0210,-0.1445,-0.8613,4.02,-2.93,2.20
410,410223296,0.0391,-0.1411,-0.8540,3.78,-2.87,2.01
411,410228295,0.0381,-0.1406,-0.8569,3.54,-2.44,1.83
412,410233296,0.0278,-0.1440,-0.8584,3.29,-2.13,1.65
413,410238296,0.0044,-0.1450,-0.8569,2.99,-1.71,1.52
414,410243295,0.0112,-0.1387,-0.8535,2.56,-1.46,1.28
415,410248294,0.0186,-0.1338,-0.8638,2.32,-0.98,1.10
416,410253295,0.0273,-0.1411,-0.8652,2.13,-0.85,0.91
417,410258296,0.0415,-0.1440,-0.8691,1.89,-0.67,0.67
418,410263294,0.0474,-0.1401,-0.8662,1.95,-0.43,0.55
419,410268294,0.0273,-0.1514,-0.8740,1.89,-0.37,0.55
420,410273296,0.0273,-0.1558,-0.8833,2.01,-0.43,0.43
421,410278296,0.0308,-0.1519,-0.8760,2.26,-0.85,0.55
422,410283294,0.0322,-0.1499,-0.8818,2.44,-0.98,0.55
423,410288294,0.0459,-0.1475,-0.8853,2.74,-1.22,0.55
424,410293294,0.0410,-0.1519,-0.8926,2.93,-1.46,0.49
425,410298294,0.0332,-0.1592,-0.8970,3.23,-1.89,0.55
426,410303294,0.0308,-0.1543,-0.8926,3.48,-2.20,0.61
427,410308294,0.0239,-0.1562,-0.8940,3.96,-2.50,0.55
428,410313294,0.0127,-0.1582,-0.8818,4.33,-2.87,0.61
429,410318294,0.0117,-0.1514,-0.8926,4.63,-3.17,0.55
430,410323294,0.0244,-0.1455,-0.8848,4.88,-3.54,0.49
431,410328294,0.0332,-0.1445,-0.8853,5.24,-3.78,0.24
432,410333294,0.0269,-0.1431,-0.8755,5.30,-4.02,0.12
433,410338294,0.0093,-0.1514,-0.8823,5.49,-4.27,0.00
434,410343294,-0.0005,-0.1538,-0.8809,5.49,-4.45,-0.30
435,410348294,0.0103,-0.1514,-0.8789,5.49,-4.39,-0.37
436,410353294,0.0303,-0.1509,-0.8760,5.43,-4.51,-0.43
437,410358294,0.0107,-0.1587,-0.8823,5.30,-4.51,-0.43
438,410363294,0.0161,-0.1592,-0.8696,5.12,-4.39,-0.55
439,410368294,0.0303,-0.1597,-0.8716,4.76,-4.27,-0.49
440,410373570,0.0391,-0.1626,-0.8662,4.39,-3.96,-0.30
441,410378298,0.0361,-0.1680,-0.8638,4.02,-3.60,-0.30
442,410383339,0.0283,-0.1748,-0.8638,3.84,-3.17,-0.12
443,410388298,0.0239,-0.1733,-0.8574,3.48,-2.87,0.00
444,410393347,0.0283,-0.1719,-0.8545,3.23,-2.38,0.06
445,410398401,0.0195,-0.1763,-0.8589,2.99,-2.07,0.30
446,410403490,0.0288,-0.1719,-0.8604,2.74,-1.71,0.24
447,410408375,0.0273,-0.1733,-0.8628,2.50,-1.46,0.55
448,410413396,0.0381,-0.1724,-0.8618,2.38,-1.22,0.73
449,410418294,0.0352,-0.1733,-0.8677,2.13,-1.10,0.79
450,410423614,0.0137,-0.1768,-0.8716,2.07,-0.85,1.04
451,410428296,0.0244,-0.1641,-0.8721,1.95,-0.73,1.10
452,410433498,0.0366,-0.1660,-0.8770,1.83,-0.55,1.16
453,410438379,0.0137,-0.1719,-0.8784,1.77,-0.61,1.34
454,410443332,0.0132,-0.1616,-0.8828,1.77,-0.67,1.40
455,410448378,0.0269,-0.1558,-0.8862,1.77,-0.91,1.40
456,410453373,0.0312,-0.1572,-0.8867,1.83,-0.98,1.46
457,410458297,0.0190,-0.1567,-0.8848,2.01,-1.10,1.46
458,410463295,0.0342,-0.1538,-0.8862,2.07,-1.46,1.40
459,410468296,0.0278,-0.1470,-0.8994,2.26,-1.65,1.28
460,410473472,0.0259,-0.1587,-0.8979,2.32,-2.13,1.28
461,410478382,0.0059,-0.1650,-0.8779,2.62,-2.26,1.28
462,410483411,0.0283,-0.1519,-0.8853,2.74,-2.50,1.22
463,410488491,0.0308,-0.1562,-0.8877,2.93,-2.68,1.04
464,410493317,0.0137,-0.1631,-0.8906,3.05,-2.99,1.10
465,410498778,0.0239,-0.1558,-0.8760,3.29,-3.11,1.10
466,410503296,0.0371,-0.1548,-0.8740,3.35,-3.05,1.10
467,410508296,0.0156,-0.1646,-0.8799,3.48,-3.05,1.10
468,410513301,0.0186,-0.1602,-0.8687,3.35,-3.17,1.10
469,410518296,0.0366,-0.1577,-0.8608,3.35,-3.05,1.16
470,410523296,0.0293,-0.1597,-0.8735,3.48,-3.11,1.22
471,410528296,0.0093,-0.1704,-0.8691,3.35,-2.99,1.16
472,410533298,0.0088,-0.1655,-0.8613,3.35,-2.68,1.28
473,410538294,0.0142,-0.1636,-0.8657,3.29,-2.62,1.34
474,410543294,0.0244,-0.1592,-0.8696,3.17,-2.56,1.40
475,410548294,0.0356,-0.1572,-0.8662,2.99,-2.38,1.34
476,410553294,0.0317,-0.1592,-0.8740,2.68,-2.20,1.52
477,410558294,0.0171,-0.1577,-0.8765,2.44,-2.01,1.46
478,410563295,0.0010,-0.1641,-0.8726,2.32,-1.83,1.46
479,410568294,0.0068,-0.1616,-0.8735,2.13,-1.71,1.46
480,410573296,0.0073,-0.1611,-0.8794,1.71,-1.71,1.46
481,410578296,-0.0010,-0.1641,-0.8765,1.65,-1.52,1.40
482,410583296,0.0078,-0.1582,-0.8794,1.34,-1.65,1.34
483,410588296,0.0166,-0.1538,-0.8804,1.10,-1.52,1.16
484,410593296,0.0005,-0.1606,-0.8770,0.98,-1.52,1.10
485,410598756,-0.0049,-0.1562,-0.8735,0.98,-1.46,0.85
486,410603296,-0.0059,-0.1587,-0.8784,0.91,-1.28,1.04
487,410608296,0.0054,-0.1636,-0.8779,0.98,-1.40,0.85
488,410613301,0.0146,-0.1562,-0.8696,0.98,-1.34,0.73
489,410618296,0.0181,-0.1587,-0.8735,0.91,-1.46,0.73
490,410623296,0.0171,-0.1602,-0.8696,1.10,-1.65,0.61
491,410628296,0.0107,-0.1650,-0.8740,1.22,-1.46,0.61
492,410633296,0.0142,-0.1626,-0.8745,1.28,-1.59,0.67
493,410638296,0.0137,-0.1626,-0.8755,1.46,-1.65,0.61
494,410643296,0.0146,-0.1602,-0.8740,1.59,-1.52,0.55
495,410648296,0.0337,-0.1562,-0.8730,1.65,-1.65,0.55
496,410653296,0.0332,-0.1660,-0.8667,1.71,-1.71,0.55
497,410658296,0.0430,-0.1562,-0.8687,1.52,-1.71,0.67
498,410663296,0.0454,-0.1572,-0.8716,1.65,-1.65,0.67
499,410668295,0.0400,-0.1519,-0.8760,1.71,-1.52,0.73
500,410673294,0.0454,-0.1558,-0.8750,1.52,-1.40,0.85
501,410678294,0.0200,-0.1621,-0.8682,1.52,-1.46,0.91
502,410683294,0.0269,-0.1611,-0.8633,1.34,-1.22,0.91
503,410688294,0.0503,-0.1553,-0.8667,1.28,-1.16,0.91
504,410693455,0.0259,-0.1670,-0.8745,1.10,-0.98,1.22
505,410698297,0.0225,-0.1675,-0.8735,1.04,-0.67,1.16
506,410703295,0.0366,-0.1646,-0.8643,0.79,-0.67,1.28
507,410708296,0.0566,-0.1606,-0.8672,0.91,-0.73,1.40
508,410713294,0.0347,-0.1685,-0.8730,0.85,-0.55,1.46
509,410718296,0.0474,-0.1572,-0.8672,0.85,-0.49,1.52
510,410723296,0.0288,-0.1626,-0.8711,0.61,-0.37,1.59
511,410728296,0.0400,-0.1606,-0.8667,0.73,-0.24,1.71
512,410733295,0.0503,-0.1602,-0.8706,0.67,-0.12,1.89
513,410738332,0.0474,-0.1602,-0.8711,0.67,-0.06,2.01
514,410743295,0.0415,-0.1641,-0.8721,0.79,-0.06,2.07
515,410748296,0.0146,-0.1533,-0.8755,0.73,-0.12,2.01
516,410753294,0.0371,-0.1523,-0.8716,0.79,-0.06,2.13
517,410758296,0.0146,-0.1558,-0.8799,0.79,-0.12,2.13
518,410763296,0.0415,-0.1528,-0.8740,0.73,-0.18,2.26
519,410768780,0.0278,-0.1582,-0.8750,0.85,-0.24,2.01
520,410773296,0.0474,-0.1548,-0.8789,0.91,-0.37,2.13
521,410778296,0.0483,-0.1621,-0.8726,0.98,-0.37,2.26
522,410783297,0.0342,-0.1694,-0.8799,0.98,-0.37,2.26
523,410788299,0.0562,-0.1631,-0.8770,1.10,-0.43,2.56
524,410793296,0.0435,-0.1709,-0.8794,1.10,-0.49,2.74
525,410798296,0.0308,-0.1738,-0.8730,1.22,-0.49,2.93
526,410803296,0.0508,-0.1665,-0.8774,1.28,-0.55,3.11
527,410808296,0.0566,-0.1636,-0.8730,1.22,-0.49,3.41
528,410813296,0.0283,-0.1733,-0.8750,1.28,-0.43,3.66
529,410818698,0.0337,-0.1719,-0.8696,1.34,-0.37,3.90
530,410823296,0.0479,-0.1719,-0.8662,1.34,-0.37,4.27
531,410828296,0.0400,-0.1763,-0.8701,1.34,-0.30,4.51
532,410833296,0.0342,-0.1694,-0.8618,1.22,-0.24,4.70
533,410838296,0.0381,-0.1665,-0.8677,1.34,0.00,4.88
534,410843296,0.0527,-0.1558,-0.8652,1.46,0.30,5.18
535,410848296,0.0527,-0.1675,-0.8677,1.40,0.24,5.30
536,410853296,0.0498,-0.1650,-0.8740,1.40,0.49,5.49
537,410858723,0.0337,-0.1699,-0.8711,1.40,0.49,5.61
538,410863296,0.0273,-0.1572,-0.8691,1.28,0.55,5.67
539,410868297,0.0322,-0.1519,-0.8730,1.28,0.55,5.79
540,410873296,0.0400,-0.1421,-0.8711,1.22,0.73,5.79
541,410878295,0.0439,-0.1484,-0.8740,1.34,0.73,5.73
542,410883296,0.0195,-0.1489,-0.8765,1.22,0.67,5.79
543,410888295,0.0171,-0.1470,-0.8843,1.28,0.67,5.67
544,410893294,0.0112,-0.1455,-0.8784,1.22,0.67,5.55
545,410898294,0.0098,-0.1440,-0.8867,1.52,0.43,5.49
546,410903294,0.0220,-0.1479,-0.8896,1.77,0.37,5.30
547,410908294,0.0176,-0.1460,-0.8867,1.89,0.12,5.18
548,410913296,0.0103,-0.1431,-0.8882,1.95,-0.12,5.00
549,410918297,0.0303,-0.1328,-0.8838,2.07,-0.55,4.82
550,410923296,0.0181,-0.1367,-0.8887,2.32,-0.79,4.57
551,410928296,0.0029,-0.1362,-0.8857,2.62,-1.04,4.45
552,410933296,0.0044,-0.1392,-0.8818,2.93,-1.10,4.21
553,410938296,0.0215,-0.1250,-0.8813,3.05,-1.52,3.78
554,410943296,0.0049,-0.1396,-0.8882,3.41,-1.71,3.60
555,410948296,0.0024,-0.1265,-0.8867,3.66,-2.01,3.41
556,410953296,0.0254,-0.1294,-0.8901,3.78,-2.38,3.05
557,410958475,0.0195,-0.1299,-0.8804,3.96,-2.44,2.93
558,410963514,-0.0024,-0.1382,-0.8774,3.96,-2.74,2.50
559,410968615,0.0210,-0.1309,-0.8804,4.02,-2.93,2.20
560,410973715,0.0190,-0.1396,-0.8789,4.02,-2.93,1.95
561,410978296,0.0044,-0.1421,-0.8750,4.02,-3.05,1.77
562,410983296,0.0210,-0.1382,-0.8735,4.09,-2.99,1.46
563,410988460,0.0146,-0.1377,-0.8833,4.15,-2.99,1.22
564,410993296,0.0298,-0.1377,-0.8809,4.02,-3.23,1.10
565,410998513,0.0146,-0.1401,-0.8711,3.96,-3.11,0.79
566,411003385,0.0215,-0.1343,-0.8726,4.02,-3.05,0.61
567,411008295,0.0337,-0.1328,-0.8730,3.90,-2.87,0.43
568,411013621,0.0249,-0.1421,-0.8745,3.78,-2.93,0.00
569,411018311,0.0283,-0.1436,-0.8721,3.66,-2.87,-0.06
570,411023295,0.0107,-0.1484,-0.8687,3.66,-2.80,-0.37
571,411028296,0.0083,-0.1533,-0.8701,3.48,-2.56,-0.30
572,411033296,0.0239,-0.1455,-0.8701,3.17,-2.50,-0.43
573,411038296,0.0312,-0.1514,-0.8750,3.17,-2.44,-0.43
574,411043296,0.0200,-0.1597,-0.8682,3.05,-2.38,-0.37
575,411048296,0.0098,-0.1631,-0.8706,2.99,-2.32,-0.55
576,411053297,-0.0034,-0.1714,-0.8745,2.87,-2.07,-0.37
577,411058296,-0.0083,-0.1743,-0.8799,2.68,-1.95,-0.37
578,411063296,0.0000,-0.1738,-0.8701,2.68,-2.13,-0.30
579,411068296,0.0195,-0.1699,-0.8711,2.62,-2.07,-0.06
580,411073296,0.0098,-0.1738,-0.8701,2.74,-2.07,0.06
581,411078295,0.0269,-0.1704,-0.8682,2.68,-2.01,0.30
582,411083295,0.0063,-0.1768,-0.8770,2.80,-1.89,0.67
583,411088294,-0.0015,-0.1719,-0.8711,2.68,-1.95,0.79
584,411093294,0.0063,-0.1719,-0.8726,2.68,-1.95,0.91
585,411098294,0.0215,-0.1611,-0.8760,2.80,-1.83,1.16
586,411103636,-0.0039,-0.1694,-0.8745,2.62,-1.83,1.28
587,411108297,0.0210,-0.1572,-0.8740,2.56,-1.77,1.40
588,411113770,0.0098,-0.1626,-0.8779,2.68,-1.83,1.46
589,411118296,0.0171,-0.1597,-0.8784,2.68,-1.83,1.34
590,411123298,0.0137,-0.1631,-0.8765,2.68,-1.89,1.59
591,411128296,0.0151,-0.1562,-0.8696,2.68,-1.95,1.46
592,411133296,0.0137,-0.1602,-0.8740,2.80,-2.01,1.46
593,411138296,0.0054,-0.1582,-0.8701,2.80,-1.95,1.46
594,411143295,0.0200,-0.1587,-0.8735,2.68,-1.95,1.46
595,411148316,0.0151,-0.1582,-0.8647,2.87,-1.95,1.46
596,411153294,0.0112,-0.1626,-0.8750,2.93,-1.95,1.52
597,411158294,0.0142,-0.1548,-0.8706,2.93,-1.89,1.59
598,411163294,0.0298,-0.1567,-0.8735,2.99,-1.83,1.52
599,411168294,0.0127,-0.1655,-0.8745,2.80,-1.83,1.59
600,411173295,0.0078,-0.1631,-0.8706,2.80,-1.71,1.71
601,411178297,0.0269,-0.1572,-0.8677,2.74,-1.59,1.59
602,411183296,0.0327,-0.1514,-0.8662,2.68,-1.71,1.71
603,411188297,0.0337,-0.1602,-0.8672,2.56,-1.65,1.77
604,411193295,0.0229,-0.1631,-0.8682,2.56,-1.65,1.83
605,411198298,0.0073,-0.1621,-0.8701,2.44,-1.34,1.71
606,411203296,0.0034,-0.1694,-0.8730,2.26,-1.28,1.95
607,411208777,0.0127,-0.1543,-0.8716,2.32,-1.16,1.89
608,411213296,0.0127,-0.1616,-0.8711,2.26,-0.98,1.95
609,411218296,0.0122,-0.1616,-0.8716,2.07,-0.98,1.89
610,411223301,0.0215,-0.1528,-0.8628,2.07,-0.79,1.89
611,411228296,0.0405,-0.1528,-0.8667,2.01,-0.85,1.95
612,411233296,0.0254,-0.1572,-0.8696,1.83,-0.73,1.89
613,411238296,0.0137,-0.1631,-0.8750,1.95,-0.73,1.95
614,411243296,0.0142,-0.1621,-0.8774,1.83,-0.67,1.95
615,411248296,0.0156,-0.1558,-0.8721,1.77,-0.43,1.95
616,411253298,0.0205,-0.1592,-0.8760,1.71,-0.30,1.95
617,411258296,0.0210,-0.1562,-0.8691,1.71,-0.43,1.89
618,411263296,0.0249,-0.1543,-0.8726,1.65,-0.30,2.01
619,411268296,0.0322,-0.1533,-0.8755,1.71,-0.30,1.95
620,411273296,0.0239,-0.1597,-0.8818,1.71,-0.37,2.07
621,411278296,0.0293,-0.1519,-0.8774,1.83,-0.37,2.07
622,411283295,0.0366,-0.1548,-0.8794,1.83,-0.49,2.07
623,411288295,0.0190,-0.1567,-0.8813,1.83,-0.49,2.07
624,411293294,0.0430,-0.1479,-0.8784,1.89,-0.55,2.01
625,411298294,0.0356,-0.1582,-0.8774,1.77,-0.67,2.01
626,411303294,0.0273,-0.1611,-0.8789,1.89,-0.67,2.07
627,411308664,0.0220,-0.1538,-0.8794,1.95,-0.73,2.01
628,411313297,0.0444,-0.1504,-0.8755,2.07,-0.73,2.13
629,411318296,0.0430,-0.1504,-0.8730,2.20,-0.85,2.20
630,411323296,0.0269,-0.1562,-0.8750,2.13,-0.85,2.20
631,411328296,0.0225,-0.1636,-0.8794,2.13,-0.91,2.20
632,411333296,0.0264,-0.1621,-0.8804,2.20,-1.04,2.20
633,411338296,0.0156,-0.1602,-0.8784,2.26,-0.98,2.13
634,411343294,0.0225,-0.1538,-0.8765,2.26,-1.04,2.20
635,411348294,0.0234,-0.1548,-0.8735,2.26,-0.98,2.26
636,411353294,0.0405,-0.1519,-0.8740,2.26,-1.16,2.26
637,411358294,0.0459,-0.1455,-0.8716,2.32,-1.04,2.32
638,411363294,0.0439,-0.1460,-0.8804,2.32,-1.16,2.32
639,411368294,0.0537,-0.1445,-0.8730,2.20,-1.16,2.20
640,411373294,0.0278,-0.1577,-0.8745,2.20,-1.16,2.20
641,411378294,0.0254,-0.1553,-0.8682,2.26,-1.16,2.13
642,411383294,0.0469,-0.1445,-0.8755,2.20,-1.22,2.20
643,411388294,0.0503,-0.1411,-0.8755,2.13,-1.22,2.01
644,411393294,0.0332,-0.1519,-0.8809,1.95,-1.22,1.89
645,411398294,0.0151,-0.1562,-0.8779,2.20,-1.16,1.95
646,411403294,0.0132,-0.1577,-0.8838,1.95,-1.10,1.83
647,411408294,0.0181,-0.1499,-0.8804,1.95,-1.22,1.83
648,411413294,0.0269,-0.1460,-0.8745,2.20,-1.28,1.65
649,411418294,0.0439,-0.1431,-0.8730,2.20,-1.40,1.52
650,411423294,0.0322,-0.1538,-0.8745,2.13,-1.34,1.52
651,411428584,0.0205,-0.1504,-0.8755,2.26,-1.28,1.52
652,411433297,0.0298,-0.1465,-0.8721,2.20,-1.28,1.40
653,411438296,0.0425,-0.1426,-0.8784,2.32,-1.40,1.34
654,411443296,0.0454,-0.1465,-0.8809,2.32,-1.46,1.16
655,411448294,0.0269,-0.1489,-0.8823,2.44,-1.40,1.16
656,411453296,0.0288,-0.1504,-0.8794,2.38,-1.59,1.04
657,411458294,0.0312,-0.1484,-0.8779,2.32,-1.65,1.04
658,411463294,0.0249,-0.1606,-0.8765,2.44,-1.89,1.16
659,411468295,0.0361,-0.1475,-0.8794,2.44,-1.89,1.16
660,411473296,0.0342,-0.1528,-0.8818,2.50,-1.89,1.04
661,411478297,0.0171,-0.1616,-0.8784,2.50,-1.89,1.16
662,411483296,0.0381,-0.1528,-0.8770,2.62,-1.89,1.16
663,411488295,0.0317,-0.1597,-0.8779,2.74,-1.89,1.22
664,411493294,0.0342,-0.1553,-0.8730,2.74,-2.01,1.22
665,411498294,0.0376,-0.1567,-0.8774,2.74,-2.01,1.34
666,411503294,0.0107,-0.1665,-0.8765,2.80,-2.01,1.34
667,411508294,0.0146,-0.1616,-0.8726,2.87,-2.13,1.40
668,411513296,0.0420,-0.1567,-0.8696,2.99,-2.07,1.46
669,411518359,0.0176,-0.1641,-0.8740,2.87,-2.07,1.52
670,411523411,0.0376,-0.1514,-0.8716,2.87,-2.07,1.59
671,411528348,0.0269,-0.1587,-0.8804,2.93,-2.01,1.65
672,411533294,0.0146,-0.1621,-0.8804,2.80,-1.95,1.65
673,411538494,0.0342,-0.1577,-0.8735,2.80,-1.95,1.77
674,411543299,0.0112,-0.1602,-0.8706,2.80,-1.89,1.77
675,411548296,0.0327,-0.1504,-0.8726,2.80,-1.83,1.77
676,411553296,0.0317,-0.1577,-0.8711,2.68,-1.71,1.77
677,411558295,0.0044,-0.1665,-0.8711,2.56,-1.77,1.77
678,411563296,0.0127,-0.1572,-0.8716,2.56,-1.59,1.83
679,411568296,0.0327,-0.1572,-0.8687,2.44,-1.59,1.71
680,411573296,0.0068,-0.1646,-0.8706,2.38,-1.46,1.89
681,411578296,0.0264,-0.1577,-0.8750,2.32,-1.28,1.89
682,411583773,0.0063,-0.1670,-0.8701,2.20,-1.40,1.89
683,411588298,0.0117,-0.1572,-0.8730,2.13,-1.16,1.89
684,411593295,0.0269,-0.1582,-0.8672,2.07,-1.16,1.95
685,411598297,0.0059,-0.1602,-0.8760,2.07,-1.10,2.01
686,411603296,0.0205,-0.1567,-0.8706,2.07,-1.04,2.13
687,411608296,0.0278,-0.1587,-0.8740,2.20,-1.10,2.01
688,411613296,0.0098,-0.1655,-0.8730,2.20,-0.98,2.07
689,411618295,0.0239,-0.1519,-0.8755,2.20,-0.98,2.20
690,411623781,0.0278,-0.1577,-0.8755,1.95,-1.04,2.26
691,411628296,0.0098,-0.1660,-0.8794,2.13,-1.10,2.20
692,411633296,0.0176,-0.1562,-0.8755,2.20,-1.10,2.26
693,411638296,0.0288,-0.1479,-0.8740,2.20,-1.22,2.32
694,411643296,0.0400,-0.1470,-0.8794,2.20,-1.22,2.20
695,411648296,0.0405,-0.1470,-0.8760,2.26,-1.22,2.32
696,411653296,0.0190,-0.1592,-0.8853,2.32,-1.34,2.26
697,411658296,0.0151,-0.1602,-0.8823,2.32,-1.46,2.13
698,411663296,0.0186,-0.1562,-0.8774,2.44,-1.52,2.20
699,411668326,0.0146,-0.1587,-0.8770,2.44,-1.52,2.20
700,411673295,0.0161,-0.1558,-0.8789,2.50,-1.65,2.07
701,411678296,0.0347,-0.1509,-0.8809,2.56,-1.71,2.07
702,411683296,0.0415,-0.1519,-0.8770,2.74,-1.77,2.01
703,411688296,0.0400,-0.1460,-0.8799,2.74,-1.71,2.07
704,411693296,0.0161,-0.1538,-0.8813,2.80,-1.89,2.01
705,411698296,0.0171,-0.1533,-0.8730,2.74,-1.89,1.95
706,411703296,0.0376,-0.1494,-0.8779,2.99,-1.95,1.95
707,411708298,0.0342,-0.1504,-0.8794,2.80,-1.89,1.95
708,411713296,0.0229,-0.1572,-0.8765,2.87,-1.89,1.89
709,411718296,0.0210,-0.1572,-0.8799,2.80,-1.89,1.83
710,411723719,0.0088,-0.1597,-0.8755,2.74,-1.83,1.83
711,411728296,0.0220,-0.1514,-0.8726,2.68,-1.71,1.71
712,411733295,0.0322,-0.1470,-0.8716,2.62,-1.77,1.77
713,411738296,0.0308,-0.1470,-0.8765,2.56,-1.71,1.83
714,411743294,0.0151,-0.1494,-0.8706,2.44,-1.59,1.59
715,411748294,0.0186,-0.1553,-0.8735,2.38,-1.46,1.65
716,411753294,0.0278,-0.1553,-0.8730,2.38,-1.34,1.52
717,411758294,0.0278,-0.1558,-0.8760,2.32,-1.52,1.59
718,411763294,0.0112,-0.1592,-0.8687,2.26,-1.34,1.52
719,411768294,0.0142,-0.1592,-0.8750,2.20,-1.34,1.40
720,411773295,0.0171,-0.1582,-0.8726,2.20,-1.28,1.40
721,411778296,0.0093,-0.1606,-0.8716,2.20,-1.22,1.40
722,411783300,0.0093,-0.1636,-0.8706,2.13,-1.22,1.46
723,411788296,0.0127,-0.1606,-0.8765,2.13,-1.16,1.46
724,411793295,0.0142,-0.1582,-0.8789,2.13,-1.22,1.59
725,411798294,0.0361,-0.1543,-0.8740,2.20,-1.16,1.59
726,411803294,0.0337,-0.1641,-0.8765,2.13,-1.16,1.71
727,411808294,0.0249,-0.1626,-0.8794,2.20,-1.16,1.59
728,411813294,0.0137,-0.1660,-0.8726,2.32,-1.22,1.77
729,411818500,0.0269,-0.1592,-0.8755,2.38,-1.22,1.77
730,411823297,0.0469,-0.1543,-0.8794,2.20,-1.22,1.89
731,411828295,0.0439,-0.1543,-0.8813,2.38,-1.22,1.95
732,411833296,0.0454,-0.1489,-0.8809,2.50,-1.34,2.01
733,411838296,0.0449,-0.1533,-0.8818,2.56,-1.40,2.07
734,411843296,0.0352,-0.1533,-0.8789,2.50,-1.34,2.07
735,411848296,0.0332,-0.1533,-0.8784,2.44,-1.40,2.07
736,411853296,0.0337,-0.1538,-0.8779,2.56,-1.52,2.07
737,411858526,0.0337,-0.1528,-0.8779,2.50,-1.46,1.95
738,411863759,0.0239,-0.1528,-0.8721,2.44,-1.59,1.95
739,411868296,0.0137,-0.1592,-0.8823,2.44,-1.59,1.83
740,411873296,0.0117,-0.1567,-0.8774,2.44,-1.46,1.83
741,411878387,0.0181,-0.1548,-0.8745,2.56,-1.59,1.77
742,411883644,0.0195,-0.1519,-0.8750,2.50,-1.59,1.77
743,411888296,0.0308,-0.1479,-0.8701,2.56,-1.59,1.65
744,411893296,0.0186,-0.1514,-0.8745,2.56,-1.52,1.77
745,411898296,0.0156,-0.1538,-0.8755,2.44,-1.52,1.65
746,411903296,0.0361,-0.1538,-0.8735,2.38,-1.40,1.65
747,411908296,0.0254,-0.1577,-0.8740,2.32,-1.28,1.65
748,411913297,0.0142,-0.1582,-0.8730,2.32,-1.16,1.59
749,411918764,0.0371,-0.1553,-0.8701,2.26,-1.10,1.71
750,411923296,0.0220,-0.1641,-0.8740,2.26,-1.10,1.71
751,411928296,0.0356,-0.1528,-0.8730,2.13,-1.04,1.77
752,411933296,0.0347,-0.1562,-0.8730,2.13,-0.98,1.83
753,411938296,0.0205,-0.1611,-0.8735,2.13,-1.16,1.89
754,411943296,0.0454,-0.1494,-0.8721,2.13,-1.10,1.95
755,411948297,0.0449,-0.1543,-0.8784,2.13,-1.04,1.95
756,411953296,0.0381,-0.1567,-0.8779,2.07,-1.10,2.01
757,411958296,0.0347,-0.1567,-0.8799,2.20,-1.16,2.13
758,411963296,0.0288,-0.1582,-0.8833,2.20,-1.16,1.95
759,411968296,0.0103,-0.1592,-0.8813,2.26,-1.46,2.01
760,411973296,0.0176,-0.1543,-0.8794,2.44,-1.40,2.01
761,411978294,0.0332,-0.1479,-0.8809,2.44,-1.34,1.95
762,411983294,0.0229,-0.1475,-0.8789,2.38,-1.40,2.01
763,411988296,0.0166,-0.1489,-0.8760,2.50,-1.52,1.89
764,411993296,0.0112,-0.1562,-0.8799,2.56,-1.65,1.77
765,411998297,0.0098,-0.1567,-0.8828,2.62,-1.71,1.77
766,412003295,0.0142,-0.1592,-0.8755,2.74,-1.71,1.71
767,412008294,0.0073,-0.1616,-0.8799,2.74,-1.89,1.65
768,412013294,0.0239,-0.1543,-0.8687,2.68,-1.83,1.71
769,412018294,0.0308,-0.1528,-0.8760,2.68,-1.89,1.65
770,412023295,0.0137,-0.1582,-0.8711,2.68,-1.89,1.65
771,412028297,0.0146,-0.1592,-0.8745,2.68,-1.83,1.65
772,412033296,0.0190,-0.1572,-0.8716,2.56,-1.77,1.65
773,412038296,0.0400,-0.1509,-0.8779,2.68,-1.77,1.71
774,412043295,0.0254,-0.1577,-0.8813,2.62,-1.65,1.71
775,412048294,0.0234,-0.1606,-0.8765,2.50,-1.65,1.77
776,412053294,0.0137,-0.1641,-0.8721,2.50,-1.65,1.71
777,412058294,0.0107,-0.1611,-0.8750,2.50,-1.52,1.83
778,412063296,0.0249,-0.1533,-0.8740,2.44,-1.34,1.71
779,412068296,0.0410,-0.1504,-0.8701,2.38,-1.34,1.89
780,412073296,0.0347,-0.1558,-0.8721,2.32,-1.28,1.83
781,412078296,0.0312,-0.1572,-0.8750,2.26,-1.28,1.89
782,412083295,0.0312,-0.1553,-0.8735,2.32,-1.28,1.89
783,412088296,0.0122,-0.1602,-0.8774,2.26,-1.34,1.77
784,412093296,0.0249,-0.1489,-0.8706,2.26,-1.22,1.89
785,412098295,0.0420,-0.1450,-0.8735,2.26,-1.34,1.89
786,412103299,0.0337,-0.1499,-0.8794,2.38,-1.34,1.83
787,412108296,0.0386,-0.1538,-0.8872,2.38,-1.34,1.89
788,412113318,0.0249,-0.1582,-0.8838,2.38,-1.22,1.83
789,412118297,0.0117,-0.1626,-0.8828,2.32,-1.34,1.89
790,412123297,0.0190,-0.1548,-0.8770,2.38,-1.34,1.89
791,412128296,0.0166,-0.1523,-0.8774,2.38,-1.28,1.83
792,412133296,0.0244,-0.1558,-0.8735,2.50,-1.40,1.89
793,412138296,0.0254,-0.1519,-0.8760,2.44,-1.34,1.83
794,412143297,0.0337,-0.1519,-0.8804,2.50,-1.28,1.95
795,412148299,0.0264,-0.1548,-0.8823,2.44,-1.52,1.77
796,412153296,0.0435,-0.1460,-0.8833,2.50,-1.59,1.83
797,412158296,0.0293,-0.1558,-0.8711,2.62,-1.71,1.89
798,412163296,0.0156,-0.1582,-0.8823,2.56,-1.52,1.77
799,412168296,0.0430,-0.1489,-0.8730,2.50,-1.65,1.77
800,412173295,0.0244,-0.1567,-0.8774,2.62,-1.71,1.77
801,412178296,0.0195,-0.1548,-0.8774,2.56,-1.65,1.77
802,412183296,0.0400,-0.1519,-0.8726,2.62,-1.65,1.83
803,412188296,0.0259,-0.1602,-0.8760,2.56,-1.59,1.95
804,412193295,0.0127,-0.1606,-0.8740,2.62,-1.59,1.77
805,412198299,0.0078,-0.1592,-0.8706,2.56,-1.59,1.65
806,412203296,0.0098,-0.1597,-0.8730,2.50,-1.52,1.77
807,412208295,0.0122,-0.1587,-0.8652,2.62,-1.52,1.83
808,412213295,0.0254,-0.1582,-0.8687,2.44,-1.40,1.83
809,412218294,0.0156,-0.1572,-0.8721,2.44,-1.40,1.89
810,412223294,0.0347,-0.1548,-0.8701,2.56,-1.34,1.83
811,412228492,0.0186,-0.1592,-0.8721,2.44,-1.40,1.89
812,412233296,0.0322,-0.1543,-0.8789,2.26,-1.40,1.89
813,412238296,0.0137,-0.1606,-0.8774,2.32,-1.28,1.83
814,412243296,0.0342,-0.1514,-0.8716,2.32,-1.22,1.89
815,412248296,0.0166,-0.1577,-0.8779,2.26,-1.28,1.83
816,412253296,0.0347,-0.1504,-0.8677,2.13,-1.34,1.83
817,412258296,0.0229,-0.1558,-0.8784,2.32,-1.22,1.83
818,412263296,0.0220,-0.1543,-0.8745,2.07,-1.22,1.83
819,412268605,0.0293,-0.1484,-0.8711,2.26,-1.28,1.83
820,412273420,0.0352,-0.1504,-0.8682,2.13,-1.34,1.83
821,412278522,0.0430,-0.1465,-0.8740,2.32,-1.34,1.77
822,412283296,0.0469,-0.1450,-0.8750,2.32,-1.40,1.71
823,412288296,0.0288,-0.1523,-0.8730,2.38,-1.46,1.65
824,412293296,0.0220,-0.1514,-0.8750,2.38,-1.52,1.71
825,412298296,0.0327,-0.1479,-0.8789,2.38,-1.59,1.71
826,412303296,0.0386,-0.1553,-0.8828,2.50,-1.52,1.65
827,412308989,0.0132,-0.1577,-0.8799,2.56,-1.71,1.65
828,412313700,0.0317,-0.1509,-0.8726,2.44,-1.71,1.65
829,412318296,0.0415,-0.1519,-0.8770,2.50,-1.65,1.59
830,412323296,0.0347,-0.1543,-0.8760,2.50,-1.59,1.59
831,412328296,0.0337,-0.1582,-0.8789,2.62,-1.65,1.71
832,412333296,0.0259,-0.1592,-0.8755,2.44,-1.71,1.65
833,412338297,0.0337,-0.1519,-0.8799,2.38,-1.59,1.59
834,412343294,0.0332,-0.1582,-0.8765,2.50,-1.59,1.71
835,412348294,0.0303,-0.1562,-0.8735,2.32,-1.71,1.65
836,412353294,0.0415,-0.1470,-0.8711,2.38,-1.65,1.71
837,412358294,0.0425,-0.1519,-0.8696,2.38,-1.52,1.71
838,412363294,0.0352,-0.1553,-0.8760,2.32,-1.71,1.71
839,412368296,0.0249,-0.1538,-0.8711,2.38,-1.65,1.77
840,412373295,0.0200,-0.1553,-0.8740,2.32,-1.59,1.77
841,412378296,0.0264,-0.1538,-0.8755,2.26,-1.65,1.77
842,412383294,0.0308,-0.1548,-0.8682,2.32,-1.59,1.95
843,412388294,0.0181,-0.1577,-0.8716,2.26,-1.65,1.83
844,412393295,0.0249,-0.1587,-0.8706,2.20,-1.71,1.83
845,412398294,0.0366,-0.1528,-0.8706,2.32,-1.59,2.01
846,412403294,0.0371,-0.1538,-0.8716,2.32,-1.59,2.07
847,412408294,0.0283,-0.1611,-0.8691,2.32,-1.71,2.07
848,412413294,0.0298,-0.1602,-0.8706,2.26,-1.59,2.07
849,412418294,0.0200,-0.1587,-0.8730,2.32,-1.65,2.13
850,412423294,0.0244,-0.1538,-0.8682,2.26,-1.71,2.13
851,412428294,0.0239,-0.1562,-0.8755,2.44,-1.52,2.13
852,412433294,0.0107,-0.1597,-0.8716,2.32,-1.59,2.26
853,412438294,0.0176,-0.1538,-0.8745,2.44,-1.71,2.01
854,412443294,0.0415,-0.1431,-0.8745,2.38,-1.59,2.07
855,412448294,0.0249,-0.1562,-0.8779,2.38,-1.59,2.20
856,412453294,0.0146,-0.1577,-0.8774,2.38,-1.65,2.20
857,412458294,0.0054,-0.1567,-0.8774,2.56,-1.59,2.20
858,412463294,0.0078,-0.1543,-0.8755,2.50,-1.71,1.95
859,412468294,0.0005,-0.1514,-0.8716,2.62,-1.71,2.01
860,412473298,0.0054,-0.1401,-0.8765,2.44,-1.59,1.77
861,412478298,0.0225,-0.1362,-0.8711,2.20,-1.59,1.52
862,412483296,0.0186,-0.1392,-0.8745,2.13,-1.52,1.40
863,412488295,0.0063,-0.1465,-0.8809,2.01,-1.40,1.16
864,412493669,0.0171,-0.1411,-0.8716,1.71,-1.40,0.91
865,412498296,0.0303,-0.1333,-0.8701,1.71,-1.22,0.79
866,412503296,0.0317,-0.1382,-0.8730,1.65,-1.22,0.49
867,412508296,0.0386,-0.1411,-0.8765,1.28,-1.22,0.37
868,412513296,0.0317,-0.1465,-0.8735,1.28,-0.98,0.30
869,412518298,0.0249,-0.1494,-0.8799,1.22,-0.98,0.30
870,412523296,0.0181,-0.1592,-0.8672,1.16,-0.85,0.30
871,412528296,0.0249,-0.1533,-0.8711,1.16,-0.85,0.30
872,412533296,0.0288,-0.1528,-0.8706,1.10,-0.79,0.43
873,412538296,0.0425,-0.1558,-0.8730,1.28,-0.85,0.49
874,412543296,0.0557,-0.1582,-0.8750,1.22,-0.73,0.61
875,412548578,0.0459,-0.1611,-0.8730,1.16,-0.79,0.67
876,412553299,0.0356,-0.1641,-0.8750,1.34,-0.85,0.73
877,412558296,0.0303,-0.1646,-0.8760,1.52,-0.85,0.98
878,412563296,0.0430,-0.1606,-0.8740,1.65,-0.98,1.22
879,412568296,0.0444,-0.1606,-0.8745,1.89,-0.98,1.28
880,412573295,0.0400,-0.1606,-0.8794,1.89,-1.10,1.52
881,412578296,0.0142,-0.1602,-0.8813,2.07,-1.10,1.65
882,412583294,0.0298,-0.1533,-0.8755,2.20,-1.16,1.71
883,412588296,0.0439,-0.1504,-0.8755,2.13,-1.28,1.77
884,412593296,0.0308,-0.1611,-0.8794,2.26,-1.46,1.77
885,412598296,0.0483,-0.1499,-0.8740,2.38,-1.40,1.83
886,412603296,0.0508,-0.1606,-0.8760,2.44,-1.52,1.83
887,412608300,0.0254,-0.1675,-0.8784,2.44,-1.59,1.95
888,412613296,0.0215,-0.1685,-0.8789,2.50,-1.52,2.13
889,412618295,0.0420,-0.1592,-0.8774,2.50,-1.40,2.20
890,412623792,0.0352,-0.1646,-0.8760,2.50,-1.40,2.50
891,412628384,0.0352,-0.1704,-0.8823,2.38,-1.40,2.62
892,412633295,0.0288,-0.1729,-0.8735,2.20,-1.28,2.74
893,412638294,0.0366,-0.1680,-0.8726,2.32,-1.22,2.99
894,412643294,0.0239,-0.1689,-0.8721,2.07,-1.04,3.11
895,412648294,0.0210,-0.1680,-0.8701,1.95,-0.85,3.23
896,412653294,0.0283,-0.1597,-0.8638,1.95,-0.79,3.35
897,412658294,0.0327,-0.1602,-0.8677,1.77,-0.79,3.41
898,412663294,0.0498,-0.1533,-0.8662,1.77,-0.61,3.54
899,412668294,0.0532,-0.1533,-0.8672,1.77,-0.49,3.66
900,412673298,0.0415,-0.1597,-0.8706,1.71,-0.43,3.72
901,412678765,0.0225,-0.1577,-0.8726,1.59,-0.43,3.84
902,412683296,0.0190,-0.1626,-0.8687,1.46,-0.18,3.78
903,412688296,0.0190,-0.1548,-0.8755,1.65,-0.30,3.78
904,412693296,0.0342,-0.1509,-0.8750,1.71,-0.24,3.78
905,412698294,0.0415,-0.1509,-0.8770,1.83,-0.18,3.72
906,412703296,0.0410,-0.1479,-0.8740,1.89,-0.30,3.72
907,412708296,0.0391,-0.1440,-0.8833,2.07,-0.49,3.66
908,412713296,0.0405,-0.1460,-0.8794,2.13,-0.61,3.60
909,412718296,0.0156,-0.1504,-0.8853,2.13,-0.49,3.48
910,412723297,0.0264,-0.1382,-0.8823,2.38,-0.73,3.35
911,412728296,0.0400,-0.1421,-0.8823,2.38,-1.10,3.29
912,412733296,0.0278,-0.1421,-0.8813,2.56,-1.16,3.11
913,412738748,0.0332,-0.1387,-0.8779,2.56,-1.16,2.99
914,412743296,0.0283,-0.1455,-0.8843,2.62,-1.34,2.74
915,412748296,0.0225,-0.1455,-0.8823,2.74,-1.46,2.68
916,412753296,0.0312,-0.1431,-0.8799,2.87,-1.40,2.50
917,412758709,0.0166,-0.1484,-0.8794,2.93,-1.59,2.38
918,412763296,0.0132,-0.1533,-0.8809,2.93,-1.65,2.38
919,412768296,0.0132,-0.1582,-0.8701,2.93,-1.71,2.32
920,412773296,0.0112,-0.1597,-0.8789,2.93,-1.71,2.38
921,412778296,0.0039,-0.1587,-0.8818,2.93,-1.77,2.26
922,412783296,0.0024,-0.1602,-0.8779,2.93,-1.71,2.20
923,412788295,0.0020,-0.1582,-0.8823,2.87,-1.71,2.20
924,412793296,0.0020,-0.1587,-0.8799,2.80,-1.71,2.26
925,412798296,0.0190,-0.1519,-0.8770,2.68,-1.71,2.20
926,412803296,0.0337,-0.1445,-0.8711,2.68,-1.59,2.20
927,412808296,0.0342,-0.1489,-0.8711,2.50,-1.52,2.26
928,412813296,0.0322,-0.1455,-0.8721,2.50,-1.52,2.07
929,412818296,0.0327,-0.1484,-0.8696,2.50,-1.34,2.07
930,412823479,0.0239,-0.1436,-0.8691,2.44,-1.46,2.01
931,412828297,0.0112,-0.1504,-0.8721,2.26,-1.34,2.01
932,412833296,0.0000,-0.1558,-0.8721,2.32,-1.22,2.01
933,412838296,0.0142,-0.1519,-0.8701,2.20,-1.22,2.01
934,412843296,0.0317,-0.1509,-0.8750,2.26,-1.22,1.95
935,412848296,0.0391,-0.1523,-0.8730,2.32,-1.16,1.95
936,412853798,0.0371,-0.1592,-0.8716,2.13,-1.16,2.01
937,412858296,0.0396,-0.1592,-0.8779,2.01,-1.10,2.13
938,412863296,0.0396,-0.1533,-0.8765,2.13,-1.04,2.26
939,412868299,0.0381,-0.1553,-0.8770,2.01,-1.10,2.32
940,412873296,0.0303,-0.1572,-0.8721,2.20,-1.04,2.26
941,412878296,0.0015,-0.1567,-0.8770,2.20,-1.10,2.44
942,412883347,-0.0029,-0.1582,-0.8794,2.20,-1.04,2.38
943,412888296,0.0039,-0.1577,-0.8730,2.20,-1.16,2.44
944,412893294,0.0220,-0.1489,-0.8833,2.20,-1.16,2.32
945,412898296,0.0308,-0.1455,-0.8721,2.20,-1.16,2.38
946,412903759,0.0337,-0.1421,-0.8779,2.13,-1.22,2.26
947,412908296,0.0303,-0.1440,-0.8823,2.20,-1.16,2.20
948,412913296,0.0205,-0.1484,-0.8760,2.20,-1.34,2.01
949,412918296,0.0215,-0.1509,-0.8760,2.20,-1.28,1.83
950,412923296,0.0293,-0.1494,-0.8740,2.07,-1.28,1.89
951,412928392,0.0332,-0.1479,-0.8745,2.20,-1.28,1.77
952,412933782,0.0405,-0.1489,-0.8740,2.32,-1.28,1.77
953,412938296,0.0410,-0.1436,-0.8735,2.13,-1.40,1.65
954,412943296,0.0332,-0.1489,-0.8672,2.32,-1.28,1.52
955,412948296,0.0127,-0.1558,-0.8774,2.13,-1.34,1.59
956,412953296,0.0244,-0.1484,-0.8716,2.13,-1.28,1.52
957,412958297,0.0278,-0.1479,-0.8730,2.13,-1.22,1.59
958,412963296,0.0439,-0.1455,-0.8711,2.07,-1.16,1.52
959,412968294,0.0405,-0.1455,-0.8774,2.13,-1.16,1.52
960,412973296,0.0449,-0.1440,-0.8750,1.95,-1.10,1.40
961,412978296,0.0508,-0.1460,-0.8799,2.01,-1.16,1.52
962,412983294,0.0479,-0.1392,-0.8691,1.95,-1.04,1.52
963,412988294,0.0518,-0.1445,-0.8774,1.83,-0.98,1.46
964,412993294,0.0400,-0.1553,-0.8745,1.65,-0.98,1.46
965,412998294,0.0449,-0.1479,-0.8750,1.83,-0.91,1.46
966,413003294,0.0195,-0.1602,-0.8770,1.83,-0.91,1.46
967,413008294,0.0171,-0.1611,-0.8794,1.71,-0.91,1.52
968,413013296,0.0195,-0.1572,-0.8799,1.77,-0.98,1.52
969,413018296,0.0273,-0.1582,-0.8779,1.83,-0.98,1.46
970,413023299,0.0166,-0.1533,-0.8755,1.77,-0.98,1.59
971,413028296,0.0210,-0.1553,-0.8784,1.83,-0.98,1.65
972,413033296,0.0347,-0.1475,-0.8750,1.95,-0.98,1.77
973,413038296,0.0537,-0.1455,-0.8799,1.89,-1.10,1.65
974,413043296,0.0522,-0.1450,-0.8789,1.95,-1.16,1.65
975,413048296,0.0449,-0.1548,-0.8809,2.13,-1.10,1.65
976,413053674,0.0449,-0.1470,-0.8813,2.13,-1.34,1.71
977,413058296,0.0557,-0.1426,-0.8833,2.20,-1.34,1.59
978,413063597,0.0620,-0.1401,-0.8740,2.26,-1.28,1.71
979,413068387,0.0439,-0.1465,-0.8809,2.26,-1.40,1.71
980,413073295,0.0420,-0.1455,-0.8760,2.38,-1.46,1.71
981,413078296,0.0425,-0.1455,-0.8770,2.38,-1.46,1.77
982,413083296,0.0215,-0.1509,-0.8804,2.32,-1.59,1.71
983,413088377,0.0190,-0.1548,-0.8765,2.56,-1.59,1.65
984,413093539,0.0347,-0.1509,-0.8745,2.56,-1.59,1.65
985,413098296,0.0308,-0.1519,-0.8755,2.44,-1.65,1.65
986,413103447,0.0405,-0.1470,-0.8774,2.50,-1.71,1.65
987,413108296,0.0410,-0.1426,-0.8735,2.50,-1.59,1.59
988,413113325,0.0298,-0.1470,-0.8809,2.44,-1.59,1.59
989,413118353,0.0190,-0.1523,-0.8770,2.38,-1.52,1.52
990,413123296,0.0425,-0.1460,-0.8770,2.38,-1.46,1.59
991,413128294,0.0181,-0.1543,-0.8711,2.26,-1.46,1.46
992,413133294,0.0195,-0.1611,-0.8721,2.13,-1.46,1.59
993,413138295,0.0210,-0.1587,-0.8745,2.26,-1.46,1.52
994,413143294,0.0366,-0.1558,-0.8745,2.26,-1.34,1.59
995,413148294,0.0400,-0.1558,-0.8779,2.32,-1.28,1.77
996,413153296,0.0264,-0.1621,-0.8740,2.26,-1.10,1.77
997,413158296,0.0190,-0.1616,-0.8706,2.20,-1.16,1.89
998,413163295,0.0181,-0.1572,-0.8740,2.13,-1.22,1.83
999,413168296,0.0303,-0.1519,-0.8677,2.20,-1.04,2.01
1000,413173433,0.0493,-0.1450,-0.8760,2.26,-1.22,2.07
1001,413178510,0.0454,-0.1509,-0.8745,2.20,-1.10,2.01
1002,413183296,0.0425,-0.1445,-0.8755,2.13,-1.10,2.01
1003,413188296,0.0137,-0.1523,-0.8701,2.13,-1.10,2.01
1004,413193296,0.0317,-0.1484,-0.8774,2.13,-1.16,2.01
1005,413198299,0.0308,-0.1484,-0.8784,2.26,-1.16,2.01
1006,413203296,0.0229,-0.1519,-0.8770,2.13,-1.10,2.01
1007,413208295,0.0332,-0.1479,-0.8804,2.13,-1.16,1.89
1008,413213673,0.0269,-0.1519,-0.8818,2.13,-1.28,1.95
1009,413218296,0.0410,-0.1484,-0.8755,2.20,-1.22,1.95
1010,413223296,0.0161,-0.1494,-0.8789,2.32,-1.34,1.89
1011,413228297,0.0356,-0.1455,-0.8774,2.32,-1.40,1.95
1012,413233296,0.0361,-0.1440,-0.8740,2.32,-1.40,1.77
1013,413238298,0.0381,-0.1475,-0.8765,2.44,-1.52,1.77
1014,413243295,0.0112,-0.1519,-0.8804,2.38,-1.59,1.71
1015,413248294,0.0273,-0.1553,-0.8745,2.50,-1.59,1.71
1016,413253294,0.0239,-0.1504,-0.8784,2.56,-1.59,1.71
1017,413258294,0.0312,-0.1504,-0.8750,2.56,-1.71,1.71
1018,413263296,0.0386,-0.1489,-0.8765,2.56,-1.71,1.59
1019,413268294,0.0425,-0.1450,-0.8735,2.44,-1.83,1.71
1020,413273296,0.0396,-0.1519,-0.8716,2.56,-1.77,1.83
1021,413278295,0.0386,-0.1558,-0.8789,2.56,-1.71,1.77
1022,413283294,0.0312,-0.1538,-0.8760,2.50,-1.52,1.83
1023,413288294,0.0430,-0.1523,-0.8745,2.62,-1.65,1.77
1024,413293294,0.0303,-0.1489,-0.8652,2.44,-1.52,1.77
1025,413299429,0.0156,-0.1592,-0.8726,2.44,-1.40,1.89
1026,413303538,0.0112,-0.1592,-0.8774,2.44,-1.40,1.77
1027,413308296,0.0059,-0.1582,-0.8726,2.38,-1.59,1.95
1028,413313296,0.0107,-0.1611,-0.8750,2.38,-1.46,1.95
1029,413318296,0.0171,-0.1597,-0.8843,2.44,-1.40,1.95
1030,413323296,0.0303,-0.1558,-0.8818,2.38,-1.28,1.89
1031,413328297,0.0410,-0.1523,-0.8755,2.44,-1.34,1.83
1032,413333295,0.0430,-0.1475,-0.8735,2.32,-1.34,1.95
1033,413338295,0.0381,-0.1519,-0.8784,2.32,-1.34,1.95
1034,413343294,0.0444,-0.1479,-0.8721,2.38,-1.28,1.95
1035,413348294,0.0386,-0.1489,-0.8818,2.56,-1.40,2.01
1036,413353322,0.0337,-0.1533,-0.8745,2.38,-1.40,2.01
1037,413358296,0.0190,-0.1577,-0.8838,2.38,-1.34,2.07
1038,413363296,0.0127,-0.1592,-0.8774,2.44,-1.40,2.07
1039,413368296,0.0083,-0.1562,-0.8784,2.56,-1.59,2.07
1040,413373296,0.0151,-0.1543,-0.8735,2.50,-1.46,2.01
1041,413378296,0.0156,-0.1567,-0.8779,2.50,-1.59,2.07
1042,413383300,0.0317,-0.1455,-0.8789,2.56,-1.59,2.07
1043,413388296,0.0337,-0.1445,-0.8755,2.62,-1.52,2.07
1044,413393295,0.0371,-0.1450,-0.8813,2.68,-1.52,2.13
1045,413398296,0.0415,-0.1455,-0.8770,2.62,-1.59,2.07
1046,413403296,0.0483,-0.1465,-0.8730,2.56,-1.65,2.07
1047,413408296,0.0439,-0.1431,-0.8765,2.68,-1.46,1.95
1048,413413297,0.0400,-0.1465,-0.8667,2.62,-1.46,2.01
1049,413418296,0.0347,-0.1416,-0.8662,2.68,-1.59,2.07
1050,413423296,0.0415,-0.1455,-0.8677,2.68,-1.59,2.07
1051,413428298,0.0361,-0.1523,-0.8740,2.62,-1.52,1.95
1052,413433295,0.0317,-0.1514,-0.8760,2.62,-1.52,2.01
1053,413438295,0.0371,-0.1523,-0.8716,2.62,-1.52,1.89
1054,413443295,0.0386,-0.1475,-0.8726,2.62,-1.59,2.01
1055,413448294,0.0420,-0.1455,-0.8784,2.56,-1.40,1.89
1056,413453294,0.0366,-0.1445,-0.8765,2.50,-1.40,2.01
1057,413458294,0.0239,-0.1470,-0.8711,2.44,-1.40,1.83
1058,413463294,0.0259,-0.1523,-0.8730,2.50,-1.28,1.83
1059,413468294,0.0244,-0.1504,-0.8730,2.50,-1.34,1.89
1060,413473295,0.0435,-0.1504,-0.8706,2.44,-1.28,1.89
1061,413478294,0.0518,-0.1470,-0.8740,2.50,-1.22,1.89
1062,413483294,0.0488,-0.1426,-0.8716,2.50,-1.16,1.89
1063,413488294,0.0444,-0.1440,-0.8750,2.44,-1.16,1.95
1064,413493294,0.0420,-0.1465,-0.8730,2.50,-1.22,1.89
1065,413498294,0.0366,-0.1528,-0.8687,2.50,-1.22,2.01
1066,413503294,0.0156,-0.1592,-0.8740,2.44,-1.22,1.89
1067,413508294,0.0308,-0.1475,-0.8745,2.50,-1.16,1.89
1068,413513294,0.0342,-0.1479,-0.8804,2.56,-1.28,1.95
1069,413518294,0.0127,-0.1509,-0.8711,2.56,-1.34,1.95
1070,413523294,0.0161,-0.1553,-0.8750,2.56,-1.34,1.89
1071,413528298,0.0322,-0.1519,-0.8789,2.56,-1.40,1.77
1072,413533296,0.0327,-0.1499,-0.8779,2.68,-1.40,1.77
1073,413538295,0.0469,-0.1445,-0.8770,2.68,-1.52,1.71
1074,413543294,0.0400,-0.1484,-0.8730,2.68,-1.52,1.71
1075,413548294,0.0503,-0.1450,-0.8838,2.93,-1.46,1.77
1076,413553294,0.0405,-0.1396,-0.8677,2.87,-1.59,1.71
1077,413558294,0.0371,-0.1416,-0.8726,2.99,-1.52,1.77
1078,413563294,0.0381,-0.1436,-0.8730,3.05,-1.59,1.65
1079,413568294,0.0308,-0.1479,-0.8672,2.93,-1.59,1.71
1080,413573294,0.0381,-0.1538,-0.8755,3.11,-1.40,1.71
1081,413578298,0.0469,-0.1494,-0.8726,3.05,-1.59,1.83
1082,413583297,0.0439,-0.1597,-0.8687,2.99,-1.52,1.95
1083,413588560,0.0151,-0.1646,-0.8745,3.11,-1.46,2.07
1084,413593296,0.0210,-0.1646,-0.8687,3.05,-1.46,2.13
1085,413598296,0.0322,-0.1582,-0.8716,2.99,-1.46,2.26
1086,413603295,0.0352,-0.1602,-0.8784,2.93,-1.28,2.38
1087,413608296,0.0312,-0.1606,-0.8711,2.87,-1.28,2.50
1088,413613296,0.0400,-0.1582,-0.8696,2.93,-1.34,2.80
1089,413618359,0.0322,-0.1587,-0.8706,2.99,-1.04,2.93
1090,413623296,0.0371,-0.1562,-0.8833,2.87,-1.10,3.05
1091,413628404,0.0361,-0.1567,-0.8750,2.68,-1.04,3.11
1092,413633357,0.0435,-0.1562,-0.8774,2.74,-0.91,3.17
1093,413638363,0.0366,-0.1572,-0.8745,2.62,-0.98,3.35
1094,413643295,0.0220,-0.1597,-0.8750,2.68,-0.85,3.41
1095,413648297,0.0352,-0.1499,-0.8755,2.50,-0.98,3.41
1096,413653296,0.0322,-0.1523,-0.8774,2.56,-0.73,3.35
1097,413658689,0.0210,-0.1494,-0.8774,2.56,-0.79,3.35
1098,413663296,0.0278,-0.1470,-0.8779,2.44,-0.79,3.35
1099,413668296,0.0239,-0.1465,-0.8784,2.44,-0.85,3.41
1100,413673296,0.0186,-0.1528,-0.8711,2.44,-0.85,3.29
1101,413678295,0.0215,-0.1528,-0.8813,2.56,-0.85,3.23
1102,413683737,0.0254,-0.1460,-0.8804,2.44,-0.85,3.17
1103,413688295,0.0186,-0.1504,-0.8765,2.38,-1.04,3.17
1104,413693297,0.0210,-0.1450,-0.8828,2.62,-0.98,3.05
1105,413698294,0.0088,-0.1504,-0.8804,2.50,-1.10,2.93
1106,413703296,0.0186,-0.1445,-0.8784,2.56,-1.16,2.99
1107,413708296,0.0342,-0.1460,-0.8721,2.56,-1.28,2.93
1108,413713295,0.0273,-0.1538,-0.8779,2.68,-1.34,2.80
1109,413718296,0.0205,-0.1431,-0.8813,2.74,-1.40,2.62
1110,413723296,0.0405,-0.1431,-0.8765,2.87,-1.59,2.56
1111,413728677,0.0356,-0.1445,-0.8789,2.74,-1.46,2.56
1112,413733296,0.0317,-0.1440,-0.8789,2.74,-1.59,2.44
1113,413738297,0.0381,-0.1421,-0.8760,2.62,-1.59,2.38
1114,413743295,0.0420,-0.1396,-0.8755,2.62,-1.52,2.20
1115,413748298,0.0312,-0.1494,-0.8750,2.68,-1.52,2.13
1116,413753296,0.0347,-0.1558,-0.8779,2.56,-1.59,2.07
1117,413758294,0.0386,-0.1543,-0.8760,2.44,-1.52,1.95
1118,413763294,0.0386,-0.1504,-0.8813,2.32,-1.59,1.95
1119,413768294,0.0459,-0.1494,-0.8765,2.26,-1.52,2.01
1120,413773294,0.0430,-0.1519,-0.8779,2.32,-1.46,1.95
1121,413778548,0.0298,-0.1553,-0.8750,2.26,-1.59,2.01
1122,413783296,0.0308,-0.1553,-0.8809,2.20,-1.65,1.95
1123,413788295,0.0410,-0.1528,-0.8794,2.26,-1.65,1.95
1124,413793296,0.0459,-0.1494,-0.8813,2.20,-1.59,1.95
1125,413798296,0.0474,-0.1440,-0.8745,2.32,-1.71,1.95
1126,413803296,0.0464,-0.1426,-0.8760,2.38,-1.65,1.89
1127,413808296,0.0425,-0.1450,-0.8716,2.32,-1.59,1.95
1128,413813296,0.0317,-0.1489,-0.8799,2.44,-1.77,1.83
1129,413818296,0.0273,-0.1489,-0.8848,2.38,-2.01,1.77
1130,413823296,0.0488,-0.1431,-0.8770,2.50,-2.07,1.71
1131,413828296,0.0210,-0.1523,-0.8833,2.68,-2.32,1.65
1132,413833296,0.0137,-0.1504,-0.8857,2.80,-2.32,1.52
1133,413838531,0.0386,-0.1436,-0.8770,3.05,-2.44,1.40
1134,413843297,0.0420,-0.1392,-0.8823,3.05,-2.62,1.28
1135,413848294,0.0464,-0.1382,-0.8774,3.29,-2.74,1.28
1136,413853294,0.0273,-0.1479,-0.8848,3.41,-2.99,1.04
1137,413858296,0.0176,-0.1455,-0.8848,3.41,-3.11,0.98
1138,413863295,0.0259,-0.1445,-0.8804,3.48,-3.11,0.85
1139,413868294,0.0386,-0.1406,-0.8799,3.60,-3.29,0.67
1140,413873296,0.0254,-0.1406,-0.8774,3.60,-3.29,0.49
1141,413878296,0.0127,-0.1470,-0.8745,3.78,-3.29,0.49
1142,413883296,0.0298,-0.1514,-0.8779,3.72,-3.54,0.30
1143,413888296,0.0435,-0.1416,-0.8730,3.78,-3.54,0.24
1144,413893296,0.0444,-0.1431,-0.8784,3.84,-3.48,0.18
1145,413898296,0.0234,-0.1514,-0.8706,3.78,-3.54,0.18
1146,413903296,0.0264,-0.1504,-0.8701,3.78,-3.48,0.18
1147,413908296,0.0293,-0.1494,-0.8682,3.78,-3.48,0.18
1148,413913396,0.0205,-0.1533,-0.8740,3.72,-3.48,0.12
1149,413918296,0.0161,-0.1597,-0.8721,3.48,-3.17,0.18
1150,413923296,0.0137,-0.1641,-0.8730,3.48,-3.29,0.18
1151,413928296,0.0083,-0.1592,-0.8726,3.48,-3.11,0.18
1152,413933504,0.0132,-0.1646,-0.8721,3.23,-2.93,0.24
1153,413938296,0.0103,-0.1626,-0.8745,3.05,-2.87,0.30
1154,413943296,0.0103,-0.1621,-0.8721,3.05,-2.80,0.18
1155,413948296,0.0220,-0.1558,-0.8730,2.93,-2.68,0.24
1156,413953298,0.0376,-0.1523,-0.8750,2.87,-2.50,0.24
1157,413958296,0.0195,-0.1562,-0.8730,2.87,-2.56,0.24
1158,413963296,0.0122,-0.1597,-0.8721,2.87,-2.38,0.37
1159,413968296,0.0264,-0.1562,-0.8760,2.80,-2.38,0.37
1160,413973296,0.0332,-0.1558,-0.8706,2.80,-2.20,0.37
1161,413978296,0.0117,-0.1680,-0.8735,2.68,-2.13,0.49
1162,413983299,0.0288,-0.1582,-0.8735,2.62,-2.32,0.30
1163,413988296,0.0234,-0.1621,-0.8755,2.56,-2.26,0.43
1164,413993296,0.0034,-0.1655,-0.8794,2.56,-2.20,0.43
1165,413998296,0.0308,-0.1538,-0.8740,2.62,-2.32,0.55
1166,414003296,0.0181,-0.1621,-0.8774,2.68,-2.20,0.55
1167,414008296,0.0220,-0.1572,-0.8730,2.62,-2.13,0.67
1168,414013296,0.0430,-0.1553,-0.8784,2.68,-2.07,0.67
1169,414018296,0.0283,-0.1606,-0.8726,2.87,-2.26,0.73
1170,414023296,0.0215,-0.1611,-0.8799,2.87,-2.32,0.73
1171,414028298,0.0098,-0.1660,-0.8657,2.80,-2.26,0.91
1172,414033779,0.0269,-0.1572,-0.8745,2.87,-2.32,0.91
1173,414038296,0.0322,-0.1587,-0.8735,3.05,-2.38,0.98
1174,414043296,0.0200,-0.1631,-0.8745,2.93,-2.32,1.04
1175,414048296,0.0322,-0.1562,-0.8740,3.05,-2.38,1.16
1176,414053294,0.0298,-0.1665,-0.8745,2.99,-2.20,1.22
1177,414058294,0.0063,-0.1660,-0.8765,2.99,-2.20,1.28
1178,414063294,0.0142,-0.1592,-0.8687,2.87,-2.07,1.40
1179,414068294,0.0210,-0.1592,-0.8750,2.93,-2.32,1.40
1180,414073295,0.0132,-0.1655,-0.8770,2.80,-2.20,1.46
1181,414078296,0.0142,-0.1670,-0.8721,2.80,-2.01,1.46
1182,414083296,0.0137,-0.1650,-0.8730,2.87,-2.01,1.59
1183,414088296,0.0083,-0.1631,-0.8784,2.80,-1.89,1.59
1184,414093296,0.0151,-0.1558,-0.8711,2.74,-1.95,1.59
1185,414098296,0.0259,-0.1509,-0.8691,2.62,-1.71,1.59
1186,414103296,0.0439,-0.1523,-0.8750,2.62,-1.83,1.65
1187,414108297,0.0327,-0.1592,-0.8750,2.50,-1.65,1.59
1188,414113460,0.0127,-0.1641,-0.8716,2.44,-1.77,1.65
1189,414118296,0.0073,-0.1602,-0.8691,2.26,-1.59,1.65
1190,414123363,0.0093,-0.1597,-0.8691,2.26,-1.52,1.71
1191,414128295,0.0093,-0.1616,-0.8784,2.26,-1.52,1.71
1192,414133774,0.0039,-0.1626,-0.8789,2.20,-1.40,1.71
1193,414138296,0.0073,-0.1611,-0.8755,2.26,-1.40,1.77
1194,414143295,0.0146,-0.1616,-0.8755,2.26,-1.40,1.59
1195,414148295,0.0181,-0.1602,-0.8750,2.20,-1.46,1.71
1196,414153294,0.0386,-0.1533,-0.8735,2.26,-1.28,1.65
1197,414158296,0.0273,-0.1577,-0.8794,2.20,-1.34,1.71
1198,414163294,0.0269,-0.1523,-0.8813,2.32,-1.34,1.71
1199,414168294,0.0249,-0.1558,-0.8740,2.26,-1.34,1.71
1200,414173296,0.0122,-0.1582,-0.8760,2.26,-1.40,1.65
1201,414178296,0.0215,-0.1519,-0.8716,2.44,-1.46,1.65
1202,414183612,0.0229,-0.1499,-0.8750,2.26,-1.40,1.65
1203,414188753,0.0254,-0.1543,-0.8755,2.38,-1.46,1.71
1204,414193295,0.0356,-0.1528,-0.8716,2.38,-1.52,1.77
1205,414198299,0.0400,-0.1470,-0.8691,2.44,-1.52,1.71
1206,414203296,0.0410,-0.1543,-0.8745,2.62,-1.52,1.71
1207,414208297,0.0322,-0.1538,-0.8696,2.56,-1.52,1.71
1208,414213296,0.0322,-0.1626,-0.8750,2.56,-1.40,1.77
1209,414218294,0.0298,-0.1606,-0.8750,2.50,-1.52,1.77
1210,414223687,0.0342,-0.1602,-0.8711,2.50,-1.46,1.83
1211,414228296,0.0283,-0.1611,-0.8726,2.50,-1.59,1.83
1212,414233296,0.0181,-0.1655,-0.8809,2.50,-1.34,1.89
1213,414238296,0.0171,-0.1611,-0.8726,2.50,-1.34,2.01
1214,414243296,0.0400,-0.1553,-0.8735,2.44,-1.22,2.01
1215,414248541,0.0205,-0.1611,-0.8730,2.38,-1.28,2.13
1216,414253295,0.0303,-0.1616,-0.8701,2.32,-1.34,2.07
1217,414258294,0.0195,-0.1616,-0.8789,2.26,-1.22,2.20
1218,414263294,0.0356,-0.1558,-0.8667,2.20,-0.98,2.26
1219,414268294,0.0347,-0.1558,-0.8730,2.26,-1.16,2.32
1220,414273294,0.0278,-0.1626,-0.8789,2.07,-0.91,2.44
1221,414278294,0.0112,-0.1660,-0.8701,2.26,-0.98,2.44
1222,414283296,0.0127,-0.1597,-0.8745,2.13,-1.04,2.44
1223,414288295,0.0342,-0.1484,-0.8740,2.07,-0.98,2.44
1224,414293296,0.0381,-0.1514,-0.8760,2.13,-0.98,2.56
1225,414298577,0.0391,-0.1519,-0.8730,2.20,-1.04,2.44
1226,414303296,0.0361,-0.1567,-0.8813,2.13,-1.04,2.56
1227,414308296,0.0317,-0.1543,-0.8760,2.20,-0.91,2.44
1228,414313296,0.0210,-0.1548,-0.8750,2.26,-0.98,2.50
1229,414318295,0.0278,-0.1523,-0.8804,2.26,-1.10,2.56
1230,414323296,0.0234,-0.1562,-0.8774,2.38,-1.16,2.50
1231,414328296,0.0132,-0.1558,-0.8701,2.26,-1.16,2.38
1232,414333296,0.0215,-0.1523,-0.8799,2.38,-1.16,2.38
1233,414338295,0.0312,-0.1484,-0.8745,2.32,-1.22,2.26
1234,414343296,0.0181,-0.1548,-0.8774,2.50,-1.16,2.26
1235,414348296,0.0127,-0.1553,-0.8794,2.44,-1.34,2.20
1236,414353296,0.0107,-0.1577,-0.8730,2.50,-1.28,2.13
1237,414358296,0.0176,-0.1538,-0.8760,2.32,-1.34,2.07
1238,414363298,0.0249,-0.1558,-0.8818,2.56,-1.40,2.07
1239,414368296,0.0132,-0.1494,-0.8755,2.50,-1.28,2.07
1240,414373296,0.0361,-0.1519,-0.8721,2.56,-1.22,2.01
1241,414378296,0.0156,-0.1582,-0.8755,2.44,-1.34,1.95
1242,414383296,0.0176,-0.1504,-0.8779,2.44,-1.46,2.01
1243,414388296,0.0288,-0.1567,-0.8779,2.44,-1.28,1.95
1244,414393296,0.0239,-0.1533,-0.8740,2.44,-1.46,1.95
1245,414398632,0.0205,-0.1611,-0.8765,2.50,-1.28,1.95
1246,414403298,0.0356,-0.1509,-0.8721,2.38,-1.40,1.95
1247,414408530,0.0176,-0.1597,-0.8755,2.38,-1.28,1.95
1248,414413296,0.0186,-0.1553,-0.8774,2.50,-1.34,1.95
1249,414418390,0.0317,-0.1543,-0.8730,2.44,-1.46,1.89
1250,414423295,0.0391,-0.1475,-0.8784,2.50,-1.52,1.95
1251,414428296,0.0386,-0.1489,-0.8823,2.44,-1.34,1.89
1252,414433294,0.0239,-0.1582,-0.8799,2.44,-1.46,1.89
1253,414438296,0.0098,-0.1587,-0.8799,2.50,-1.40,1.89
1254,414443296,0.0195,-0.1543,-0.8765,2.50,-1.46,1.77
1255,414448296,0.0400,-0.1494,-0.8726,2.56,-1.46,1.83
1256,414453294,0.0420,-0.1475,-0.8799,2.62,-1.34,1.89
1257,414458295,0.0391,-0.1519,-0.8804,2.56,-1.59,1.83
1258,414463294,0.0259,-0.1538,-0.8804,2.50,-1.52,1.77
1259,414468296,0.0117,-0.1602,-0.8823,2.44,-1.52,1.77
1260,414473294,0.0264,-0.1499,-0.8784,2.44,-1.52,1.77
1261,414478331,0.0449,-0.1470,-0.8779,2.38,-1.52,1.65
1262,414483294,0.0225,-0.1597,-0.8779,2.26,-1.65,1.71
1263,414488294,0.0176,-0.1577,-0.8809,2.32,-1.59,1.59
1264,414493294,0.0425,-0.1484,-0.8740,2.20,-1.65,1.59
1265,414498294,0.0249,-0.1553,-0.8779,2.20,-1.65,1.52
1266,414503294,0.0098,-0.1592,-0.8691,2.13,-1.65,1.46
1267,414508294,0.0391,-0.1475,-0.8730,2.20,-1.65,1.46
1268,414513294,0.0166,-0.1567,-0.8823,2.32,-1.65,1.46
1269,414518294,0.0244,-0.1523,-0.8745,2.50,-1.59,1.46
1270,414523294,0.0425,-0.1460,-0.8745,2.32,-1.83,1.40
1271,414528294,0.0327,-0.1558,-0.8735,2.50,-1.71,1.34
1272,414533294,0.0269,-0.1533,-0.8760,2.74,-1.89,1.28
1273,414538294,0.0083,-0.1602,-0.8765,2.74,-1.89,1.28
1274,414543294,0.0117,-0.1582,-0.8770,2.93,-2.07,1.46
1275,414548294,0.0098,-0.1621,-0.8799,2.99,-2.13,1.34
1276,414553294,0.0195,-0.1562,-0.8770,2.99,-2.20,1.28
1277,414558294,0.0312,-0.1562,-0.8730,3.05,-2.32,1.40
1278,414563294,0.0371,-0.1484,-0.8760,3.11,-2.38,1.34
1279,414568294,0.0181,-0.1597,-0.8813,3.17,-2.50,1.34
1280,414573585,0.0259,-0.1489,-0.8799,3.17,-2.44,1.40
1281,414578296,0.0361,-0.1479,-0.8784,3.23,-2.44,1.28
1282,414583700,0.0156,-0.1475,-0.8765,3.11,-2.50,1.34
1283,414588296,0.0195,-0.1484,-0.8730,3.17,-2.56,1.22
1284,414593296,0.0283,-0.1445,-0.8726,3.11,-2.56,1.16
1285,414598296,0.0376,-0.1440,-0.8726,3.17,-2.56,1.10
1286,414603296,0.0322,-0.1509,-0.8691,3.05,-2.50,0.98
1287,414608296,0.0215,-0.1538,-0.8721,3.17,-2.38,0.85
1288,414613296,0.0034,-0.1528,-0.8711,3.05,-2.50,0.85
1289,414618296,0.0171,-0.1455,-0.8760,3.05,-2.44,0.79
1290,414623296,0.0361,-0.1436,-0.8721,2.93,-2.38,0.61
1291,414628476,0.0195,-0.1553,-0.8765,2.87,-2.20,0.49
1292,414633296,0.0098,-0.1567,-0.8706,2.87,-2.32,0.49
1293,414638295,0.0195,-0.1494,-0.8711,2.87,-2.32,0.30
1294,414643389,0.0278,-0.1460,-0.8750,2.87,-2.20,0.12
1295,414648294,0.0371,-0.1460,-0.8730,2.87,-2.07,0.06
1296,414653294,0.0449,-0.1475,-0.8740,2.87,-2.13,0.18
1297,414658294,0.0430,-0.1572,-0.8735,2.87,-2.07,0.12
1298,414663294,0.0308,-0.1562,-0.8770,2.80,-2.13,0.12
1299,414668294,0.0186,-0.1636,-0.8755,2.80,-2.07,0.06
1300,414673299,0.0127,-0.1680,-0.8794,2.80,-1.83,0.18
1301,414678464,0.0068,-0.1665,-0.8721,2.87,-1.95,0.24
1302,414683338,0.0210,-0.1616,-0.8740,2.87,-1.95,0.37
1303,414688412,0.0308,-0.1538,-0.8701,2.80,-1.71,0.49
1304,414693400,0.0239,-0.1582,-0.8721,2.68,-1.77,0.55
1305,414698296,0.0151,-0.1626,-0.8706,2.50,-1.77,0.61
1306,414703296,0.0068,-0.1699,-0.8755,2.56,-1.77,0.67
1307,414708296,0.0322,-0.1626,-0.8784,2.56,-1.71,0.79
1308,414713296,0.0396,-0.1528,-0.8765,2.56,-1.59,0.79
1309,414718296,0.0366,-0.1597,-0.8696,2.44,-1.59,0.85
1310,414723510,0.0112,-0.1689,-0.8701,2.50,-1.52,0.98
1311,414728296,0.0239,-0.1606,-0.8726,2.50,-1.52,0.98
1312,414733296,0.0396,-0.1562,-0.8696,2.38,-1.34,1.16
1313,414738296,0.0400,-0.1616,-0.8706,2.32,-1.40,1.22
1314,414743416,0.0337,-0.1636,-0.8682,2.26,-1.40,1.28
1315,414748296,0.0347,-0.1670,-0.8662,2.32,-1.22,1.46
1316,414753296,0.0195,-0.1685,-0.8657,2.32,-1.04,1.40
1317,414758295,0.0327,-0.1641,-0.8682,2.26,-1.10,1.52
1318,414763297,0.0469,-0.1611,-0.8701,2.20,-0.91,1.77
1319,414768294,0.0459,-0.1665,-0.8730,2.13,-0.85,1.95
1320,414773296,0.0273,-0.1704,-0.8672,2.07,-0.73,2.07
1321,414778296,0.0244,-0.1724,-0.8677,1.95,-0.67,2.26
1322,414783296,0.0215,-0.1719,-0.8740,2.01,-0.61,2.50
1323,414788296,0.0376,-0.1636,-0.8687,1.83,-0.37,2.68
1324,414793778,0.0366,-0.1670,-0.8765,1.77,-0.37,2.80
1325,414798296,0.0205,-0.1724,-0.8804,1.71,-0.30,2.87
1326,414803296,0.0093,-0.1753,-0.8726,1.71,-0.12,3.05
1327,414808296,0.0063,-0.1738,-0.8770,1.59,-0.12,3.29
1328,414813296,0.0103,-0.1665,-0.8745,1.52,-0.18,3.35
1329,414818574,0.0200,-0.1646,-0.8828,1.65,-0.12,3.60
1330,414823686,0.0259,-0.1611,-0.8789,1.59,-0.30,3.48
1331,414828296,0.0449,-0.1523,-0.8882,1.65,-0.49,3.48
1332,414833295,0.0537,-0.1533,-0.8818,1.65,-0.55,3.54
1333,414838296,0.0483,-0.1543,-0.8936,1.71,-0.73,3.60
1334,414843296,0.0371,-0.1475,-0.8892,1.83,-0.98,3.60
1335,414848295,0.0254,-0.1514,-0.8853,2.20,-1.16,3.48
1336,414853296,0.0352,-0.1455,-0.8887,2.50,-1.40,3.41
1337,414858296,0.0498,-0.1309,-0.8857,2.68,-1.77,3.23
1338,414863296,0.0469,-0.1343,-0.8853,2.93,-1.95,3.11
1339,414868296,0.0396,-0.1382,-0.8813,3.35,-2.20,2.87
1340,414873296,0.0239,-0.1421,-0.8823,3.41,-2.50,2.62
1341,414878297,0.0146,-0.1396,-0.8784,3.66,-2.74,2.38
1342,414883295,0.0078,-0.1436,-0.8862,3.84,-2.80,2.13
1343,414888294,0.0127,-0.1411,-0.8838,4.09,-3.05,1.89
1344,414893294,0.0225,-0.1372,-0.8789,4.02,-2.99,1.59
1345,414898294,0.0088,-0.1431,-0.8691,4.02,-3.17,1.52
1346,414903294,0.0322,-0.1411,-0.8774,3.90,-3.29,1.22
1347,414908296,0.0400,-0.1367,-0.8745,3.96,-3.23,0.98
1348,414913295,0.0352,-0.1421,-0.8755,3.78,-2.99,0.85
1349,414918296,0.0264,-0.1494,-0.8716,3.66,-2.99,0.67
1350,414923296,0.0205,-0.1538,-0.8726,3.48,-2.99,0.67
1351,414928296,0.0156,-0.1606,-0.8730,3.41,-2.87,0.49
1352,414933296,0.0020,-0.1582,-0.8716,3.29,-2.56,0.49
1353,414938295,0.0146,-0.1592,-0.8706,3.05,-2.44,0.43
1354,414943296,0.0293,-0.1538,-0.8706,2.93,-2.38,0.43
1355,414948295,0.0347,-0.1514,-0.8774,2.74,-2.38,0.37
1356,414953296,0.0308,-0.1582,-0.8740,2.50,-2.07,0.30
1357,414958296,0.0176,-0.1660,-0.8726,2.50,-2.01,0.37
1358,414963297,0.0151,-0.1597,-0.8740,2.26,-1.83,0.43
1359,414968296,0.0376,-0.1548,-0.8735,2.26,-1.77,0.43
1360,414973296,0.0278,-0.1636,-0.8726,2.20,-1.65,0.49
1361,414978296,0.0215,-0.1562,-0.8765,2.13,-1.71,0.67
1362,414983296,0.0376,-0.1548,-0.8779,2.13,-1.65,0.67
1363,414988296,0.0400,-0.1587,-0.8809,2.13,-1.77,0.67
1364,414993296,0.0215,-0.1650,-0.8804,2.26,-1.59,0.67
1365,414998296,0.0098,-0.1699,-0.8755,2.20,-1.71,0.73
1366,415003296,0.0259,-0.1572,-0.8760,2.32,-1.77,0.79
1367,415008296,0.0303,-0.1533,-0.8750,2.50,-1.95,0.79
1368,415013296,0.0435,-0.1504,-0.8833,2.50,-2.20,0.79
1369,415018296,0.0410,-0.1553,-0.8818,2.68,-2.38,0.73
1370,415023296,0.0371,-0.1553,-0.8779,2.68,-2.32,0.85
1371,415028539,0.0352,-0.1509,-0.8828,2.99,-2.56,0.85
1372,415033798,0.0190,-0.1538,-0.8818,3.05,-2.87,0.79
1373,415038296,0.0391,-0.1494,-0.8755,3.17,-2.93,0.61
1374,415043295,0.0342,-0.1548,-0.8843,3.35,-3.17,0.67
1375,415048294,0.0093,-0.1611,-0.8848,3.54,-3.05,0.73
1376,415053294,0.0210,-0.1567,-0.8828,3.48,-3.23,0.67
1377,415058294,0.0405,-0.1514,-0.8770,3.54,-3.48,0.61
1378,415063294,0.0254,-0.1597,-0.8774,3.54,-3.54,0.61
1379,415068294,0.0103,-0.1646,-0.8770,3.66,-3.54,0.79
1380,415073296,0.0171,-0.1533,-0.8799,3.72,-3.66,0.67
1381,415078296,0.0254,-0.1626,-0.8760,3.72,-3.66,0.61
1382,415083296,0.0112,-0.1646,-0.8716,3.78,-3.66,0.67
1383,415088296,0.0225,-0.1602,-0.8706,3.90,-3.60,0.73
1384,415093296,0.0312,-0.1597,-0.8672,3.84,-3.54,0.73
1385,415098296,0.0420,-0.1616,-0.8735,3.66,-3.35,0.85
1386,415103294,0.0317,-0.1631,-0.8765,3.78,-3.23,0.79
1387,415108294,0.0342,-0.1689,-0.8667,3.78,-3.29,0.98
1388,415113306,0.0156,-0.1606,-0.8779,3.54,-3.17,1.10
1389,415118339,0.0195,-0.1602,-0.8735,3.60,-3.17,1.10
1390,415123296,0.0293,-0.1562,-0.8696,3.35,-3.11,0.98
1391,415128296,0.0322,-0.1538,-0.8735,3.48,-3.05,1.04
1392,415133296,0.0322,-0.1548,-0.8745,3.35,-2.87,1.10
1393,415138296,0.0049,-0.1606,-0.8740,3.23,-2.87,1.04
1394,415143296,0.0068,-0.1562,-0.8716,3.35,-2.80,1.04
1395,415148297,0.0239,-0.1514,-0.8721,3.11,-2.93,0.98
1396,415153296,0.0176,-0.1621,-0.8721,3.23,-2.74,0.98
1397,415158555,-0.0010,-0.1655,-0.8726,3.11,-2.74,0.85
1398,415163724,0.0127,-0.1519,-0.8691,3.11,-2.74,0.91
1399,415168296,0.0249,-0.1523,-0.8706,3.11,-2.68,0.79
1400,415173764,0.0210,-0.1562,-0.8721,3.11,-2.74,0.73
1401,415178296,0.0107,-0.1626,-0.8770,3.05,-2.68,0.67
1402,415183301,0.0005,-0.1621,-0.8706,3.11,-2.80,0.61
1403,415188296,0.0249,-0.1533,-0.8779,3.29,-2.80,0.73
1404,415193296,0.0254,-0.1572,-0.8750,3.11,-2.80,0.61
1405,415198298,0.0078,-0.1631,-0.8770,3.35,-2.87,0.55
1406,415203296,-0.0073,-0.1606,-0.8726,3.35,-2.80,0.55
1407,415208359,0.0151,-0.1602,-0.8750,3.48,-2.87,0.49
1408,415213445,0.0181,-0.1597,-0.8779,3.41,-2.80,0.55
1409,415218296,0.0049,-0.1641,-0.8813,3.48,-2.87,0.55
1410,415223296,0.0039,-0.1650,-0.8784,3.48,-2.99,0.55
1411,415228296,-0.0059,-0.1650,-0.8770,3.41,-2.93,0.43
1412,415233296,0.0146,-0.1602,-0.8726,3.35,-2.93,0.49
1413,415238296,0.0347,-0.1577,-0.8755,3.54,-3.05,0.43
1414,415243296,0.0347,-0.1606,-0.8765,3.48,-3.05,0.49
1415,415248297,0.0312,-0.1582,-0.8750,3.48,-2.99,0.49
1416,415253296,0.0029,-0.1665,-0.8745,3.35,-2.99,0.61
1417,415258477,0.0063,-0.1660,-0.8687,3.41,-2.99,0.55
1418,415263296,0.0195,-0.1597,-0.8750,3.35,-2.99,0.49
1419,415268296,0.0288,-0.1587,-0.8706,3.35,-2.99,0.55
1420,415273296,0.0195,-0.1665,-0.8667,3.35,-2.87,0.55
1421,415278296,0.0083,-0.1631,-0.8711,3.35,-2.80,0.55
1422,415283297,0.0146,-0.1611,-0.8711,3.35,-2.87,0.55
1423,415288296,-0.0020,-0.1626,-0.8735,3.23,-2.74,0.49
1424,415293296,0.0039,-0.1582,-0.8721,3.17,-2.74,0.49
1425,415298524,-0.0083,-0.1626,-0.8721,3.11,-2.56,0.49
1426,415303296,-0.0020,-0.1582,-0.8682,3.05,-2.44,0.30
1427,415308296,-0.0132,-0.1641,-0.8701,2.93,-2.32,0.24
1428,415313296,-0.0137,-0.1582,-0.8672,2.87,-2.38,0.18
1429,415318296,-0.0034,-0.1562,-0.8691,2.74,-2.20,0.12
1430,415323296,0.0083,-0.1553,-0.8647,2.62,-2.13,0.06
1431,415328296,-0.0068,-0.1665,-0.8667,2.50,-1.89,0.00
1432,415333296,-0.0073,-0.1670,-0.8716,2.32,-2.01,-0.06
1433,415338295,0.0098,-0.1602,-0.8726,2.26,-1.83,0.00
1434,415343296,0.0112,-0.1631,-0.8706,2.13,-1.71,-0.06
1435,415348294,0.0186,-0.1655,-0.8711,2.13,-1.65,0.00
1436,415353294,0.0132,-0.1670,-0.8716,1.95,-1.65,-0.06
1437,415358294,0.0063,-0.1729,-0.8667,1.77,-1.46,-0.12
1438,415363296,-0.0010,-0.1758,-0.8682,1.89,-1.46,0.00
1439,415368294,0.0044,-0.1699,-0.8662,1.71,-1.28,0.06
1440,415373295,0.0249,-0.1685,-0.8691,1.77,-1.22,0.12
1441,415378296,0.0029,-0.1724,-0.8701,1.83,-1.10,0.30
1442,415383294,0.0059,-0.1729,-0.8677,1.65,-1.04,0.43
1443,415388295,0.0259,-0.1675,-0.8701,1.71,-1.04,0.55
1444,415393294,0.0244,-0.1646,-0.8647,1.77,-0.91,0.61
1445,415398294,0.0205,-0.1724,-0.8711,1.59,-0.98,0.85
1446,415403294,0.0347,-0.1646,-0.8745,1.59,-0.98,1.04
1447,415408296,0.0293,-0.1714,-0.8774,1.52,-0.91,1.10
1448,415413296,0.0088,-0.1816,-0.8774,1.59,-0.85,1.22
1449,415418297,0.0234,-0.1655,-0.8677,1.65,-0.91,1.40
1450,415423489,0.0337,-0.1641,-0.8784,1.59,-0.98,1.46
1451,415428517,0.0171,-0.1685,-0.8789,1.59,-0.91,1.65
1452,415433382,0.0044,-0.1665,-0.8740,1.65,-0.98,1.71
1453,415438295,0.0259,-0.1577,-0.8726,1.77,-0.91,1.71
1454,415443608,0.0190,-0.1665,-0.8735,1.83,-0.98,1.89
1455,415448296,0.0220,-0.1621,-0.8755,1.89,-0.98,1.95
1456,415453297,0.0112,-0.1660,-0.8770,1.95,-1.10,1.95
1457,415458296,0.0254,-0.1548,-0.8745,1.95,-1.16,1.95
1458,415463454,0.0312,-0.1587,-0.8760,2.13,-1.22,1.89
1459,415468642,0.0068,-0.1655,-0.8770,2.20,-1.28,1.95
1460,415473296,0.0010,-0.1592,-0.8765,2.20,-1.28,1.89
1461,415478296,0.0068,-0.1611,-0.8730,2.26,-1.28,1.83
1462,415483479,0.0020,-0.1606,-0.8765,2.26,-1.40,1.89
1463,415488296,0.0288,-0.1577,-0.8721,2.26,-1.28,1.77
1464,415493296,0.0176,-0.1621,-0.8726,2.38,-1.40,1.71
1465,415498296,0.0107,-0.1631,-0.8750,2.26,-1.40,1.59
1466,415503296,0.0332,-0.1519,-0.8696,2.26,-1.34,1.65
1467,415508777,0.0293,-0.1572,-0.8726,2.32,-1.40,1.52
1468,415513296,0.0034,-0.1641,-0.8672,2.32,-1.28,1.52
1469,415518296,0.0186,-0.1567,-0.8682,2.20,-1.46,1.59
1470,415523296,0.0371,-0.1538,-0.8804,2.20,-1.16,1.52
1471,415528948,0.0264,-0.1597,-0.8711,2.32,-1.34,1.59
1472,415533296,0.0234,-0.1587,-0.8687,2.20,-1.10,1.52
1473,415538294,0.0269,-0.1606,-0.8740,2.07,-1.16,1.52
1474,415543294,0.0117,-0.1675,-0.8809,2.20,-1.10,1.65
1475,415548294,0.0361,-0.1558,-0.8730,2.20,-1.10,1.59
1476,415553294,0.0156,-0.1670,-0.8760,2.01,-0.98,1.52
1477,415558294,0.0356,-0.1597,-0.8726,2.07,-1.22,1.59
1478,415563294,0.0151,-0.1626,-0.8740,2.13,-1.10,1.65
1479,415568294,0.0317,-0.1606,-0.8809,2.07,-1.16,1.71
1480,415573294,0.0244,-0.1611,-0.8730,2.07,-1.16,1.71
1481,415578294,0.0200,-0.1621,-0.8735,2.13,-1.04,1.71
1482,415583294,0.0117,-0.1650,-0.8774,2.20,-1.04,1.71
1483,415588294,0.0220,-0.1616,-0.8716,2.07,-1.10,1.77
1484,415593294,0.0322,-0.1548,-0.8774,2.13,-1.16,1.71
1485,415598294,0.0044,-0.1582,-0.8765,2.13,-1.16,1.71
1486,415603294,0.0098,-0.1592,-0.8755,2.38,-1.22,1.77
1487,415608294,0.0244,-0.1538,-0.8726,2.32,-1.40,1.71
1488,415613294,0.0342,-0.1523,-0.8730,2.50,-1.34,1.71
1489,415618294,0.0327,-0.1548,-0.8779,2.38,-1.28,1.77
1490,415623294,0.0278,-0.1567,-0.8721,2.38,-1.40,1.52
1491,415628298,0.0142,-0.1611,-0.8730,2.50,-1.46,1.65
1492,415633296,0.0059,-0.1660,-0.8726,2.38,-1.65,1.59
1493,415638518,0.0288,-0.1519,-0.8696,2.38,-1.65,1.65
1494,415643295,0.0327,-0.1577,-0.8701,2.38,-1.46,1.59
1495,415648294,0.0249,-0.1670,-0.8779,2.38,-1.52,1.71
1496,415653295,0.0210,-0.1660,-0.8706,2.32,-1.40,1.77
1497,415658296,0.0093,-0.1704,-0.8789,2.26,-1.40,1.77
1498,415663294,0.0161,-0.1670,-0.8784,2.26,-1.16,1.77
1499,415668295,0.0234,-0.1660,-0.8804,2.32,-1.46,1.83
1500,415673296,0.0107,-0.1680,-0.8721,2.26,-1.28,1.95
1501,415678296,0.0210,-0.1650,-0.8701,2.26,-1.22,2.13
1502,415683296,0.0327,-0.1611,-0.8726,2.38,-1.16,2.20
1503,415688461,0.0415,-0.1611,-0.8726,2.20,-1.22,2.32
1504,415693296,0.0317,-0.1641,-0.8750,2.07,-1.16,2.38
1505,415698296,0.0078,-0.1689,-0.8750,2.20,-1.10,2.32
1506,415703718,0.0063,-0.1680,-0.8760,2.07,-1.16,2.38
1507,415708296,0.0073,-0.1689,-0.8765,2.07,-1.04,2.56
1508,415713296,0.0024,-0.1641,-0.8721,2.01,-0.98,2.56
1509,415718296,0.0083,-0.1577,-0.8711,1.95,-1.16,2.62
1510,415723665,0.0024,-0.1587,-0.8765,2.01,-0.98,2.44
1511,415728296,-0.0010,-0.1641,-0.8809,1.89,-0.98,2.44
1512,415733607,0.0059,-0.1602,-0.8779,1.95,-0.91,2.50
1513,415738296,0.0005,-0.1606,-0.8745,2.07,-0.98,2.32
1514,415743295,0.0010,-0.1641,-0.8750,1.95,-1.04,2.32
1515,415748296,0.0146,-0.1587,-0.8701,2.07,-1.04,2.20
1516,415753296,0.0181,-0.1587,-0.8789,2.13,-1.22,2.20
1517,415758296,0.0054,-0.1626,-0.8774,2.26,-1.22,2.20
1518,415763295,0.0122,-0.1650,-0.8711,2.26,-1.16,2.20
1519,415768468,0.0176,-0.1611,-0.8774,2.26,-1.34,2.13
1520,415773294,0.0229,-0.1636,-0.8794,2.38,-1.34,2.20
1521,415778296,0.0156,-0.1641,-0.8755,2.44,-1.40,2.26
1522,415783296,0.0205,-0.1660,-0.8770,2.50,-1.52,2.26
1523,415788295,0.0176,-0.1636,-0.8818,2.56,-1.52,2.26
1524,415793294,0.0156,-0.1680,-0.8794,2.50,-1.40,2.20
1525,415798295,0.0049,-0.1660,-0.8770,2.44,-1.34,2.32
1526,415803294,0.0161,-0.1558,-0.8735,2.44,-1.28,2.38
1527,415808294,0.0322,-0.1558,-0.8784,2.20,-1.34,2.38
1528,415813294,0.0283,-0.1606,-0.8735,2.20,-1.28,2.38
1529,415818294,0.0093,-0.1646,-0.8750,2.07,-1.22,2.32
1530,415823294,-0.0020,-0.1689,-0.8730,1.95,-1.10,2.38
1531,415828296,0.0034,-0.1641,-0.8711,1.89,-1.10,2.38
1532,415833294,0.0000,-0.1660,-0.8735,1.71,-1.10,2.32
1533,415838296,0.0029,-0.1587,-0.8691,1.52,-0.79,2.32
1534,415843296,0.0049,-0.1597,-0.8750,1.59,-0.85,2.32
1535,415848296,0.0049,-0.1572,-0.8745,1.52,-0.73,2.26
1536,415853296,0.0171,-0.1528,-0.8716,1.40,-0.73,2.32
1537,415858296,0.0132,-0.1489,-0.8716,1.34,-0.67,2.20
1538,415863294,0.0283,-0.1558,-0.8745,1.40,-0.79,2.07
1539,415868462,0.0088,-0.1621,-0.8750,1.40,-0.79,2.07
1540,415873296,0.0098,-0.1558,-0.8716,1.40,-0.73,2.13
1541,415878296,0.0132,-0.1538,-0.8774,1.46,-0.67,2.01
1542,415883296,0.0317,-0.1523,-0.8755,1.52,-0.67,2.07
1543,415888296,0.0264,-0.1553,-0.8765,1.65,-0.91,2.07
1544,415893469,0.0181,-0.1567,-0.8799,1.65,-0.91,2.01
1545,415898296,0.0215,-0.1582,-0.8789,1.83,-1.04,1.95
1546,415903296,0.0200,-0.1636,-0.8838,1.95,-1.04,2.07
1547,415908405,0.0093,-0.1626,-0.8784,2.13,-1.04,2.07
1548,415913296,0.0171,-0.1577,-0.8784,2.26,-1.22,2.07
1549,415918296,0.0308,-0.1543,-0.8794,2.26,-1.34,2.07
1550,415923296,0.0371,-0.1582,-0.8833,2.44,-1.65,2.13
1551,415928296,0.0347,-0.1543,-0.8818,2.38,-1.46,2.13
1552,415933776,0.0312,-0.1611,-0.8779,2.44,-1.59,2.07
1553,415938296,0.0205,-0.1626,-0.8784,2.50,-1.59,2.07
1554,415943295,0.0054,-0.1641,-0.8799,2.50,-1.77,2.07
1555,415948294,0.0112,-0.1606,-0.8779,2.44,-1.77,2.07
1556,415953294,0.0317,-0.1528,-0.8740,2.50,-1.83,2.01
1557,415958294,0.0073,-0.1611,-0.8735,2.74,-1.83,2.13
1558,415963294,0.0195,-0.1562,-0.8774,2.56,-1.77,2.01
1559,415968294,0.0278,-0.1553,-0.8696,2.44,-1.89,2.01
1560,415973296,0.0190,-0.1577,-0.8730,2.56,-1.83,1.95
1561,415978296,0.0239,-0.1553,-0.8735,2.38,-1.77,1.83
1562,415983296,0.0312,-0.1465,-0.8711,2.56,-1.59,1.83
1563,415988296,0.0146,-0.1538,-0.8740,2.44,-1.71,1.77
1564,415993296,0.0181,-0.1553,-0.8672,2.44,-1.59,1.71
1565,415998296,0.0317,-0.1533,-0.8750,2.26,-1.40,1.77
1566,416003297,0.0234,-0.1572,-0.8706,2.38,-1.40,1.71
1567,416008296,0.0029,-0.1626,-0.8735,2.20,-1.40,1.71
1568,416013294,0.0073,-0.1626,-0.8745,2.26,-1.40,1.83
1569,416018294,0.0181,-0.1533,-0.8677,2.20,-1.34,1.77
1570,416023294,0.0298,-0.1519,-0.8760,2.07,-1.40,1.77
1571,416028294,0.0171,-0.1528,-0.8740,2.07,-1.46,1.65
1572,416033423,0.0024,-0.1592,-0.8774,2.13,-1.52,1.65
1573,416038296,0.0215,-0.1504,-0.8799,2.07,-1.34,1.65
1574,416043295,0.0171,-0.1509,-0.8818,2.01,-1.46,1.52
1575,416048296,0.0273,-0.1514,-0.8809,2.13,-1.46,1.40
1576,416053296,0.0142,-0.1479,-0.8774,2.07,-1.46,1.16
1577,416058296,0.0059,-0.1558,-0.8799,2.20,-1.65,1.16
1578,416063295,0.0254,-0.1514,-0.8735,2.13,-1.59,1.22
1579,416068296,0.0225,-0.1533,-0.8809,2.13,-1.89,0.98
1580,416073296,0.0195,-0.1543,-0.8765,2.38,-1.83,0.91
1581,416078429,0.0327,-0.1519,-0.8745,2.50,-1.83,0.98
1582,416083441,0.0332,-0.1514,-0.8750,2.32,-1.71,0.91
1583,416088296,0.0229,-0.1587,-0.8696,2.44,-1.83,0.91
1584,416093768,0.0117,-0.1587,-0.8711,2.56,-1.83,0.91
1585,416098296,0.0229,-0.1548,-0.8721,2.62,-1.77,0.91
1586,416103297,0.0259,-0.1641,-0.8799,2.68,-1.83,0.98
1587,416108296,0.0117,-0.1665,-0.8765,2.56,-1.83,1.04
1588,416113332,0.0239,-0.1631,-0.8726,2.56,-1.89,1.22
1589,416118297,0.0298,-0.1655,-0.8740,2.62,-1.83,1.28
1590,416123339,0.0103,-0.1675,-0.8677,2.50,-1.65,1.40
1591,416128297,0.0288,-0.1626,-0.8730,2.50,-1.83,1.40
1592,416133772,0.0200,-0.1636,-0.8760,2.44,-1.65,1.59
1593,416138296,0.0039,-0.1685,-0.8755,2.44,-1.77,1.59
1594,416143296,0.0103,-0.1611,-0.8696,2.38,-1.59,1.65
1595,416148295,0.0269,-0.1548,-0.8726,2.38,-1.52,1.65
1596,416153296,0.0107,-0.1626,-0.8726,2.26,-1.46,1.71
1597,416158296,0.0322,-0.1567,-0.8682,2.20,-1.28,1.77
1598,416163296,0.0073,-0.1636,-0.8730,2.20,-1.40,1.71
1599,416168296,0.0273,-0.1558,-0.8672,2.07,-1.28,1.77
1600,416173505,0.0059,-0.1611,-0.8730,2.01,-1.28,1.83
1601,416178296,0.0186,-0.1572,-0.8740,2.07,-1.16,1.77
1602,416183296,0.0283,-0.1553,-0.8711,2.01,-1.34,1.77
1603,416188296,0.0015,-0.1631,-0.8750,2.07,-1.22,1.89
1604,416193296,0.0186,-0.1562,-0.8745,2.01,-1.28,1.83
1605,416198299,0.0312,-0.1587,-0.8730,2.01,-1.22,1.77
1606,416203761,0.0215,-0.1577,-0.8784,2.13,-1.16,1.77
1607,416208297,0.0269,-0.1597,-0.8682,2.13,-1.22,1.71
1608,416213296,0.0107,-0.1641,-0.8784,2.13,-1.22,1.83
1609,416218296,0.0322,-0.1523,-0.8774,2.26,-1.34,1.77
1610,416223296,0.0088,-0.1646,-0.8740,2.26,-1.40,1.77
1611,416228296,0.0254,-0.1592,-0.8755,2.32,-1.34,1.83
1612,416233296,0.0200,-0.1553,-0.8721,2.20,-1.34,1.77
1613,416238773,0.0132,-0.1650,-0.8784,2.26,-1.28,1.83
1614,416243296,0.0259,-0.1494,-0.8745,2.32,-1.22,1.89
1615,416248295,0.0264,-0.1558,-0.8735,2.32,-1.40,1.77
1616,416253294,0.0073,-0.1636,-0.8755,2.26,-1.46,1.89
1617,416258294,0.0186,-0.1553,-0.8716,2.38,-1.40,1.89
1618,416263294,0.0361,-0.1499,-0.8750,2.38,-1.46,1.95
1619,416268294,0.0269,-0.1533,-0.8765,2.32,-1.40,1.95
1620,416273294,0.0088,-0.1636,-0.8701,2.20,-1.40,1.83
1621,416278296,0.0088,-0.1572,-0.8760,2.38,-1.22,1.83
1622,416283295,0.0239,-0.1587,-0.8745,2.26,-1.34,1.89
1623,416288296,0.0049,-0.1655,-0.8721,2.20,-1.28,1.95
1624,416293297,0.0137,-0.1587,-0.8701,2.26,-1.28,1.95
1625,416298296,0.0132,-0.1562,-0.8716,2.26,-1.34,1.95
1626,416303294,0.0234,-0.1523,-0.8740,2.20,-1.22,1.95
1627,416308295,0.0225,-0.1631,-0.8730,2.13,-1.16,1.83
1628,416313294,0.0088,-0.1621,-0.8745,2.13,-1.22,1.95
1629,416318294,0.0151,-0.1553,-0.8750,2.07,-1.28,1.89
1630,416323296,0.0347,-0.1484,-0.8687,2.07,-1.10,1.89
1631,416328296,0.0083,-0.1567,-0.8765,2.01,-1.16,1.89
1632,416333298,0.0259,-0.1509,-0.8726,2.01,-1.28,1.89
1633,416338296,0.0361,-0.1509,-0.8740,2.13,-1.10,1.83
1634,416343296,0.0229,-0.1548,-0.8794,2.13,-1.22,1.83
1635,416348520,0.0088,-0.1567,-0.8770,1.95,-1.16,1.71
1636,416353296,0.0073,-0.1528,-0.8774,2.01,-1.22,1.65
1637,416358296,0.0249,-0.1470,-0.8794,2.01,-1.22,1.77
1638,416363561,0.0254,-0.1562,-0.8750,2.13,-1.34,1.59
1639,416368296,0.0195,-0.1538,-0.8740,2.13,-1.28,1.52
1640,416373296,0.0151,-0.1538,-0.8813,2.13,-1.34,1.59
1641,416378296,0.0210,-0.1553,-0.8779,2.20,-1.46,1.46
1642,416383299,0.0322,-0.1548,-0.8745,2.26,-1.46,1.59
1643,416388296,0.0073,-0.1587,-0.8804,2.32,-1.52,1.52
1644,416393296,0.0034,-0.1655,-0.8843,2.38,-1.52,1.46
1645,416398296,-0.0005,-0.1602,-0.8750,2.44,-1.65,1.52
1646,416403421,0.0088,-0.1602,-0.8721,2.44,-1.59,1.34
1647,416408296,0.0151,-0.1597,-0.8765,2.50,-1.52,1.46
1648,416413296,0.0181,-0.1572,-0.8691,2.50,-1.71,1.46
1649,416418296,0.0122,-0.1606,-0.8755,2.56,-1.59,1.46
1650,416423403,0.0371,-0.1509,-0.8711,2.50,-1.83,1.46
1651,416428296,0.0200,-0.1572,-0.8809,2.50,-1.65,1.52
1652,416433424,0.0083,-0.1616,-0.8740,2.50,-1.71,1.52
1653,416438588,0.0293,-0.1538,-0.8784,2.50,-1.71,1.71
1654,416443296,0.0127,-0.1616,-0.8701,2.50,-1.52,1.52
1655,416448298,0.0127,-0.1577,-0.8726,2.56,-1.83,1.59
1656,416453296,0.0347,-0.1538,-0.8716,2.44,-1.71,1.59
1657,416458726,0.0132,-0.1621,-0.8755,2.56,-1.59,1.59
1658,416463296,0.0029,-0.1611,-0.8770,2.50,-1.52,1.65
1659,416468296,0.0288,-0.1567,-0.8706,2.44,-1.71,1.65
1660,416473296,0.0239,-0.1621,-0.8735,2.44,-1.65,1.59
1661,416478298,0.0039,-0.1675,-0.8735,2.38,-1.40,1.71
1662,416483958,0.0254,-0.1602,-0.8726,2.38,-1.52,1.77
1663,416488296,0.0142,-0.1650,-0.8711,2.38,-1.40,1.71
1664,416493296,0.0264,-0.1582,-0.8706,2.32,-1.46,1.71
1665,416498296,0.0098,-0.1611,-0.8735,2.50,-1.52,1.65
1666,416503296,0.0308,-0.1567,-0.8765,2.32,-1.40,1.89
1667,416508295,0.0298,-0.1582,-0.8784,2.38,-1.52,1.77
1668,416513295,0.0063,-0.1631,-0.8745,2.32,-1.40,1.77
1669,416518294,0.0142,-0.1592,-0.8760,2.38,-1.40,1.95
1670,416523294,0.0303,-0.1572,-0.8774,2.32,-1.40,1.89
1671,416528294,0.0127,-0.1606,-0.8799,2.32,-1.34,1.89
1672,416533296,0.0327,-0.1528,-0.8740,2.38,-1.34,1.83
1673,416538297,0.0088,-0.1602,-0.8765,2.38,-1.59,1.95
1674,416543295,0.0181,-0.1538,-0.8711,2.32,-1.40,1.83
1675,416548294,0.0254,-0.1558,-0.8745,2.32,-1.40,1.95
1676,416553294,0.0103,-0.1626,-0.8765,2.26,-1.46,1.89
1677,416558296,0.0156,-0.1548,-0.8730,2.50,-1.22,1.95
1678,416563296,0.0269,-0.1572,-0.8706,2.44,-1.46,1.83
1679,416568296,0.0166,-0.1538,-0.8789,2.50,-1.52,1.89
1680,416573295,0.0190,-0.1587,-0.8770,2.56,-1.59,1.89
1681,416578297,0.0303,-0.1548,-0.8696,2.56,-1.52,1.83
1682,416583294,0.0083,-0.1626,-0.8730,2.56,-1.52,1.83
1683,416588294,0.0264,-0.1572,-0.8726,2.50,-1.59,1.77
1684,416593294,0.0093,-0.1641,-0.8809,2.56,-1.46,1.89
1685,416598294,0.0356,-0.1543,-0.8735,2.56,-1.40,1.77
1686,416603294,0.0142,-0.1621,-0.8779,2.68,-1.40,1.89
1687,416608294,0.0122,-0.1572,-0.8701,2.56,-1.46,1.83
1688,416613294,0.0171,-0.1606,-0.8711,2.68,-1.34,1.89
1689,416618294,0.0293,-0.1577,-0.8735,2.44,-1.34,1.95
1690,416623294,0.0068,-0.1602,-0.8735,2.50,-1.34,1.95
1691,416628294,0.0161,-0.1572,-0.8765,2.38,-1.34,1.95
1692,416633294,0.0308,-0.1553,-0.8789,2.50,-1.28,1.95
1693,416638294,0.0156,-0.1616,-0.8750,2.44,-1.34,1.89
1694,416643294,0.0039,-0.1650,-0.8770,2.32,-1.22,1.95
1695,416648294,0.0010,-0.1611,-0.8770,2.26,-1.28,2.01
1696,416653294,0.0215,-0.1543,-0.8789,2.32,-1.16,1.89
1697,416658294,0.0288,-0.1538,-0.8711,2.26,-1.22,1.95
1698,416663294,0.0127,-0.1602,-0.8682,2.26,-1.16,1.95
1699,416668298,0.0210,-0.1548,-0.8765,2.20,-1.28,1.83
1700,416673298,0.0234,-0.1553,-0.8662,2.26,-1.16,1.83
1701,416678295,0.0068,-0.1616,-0.8730,2.32,-1.28,2.01
1702,416683295,0.0298,-0.1489,-0.8774,2.32,-1.22,1.89
1703,416688294,0.0127,-0.1533,-0.8765,2.32,-1.22,1.83
1704,416693294,0.0171,-0.1572,-0.8794,2.32,-1.34,1.89
1705,416698294,0.0215,-0.1558,-0.8755,2.38,-1.34,1.95
1706,416703295,0.0298,-0.1582,-0.8721,2.44,-1.46,1.89
1707,416708297,0.0132,-0.1582,-0.8770,2.44,-1.34,1.77
1708,416713296,0.0327,-0.1528,-0.8755,2.56,-1.46,1.89
1709,416718741,0.0063,-0.1606,-0.8760,2.56,-1.22,1.89
1710,416723296,0.0215,-0.1543,-0.8730,2.68,-1.46,1.77
1711,416728557,0.0273,-0.1528,-0.8677,2.74,-1.52,1.89
1712,416733407,0.0215,-0.1611,-0.8726,2.74,-1.46,1.95
1713,416738433,0.0132,-0.1597,-0.8770,2.87,-1.40,2.01
1714,416743322,0.0352,-0.1582,-0.8750,3.05,-1.52,2.01
1715,416748412,0.0273,-0.1665,-0.8721,3.05,-1.59,2.26
1716,416753329,0.0132,-0.1685,-0.8735,3.11,-1.65,2.20
1717,416758434,0.0269,-0.1611,-0.8716,3.11,-1.46,2.38
1718,416763382,0.0327,-0.1621,-0.8774,3.23,-1.65,2.38
1719,416768296,0.0176,-0.1660,-0.8701,3.17,-1.65,2.50
1720,416773296,0.0210,-0.1704,-0.8779,3.23,-1.52,2.68
1721,416778296,0.0112,-0.1626,-0.8784,3.35,-1.71,2.68
1722,416783296,0.0283,-0.1577,-0.8716,3.23,-1.65,2.80
1723,416788296,0.0063,-0.1655,-0.8716,3.23,-1.71,2.87
1724,416793297,0.0195,-0.1592,-0.8809,3.29,-1.52,2.87
1725,416798295,0.0200,-0.1587,-0.8813,3.17,-1.59,2.80
1726,416803296,0.0029,-0.1582,-0.8765,3.29,-1.71,2.74
1727,416808296,0.0269,-0.1553,-0.8779,3.17,-1.83,2.74
1728,416813297,0.0044,-0.1533,-0.8765,3.05,-1.59,2.68
1729,416818296,0.0220,-0.1519,-0.8750,3.17,-1.52,2.68
1730,416823298,0.0117,-0.1509,-0.8755,3.05,-1.59,2.62
1731,416828296,0.0273,-0.1509,-0.8779,2.99,-1.59,2.62
1732,416833296,0.0298,-0.1475,-0.8809,2.87,-1.71,2.38
1733,416838298,0.0107,-0.1509,-0.8740,2.93,-1.71,2.26
1734,416843296,0.0303,-0.1436,-0.8833,2.93,-1.59,2.26
1735,416848294,0.0103,-0.1514,-0.8848,2.87,-1.65,2.13
1736,416853296,0.0239,-0.1470,-0.8745,2.99,-1.65,2.01
1737,416858295,0.0142,-0.1484,-0.8750,2.99,-1.71,1.83
1738,416863294,0.0215,-0.1504,-0.8760,2.99,-1.95,1.71
1739,416868294,0.0312,-0.1499,-0.8755,3.11,-1.89,1.65
1740,416873294,0.0186,-0.1587,-0.8789,3.11,-1.95,1.59
1741,416878297,0.0298,-0.1548,-0.8770,3.05,-1.95,1.52
1742,416883296,0.0195,-0.1602,-0.8745,3.11,-1.89,1.46
1743,416888296,0.0103,-0.1616,-0.8779,3.11,-1.83,1.52
1744,416893785,0.0298,-0.1528,-0.8740,2.93,-1.83,1.52
1745,416898296,0.0137,-0.1626,-0.8794,2.80,-1.89,1.52
1746,416903295,0.0054,-0.1646,-0.8765,2.74,-1.83,1.46
1747,416908772,0.0190,-0.1597,-0.8755,2.56,-1.83,1.59
1748,416913296,0.0210,-0.1641,-0.8809,2.50,-1.89,1.59
1749,416918376,0.0029,-0.1689,-0.8794,2.44,-1.83,1.59
1750,416923295,0.0317,-0.1577,-0.8721,2.38,-1.65,1.71
1751,416928294,0.0264,-0.1621,-0.8716,2.26,-1.65,1.71
1752,416933294,0.0054,-0.1660,-0.8770,2.20,-1.77,1.77
1753,416938548,0.0024,-0.1689,-0.8701,2.20,-1.71,1.77
1754,416943296,0.0273,-0.1558,-0.8721,2.13,-1.59,1.89
1755,416948295,0.0068,-0.1670,-0.8794,2.07,-1.65,1.83
1756,416953296,0.0298,-0.1582,-0.8721,2.26,-1.59,1.89
1757,416958300,0.0181,-0.1646,-0.8740,2.26,-1.65,1.89
1758,416963296,0.0195,-0.1567,-0.8730,2.44,-1.65,1.83
1759,416968296,0.0176,-0.1646,-0.8755,2.32,-1.71,1.95
1760,416973297,0.0137,-0.1587,-0.8682,2.50,-1.71,1.95
1761,416978296,0.0317,-0.1519,-0.8696,2.62,-1.71,1.95
1762,416983422,0.0073,-0.1650,-0.8716,2.87,-1.83,1.89
1763,416988295,0.0171,-0.1577,-0.8735,2.87,-1.89,1.83
1764,416993296,0.0283,-0.1582,-0.8726,3.05,-1.89,1.83
1765,416998296,0.0132,-0.1616,-0.8765,3.11,-2.01,1.77
1766,417003679,0.0195,-0.1553,-0.8687,2.99,-2.01,1.83
1767,417008296,0.0254,-0.1616,-0.8765,3.23,-2.01,1.83
1768,417013295,0.0059,-0.1582,-0.8701,3.05,-1.95,1.89
1769,417018415,0.0234,-0.1646,-0.8711,3.23,-1.95,1.77
1770,417023295,0.0127,-0.1621,-0.8721,3.11,-2.01,1.95
1771,417028298,0.0249,-0.1611,-0.8721,3.11,-1.83,1.83
1772,417033296,0.0054,-0.1670,-0.8765,3.05,-1.83,1.95
1773,417038296,0.0161,-0.1597,-0.8730,3.11,-1.65,1.95
1774,417043296,0.0312,-0.1572,-0.8667,2.99,-1.77,2.01
1775,417048295,0.0127,-0.1680,-0.8716,2.93,-1.71,2.07
1776,417053296,0.0122,-0.1606,-0.8643,2.80,-1.59,2.07
1777,417058746,0.0278,-0.1611,-0.8760,2.80,-1.52,2.07
1778,417063296,0.0063,-0.1621,-0.8706,2.56,-1.52,2.01
1779,417068296,0.0127,-0.1582,-0.8716,2.56,-1.40,2.07
1780,417073296,0.0225,-0.1602,-0.8750,2.62,-1.34,1.89
1781,417078296,0.0127,-0.1562,-0.8716,2.44,-1.34,2.01
1782,417083296,0.0146,-0.1582,-0.8774,2.38,-1.28,1.95
1783,417088295,0.0288,-0.1533,-0.8672,2.50,-1.34,2.01
1784,417093296,0.0361,-0.1562,-0.8745,2.38,-1.16,1.89
1785,417098296,0.0137,-0.1621,-0.8765,2.38,-1.34,1.89
1786,417103294,0.0093,-0.1592,-0.8765,2.32,-1.22,1.89
1787,417108296,0.0293,-0.1572,-0.8794,2.44,-1.22,1.83
1788,417113318,0.0088,-0.1636,-0.8804,2.50,-1.40,1.77
1789,417118296,0.0327,-0.1509,-0.8740,2.50,-1.46,1.77
1790,417123296,0.0288,-0.1572,-0.8745,2.50,-1.28,1.71
1791,417128298,0.0210,-0.1572,-0.8721,2.56,-1.40,1.77
1792,417133298,0.0107,-0.1597,-0.8799,2.50,-1.46,1.65
1793,417138296,0.0317,-0.1597,-0.8760,2.62,-1.34,1.77
1794,417143295,0.0112,-0.1689,-0.8784,2.62,-1.28,1.89
1795,417148294,0.0176,-0.1714,-0.8784,2.68,-1.40,1.95
1796,417153294,0.0298,-0.1665,-0.8730,2.62,-1.28,2.01
1797,417158294,0.0117,-0.1719,-0.8813,2.62,-1.46,2.13
1798,417163294,0.0288,-0.1670,-0.8755,2.62,-1.40,2.26
1799,417168294,0.0093,-0.1699,-0.8730,2.68,-1.46,2.44
1800,417173297,0.0225,-0.1719,-0.8706,2.74,-1.46,2.44
1801,417178294,0.0269,-0.1699,-0.8774,2.80,-1.34,2.56
1802,417183294,0.0112,-0.1792,-0.8682,2.80,-1.34,2.74
1803,417188294,0.0273,-0.1646,-0.8711,2.68,-1.28,2.87
1804,417193294,0.0127,-0.1729,-0.8701,2.62,-1.28,3.05
1805,417198298,0.0195,-0.1729,-0.8652,2.74,-1.10,3.17
1806,417203296,0.0342,-0.1675,-0.8628,2.68,-1.22,3.35
1807,417208295,0.0176,-0.1704,-0.8662,2.68,-1.10,3.48
1808,417213295,0.0161,-0.1719,-0.8662,2.87,-1.04,3.66
1809,417218294,0.0161,-0.1685,-0.8745,2.74,-0.91,3.72
1810,417223294,0.0146,-0.1680,-0.8726,2.74,-0.98,3.78
1811,417228294,0.0215,-0.1670,-0.8730,2.74,-0.98,3.84
1812,417233294,0.0317,-0.1562,-0.8755,2.62,-0.73,3.84
1813,417238294,0.0176,-0.1616,-0.8716,2.62,-0.85,3.90
1814,417243294,0.0166,-0.1597,-0.8770,2.50,-0.61,3.90
1815,417248294,0.0181,-0.1553,-0.8760,2.50,-0.79,3.84
1816,417253387,0.0303,-0.1528,-0.8784,2.44,-0.79,3.72
1817,417258298,0.0122,-0.1577,-0.8823,2.38,-0.73,3.66
1818,417263395,0.0283,-0.1470,-0.8750,2.44,-0.67,3.66
1819,417268297,0.0098,-0.1543,-0.8809,2.38,-0.98,3.41
1820,417273379,0.0195,-0.1465,-0.8779,2.38,-0.91,3.35
1821,417278781,0.0176,-0.1465,-0.8760,2.26,-0.91,3.05
1822,417283296,0.0034,-0.1533,-0.8809,2.44,-0.98,2.93
1823,417288296,0.0142,-0.1470,-0.8735,2.38,-1.04,2.80
1824,417293295,0.0146,-0.1426,-0.8735,2.50,-1.04,2.68
1825,417298300,0.0161,-0.1445,-0.8765,2.50,-1.16,2.50
1826,417303296,0.0122,-0.1494,-0.8711,2.68,-1.04,2.32
1827,417308571,0.0068,-0.1567,-0.8789,2.74,-1.22,2.20
1828,417313299,0.0215,-0.1484,-0.8755,2.74,-1.22,1.95
1829,417318296,0.0015,-0.1523,-0.8794,2.74,-1.52,1.83
1830,417323657,0.0195,-0.1479,-0.8838,2.80,-1.40,1.52
1831,417328296,0.0273,-0.1499,-0.8813,2.87,-1.59,1.52
1832,417333299,0.0161,-0.1553,-0.8809,2.80,-1.59,1.46
1833,417338295,0.0337,-0.1572,-0.8857,2.74,-1.65,1.34
1834,417343296,0.0142,-0.1597,-0.8833,2.74,-1.71,1.34
1835,417348296,0.0161,-0.1616,-0.8843,2.80,-1.83,1.34
1836,417353704,0.0234,-0.1592,-0.8760,2.87,-1.95,1.28
1837,417358296,0.0093,-0.1655,-0.8779,2.87,-2.26,1.28
1838,417363296,0.0264,-0.1538,-0.8794,2.93,-2.20,1.28
1839,417368296,0.0063,-0.1685,-0.8794,2.99,-2.32,1.16
1840,417373296,0.0190,-0.1553,-0.8799,2.99,-2.44,1.10
1841,417378299,0.0034,-0.1553,-0.8721,3.05,-2.44,1.10
1842,417383296,0.0166,-0.1475,-0.8765,3.05,-2.50,0.91
1843,417388297,-0.0088,-0.1514,-0.8804,3.05,-2.50,0.79
1844,417393569,0.0103,-0.1475,-0.8784,2.93,-2.56,0.61
1845,417398296,-0.0029,-0.1533,-0.8730,2.93,-2.50,0.43
1846,417403295,0.0181,-0.1494,-0.8687,2.80,-2.38,0.24
1847,417408296,0.0034,-0.1567,-0.8760,2.80,-2.50,0.12
1848,417413462,0.0186,-0.1553,-0.8799,2.80,-2.44,-0.12
1849,417418332,0.0220,-0.1514,-0.8770,2.87,-2.56,-0.18
1850,417423296,0.0215,-0.1562,-0.8730,2.93,-2.50,-0.24
1851,417428294,0.0215,-0.1606,-0.8735,2.93,-2.74,-0.30
1852,417433294,0.0225,-0.1646,-0.8701,2.99,-2.56,-0.18
1853,417438295,0.0308,-0.1650,-0.8682,3.05,-2.74,-0.12
1854,417443294,0.0303,-0.1660,-0.8706,3.17,-2.56,0.00
1855,417448294,0.0259,-0.1729,-0.8682,3.17,-2.50,0.06
1856,417453294,0.0176,-0.1787,-0.8760,3.29,-2.50,0.30
1857,417458294,0.0278,-0.1768,-0.8682,3.23,-2.26,0.49
1858,417463294,0.0264,-0.1729,-0.8677,3.17,-2.32,0.73
1859,417468294,0.0132,-0.1797,-0.8682,2.99,-2.20,0.98
1860,417473294,0.0229,-0.1772,-0.8682,2.93,-2.07,1.10
1861,417478298,0.0127,-0.1787,-0.8687,2.87,-1.95,1.34
1862,417483298,0.0249,-0.1743,-0.8745,2.80,-1.77,1.52
1863,417488295,0.0112,-0.1782,-0.8730,2.62,-1.71,1.77
1864,417493296,0.0146,-0.1831,-0.8726,2.44,-1.65,2.01
1865,417498294,0.0078,-0.1729,-0.8726,2.38,-1.65,2.13
1866,417503300,0.0112,-0.1758,-0.8735,2.32,-1.40,2.32
1867,417508296,-0.0015,-0.1787,-0.8706,2.26,-1.28,2.38
1868,417513296,0.0234,-0.1680,-0.8691,2.20,-1.40,2.44
1869,417518296,0.0098,-0.1655,-0.8721,2.26,-1.22,2.50
1870,417523296,0.0146,-0.1641,-0.8706,2.13,-1.22,2.56
1871,417528297,0.0127,-0.1646,-0.8735,2.26,-1.22,2.56
1872,417533374,0.0166,-0.1655,-0.8716,2.26,-1.22,2.56
1873,417538297,0.0186,-0.1621,-0.8691,2.20,-1.10,2.62
1874,417543299,0.0127,-0.1631,-0.8750,2.26,-1.28,2.74
1875,417548296,0.0278,-0.1562,-0.8760,2.38,-1.10,2.62
1876,417553296,0.0161,-0.1582,-0.8765,2.38,-1.22,2.62
1877,417558296,0.0112,-0.1582,-0.8799,2.32,-1.04,2.62
1878,417563296,0.0186,-0.1523,-0.8721,2.13,-1.16,2.50
1879,417568295,0.0146,-0.1567,-0.8696,2.26,-1.10,2.44
1880,417573300,0.0137,-0.1509,-0.8696,2.26,-1.22,2.32
1881,417578296,0.0098,-0.1523,-0.8701,2.20,-1.28,2.20
1882,417583294,0.0220,-0.1528,-0.8740,2.07,-0.98,2.07
1883,417588294,0.0015,-0.1572,-0.8745,2.07,-0.91,1.95
1884,417593294,0.0210,-0.1514,-0.8677,1.89,-0.85,1.89
1885,417598294,0.0215,-0.1548,-0.8652,1.89,-0.79,1.77
1886,417603294,0.0000,-0.1577,-0.8677,1.83,-0.79,1.71
1887,417608295,0.0142,-0.1582,-0.8721,1.59,-0.61,1.52
1888,417613295,-0.0010,-0.1572,-0.8726,1.52,-0.49,1.52
1889,417618294,0.0166,-0.1602,-0.8711,1.46,-0.43,1.40
1890,417623294,0.0020,-0.1626,-0.8711,1.28,-0.30,1.52
1891,417628294,0.0068,-0.1689,-0.8682,1.22,-0.12,1.52
1892,417633294,0.0122,-0.1699,-0.8735,1.04,0.00,1.46
1893,417638296,0.0225,-0.1709,-0.8701,1.04,0.00,1.40
1894,417643294,0.0186,-0.1709,-0.8774,1.04,0.06,1.65
1895,417648294,0.0161,-0.1758,-0.8716,0.98,0.06,1.89
1896,417653295,0.0239,-0.1738,-0.8779,0.98,0.24,1.95
1897,417658294,0.0332,-0.1738,-0.8779,1.04,0.12,2.07
1898,417663294,0.0303,-0.1655,-0.8784,0.98,0.06,2.20
1899,417668294,0.0166,-0.1772,-0.8770,1.04,0.06,2.38
1900,417673294,0.0254,-0.1704,-0.8750,1.16,-0.06,2.62
1901,417678294,0.0444,-0.1631,-0.8774,1.16,0.00,2.62
1902,417683294,0.0190,-0.1694,-0.8794,1.22,-0.30,2.80
1903,417688294,0.0405,-0.1626,-0.8809,1.40,-0.37,2.87
1904,417693294,0.0215,-0.1577,-0.8784,1.52,-0.37,3.05
1905,417698294,0.0205,-0.1582,-0.8770,1.59,-0.37,2.93
1906,417703294,0.0332,-0.1499,-0.8794,1.52,-0.55,2.93
1907,417708294,0.0156,-0.1602,-0.8828,1.59,-0.67,3.11
1908,417713294,0.0347,-0.1499,-0.8765,1.65,-0.79,2.93
1909,417718294,0.0200,-0.1558,-0.8770,1.71,-0.85,2.87
1910,417723610,0.0371,-0.1509,-0.8774,1.71,-0.98,2.80
1911,417728296,0.0146,-0.1538,-0.8828,1.83,-1.04,2.68
1912,417733297,0.0264,-0.1567,-0.8784,1.71,-1.04,2.68
1913,417738296,0.0347,-0.1533,-0.8760,1.77,-1.16,2.56
1914,417743296,0.0249,-0.1528,-0.8755,1.77,-1.22,2.44
1915,417748294,0.0322,-0.1470,-0.8765,1.83,-1.22,2.32
1916,417753294,0.0342,-0.1499,-0.8740,1.83,-1.34,2.32
1917,417758294,0.0200,-0.1538,-0.8765,1.95,-1.34,2.20
1918,417763294,0.0161,-0.1533,-0.8799,2.01,-1.28,2.01
1919,417768294,0.0166,-0.1470,-0.8696,2.01,-1.34,2.07
1920,417773296,0.0317,-0.1489,-0.8760,2.01,-1.34,1.83
1921,417778298,0.0117,-0.1509,-0.8770,2.01,-1.28,1.77
1922,417783318,0.0327,-0.1421,-0.8726,2.07,-1.46,1.65
1923,417788296,0.0181,-0.1533,-0.8726,2.07,-1.16,1.46
1924,417793295,0.0342,-0.1465,-0.8687,2.13,-1.40,1.46
1925,417798296,0.0195,-0.1567,-0.8735,2.07,-1.40,1.34
1926,417803294,0.0332,-0.1514,-0.8711,2.13,-1.40,1.28
1927,417808296,0.0171,-0.1592,-0.8784,2.13,-1.28,1.16
1928,417813297,0.0239,-0.1514,-0.8706,2.20,-1.34,1.10
1929,417818296,0.0317,-0.1533,-0.8745,2.13,-1.34,1.22
1930,417823404,0.0054,-0.1631,-0.8745,2.20,-1.46,1.16
1931,417828365,0.0161,-0.1509,-0.8750,2.07,-1.40,0.98
1932,417833295,0.0337,-0.1533,-0.8721,2.13,-1.40,1.04
1933,417838296,0.0112,-0.1606,-0.8765,2.13,-1.40,1.04
1934,417843294,0.0249,-0.1611,-0.8770,2.13,-1.46,1.04
1935,417848295,0.0083,-0.1646,-0.8779,2.13,-1.59,1.04
1936,417853294,0.0190,-0.1606,-0.8755,2.20,-1.65,1.10
1937,417858294,0.0229,-0.1621,-0.8706,2.26,-1.71,1.10
1938,417863296,0.0234,-0.1562,-0.8701,2.26,-1.52,1.16
1939,417868679,0.0098,-0.1641,-0.8750,2.32,-1.71,1.16
1940,417873296,0.0151,-0.1597,-0.8740,2.32,-1.77,1.10
1941,417878296,0.0210,-0.1621,-0.8765,2.32,-1.71,1.16
1942,417883295,0.0015,-0.1660,-0.8774,2.32,-1.71,1.22
1943,417888764,0.0244,-0.1567,-0.8721,2.32,-1.71,1.16
1944,417893296,0.0244,-0.1626,-0.8789,2.26,-1.65,1.16
1945,417898295,0.0098,-0.1631,-0.8750,2.38,-1.71,1.22
1946,417903302,0.0171,-0.1597,-0.8770,2.32,-1.77,1.22
1947,417908294,0.0249,-0.1597,-0.8809,2.38,-1.83,1.16
1948,417913294,0.0264,-0.1567,-0.8765,2.26,-1.77,1.28
1949,417918294,0.0122,-0.1626,-0.8818,2.32,-1.83,1.28
1950,417923296,0.0063,-0.1655,-0.8755,2.38,-1.71,1.28
1951,417928296,0.0186,-0.1562,-0.8750,2.32,-1.77,1.28
1952,417933296,0.0317,-0.1572,-0.8779,2.26,-1.65,1.34
1953,417938707,0.0078,-0.1611,-0.8745,2.20,-1.83,1.28
1954,417943296,0.0269,-0.1582,-0.8760,2.07,-1.71,1.28
1955,417948296,0.0107,-0.1577,-0.8745,2.07,-1.71,1.40
1956,417953296,0.0215,-0.1611,-0.8755,2.01,-1.65,1.46
1957,417958296,0.0073,-0.1611,-0.8765,2.07,-1.59,1.28
1958,417963295,0.0171,-0.1621,-0.8691,2.13,-1.65,1.46
1959,417968562,0.0146,-0.1587,-0.8721,2.01,-1.65,1.52
1960,417973296,0.0112,-0.1641,-0.8716,2.01,-1.52,1.46
1961,417978296,0.0063,-0.1587,-0.8799,2.13,-1.59,1.52
1962,417983296,0.0132,-0.1597,-0.8755,2.13,-1.59,1.59
1963,417988296,0.0049,-0.1621,-0.8726,2.07,-1.52,1.52
1964,417993296,0.0264,-0.1582,-0.8701,2.13,-1.52,1.52
1965,417998296,0.0308,-0.1548,-0.8774,2.20,-1.46,1.59
1966,418003295,0.0210,-0.1626,-0.8716,2.20,-1.65,1.52
1967,418008296,0.0005,-0.1641,-0.8662,2.13,-1.59,1.65
1968,418013298,0.0264,-0.1528,-0.8765,2.20,-1.71,1.59
1969,418018296,0.0239,-0.1587,-0.8760,2.32,-1.65,1.59
1970,418023296,0.0088,-0.1636,-0.8721,2.26,-1.59,1.59
1971,418028296,0.0137,-0.1611,-0.8730,2.26,-1.71,1.65
1972,418033296,0.0151,-0.1631,-0.8779,2.32,-1.59,1.71
1973,418038298,0.0029,-0.1660,-0.8755,2.32,-1.65,1.77
1974,418043294,0.0112,-0.1582,-0.8740,2.38,-1.77,1.77
1975,418048294,0.0146,-0.1592,-0.8701,2.26,-1.59,1.71
1976,418053294,0.0225,-0.1597,-0.8726,2.38,-1.65,1.65
1977,418058294,0.0024,-0.1602,-0.8701,2.32,-1.65,1.71
1978,418063294,0.0278,-0.1562,-0.8682,2.38,-1.52,1.65
1979,418068294,0.0112,-0.1626,-0.8716,2.44,-1.52,1.71
1980,418073294,0.0264,-0.1538,-0.8740,2.44,-1.52,1.71
1981,418078298,0.0117,-0.1616,-0.8750,2.32,-1.40,1.77
1982,418083298,0.0186,-0.1577,-0.8706,2.32,-1.52,1.83
1983,418088634,0.0186,-0.1592,-0.8706,2.38,-1.40,1.83
1984,418093771,0.0098,-0.1597,-0.8706,2.26,-1.34,1.83
1985,418098296,0.0132,-0.1543,-0.8726,2.26,-1.22,1.89
1986,418103296,0.0142,-0.1577,-0.8647,2.13,-1.22,1.77
1987,418108526,0.0366,-0.1509,-0.8711,2.13,-1.22,1.83
1988,418113322,0.0400,-0.1558,-0.8726,2.01,-1.22,1.77
1989,418118296,0.0254,-0.1567,-0.8804,2.01,-1.04,1.71
1990,418123297,0.0078,-0.1621,-0.8716,1.95,-0.98,1.71
1991,418128296,0.0215,-0.1538,-0.8716,2.01,-1.04,1.77
1992,418133296,0.0386,-0.1475,-0.8726,1.95,-1.04,1.71
1993,418138296,0.0151,-0.1587,-0.8721,1.95,-0.98,1.65
1994,418143296,0.0356,-0.1479,-0.8721,1.95,-1.10,1.52
1995,418148296,0.0269,-0.1567,-0.8745,2.01,-1.10,1.59
1996,418153296,0.0210,-0.1558,-0.8735,2.01,-1.22,1.52
1997,418158774,0.0278,-0.1587,-0.8804,2.07,-1.16,1.52
1998,418163296,0.0142,-0.1592,-0.8770,2.07,-1.10,1.46
1999,418168297,0.0161,-0.1553,-0.8745,2.13,-1.40,1.52
2000,418173793,0.0234,-0.1523,-0.8735,2.26,-1.34,1.59
2001,418178296,0.0356,-0.1509,-0.8735,2.20,-1.40,1.46
2002,418183296,0.0156,-0.1611,-0.8804,2.20,-1.28,1.59
2003,418188296,0.0190,-0.1538,-0.8755,2.44,-1.40,1.46
2004,418193296,0.0312,-0.1562,-0.8730,2.32,-1.46,1.52
2005,418198298,0.0122,-0.1611,-0.8794,2.32,-1.52,1.46
2006,418203296,0.0166,-0.1553,-0.8745,2.32,-1.40,1.52
2007,418208295,0.0171,-0.1616,-0.8789,2.38,-1.52,1.52
2008,418213296,0.0239,-0.1567,-0.8735,2.38,-1.52,1.52
2009,418218296,0.0273,-0.1567,-0.8735,2.38,-1.52,1.59
2010,418223296,0.0093,-0.1626,-0.8799,2.44,-1.65,1.59
2011,418228296,0.0259,-0.1572,-0.8745,2.44,-1.59,1.52
2012,418233294,0.0347,-0.1548,-0.8745,2.38,-1.65,1.59
2013,418238296,0.0093,-0.1606,-0.8740,2.50,-1.65,1.59
2014,418243296,0.0239,-0.1553,-0.8745,2.44,-1.59,1.65
2015,418248296,0.0303,-0.1538,-0.8774,2.56,-1.71,1.65
2016,418253297,0.0220,-0.1533,-0.8716,2.56,-1.65,1.71
2017,418258815,0.0337,-0.1548,-0.8755,2.56,-1.65,1.59
2018,418263295,0.0220,-0.1543,-0.8818,2.56,-1.71,1.59
2019,418268294,0.0244,-0.1582,-0.8804,2.56,-1.65,1.59
2020,418273294,0.0254,-0.1567,-0.8794,2.50,-1.65,1.59
2021,418278294,0.0132,-0.1602,-0.8721,2.38,-1.71,1.52
2022,418283294,0.0269,-0.1523,-0.8799,2.38,-1.59,1.52
2023,418288297,0.0215,-0.1553,-0.8740,2.32,-1.71,1.46
2024,418293296,0.0176,-0.1553,-0.8740,2.38,-1.46,1.40
2025,418298296,0.0176,-0.1475,-0.8779,2.44,-1.65,1.34
2026,418303296,0.0215,-0.1553,-0.8779,2.44,-1.65,1.46
2027,418308296,0.0181,-0.1523,-0.8770,2.26,-1.71,1.28
2028,418313298,0.0161,-0.1582,-0.8809,2.38,-1.65,1.16
2029,418318377,0.0181,-0.1514,-0.8813,2.32,-1.89,1.16
2030,418323438,0.0234,-0.1538,-0.8828,2.32,-1.83,1.10
2031,418328451,0.0098,-0.1597,-0.8735,2.44,-1.83,1.10
2032,418333389,0.0264,-0.1509,-0.8740,2.50,-1.77,1.16
2033,418338295,0.0273,-0.1558,-0.8760,2.56,-1.89,1.04
2034,418343296,0.0098,-0.1616,-0.8735,2.62,-1.95,1.10
2035,418348296,0.0342,-0.1499,-0.8735,2.62,-1.77,1.04
2036,418353295,0.0156,-0.1582,-0.8809,2.74,-1.95,1.04
2037,418358296,0.0269,-0.1543,-0.8716,2.74,-2.07,0.98
2038,418363294,0.0249,-0.1562,-0.8755,2.74,-1.95,0.98
2039,418368294,0.0273,-0.1548,-0.8740,2.74,-1.89,0.98
2040,418373294,0.0117,-0.1606,-0.8799,2.80,-1.95,1.10
2041,418378296,0.0298,-0.1543,-0.8760,2.74,-1.89,0.98
2042,418383296,0.0083,-0.1562,-0.8755,2.68,-2.20,0.98
2043,418388295,0.0288,-0.1567,-0.8750,2.68,-2.13,0.98
2044,418393296,0.0127,-0.1597,-0.8760,2.80,-2.01,1.10
2045,418398754,0.0176,-0.1558,-0.8750,2.80,-2.01,1.16
2046,418403296,0.0264,-0.1592,-0.8789,2.80,-1.95,1.16
2047,418408294,0.0015,-0.1641,-0.8828,2.74,-2.13,1.10
2048,418413296,0.0103,-0.1553,-0.8745,2.74,-2.07,1.10
2049,418418342,0.0244,-0.1567,-0.8726,2.80,-2.01,1.04
2050,418423294,0.0122,-0.1587,-0.8667,2.74,-1.89,1.10
2051,418428296,0.0273,-0.1548,-0.8726,2.74,-1.83,1.16
2052,418433451,0.0088,-0.1621,-0.8730,2.68,-2.01,1.28
2053,418438296,0.0342,-0.1519,-0.8696,2.62,-1.83,1.16
2054,418443296,0.0088,-0.1631,-0.8726,2.56,-1.89,1.10
2055,418448295,0.0308,-0.1582,-0.8696,2.68,-1.77,1.04
2056,418453296,0.0083,-0.1641,-0.8779,2.62,-1.71,1.16
2057,418458298,0.0283,-0.1592,-0.8696,2.62,-1.71,1.28
2058,418463652,0.0078,-0.1582,-0.8726,2.56,-1.65,1.10
2059,418468296,0.0244,-0.1543,-0.8662,2.50,-1.71,1.22
2060,418473296,0.0146,-0.1670,-0.8730,2.50,-1.71,1.34
2061,418478296,0.0024,-0.1665,-0.8711,2.56,-1.89,1.34
2062,418483296,0.0088,-0.1582,-0.8799,2.56,-1.77,1.34
2063,418488296,0.0298,-0.1548,-0.8667,2.56,-1.77,1.34
2064,418493296,0.0200,-0.1646,-0.8774,2.50,-1.65,1.34
2065,418498296,0.0063,-0.1626,-0.8789,2.62,-1.77,1.46
2066,418503296,0.0259,-0.1577,-0.8760,2.56,-1.65,1.52
2067,418508298,0.0259,-0.1616,-0.8813,2.44,-1.71,1.52
2068,418513296,0.0190,-0.1616,-0.8721,2.50,-1.65,1.59
2069,418518296,0.0039,-0.1621,-0.8760,2.56,-1.71,1.52
2070,418523295,0.0039,-0.1675,-0.8750,2.50,-1.65,1.65
2071,418528296,0.0078,-0.1616,-0.8765,2.62,-1.71,1.65
2072,418533296,0.0093,-0.1611,-0.8701,2.62,-1.71,1.65
2073,418538296,0.0176,-0.1592,-0.8726,2.50,-1.59,1.65
2074,418543296,0.0112,-0.1597,-0.8755,2.50,-1.77,1.71
2075,418548296,0.0122,-0.1582,-0.8813,2.50,-1.77,1.77
2076,418553296,0.0259,-0.1562,-0.8770,2.62,-1.77,1.71
2077,418558295,0.0308,-0.1528,-0.8755,2.56,-1.77,1.71
2078,418563295,0.0225,-0.1626,-0.8804,2.62,-1.83,1.77
2079,418568294,0.0205,-0.1582,-0.8823,2.56,-1.59,1.71
2080,418573294,0.0132,-0.1626,-0.8770,2.62,-1.71,1.71
2081,418578294,0.0034,-0.1621,-0.8721,2.62,-1.65,1.65
2082,418583296,0.0073,-0.1567,-0.8745,2.50,-1.59,1.71
2083,418588294,0.0254,-0.1523,-0.8770,2.56,-1.52,1.71
2084,418593296,0.0254,-0.1587,-0.8740,2.56,-1.52,1.65
2085,418598297,0.0054,-0.1655,-0.8755,2.50,-1.65,1.71
2086,418603296,0.0039,-0.1636,-0.8745,2.50,-1.52,1.77
2087,418608296,0.0146,-0.1538,-0.8721,2.50,-1.59,1.59
2088,418613296,0.0254,-0.1577,-0.8711,2.50,-1.52,1.59
2089,418618296,0.0034,-0.1626,-0.8730,2.56,-1.59,1.71
2090,418623296,0.0088,-0.1553,-0.8687,2.56,-1.52,1.65
2091,418628294,0.0195,-0.1538,-0.8750,2.50,-1.65,1.52
2092,418633297,0.0254,-0.1558,-0.8745,2.62,-1.65,1.52
2093,418638296,0.0024,-0.1577,-0.8750,2.56,-1.65,1.40
2094,418643296,0.0288,-0.1489,-0.8740,2.50,-1.59,1.40
2095,418648294,0.0283,-0.1543,-0.8740,2.44,-1.52,1.40
2096,418653295,0.0161,-0.1621,-0.8774,2.38,-1.71,1.40
2097,418658294,0.0210,-0.1558,-0.8779,2.32,-1.71,1.40
2098,418663296,0.0088,-0.1562,-0.8730,2.50,-1.71,1.40
2099,418668295,0.0264,-0.1572,-0.8774,2.56,-1.71,1.28
2100,418673294,0.0054,-0.1655,-0.8765,2.50,-1.59,1.22
2101,418678295,0.0034,-0.1553,-0.8804,2.50,-1.65,1.34
2102,418683294,0.0288,-0.1514,-0.8716,2.44,-1.59,1.28
2103,418688294,0.0166,-0.1602,-0.8779,2.44,-1.71,1.16
2104,418693294,0.0210,-0.1548,-0.8755,2.38,-1.52,1.22
2105,418698294,0.0327,-0.1523,-0.8765,2.38,-1.46,1.34
2106,418703294,0.0088,-0.1650,-0.8813,2.38,-1.65,1.22
2107,418708294,0.0146,-0.1592,-0.8735,2.50,-1.77,1.34
2108,418713294,0.0303,-0.1562,-0.8740,2.44,-1.59,1.22
2109,418718294,0.0054,-0.1665,-0.8716,2.38,-1.59,1.40
2110,418723294,0.0312,-0.1553,-0.8774,2.38,-1.65,1.22
2111,418728294,0.0225,-0.1621,-0.8789,2.50,-1.71,1.28
2112,418733294,0.0112,-0.1680,-0.8799,2.44,-1.65,1.40
2113,418738294,0.0083,-0.1626,-0.8726,2.50,-1.59,1.34
2114,418743294,0.0039,-0.1646,-0.8691,2.44,-1.65,1.34
2115,418748294,0.0029,-0.1685,-0.8750,2.44,-1.52,1.34
2116,418753294,0.0137,-0.1621,-0.8760,2.50,-1.71,1.46
2117,418758294,0.0244,-0.1558,-0.8706,2.26,-1.59,1.46
2118,418763294,0.0068,-0.1606,-0.8755,2.44,-1.52,1.46
2119,418768295,0.0342,-0.1592,-0.8755,2.44,-1.65,1.52
2120,418773298,0.0303,-0.1602,-0.8770,2.38,-1.46,1.52
2121,418778296,0.0063,-0.1626,-0.8730,2.38,-1.40,1.52
2122,418783296,0.0225,-0.1567,-0.8667,2.44,-1.40,1.52
2123,418788649,0.0234,-0.1577,-0.8760,2.44,-1.52,1.59
2124,418793296,0.0103,-0.1641,-0.8784,2.44,-1.46,1.65
2125,418798296,0.0205,-0.1582,-0.8745,2.32,-1.59,1.59
2126,418803296,0.0107,-0.1616,-0.8691,2.38,-1.46,1.71
2127,418808773,0.0337,-0.1572,-0.8823,2.38,-1.46,1.65
2128,418813296,0.0059,-0.1680,-0.8745,2.32,-1.40,1.65
2129,418818295,0.0083,-0.1621,-0.8740,2.38,-1.46,1.65
2130,418823296,0.0293,-0.1587,-0.8755,2.32,-1.59,1.65
2131,418828297,0.0229,-0.1577,-0.8745,2.26,-1.46,1.65
2132,418833296,0.0166,-0.1611,-0.8760,2.32,-1.59,1.65
2133,418838296,0.0054,-0.1631,-0.8721,2.38,-1.40,1.71
2134,418843298,0.0264,-0.1533,-0.8687,2.32,-1.59,1.59
2135,418848595,0.0308,-0.1553,-0.8745,2.38,-1.52,1.52
2136,418853350,0.0278,-0.1597,-0.8755,2.32,-1.52,1.65
2137,418858297,0.0054,-0.1655,-0.8760,2.38,-1.52,1.59
2138,418863295,0.0303,-0.1538,-0.8721,2.44,-1.65,1.65
2139,418868297,0.0098,-0.1602,-0.8755,2.56,-1.59,1.65
2140,418873388,0.0298,-0.1533,-0.8765,2.56,-1.59,1.65
2141,418878394,0.0088,-0.1655,-0.8770,2.56,-1.59,1.59
2142,418883512,0.0176,-0.1567,-0.8779,2.44,-1.65,1.65
2143,418888296,0.0161,-0.1572,-0.8696,2.50,-1.52,1.59
2144,418893297,0.0166,-0.1582,-0.8726,2.56,-1.59,1.59
2145,418898476,0.0088,-0.1582,-0.8716,2.50,-1.59,1.77
2146,418903740,0.0288,-0.1519,-0.8735,2.50,-1.65,1.59
2147,418908296,0.0352,-0.1543,-0.8740,2.44,-1.71,1.71
2148,418913296,0.0049,-0.1621,-0.8809,2.44,-1.46,1.71
2149,418918296,0.0312,-0.1558,-0.8813,2.32,-1.34,1.71
2150,418923296,0.0161,-0.1572,-0.8755,2.26,-1.52,1.71
2151,418928295,0.0205,-0.1611,-0.8765,2.26,-1.46,1.77
2152,418933296,0.0107,-0.1592,-0.8794,2.07,-1.46,1.71
2153,418938294,0.0239,-0.1616,-0.8774,1.95,-1.40,1.59
2154,418943294,0.0259,-0.1533,-0.8701,1.89,-1.28,1.71
2155,418948294,0.0122,-0.1616,-0.8716,1.95,-1.28,1.65
2156,418953294,0.0283,-0.1558,-0.8726,1.89,-1.22,1.65
2157,418958294,0.0039,-0.1655,-0.8735,1.77,-1.16,1.71
2158,418963294,0.0166,-0.1562,-0.8740,1.65,-1.10,1.65
2159,418968294,0.0127,-0.1631,-0.8711,1.65,-0.98,1.71
2160,418973394,0.0269,-0.1543,-0.8716,1.65,-0.85,1.89
2161,418978298,0.0088,-0.1636,-0.8726,1.71,-0.98,1.71
2162,418983730,0.0151,-0.1626,-0.8779,1.71,-0.98,1.83
2163,418988296,0.0249,-0.1567,-0.8726,1.71,-0.98,1.89
2164,418993296,0.0225,-0.1626,-0.8789,1.83,-0.98,1.77
2165,418998296,0.0039,-0.1660,-0.8711,1.83,-1.04,1.89
2166,419003296,0.0146,-0.1611,-0.8750,1.83,-1.10,1.89
2167,419008296,0.0303,-0.1558,-0.8730,1.77,-0.98,1.89
2168,419013296,0.0332,-0.1558,-0.8784,1.95,-0.98,1.95
2169,419018750,0.0190,-0.1616,-0.8745,1.95,-1.10,2.07
2170,419023296,0.0068,-0.1602,-0.8774,1.95,-1.04,2.01
2171,419028296,0.0317,-0.1533,-0.8735,2.01,-1.16,2.07
2172,419033419,0.0122,-0.1616,-0.8770,2.01,-1.28,2.01
2173,419038296,0.0054,-0.1592,-0.8765,2.01,-1.28,2.07
2174,419043296,0.0229,-0.1528,-0.8755,2.13,-1.22,2.01
2175,419048296,0.0142,-0.1592,-0.8799,2.26,-1.16,2.07
2176,419053296,0.0234,-0.1489,-0.8774,2.32,-1.34,1.89
2177,419058297,0.0112,-0.1562,-0.8779,2.38,-1.40,1.89
2178,419063296,0.0298,-0.1470,-0.8779,2.44,-1.34,1.71
2179,419068296,0.0171,-0.1494,-0.8867,2.44,-1.52,1.71
2180,419073296,0.0215,-0.1509,-0.8770,2.56,-1.65,1.40
2181,419078296,0.0381,-0.1416,-0.8794,2.56,-1.71,1.40
2182,419083294,0.0220,-0.1470,-0.8809,2.68,-1.89,1.28
2183,419088296,0.0234,-0.1509,-0.8818,2.68,-1.95,1.16
2184,419093296,0.0215,-0.1460,-0.8730,2.74,-1.83,1.04
2185,419098294,0.0244,-0.1499,-0.8774,2.62,-2.01,0.85
2186,419103296,0.0156,-0.1538,-0.8730,2.80,-2.07,0.85
2187,419108294,0.0312,-0.1509,-0.8794,2.68,-2.13,0.79
2188,419113327,0.0151,-0.1523,-0.8730,2.62,-2.07,0.67
2189,419118297,0.0073,-0.1636,-0.8770,2.62,-2.01,0.73
2190,419123298,0.0215,-0.1553,-0.8760,2.50,-2.01,0.79
2191,419128296,0.0083,-0.1655,-0.8804,2.62,-2.07,0.73
2192,419133295,0.0176,-0.1582,-0.8804,2.50,-2.07,0.79
2193,419138296,0.0078,-0.1611,-0.8784,2.32,-2.20,0.73
2194,419143296,0.0210,-0.1592,-0.8789,2.38,-2.01,0.61
2195,419148296,0.0049,-0.1602,-0.8804,2.20,-2.01,0.85
2196,419153296,0.0034,-0.1611,-0.8740,2.32,-2.20,0.85
2197,419158296,0.0107,-0.1562,-0.8740,2.26,-2.13,0.85
2198,419163296,0.0024,-0.1582,-0.8779,2.26,-2.01,0.67
2199,419168295,0.0073,-0.1528,-0.8730,2.20,-2.01,0.79
2200,419173295,0.0020,-0.1602,-0.8701,2.32,-1.95,0.85
2201,419178295,0.0107,-0.1582,-0.8638,2.26,-1.95,0.61
2202,419183294,-0.0005,-0.1660,-0.8750,2.26,-1.95,0.67
2203,419188294,0.0112,-0.1616,-0.8657,2.20,-1.89,0.85
2204,419193295,0.0020,-0.1646,-0.8711,2.20,-1.71,0.85
2205,419198298,-0.0093,-0.1655,-0.8682,2.13,-1.71,0.91
2206,419203297,0.0132,-0.1611,-0.8633,2.13,-1.46,0.91
2207,419208296,-0.0044,-0.1660,-0.8672,1.89,-1.40,0.91
2208,419213296,0.0137,-0.1660,-0.8696,1.89,-1.10,1.04
2209,419218296,-0.0029,-0.1724,-0.8618,1.65,-0.98,1.16
2210,419223296,0.0210,-0.1636,-0.8584,1.59,-0.73,1.28
2211,419228296,0.0244,-0.1738,-0.8647,1.46,-0.61,1.46
2212,419233296,0.0024,-0.1802,-0.8696,1.28,-0.43,1.65
2213,419238335,0.0254,-0.1665,-0.8682,1.16,-0.30,1.83
2214,419243296,0.0317,-0.1763,-0.8652,0.91,-0.06,2.07
2215,419248295,0.0073,-0.1763,-0.8701,0.91,0.06,2.32
2216,419253300,0.0186,-0.1719,-0.8726,0.85,0.12,2.50
2217,419258296,0.0317,-0.1704,-0.8706,0.79,0.24,2.68
2218,419263296,0.0347,-0.1685,-0.8740,0.79,0.24,2.93
2219,419268296,0.0181,-0.1719,-0.8784,0.79,0.30,3.23
2220,419273296,0.0312,-0.1665,-0.8706,0.73,0.43,3.29
2221,419278298,0.0132,-0.1694,-0.8735,0.73,0.49,3.41
2222,419283539,0.0415,-0.1587,-0.8711,0.79,0.43,3.66
2223,419288296,0.0249,-0.1636,-0.8745,0.85,0.37,3.66
2224,419293299,0.0176,-0.1621,-0.8779,0.91,0.37,3.72
2225,419298296,0.0269,-0.1543,-0.8745,0.85,0.37,3.84
2226,419303295,0.0332,-0.1572,-0.8765,0.79,0.43,3.84
2227,419308296,0.0249,-0.1528,-0.8735,0.79,0.37,3.96
2228,419313298,0.0337,-0.1543,-0.8750,0.85,0.30,3.90
2229,419318296,0.0229,-0.1484,-0.8701,0.91,0.24,3.78
2230,419323777,0.0322,-0.1411,-0.8765,0.91,0.24,3.84
2231,419328296,0.0107,-0.1528,-0.8706,1.04,0.24,3.66
2232,419333296,0.0322,-0.1440,-0.8711,1.16,0.18,3.66
2233,419338295,0.0293,-0.1470,-0.8760,1.10,0.18,3.54
2234,419343298,0.0278,-0.1465,-0.8740,1.16,0.30,3.54
