# skilleye imu stream v1
# device=xiao_esp32c6 imu=mpu6050 addr=0x68
# rate_hz=200 accel_range_g=16 gyro_range_dps=2000 dlpf_hz=94
# units: accel in g, gyro in deg/s, t_us in microseconds since boot (monotonic)
# no shared clock with the camera -- tap the racket once before each take
# so both recordings share a spike to align on
seq,t_us,ax,ay,az,gx,gy,gz
0,368537229,-0.2939,-0.7944,-0.7515,15.37,18.96,90.79
1,368541986,-0.3013,-0.7896,-0.7490,15.18,19.15,88.90
2,368546984,-0.3105,-0.7900,-0.7437,15.30,19.45,87.20
3,368551984,-0.3096,-0.7896,-0.7402,15.49,19.57,86.46
4,368556984,-0.3071,-0.7935,-0.7412,15.79,20.00,84.15
5,368561984,-0.3105,-0.7896,-0.7349,16.40,20.18,82.56
6,368566984,-0.3135,-0.7905,-0.7358,17.07,20.55,80.73
7,368571984,-0.3149,-0.7905,-0.7334,17.56,20.85,78.96
8,368577397,-0.3164,-0.7861,-0.7373,18.41,21.34,77.20
9,368581984,-0.3184,-0.7896,-0.7319,19.02,21.71,75.43
10,368586986,-0.3164,-0.7861,-0.7227,19.70,22.13,73.66
11,368591982,-0.3125,-0.7886,-0.7227,20.37,22.62,71.95
12,368596984,-0.3110,-0.7832,-0.7202,20.91,22.87,70.30
13,368601984,-0.3081,-0.7832,-0.7148,21.52,23.29,68.66
14,368606984,-0.3066,-0.7773,-0.7065,21.95,23.66,67.01
15,368611984,-0.3003,-0.7681,-0.7021,22.44,24.21,65.24
16,368616983,-0.3076,-0.7749,-0.6943,22.99,24.76,63.78
17,368621984,-0.3032,-0.7729,-0.6929,23.48,24.94,62.20
18,368626984,-0.3052,-0.7705,-0.6929,24.21,25.30,60.55
19,368631984,-0.3032,-0.7676,-0.6851,25.00,25.73,58.90
20,368636984,-0.3057,-0.7607,-0.6846,25.98,26.04,57.44
21,368641984,-0.3057,-0.7603,-0.6802,26.95,26.40,55.85
22,368646984,-0.3091,-0.7583,-0.6792,28.05,26.83,54.15
23,368651984,-0.3071,-0.7559,-0.6787,29.09,27.01,52.56
24,368656984,-0.3101,-0.7549,-0.6704,29.88,27.32,51.16
25,368661984,-0.3071,-0.7554,-0.6641,30.73,27.50,49.63
26,368666987,-0.3149,-0.7495,-0.6675,31.71,27.87,47.99
27,368671984,-0.3154,-0.7500,-0.6631,32.38,28.17,46.46
28,368676982,-0.3208,-0.7485,-0.6562,32.93,28.35,45.00
29,368681985,-0.3267,-0.7456,-0.6523,33.35,28.54,43.54
30,368686987,-0.3276,-0.7422,-0.6484,33.84,28.84,41.71
31,368691985,-0.3291,-0.7407,-0.6494,33.90,29.02,40.67
32,368696984,-0.3369,-0.7402,-0.6440,34.02,29.21,39.33
33,368701984,-0.3364,-0.7383,-0.6411,33.84,29.27,37.99
34,368706984,-0.3394,-0.7324,-0.6411,33.35,29.27,36.52
35,368711984,-0.3418,-0.7305,-0.6377,32.87,29.57,35.18
36,368716984,-0.3452,-0.7280,-0.6270,32.32,29.63,33.90
37,368721984,-0.3491,-0.7251,-0.6235,31.52,29.88,32.56
38,368726984,-0.3516,-0.7197,-0.6230,30.91,30.12,31.28
39,368731985,-0.3564,-0.7197,-0.6172,30.30,30.24,29.94
40,368736984,-0.3521,-0.7168,-0.6099,29.82,30.30,28.54
41,368741983,-0.3496,-0.7148,-0.6060,29.45,30.67,27.26
42,368746984,-0.3501,-0.7095,-0.6089,29.09,30.61,25.85
43,368751982,-0.3496,-0.7114,-0.6050,28.90,30.61,24.63
44,368756984,-0.3462,-0.7085,-0.5977,28.90,30.73,23.29
45,368761984,-0.3472,-0.7026,-0.5933,28.90,30.61,22.26
46,368766982,-0.3433,-0.7026,-0.5879,29.09,30.43,21.04
47,368771984,-0.3403,-0.6992,-0.5869,29.21,30.30,19.94
48,368776984,-0.3408,-0.6924,-0.5791,29.57,29.94,18.84
49,368781984,-0.3374,-0.6890,-0.5767,29.94,29.70,17.99
50,368786984,-0.3315,-0.6855,-0.5723,30.18,29.33,17.01
51,368791984,-0.3350,-0.6787,-0.5708,30.49,28.84,16.10
52,368796985,-0.3325,-0.6807,-0.5649,30.79,28.60,15.06
53,368801984,-0.3315,-0.6733,-0.5610,30.98,27.87,14.27
54,368806984,-0.3301,-0.6714,-0.5547,30.98,27.20,13.41
55,368811984,-0.3354,-0.6719,-0.5503,30.85,26.95,12.68
56,368816984,-0.3306,-0.6660,-0.5464,30.67,26.34,11.89
57,368822457,-0.3320,-0.6616,-0.5435,30.30,25.73,10.98
58,368826984,-0.3330,-0.6562,-0.5405,29.94,25.30,10.43
59,368831984,-0.3306,-0.6592,-0.5381,29.39,24.76,9.82
60,368836984,-0.3320,-0.6528,-0.5391,28.78,24.15,9.09
61,368841984,-0.3271,-0.6562,-0.5352,28.17,23.60,8.54
62,368846984,-0.3228,-0.6504,-0.5312,27.50,22.99,8.05
63,368851984,-0.3247,-0.6514,-0.5249,26.95,22.07,7.50
64,368856984,-0.3218,-0.6489,-0.5195,26.34,21.34,7.13
65,368861984,-0.3203,-0.6533,-0.5259,25.67,20.73,6.65
66,368866984,-0.3154,-0.6455,-0.5166,25.12,19.88,6.28
67,368871984,-0.3169,-0.6475,-0.5210,24.39,18.96,5.85
68,368876984,-0.3071,-0.6440,-0.5181,23.72,18.11,5.49
69,368881984,-0.3066,-0.6445,-0.5127,23.05,17.38,5.12
70,368886984,-0.3037,-0.6392,-0.5171,22.44,16.34,4.82
71,368891984,-0.3057,-0.6411,-0.5059,21.71,15.61,4.51
72,368896985,-0.3057,-0.6396,-0.5044,21.22,14.63,4.15
73,368901984,-0.3018,-0.6396,-0.5044,20.79,13.84,3.72
74,368906984,-0.3081,-0.6382,-0.5073,20.67,12.87,3.35
75,368911985,-0.3076,-0.6367,-0.4980,20.43,12.01,2.99
76,368916984,-0.3071,-0.6318,-0.5005,20.30,11.34,2.56
77,368921984,-0.3105,-0.6338,-0.5010,20.18,10.43,2.13
78,368926983,-0.3062,-0.6318,-0.4995,20.18,9.63,1.77
79,368931984,-0.3066,-0.6328,-0.4966,20.18,8.90,1.34
80,368936984,-0.3066,-0.6323,-0.5005,20.00,8.23,0.85
81,368941984,-0.3062,-0.6367,-0.5005,19.88,7.38,0.49
82,368946984,-0.3032,-0.6284,-0.5000,19.57,6.65,0.12
83,368951984,-0.3022,-0.6274,-0.4995,19.27,5.79,-0.30
84,368956984,-0.3003,-0.6265,-0.4980,18.84,5.06,-0.79
85,368961985,-0.3057,-0.6284,-0.5029,18.17,4.33,-1.10
86,368966984,-0.3066,-0.6284,-0.5005,17.50,3.66,-1.46
87,368971984,-0.3096,-0.6245,-0.4966,16.65,2.99,-1.89
88,368976984,-0.3105,-0.6211,-0.4941,15.85,2.26,-2.32
89,368981984,-0.3130,-0.6211,-0.4995,14.94,1.65,-2.80
90,368986984,-0.3120,-0.6240,-0.4966,13.90,0.79,-3.35
91,368991984,-0.3149,-0.6196,-0.5044,12.80,0.00,-3.78
92,368996985,-0.3169,-0.6177,-0.4990,11.65,-0.61,-4.15
93,369001984,-0.3188,-0.6152,-0.4990,10.37,-1.40,-4.63
94,369006986,-0.3213,-0.6206,-0.5000,9.09,-2.13,-5.06
95,369011982,-0.3213,-0.6196,-0.5000,7.56,-2.80,-5.37
96,369016984,-0.3228,-0.6196,-0.5010,5.98,-3.48,-5.67
97,369021984,-0.3247,-0.6211,-0.4956,4.09,-4.09,-6.04
98,369027279,-0.3247,-0.6216,-0.5020,2.38,-4.76,-6.46
99,369031984,-0.3271,-0.6245,-0.5020,0.67,-5.24,-6.65
100,369036984,-0.3291,-0.6230,-0.5029,-0.98,-5.91,-7.07
101,369041983,-0.3252,-0.6245,-0.5000,-2.50,-6.59,-7.26
102,369046982,-0.3296,-0.6313,-0.5044,-3.90,-6.95,-7.56
103,369051983,-0.3320,-0.6304,-0.5034,-5.06,-7.32,-7.93
104,369056982,-0.3340,-0.6318,-0.5034,-6.16,-7.93,-8.17
105,369061982,-0.3359,-0.6328,-0.5132,-7.07,-8.35,-8.35
106,369066982,-0.3325,-0.6318,-0.5083,-7.80,-8.90,-8.66
107,369072407,-0.3291,-0.6343,-0.5088,-8.29,-9.33,-8.90
108,369076984,-0.3311,-0.6343,-0.5112,-8.66,-9.70,-9.21
109,369081985,-0.3291,-0.6353,-0.5098,-8.96,-10.12,-9.45
110,369086984,-0.3291,-0.6406,-0.5117,-9.09,-10.55,-9.63
111,369092290,-0.3311,-0.6353,-0.5142,-9.09,-10.98,-9.88
112,369096984,-0.3340,-0.6416,-0.5195,-8.78,-11.65,-10.06
113,369101983,-0.3271,-0.6416,-0.5186,-8.48,-12.07,-10.24
114,369106986,-0.3262,-0.6392,-0.5190,-8.05,-12.62,-10.24
115,369111983,-0.3335,-0.6436,-0.5186,-7.50,-13.23,-10.49
116,369116986,-0.3276,-0.6494,-0.5234,-6.95,-13.72,-10.55
117,369121984,-0.3325,-0.6499,-0.5190,-6.34,-14.45,-10.55
118,369126984,-0.3379,-0.6494,-0.5288,-5.85,-14.94,-10.61
119,369131983,-0.3330,-0.6514,-0.5303,-5.06,-15.43,-10.79
120,369136984,-0.3364,-0.6445,-0.5264,-4.39,-16.04,-10.85
121,369142439,-0.3276,-0.6460,-0.5234,-3.66,-16.52,-11.04
122,369146984,-0.3257,-0.6514,-0.5283,-2.99,-17.01,-11.22
123,369151984,-0.3267,-0.6523,-0.5229,-2.44,-17.50,-11.22
124,369156984,-0.3208,-0.6519,-0.5225,-1.83,-18.11,-11.34
125,369161984,-0.3223,-0.6538,-0.5293,-1.28,-18.72,-11.40
126,369166984,-0.3203,-0.6523,-0.5244,-0.85,-19.27,-11.46
127,369171984,-0.3223,-0.6533,-0.5264,-0.49,-20.00,-11.34
128,369176984,-0.3149,-0.6597,-0.5303,-0.37,-20.55,-11.40
129,369181984,-0.3154,-0.6641,-0.5283,-0.37,-21.28,-11.34
130,369186984,-0.3091,-0.6641,-0.5229,-0.61,-21.77,-11.22
131,369191982,-0.3135,-0.6670,-0.5288,-1.10,-22.50,-11.22
132,369196988,-0.3140,-0.6738,-0.5239,-1.59,-22.87,-11.10
133,369201984,-0.3140,-0.6738,-0.5244,-2.01,-23.29,-11.10
134,369206986,-0.3169,-0.6694,-0.5317,-2.44,-23.78,-11.16
135,369211984,-0.3193,-0.6729,-0.5337,-2.56,-24.45,-11.10
136,369216984,-0.3169,-0.6704,-0.5317,-2.38,-24.94,-11.28
137,369222334,-0.3145,-0.6743,-0.5366,-2.20,-25.49,-11.28
138,369226986,-0.3198,-0.6777,-0.5425,-1.83,-26.10,-11.46
139,369232066,-0.3086,-0.6841,-0.5391,-1.40,-26.52,-11.46
140,369236984,-0.3052,-0.6851,-0.5430,-0.67,-27.07,-11.65
141,369241984,-0.3052,-0.6860,-0.5430,0.00,-27.74,-11.77
142,369246984,-0.3047,-0.6943,-0.5342,0.67,-27.99,-11.95
143,369251984,-0.3076,-0.6943,-0.5464,1.22,-28.60,-12.20
144,369256984,-0.3110,-0.6948,-0.5444,1.77,-28.78,-12.44
145,369261983,-0.3115,-0.7002,-0.5454,2.32,-29.39,-12.62
146,369266984,-0.3203,-0.7085,-0.5513,2.87,-29.88,-12.99
147,369271984,-0.3208,-0.7114,-0.5513,3.11,-30.24,-13.29
148,369276984,-0.3213,-0.7173,-0.5508,3.23,-30.61,-13.54
149,369281983,-0.3237,-0.7246,-0.5474,3.11,-31.04,-13.66
150,369286984,-0.3242,-0.7266,-0.5479,2.87,-31.28,-14.09
151,369291984,-0.3252,-0.7344,-0.5503,2.80,-31.59,-14.51
152,369296985,-0.3281,-0.7349,-0.5537,2.68,-31.65,-14.88
153,369301984,-0.3340,-0.7393,-0.5513,2.44,-31.89,-15.30
154,369306984,-0.3315,-0.7456,-0.5503,2.38,-32.13,-15.91
155,369311984,-0.3320,-0.7471,-0.5503,2.50,-32.13,-16.46
156,369316986,-0.3306,-0.7534,-0.5527,2.50,-32.50,-17.01
157,369321984,-0.3384,-0.7573,-0.5454,2.56,-32.50,-17.74
158,369326984,-0.3335,-0.7612,-0.5474,2.74,-32.44,-18.35
159,369331984,-0.3345,-0.7642,-0.5396,2.99,-32.56,-19.21
160,369336983,-0.3354,-0.7676,-0.5361,3.29,-32.56,-20.00
161,369341984,-0.3389,-0.7715,-0.5430,4.02,-32.50,-20.79
162,369346982,-0.3403,-0.7754,-0.5483,4.82,-32.44,-21.71
163,369351982,-0.3403,-0.7817,-0.5449,5.73,-32.62,-22.50
164,369356984,-0.3413,-0.7871,-0.5449,6.77,-32.68,-23.41
165,369361982,-0.3428,-0.7900,-0.5400,7.68,-32.80,-24.27
166,369366986,-0.3428,-0.8018,-0.5410,8.66,-32.87,-25.06
167,369371983,-0.3408,-0.8027,-0.5444,9.45,-32.93,-25.85
168,369376984,-0.3418,-0.8066,-0.5396,10.12,-33.17,-26.77
169,369381984,-0.3447,-0.8135,-0.5488,10.73,-33.29,-27.44
170,369386984,-0.3442,-0.8159,-0.5493,11.28,-33.35,-28.35
171,369391984,-0.3438,-0.8169,-0.5527,11.65,-33.60,-29.09
172,369396984,-0.3418,-0.8218,-0.5518,12.01,-33.72,-29.94
173,369401984,-0.3452,-0.8208,-0.5493,12.38,-33.84,-30.85
174,369406984,-0.3564,-0.8257,-0.5552,12.62,-33.84,-31.83
175,369411983,-0.3579,-0.8281,-0.5493,12.87,-34.02,-32.62
176,369416984,-0.3574,-0.8291,-0.5527,13.11,-33.84,-33.60
177,369421982,-0.3599,-0.8315,-0.5474,13.41,-33.66,-34.63
178,369426984,-0.3604,-0.8389,-0.5464,13.90,-33.54,-35.67
179,369431984,-0.3633,-0.8398,-0.5420,14.21,-33.54,-36.52
180,369436983,-0.3574,-0.8418,-0.5322,14.82,-33.29,-37.50
181,369441984,-0.3560,-0.8477,-0.5293,15.43,-33.05,-38.41
182,369446984,-0.3633,-0.8481,-0.5312,15.91,-33.11,-39.09
183,369451984,-0.3555,-0.8486,-0.5322,16.65,-32.99,-39.88
184,369456984,-0.3496,-0.8496,-0.5244,17.50,-32.93,-40.73
185,369461984,-0.3535,-0.8442,-0.5342,18.23,-33.11,-41.65
186,369466986,-0.3516,-0.8408,-0.5376,19.33,-33.11,-42.56
187,369471983,-0.3506,-0.8433,-0.5327,20.12,-33.05,-43.41
188,369476982,-0.3521,-0.8418,-0.5317,21.28,-33.11,-44.70
189,369481984,-0.3477,-0.8481,-0.5322,21.89,-33.17,-45.43
190,369486982,-0.3511,-0.8521,-0.5308,22.74,-33.17,-46.34
191,369491984,-0.3521,-0.8569,-0.5264,23.23,-33.05,-47.38
192,369496984,-0.3535,-0.8579,-0.5322,23.60,-33.05,-48.41
193,369501984,-0.3496,-0.8594,-0.5386,23.78,-32.87,-49.21
194,369507288,-0.3516,-0.8647,-0.5391,23.72,-32.74,-50.49
195,369511984,-0.3511,-0.8652,-0.5479,23.48,-32.62,-51.28
196,369516984,-0.3540,-0.8667,-0.5376,22.93,-32.50,-52.38
197,369521986,-0.3535,-0.8755,-0.5464,22.38,-32.13,-53.35
198,369526984,-0.3594,-0.8765,-0.5459,21.71,-32.01,-54.39
199,369531986,-0.3545,-0.8799,-0.5439,20.85,-31.71,-55.49
200,369536983,-0.3525,-0.8843,-0.5479,20.12,-31.28,-56.46
201,369541984,-0.3496,-0.8911,-0.5513,19.70,-31.04,-57.62
202,369546983,-0.3452,-0.8877,-0.5566,19.39,-30.91,-58.66
203,369551984,-0.3467,-0.8950,-0.5513,19.45,-30.61,-59.63
204,369556984,-0.3521,-0.8989,-0.5610,19.94,-30.37,-60.67
205,369561984,-0.3511,-0.8999,-0.5591,20.55,-29.94,-61.95
206,369566984,-0.3604,-0.9023,-0.5610,21.22,-29.82,-62.80
207,369571984,-0.3589,-0.9053,-0.5635,22.07,-29.39,-63.84
208,369576984,-0.3604,-0.9033,-0.5659,23.05,-29.15,-64.88
209,369581984,-0.3604,-0.9077,-0.5708,24.09,-28.84,-65.98
210,369587437,-0.3599,-0.9087,-0.5703,25.00,-28.41,-67.26
211,369591984,-0.3672,-0.9126,-0.5723,25.61,-28.17,-68.23
212,369596984,-0.3701,-0.9131,-0.5747,26.28,-27.80,-69.27
213,369601985,-0.3672,-0.9121,-0.5737,26.95,-27.32,-70.37
214,369606984,-0.3691,-0.9097,-0.5742,27.44,-26.89,-71.28
215,369611984,-0.3716,-0.9136,-0.5830,27.80,-26.40,-72.32
216,369616983,-0.3721,-0.9116,-0.5874,28.05,-26.10,-73.35
217,369621984,-0.3691,-0.9087,-0.5835,27.99,-25.49,-74.39
218,369626984,-0.3677,-0.9077,-0.5864,27.87,-24.88,-75.30
219,369631984,-0.3682,-0.9058,-0.5859,27.50,-24.45,-76.34
220,369636984,-0.3691,-0.9087,-0.5913,27.13,-23.90,-77.32
221,369641983,-0.3662,-0.9087,-0.5933,26.71,-23.23,-78.17
222,369646984,-0.3682,-0.9092,-0.6001,26.04,-22.68,-78.96
223,369651982,-0.3623,-0.9028,-0.5913,25.12,-21.89,-80.06
224,369656982,-0.3657,-0.9038,-0.5913,24.57,-21.34,-80.79
225,369661982,-0.3599,-0.9028,-0.5928,23.84,-20.61,-81.46
226,369666982,-0.3589,-0.9062,-0.5957,23.41,-19.82,-82.13
227,369672139,-0.3535,-0.9067,-0.5908,23.11,-19.15,-82.80
228,369676984,-0.3486,-0.9004,-0.5796,22.99,-18.29,-83.23
229,369681983,-0.3403,-0.8970,-0.5869,23.23,-17.74,-83.78
230,369686984,-0.3374,-0.8931,-0.5884,23.72,-16.83,-84.39
231,369691984,-0.3291,-0.8838,-0.5801,24.33,-16.16,-85.00
232,369696984,-0.3232,-0.8779,-0.5815,25.24,-15.49,-85.55
233,369701986,-0.3188,-0.8701,-0.5801,26.40,-14.76,-86.04
234,369706984,-0.3101,-0.8662,-0.5830,27.38,-14.33,-86.71
235,369711984,-0.2969,-0.8647,-0.5806,28.23,-13.48,-87.26
236,369716984,-0.2808,-0.8579,-0.5698,28.90,-12.80,-87.93
237,369721984,-0.2759,-0.8569,-0.5684,29.21,-12.13,-88.23
238,369726984,-0.2681,-0.8530,-0.5703,29.15,-11.34,-88.66
239,369731984,-0.2593,-0.8452,-0.5596,28.78,-10.67,-89.02
240,369736984,-0.2505,-0.8433,-0.5537,28.29,-9.82,-89.57
241,369741984,-0.2500,-0.8394,-0.5571,27.62,-8.90,-90.00
242,369746984,-0.2334,-0.8345,-0.5415,26.71,-7.99,-90.43
243,369751984,-0.2246,-0.8306,-0.5405,25.49,-6.95,-90.79
244,369756984,-0.2075,-0.8330,-0.5332,24.02,-6.04,-91.28
245,369761984,-0.1982,-0.8345,-0.5293,22.68,-5.12,-91.59
246,369766984,-0.1895,-0.8345,-0.5195,21.04,-4.33,-91.83
247,369771984,-0.1807,-0.8311,-0.5254,19.51,-3.48,-92.07
248,369776984,-0.1616,-0.8330,-0.5132,18.41,-2.56,-92.13
249,369782215,-0.1509,-0.8296,-0.5122,17.26,-1.65,-92.32
250,369787459,-0.1426,-0.8281,-0.5093,16.65,-0.85,-92.32
251,369791984,-0.1343,-0.8271,-0.5039,16.52,0.00,-92.13
252,369796988,-0.1255,-0.8286,-0.4985,16.59,0.85,-91.89
253,369801986,-0.1250,-0.8291,-0.4971,17.01,1.65,-91.52
254,369806985,-0.1255,-0.8311,-0.4839,17.38,2.50,-91.22
255,369811984,-0.1147,-0.8296,-0.4844,17.87,3.41,-90.67
256,369816984,-0.1035,-0.8281,-0.4771,18.54,4.21,-90.30
257,369821983,-0.0928,-0.8252,-0.4717,19.15,5.00,-89.82
258,369827136,-0.0850,-0.8223,-0.4619,19.88,5.91,-89.39
259,369831984,-0.0796,-0.8228,-0.4590,20.55,6.65,-89.15
260,369836984,-0.0635,-0.8159,-0.4629,21.16,7.32,-88.78
261,369841984,-0.0557,-0.8125,-0.4570,22.01,7.99,-88.48
262,369846983,-0.0435,-0.8096,-0.4507,22.87,8.84,-88.23
263,369851984,-0.0312,-0.8052,-0.4512,24.09,9.21,-87.93
264,369856984,-0.0220,-0.7964,-0.4531,25.24,9.76,-87.80
265,369862072,-0.0142,-0.7954,-0.4448,26.77,10.12,-87.74
266,369866984,-0.0073,-0.7915,-0.4453,28.11,10.73,-87.50
267,369871984,0.0024,-0.7881,-0.4438,29.57,10.73,-87.44
268,369876984,0.0103,-0.7891,-0.4443,30.73,11.16,-87.20
269,369881984,0.0132,-0.7876,-0.4409,31.52,11.46,-86.89
270,369886984,0.0205,-0.7910,-0.4336,32.20,11.52,-86.59
271,369891984,0.0225,-0.7915,-0.4346,32.68,11.83,-86.34
272,369896984,0.0322,-0.7930,-0.4253,32.62,12.13,-85.91
273,369901984,0.0361,-0.7959,-0.4233,32.32,12.26,-85.67
274,369906983,0.0430,-0.7959,-0.4243,31.83,12.38,-85.18
275,369911986,0.0532,-0.7993,-0.4146,31.28,12.50,-84.76
276,369916984,0.0664,-0.7979,-0.4199,30.67,12.56,-84.27
277,369921984,0.0781,-0.7949,-0.4263,30.12,12.38,-83.72
278,369926984,0.0898,-0.7910,-0.4229,29.57,12.13,-83.29
279,369931984,0.0947,-0.7832,-0.4219,29.39,11.71,-83.05
280,369936984,0.1045,-0.7812,-0.4224,29.15,11.40,-82.68
281,369941982,0.1104,-0.7837,-0.4170,29.15,10.79,-82.32
282,369946984,0.1187,-0.7798,-0.4155,29.02,10.24,-82.07
283,369951982,0.1255,-0.7773,-0.4087,29.02,9.70,-81.89
284,369956984,0.1265,-0.7788,-0.4082,28.96,9.21,-81.59
285,369961983,0.1274,-0.7749,-0.4043,29.21,8.90,-81.40
286,369966983,0.1245,-0.7769,-0.4004,29.63,8.41,-81.10
287,369971984,0.1294,-0.7788,-0.3965,30.18,7.99,-80.91
288,369976984,0.1328,-0.7764,-0.3926,30.85,7.74,-80.73
289,369981984,0.1392,-0.7734,-0.3892,31.52,7.38,-80.49
290,369986984,0.1460,-0.7734,-0.3789,32.56,7.26,-80.43
291,369991984,0.1479,-0.7705,-0.3706,33.72,7.07,-80.24
292,369996984,0.1597,-0.7661,-0.3711,35.06,6.95,-80.00
293,370001984,0.1704,-0.7686,-0.3628,36.95,6.65,-79.82
294,370006984,0.1836,-0.7671,-0.3599,39.15,6.34,-79.39
295,370011984,0.1953,-0.7686,-0.3652,41.77,6.04,-79.09
296,370016984,0.2090,-0.7676,-0.3550,44.57,5.43,-78.72
297,370021984,0.2148,-0.7646,-0.3560,47.68,5.12,-78.48
298,370026984,0.2231,-0.7612,-0.3491,50.79,4.45,-78.17
299,370031984,0.2241,-0.7642,-0.3511,53.90,4.02,-77.93
300,370036984,0.2266,-0.7627,-0.3462,56.59,3.60,-77.80
301,370041984,0.2358,-0.7583,-0.3394,59.15,2.99,-77.62
302,370046984,0.2427,-0.7520,-0.3330,61.22,2.50,-77.62
303,370051983,0.2441,-0.7495,-0.3271,62.93,2.20,-77.32
304,370056984,0.2471,-0.7529,-0.3198,64.33,1.71,-77.26
305,370061984,0.2490,-0.7515,-0.3174,65.37,1.34,-77.07
306,370066984,0.2598,-0.7466,-0.3071,65.91,0.98,-77.01
307,370071984,0.2715,-0.7500,-0.2979,66.28,0.49,-76.83
308,370076984,0.2793,-0.7505,-0.2847,66.16,0.06,-76.65
309,370081984,0.2793,-0.7446,-0.2837,65.85,-0.37,-76.28
310,370086984,0.2847,-0.7490,-0.2764,65.24,-0.85,-75.98
311,370092449,0.2866,-0.7466,-0.2749,64.27,-1.46,-75.55
312,370096984,0.2920,-0.7432,-0.2681,63.41,-1.77,-75.18
313,370101986,0.2925,-0.7471,-0.2646,62.01,-2.32,-74.88
314,370106984,0.2915,-0.7397,-0.2397,60.61,-2.80,-74.21
315,370111984,0.3228,-0.6821,-0.2705,59.27,-3.29,-73.84
316,370117409,0.2983,-0.6885,-0.2534,57.50,-4.09,-73.23
317,370121984,0.2866,-0.6885,-0.2344,55.79,-4.45,-72.56
318,370126984,0.2993,-0.6753,-0.2300,53.41,-5.06,-71.95
319,370131984,0.3110,-0.6689,-0.2290,51.04,-5.67,-71.22
320,370136984,0.3218,-0.6543,-0.2251,48.72,-6.10,-70.49
321,370141984,0.3306,-0.6470,-0.2300,46.34,-6.71,-69.63
322,370146984,0.3330,-0.6416,-0.2212,44.02,-7.44,-68.60
323,370151984,0.3267,-0.6465,-0.2056,41.40,-7.99,-67.56
324,370156984,0.3291,-0.6382,-0.1968,38.84,-8.60,-66.34
325,370161984,0.3267,-0.6421,-0.1870,36.16,-9.02,-65.12
326,370166984,0.3286,-0.6519,-0.1699,33.60,-9.51,-63.96
327,370171984,0.3228,-0.6504,-0.1646,31.10,-9.88,-62.62
328,370176984,0.3252,-0.6519,-0.1538,28.66,-10.49,-61.28
329,370181985,0.3271,-0.6489,-0.1470,26.52,-11.10,-60.00
330,370186984,0.3311,-0.6392,-0.1460,24.88,-11.46,-58.66
331,370191983,0.3320,-0.6318,-0.1353,23.29,-12.01,-57.32
332,370197315,0.3286,-0.6191,-0.1294,22.13,-12.80,-55.73
333,370201984,0.3306,-0.6157,-0.1270,21.59,-13.48,-54.70
334,370206984,0.3345,-0.6069,-0.1201,21.10,-14.21,-53.23
335,370211984,0.3423,-0.5991,-0.1274,20.98,-15.49,-51.59
336,370216984,0.3423,-0.5957,-0.1274,20.67,-16.40,-50.18
337,370221984,0.3423,-0.5903,-0.1299,20.55,-17.26,-49.27
338,370226984,0.3428,-0.5830,-0.1328,20.18,-18.17,-47.93
339,370231984,0.3398,-0.5723,-0.1333,19.39,-19.15,-46.77
340,370236984,0.3403,-0.5669,-0.1343,18.23,-20.12,-45.67
341,370241983,0.3311,-0.5596,-0.1294,16.71,-21.16,-44.82
342,370246982,0.3286,-0.5508,-0.1328,15.06,-21.95,-43.90
343,370251985,0.3228,-0.5391,-0.1406,12.99,-22.93,-43.17
344,370256984,0.3467,-0.5317,-0.1562,10.18,-24.15,-42.20
345,370261985,0.3579,-0.5176,-0.1753,8.54,-24.94,-41.46
346,370266984,0.3989,-0.5156,-0.2549,6.34,-26.22,-40.55
347,370271983,0.5005,-0.5317,-0.3716,4.39,-27.56,-39.63
348,370276984,0.4893,-0.5459,-0.4038,2.50,-28.17,-38.66
349,370281984,0.4668,-0.5312,-0.4248,0.73,-28.11,-37.87
350,370286984,0.4888,-0.5430,-0.4507,-1.28,-28.11,-37.20
351,370291984,0.4707,-0.5547,-0.4268,-4.33,-28.23,-36.52
352,370296984,0.4497,-0.5581,-0.3872,-8.29,-28.23,-35.49
353,370301984,0.4248,-0.5762,-0.3589,-12.62,-28.05,-34.45
354,370306984,0.4312,-0.6011,-0.3374,-18.05,-27.74,-33.05
355,370311984,0.4775,-0.5991,-0.3608,-21.22,-27.80,-32.07
356,370316984,0.5605,-0.6318,-0.3599,-23.54,-27.74,-31.40
357,370321984,0.5723,-0.6519,-0.3799,-25.24,-28.41,-30.00
358,370326984,0.5415,-0.6069,-0.3472,-26.65,-28.54,-29.09
359,370331984,0.5063,-0.5923,-0.3408,-28.48,-29.02,-28.23
360,370336985,0.4766,-0.5815,-0.3223,-30.85,-29.15,-27.32
361,370341984,0.4692,-0.5928,-0.3086,-33.41,-29.15,-25.98
362,370347003,0.4482,-0.5977,-0.3130,-36.22,-29.27,-24.51
363,370351983,0.4204,-0.6152,-0.3052,-38.54,-29.27,-23.17
364,370356984,0.3999,-0.6401,-0.2852,-40.55,-29.15,-21.59
365,370361984,0.3804,-0.6543,-0.2759,-42.68,-29.02,-20.37
366,370366984,0.3438,-0.6650,-0.3247,-44.51,-28.78,-19.02
367,370371984,0.3018,-0.6562,-0.3125,-45.61,-28.84,-17.68
368,370376984,0.3018,-0.6401,-0.3301,-45.79,-28.72,-16.71
369,370381984,0.3403,-0.6416,-0.3643,-45.37,-28.72,-15.98
370,370386984,0.3760,-0.6509,-0.3916,-44.33,-28.84,-15.55
371,370391984,0.3887,-0.6562,-0.3896,-42.74,-28.84,-14.94
372,370397182,0.3750,-0.6743,-0.3701,-40.18,-28.23,-14.45
373,370401984,0.3833,-0.6538,-0.3989,-36.71,-27.44,-14.15
374,370406984,0.4087,-0.6768,-0.4497,-33.35,-27.20,-13.90
375,370411985,0.4258,-0.6860,-0.4424,-28.11,-26.95,-13.54
376,370416984,0.4302,-0.7046,-0.4248,-24.76,-26.89,-13.29
377,370421983,0.4258,-0.7153,-0.4214,-20.61,-26.46,-12.87
378,370426984,0.4253,-0.7241,-0.4331,-16.65,-25.85,-12.44
379,370431984,0.4399,-0.7168,-0.4370,-12.74,-25.37,-12.07
380,370436984,0.4380,-0.7139,-0.4409,-9.02,-24.51,-11.83
381,370441984,0.4458,-0.7168,-0.4546,-5.12,-23.78,-11.34
382,370447391,0.4468,-0.7144,-0.4619,-0.18,-22.80,-10.79
383,370451984,0.4468,-0.7173,-0.4604,3.11,-22.38,-10.49
384,370456984,0.4468,-0.7153,-0.4570,7.44,-21.65,-10.12
385,370461984,0.4521,-0.7231,-0.4678,12.74,-20.73,-9.88
386,370466984,0.4526,-0.7280,-0.4780,17.07,-20.24,-9.51
387,370471984,0.4502,-0.7329,-0.4653,21.16,-19.88,-9.45
388,370476984,0.4448,-0.7397,-0.4502,24.94,-19.33,-9.45
389,370481984,0.4478,-0.7451,-0.4375,28.41,-18.90,-9.63
390,370486984,0.4604,-0.7305,-0.4312,31.59,-18.17,-9.76
391,370491984,0.4663,-0.7427,-0.4370,34.51,-17.80,-10.12
392,370497426,0.4736,-0.7500,-0.4277,36.89,-17.01,-10.55
393,370501984,0.4736,-0.7515,-0.4150,38.84,-16.59,-10.91
394,370506986,0.4766,-0.7524,-0.4087,40.30,-16.04,-11.40
395,370511984,0.4922,-0.7534,-0.4092,40.98,-15.43,-11.65
396,370516984,0.4995,-0.7661,-0.4043,41.10,-15.00,-12.01
397,370521984,0.4976,-0.7676,-0.3877,40.91,-14.21,-12.13
398,370526984,0.5059,-0.7666,-0.3936,40.37,-13.29,-12.32
399,370531984,0.5122,-0.7642,-0.3989,39.63,-12.80,-12.50
400,370536984,0.5239,-0.7651,-0.3970,38.29,-12.01,-12.50
401,370541983,0.5303,-0.7632,-0.3848,36.71,-11.52,-12.80
402,370546985,0.5332,-0.7632,-0.3779,34.63,-10.79,-12.87
403,370551982,0.5322,-0.7637,-0.3867,32.20,-10.18,-12.99
404,370557723,0.5332,-0.7598,-0.3564,29.21,-9.51,-13.11
405,370561984,0.5391,-0.7695,-0.3472,26.34,-8.60,-13.11
406,370566982,0.5273,-0.7729,-0.3608,23.48,-7.93,-13.05
407,370571984,0.5205,-0.7754,-0.3608,20.85,-7.44,-12.99
408,370576984,0.5244,-0.7832,-0.3374,18.48,-6.71,-12.93
409,370581984,0.5337,-0.7915,-0.3389,16.46,-6.10,-12.74
410,370586984,0.5400,-0.7949,-0.3398,14.70,-5.43,-12.44
411,370591984,0.5400,-0.7949,-0.3491,13.60,-4.70,-12.26
412,370597178,0.5596,-0.8037,-0.3525,12.74,-4.27,-11.77
413,370601984,0.5806,-0.8096,-0.3501,12.07,-3.72,-11.10
414,370607358,0.5908,-0.8105,-0.3511,11.34,-3.17,-10.37
415,370611984,0.6079,-0.8115,-0.3379,10.49,-2.50,-9.45
416,370616984,0.6201,-0.8042,-0.3369,9.09,-1.95,-8.66
417,370621984,0.6177,-0.7930,-0.3506,7.68,-0.91,-8.05
418,370626984,0.6245,-0.7852,-0.3467,5.73,-0.12,-7.44
419,370631984,0.6353,-0.7793,-0.3481,3.60,0.67,-6.89
420,370636984,0.6304,-0.7729,-0.3569,0.98,1.77,-6.34
421,370641984,0.6338,-0.7612,-0.3584,-2.01,2.87,-6.04
422,370646984,0.6333,-0.7505,-0.3706,-5.37,3.84,-5.67
423,370651984,0.6328,-0.7476,-0.3730,-8.90,5.18,-5.43
424,370656982,0.6348,-0.7461,-0.3760,-12.68,6.16,-5.18
425,370661984,0.6372,-0.7471,-0.3882,-16.65,7.20,-5.00
426,370666985,0.6299,-0.7510,-0.3784,-20.98,8.41,-4.82
427,370671984,0.6211,-0.7432,-0.3887,-25.12,9.57,-4.76
428,370676983,0.6284,-0.7432,-0.4072,-28.84,10.61,-4.76
429,370681984,0.6465,-0.7549,-0.4077,-32.68,11.95,-4.57
430,370686984,0.6436,-0.7646,-0.4014,-36.10,13.23,-4.51
431,370692424,0.6494,-0.7651,-0.4136,-39.02,14.51,-4.39
432,370696984,0.6660,-0.7627,-0.4199,-41.71,15.61,-4.21
433,370701984,0.6807,-0.7388,-0.4160,-43.96,16.77,-4.09
434,370707480,0.6499,-0.7310,-0.4185,-46.16,18.05,-3.96
435,370711984,0.6631,-0.7349,-0.4277,-47.93,19.21,-3.78
436,370716984,0.6782,-0.7544,-0.4375,-49.09,20.37,-3.66
437,370721984,0.6792,-0.7632,-0.4414,-50.12,21.71,-3.35
438,370726984,0.6753,-0.7637,-0.4531,-50.79,22.99,-3.29
439,370731984,0.6724,-0.7583,-0.4712,-51.46,24.21,-2.80
440,370736984,0.6665,-0.7476,-0.4893,-51.89,25.73,-2.38
441,370741984,0.6719,-0.7349,-0.4888,-52.38,27.01,-2.07
442,370746984,0.6602,-0.7349,-0.5039,-53.23,28.84,-1.89
443,370751984,0.6592,-0.7417,-0.5244,-54.02,30.37,-1.65
444,370756986,0.6772,-0.7432,-0.5269,-54.63,31.95,-1.28
445,370761982,0.6670,-0.7383,-0.5239,-55.30,34.09,-0.85
446,370766982,0.6538,-0.7275,-0.5254,-55.85,35.98,-0.67
447,370771984,0.6460,-0.7231,-0.5308,-56.40,38.17,-0.49
448,370776984,0.6494,-0.7119,-0.5342,-56.65,40.12,-0.24
449,370781984,0.6445,-0.7163,-0.5327,-56.95,42.50,-0.06
450,370786984,0.6377,-0.7075,-0.5415,-57.07,44.63,0.00
451,370791984,0.6348,-0.6938,-0.5483,-57.13,46.89,0.00
452,370797440,0.6284,-0.6899,-0.5361,-57.13,49.33,-0.12
453,370801984,0.6255,-0.6885,-0.5410,-57.20,51.71,-0.30
454,370806984,0.6152,-0.6821,-0.5342,-57.32,54.15,-0.55
455,370811984,0.6108,-0.6714,-0.5317,-57.26,56.77,-0.91
456,370816984,0.6118,-0.6802,-0.5366,-57.32,59.45,-1.16
457,370821984,0.6084,-0.6763,-0.5293,-57.20,62.13,-1.46
458,370826984,0.6040,-0.6816,-0.5220,-57.26,64.94,-1.77
459,370831984,0.6040,-0.6899,-0.5205,-57.26,67.44,-2.07
460,370836984,0.6069,-0.6846,-0.5117,-57.32,70.30,-2.38
461,370841983,0.6060,-0.6841,-0.5078,-57.38,73.17,-2.56
462,370846982,0.5972,-0.6826,-0.4951,-57.50,75.91,-2.93
463,370851982,0.5908,-0.6870,-0.4834,-57.74,78.66,-3.23
464,370856982,0.5830,-0.6772,-0.4648,-57.62,81.77,-3.60
465,370861982,0.5835,-0.6587,-0.5024,-57.38,83.78,-4.09
466,370866982,0.5762,-0.6753,-0.4648,-57.26,85.79,-4.57
467,370871983,0.5693,-0.6895,-0.4331,-57.50,88.60,-5.06
468,370876987,0.5659,-0.6772,-0.4351,-58.11,91.16,-5.37
469,370881984,0.5591,-0.6626,-0.4214,-58.84,93.84,-5.79
470,370886985,0.5552,-0.6646,-0.4102,-59.70,96.40,-6.04
471,370891984,0.5488,-0.6743,-0.4028,-60.43,98.84,-6.28
472,370896984,0.5386,-0.6812,-0.3984,-60.91,101.46,-6.34
473,370901984,0.5269,-0.6724,-0.3828,-61.34,103.66,-6.40
474,370907207,0.5283,-0.6748,-0.3682,-61.65,105.98,-6.59
475,370911984,0.5156,-0.6787,-0.3623,-61.95,108.72,-6.65
476,370916984,0.5088,-0.6763,-0.3496,-61.95,110.49,-6.59
477,370921984,0.5054,-0.6816,-0.3389,-62.01,112.44,-6.65
478,370926984,0.4985,-0.6870,-0.3208,-61.95,114.57,-6.65
479,370931984,0.4922,-0.6821,-0.3096,-61.89,116.77,-6.52
480,370936984,0.4849,-0.6855,-0.2876,-61.83,119.21,-6.34
481,370941984,0.4868,-0.6758,-0.2783,-61.46,120.79,-6.16
482,370946984,0.4751,-0.6719,-0.2612,-60.79,122.99,-6.04
483,370951984,0.4639,-0.6772,-0.2529,-60.18,124.94,-5.85
484,370956984,0.4653,-0.6885,-0.2456,-59.27,126.46,-5.73
485,370961985,0.4595,-0.6841,-0.2246,-58.66,128.11,-5.24
486,370966984,0.4546,-0.6753,-0.1987,-58.29,129.57,-4.94
487,370971983,0.4448,-0.6694,-0.1880,-57.99,131.28,-4.63
488,370976985,0.4517,-0.6602,-0.1938,-57.87,133.11,-4.09
489,370981984,0.4502,-0.6582,-0.1714,-57.68,134.70,-3.72
490,370986983,0.4321,-0.6587,-0.1704,-57.32,136.22,-3.05
491,370991984,0.4302,-0.6558,-0.1558,-56.59,137.68,-2.62
492,370996984,0.4282,-0.6558,-0.1499,-55.85,139.27,-1.95
493,371001984,0.4341,-0.6592,-0.1338,-54.88,140.67,-1.40
494,371007476,0.4341,-0.6553,-0.1152,-53.72,142.38,-0.61
495,371011984,0.4316,-0.6509,-0.1157,-52.68,143.60,-0.24
496,371016984,0.4258,-0.6499,-0.0942,-51.46,145.12,0.37
497,371022352,0.4233,-0.6475,-0.0845,-50.24,146.46,1.22
498,371026984,0.4258,-0.6470,-0.0649,-49.02,147.87,1.95
499,371031985,0.4248,-0.6382,-0.0566,-47.87,149.39,2.68
500,371036984,0.4253,-0.6333,-0.0327,-46.59,150.67,3.41
501,371041984,0.4214,-0.6348,-0.0186,-45.49,152.07,4.27
502,371046984,0.4185,-0.6265,-0.0068,-44.45,153.60,5.06
503,371051984,0.4180,-0.6167,0.0098,-43.60,155.06,5.91
504,371056984,0.4263,-0.6113,0.0303,-42.68,156.28,6.71
505,371061984,0.4238,-0.6055,0.0347,-41.95,157.74,7.74
506,371066984,0.4263,-0.5972,0.0522,-41.34,159.21,8.66
507,371071984,0.4219,-0.5913,0.0605,-40.67,160.49,9.63
508,371076983,0.4229,-0.5781,0.0762,-39.82,161.77,10.79
509,371081984,0.4297,-0.5688,0.0850,-39.09,162.99,11.71
510,371086982,0.4307,-0.5576,0.1099,-38.23,164.39,12.87
511,371091984,0.4307,-0.5483,0.1191,-37.26,165.67,14.15
512,371096984,0.4292,-0.5347,0.1313,-36.40,166.95,15.18
513,371101984,0.4258,-0.5254,0.1431,-35.24,168.23,16.52
514,371106984,0.4209,-0.5127,0.1582,-34.09,169.45,17.87
515,371111984,0.4263,-0.5005,0.1758,-32.50,170.79,19.70
516,371116985,0.4258,-0.4844,0.1899,-31.34,171.77,20.85
517,371122310,0.4116,-0.4761,0.1982,-29.45,173.23,22.74
518,371126984,0.4082,-0.4658,0.2158,-28.17,174.27,24.09
519,371131984,0.4092,-0.4487,0.2349,-26.59,175.43,25.67
520,371136984,0.4077,-0.4414,0.2466,-25.00,176.71,27.44
521,371141983,0.3999,-0.4341,0.2588,-23.54,178.05,29.15
522,371146982,0.3926,-0.4194,0.2783,-22.01,179.27,31.16
523,371151982,0.3955,-0.4116,0.2930,-21.10,180.73,33.05
524,371156982,0.4014,-0.4082,0.3223,-20.30,182.20,35.12
525,371161982,0.3862,-0.4131,0.3555,-20.06,183.66,37.26
526,371166983,0.3643,-0.4136,0.3589,-19.88,185.30,39.51
527,371171984,0.3218,-0.3779,0.3892,-19.82,186.89,41.77
528,371176982,0.3540,-0.4116,0.4028,-20.12,188.60,44.09
529,371181982,0.3823,-0.4312,0.4438,-20.49,189.94,46.83
530,371186983,0.3882,-0.4263,0.4648,-20.98,191.34,49.63
531,371191982,0.3823,-0.4209,0.4888,-21.59,192.68,52.44
532,371196984,0.4067,-0.4136,0.5200,-22.07,193.90,55.37
533,371201983,0.3794,-0.4243,0.5396,-22.56,194.76,58.48
534,371206982,0.3379,-0.4185,0.5679,-23.23,195.49,61.52
535,371211982,0.3237,-0.4243,0.5923,-23.60,195.98,64.45
536,371216982,0.3159,-0.4136,0.6182,-24.02,196.16,67.50
537,371221984,0.2949,-0.4077,0.6357,-24.88,196.22,70.55
538,371226986,0.2715,-0.4082,0.6562,-26.04,195.79,73.66
539,371231984,0.2754,-0.3862,0.6772,-27.74,195.06,76.83
540,371236984,0.2529,-0.4062,0.6943,-29.82,194.02,79.94
541,371241984,0.2100,-0.4136,0.7363,-32.50,192.26,84.15
542,371246984,0.1924,-0.4248,0.7554,-34.02,190.91,87.44
543,371251984,0.1997,-0.4302,0.7788,-35.49,188.84,89.70
544,371256984,0.2148,-0.4629,0.8125,-36.65,186.22,93.17
545,371261984,0.2109,-0.4839,0.8462,-37.07,183.60,96.95
546,371266984,0.2217,-0.4736,0.8555,-36.89,180.30,100.61
547,371272468,0.2520,-0.5396,0.9111,-35.49,175.79,105.24
548,371276984,0.2358,-0.4971,0.9673,-33.35,173.05,108.05
549,371281983,0.1851,-0.5601,1.0146,-30.18,168.78,112.26
550,371286984,0.1611,-0.5815,1.0454,-26.22,164.15,116.22
551,371291984,0.1577,-0.6123,1.0874,-21.71,159.21,120.37
552,371296984,0.1523,-0.6104,1.1489,-15.00,152.87,125.24
553,371301984,0.1548,-0.6699,1.1572,-9.76,148.54,128.17
554,371307288,0.1631,-0.6689,1.1953,-1.22,141.28,131.95
555,371311984,0.1553,-0.6724,1.2510,5.12,136.28,134.51
556,371316984,0.1436,-0.6660,1.2671,12.87,129.94,137.62
557,371321984,0.2173,-0.7246,1.3047,22.01,121.83,140.98
558,371327387,0.1226,-0.7373,1.3120,29.51,114.76,143.96
559,371331984,0.0801,-0.6567,1.3877,35.43,108.84,145.98
560,371336984,0.1128,-0.6821,1.3857,42.50,101.77,148.23
561,371341983,0.0278,-0.7065,1.4214,49.76,92.56,151.04
562,371346984,0.0142,-0.7075,1.4087,53.41,85.30,152.50
563,371351984,0.0073,-0.7339,1.4590,56.89,78.84,154.45
564,371356986,-0.0459,-0.7134,1.4448,59.88,71.16,156.16
565,371361983,-0.0688,-0.7026,1.4346,61.22,63.05,157.68
566,371366984,-0.0459,-0.7285,1.5098,61.83,55.55,159.27
567,371371984,-0.1323,-0.7432,1.5352,61.77,48.23,161.10
568,371376984,-0.1567,-0.7529,1.5107,59.82,40.55,163.05
569,371381987,-0.1626,-0.7632,1.5420,56.59,32.93,164.88
570,371386984,-0.1704,-0.7588,1.5518,52.13,23.78,166.89
571,371391986,-0.2046,-0.7651,1.5562,48.29,16.10,168.54
572,371396983,-0.2407,-0.7769,1.5410,44.82,8.11,169.88
573,371401984,-0.2603,-0.7939,1.5601,41.46,0.06,171.22
574,371406984,-0.2866,-0.8184,1.5933,38.60,-7.99,172.50
575,371411984,-0.3101,-0.8477,1.5933,36.04,-16.10,173.72
576,371417421,-0.3394,-0.8638,1.5952,34.09,-24.57,174.94
577,371421984,-0.3574,-0.8892,1.6133,32.87,-33.05,175.98
578,371426984,-0.3955,-0.9082,1.6255,32.87,-41.65,176.83
579,371432434,-0.4229,-0.9307,1.6401,33.90,-50.37,177.56
580,371436984,-0.4258,-0.9648,1.6333,35.37,-59.21,178.23
581,371441984,-0.4761,-1.0156,1.6392,38.05,-68.05,179.21
582,371446985,-0.4912,-1.0557,1.6489,41.22,-76.95,180.06
583,371451984,-0.5312,-1.0977,1.6792,44.94,-85.55,180.91
584,371456984,-0.5713,-1.1274,1.6904,48.78,-94.09,181.83
585,371461984,-0.4971,-1.1606,1.6724,52.87,-102.44,182.62
586,371466984,-0.5635,-1.2134,1.7007,56.95,-110.55,183.41
587,371471984,-0.6836,-1.2529,1.7065,59.57,-118.90,183.90
588,371476984,-0.6401,-1.2129,1.6924,62.56,-127.38,184.21
589,371481984,-0.7173,-1.2266,1.7480,66.83,-135.55,184.15
590,371486984,-0.7920,-1.2710,1.7227,70.73,-144.09,183.78
591,371491982,-0.7896,-1.3174,1.7280,74.02,-152.74,183.23
592,371496982,-0.7759,-1.3525,1.7368,76.95,-161.65,182.32
593,371501982,-0.7886,-1.3740,1.7148,79.70,-170.79,180.98
594,371507693,-0.7935,-1.4038,1.6895,82.62,-182.32,179.45
595,371511984,-0.8022,-1.4326,1.6978,85.30,-189.15,177.74
596,371516983,-0.8223,-1.4438,1.7012,88.11,-198.17,175.98
597,371521986,-0.8193,-1.4722,1.6948,90.55,-207.20,173.96
598,371526984,-0.8486,-1.5059,1.7070,92.50,-215.91,171.83
599,371531984,-0.8633,-1.5210,1.7095,93.90,-224.45,169.57
600,371536984,-0.8677,-1.5195,1.6816,94.76,-232.87,167.13
601,371541983,-0.7734,-1.5366,1.6494,96.10,-241.46,164.63
602,371546984,-0.9048,-1.5386,1.6235,97.80,-250.06,162.26
603,371552441,-0.9556,-1.5376,1.6162,98.41,-258.66,159.51
604,371556984,-0.9277,-1.5498,1.6323,97.99,-267.01,156.65
605,371561984,-0.9243,-1.5605,1.6265,96.65,-275.12,153.78
606,371566984,-0.9209,-1.5645,1.5938,94.45,-282.99,151.04
607,371571984,-0.9341,-1.5586,1.5562,91.65,-290.85,147.93
608,371576984,-0.9351,-1.5522,1.5146,88.90,-298.60,144.88
609,371581986,-0.9302,-1.5493,1.4580,86.10,-306.28,142.01
610,371586983,-0.9194,-1.5464,1.4224,83.17,-313.96,138.96
611,371591986,-0.9146,-1.5542,1.3916,80.06,-321.28,136.22
612,371596984,-0.9150,-1.5610,1.3457,77.26,-328.29,133.41
613,371601984,-0.9204,-1.5723,1.2974,74.63,-335.06,130.98
614,371606984,-0.9302,-1.5815,1.2603,72.50,-341.46,128.54
615,371611984,-0.9302,-1.5933,1.2178,71.22,-347.56,126.22
616,371616984,-0.9390,-1.5894,1.1709,70.67,-353.23,124.21
617,371622403,-0.9409,-1.5952,1.1299,70.85,-358.54,122.20
618,371626984,-0.9404,-1.5938,1.0825,71.65,-363.48,120.00
619,371631983,-0.9521,-1.5933,1.0464,72.62,-367.93,118.17
620,371637224,-0.9556,-1.5894,1.0132,73.84,-371.83,116.28
621,371641984,-0.9688,-1.5908,0.9751,75.00,-375.43,114.45
622,371646984,-0.9795,-1.5923,0.9375,76.16,-378.23,112.56
623,371651984,-0.9902,-1.5942,0.8965,77.13,-380.91,110.73
624,371656984,-0.9956,-1.6011,0.8535,77.68,-382.74,109.02
625,371661984,-1.0127,-1.6025,0.8066,77.99,-384.51,107.20
626,371666984,-1.0166,-1.6123,0.7451,77.87,-385.85,105.18
627,371671984,-1.0215,-1.6074,0.6904,77.50,-386.59,103.29
628,371676984,-1.0190,-1.6050,0.6377,76.83,-387.32,100.98
629,371681984,-1.0146,-1.5981,0.5811,75.73,-387.74,98.72
630,371686984,-1.0103,-1.6011,0.5288,74.39,-387.87,96.10
631,371691983,-1.0137,-1.5952,0.4771,72.56,-387.68,93.48
632,371696984,-1.0103,-1.5884,0.4453,70.37,-387.20,90.61
633,371701984,-0.9995,-1.5781,0.4077,67.87,-386.10,87.01
634,371706984,-0.9902,-1.5649,0.3618,64.94,-384.33,84.88
635,371711984,-0.9658,-1.5527,0.3247,61.59,-382.26,81.22
636,371716984,-0.9575,-1.5518,0.2822,57.87,-379.70,77.62
637,371721984,-0.9390,-1.5405,0.2393,53.60,-376.40,74.02
638,371726984,-0.9150,-1.5298,0.1846,49.33,-372.99,70.43
639,371731984,-0.8955,-1.5166,0.1226,45.06,-369.21,66.46
640,371736984,-0.8628,-1.4971,0.0713,41.10,-365.18,62.68
641,371741984,-0.8506,-1.4790,0.0220,37.20,-360.67,58.66
642,371746984,-0.8242,-1.4604,-0.0400,33.84,-355.79,54.51
643,371751984,-0.8086,-1.4463,-0.1035,30.79,-350.67,50.30
644,371756985,-0.7935,-1.4302,-0.1499,28.29,-345.24,45.98
645,371761984,-0.7690,-1.4160,-0.1963,26.40,-339.76,41.65
646,371766984,-0.7397,-1.4019,-0.2373,25.12,-333.96,37.20
647,371771984,-0.7129,-1.3882,-0.2759,24.27,-327.56,32.87
648,371776984,-0.7002,-1.3691,-0.2979,23.84,-321.22,28.48
649,371781983,-0.6797,-1.3545,-0.3203,23.96,-314.63,24.21
650,371786982,-0.6538,-1.3271,-0.3320,24.39,-308.05,19.94
651,371791982,-0.6333,-1.3115,-0.3613,25.00,-301.04,15.55
652,371796984,-0.6230,-1.2993,-0.4028,25.91,-294.09,11.28
653,371802467,-0.6167,-1.2876,-0.4409,27.44,-287.07,7.26
654,371806984,-0.5986,-1.2729,-0.4536,29.21,-280.30,3.29
655,371811984,-0.5698,-1.2529,-0.4941,31.52,-273.23,-0.55
656,371816984,-0.5244,-1.2300,-0.5303,33.60,-265.91,-4.51
657,371821984,-0.4844,-1.2202,-0.5640,35.61,-258.66,-8.29
658,371826986,-0.4590,-1.2100,-0.5664,37.38,-250.79,-12.13
659,371831984,-0.4302,-1.2012,-0.5942,38.48,-242.99,-15.67
660,371836984,-0.3945,-1.1836,-0.6006,39.33,-234.88,-19.27
661,371841984,-0.3594,-1.1626,-0.6230,39.63,-226.89,-22.50
662,371846984,-0.3223,-1.1445,-0.6460,39.33,-218.84,-25.85
663,371851984,-0.2827,-1.1333,-0.6533,38.29,-210.55,-28.90
664,371856984,-0.2593,-1.1060,-0.6235,36.83,-202.32,-31.71
665,371861984,-0.2280,-1.0854,-0.6519,34.94,-194.09,-34.51
666,371866984,-0.1948,-1.0659,-0.6714,32.50,-186.10,-37.20
667,371871984,-0.1665,-1.0522,-0.6538,29.88,-177.93,-39.51
668,371876984,-0.1509,-1.0449,-0.6445,27.13,-169.63,-41.71
669,371881984,-0.1289,-1.0327,-0.6577,24.63,-161.65,-43.78
670,371886984,-0.1021,-1.0200,-0.6592,22.56,-153.60,-45.55
671,371891984,-0.0688,-1.0098,-0.6392,20.49,-145.79,-47.32
672,371897332,-0.0527,-1.0010,-0.6445,19.15,-137.80,-48.60
673,371901984,-0.0269,-0.9893,-0.6445,18.05,-130.06,-49.57
674,371906984,0.0073,-0.9736,-0.6333,17.20,-122.32,-50.49
675,371911984,0.0312,-0.9678,-0.6274,16.40,-114.57,-51.16
676,371916984,0.0532,-0.9551,-0.6123,15.73,-106.95,-51.59
677,371921983,0.0771,-0.9463,-0.5923,15.18,-99.39,-51.77
678,371926984,0.1055,-0.9326,-0.5698,14.94,-90.67,-51.77
679,371931984,0.1318,-0.9204,-0.5630,14.63,-85.00,-51.52
680,371936984,0.1616,-0.9023,-0.5371,14.70,-78.11,-51.10
681,371941984,0.1890,-0.8838,-0.5186,15.00,-71.46,-50.61
682,371946984,0.2188,-0.8691,-0.5029,15.43,-65.00,-49.94
683,371951984,0.2422,-0.8530,-0.4839,15.91,-59.15,-49.21
684,371956984,0.2622,-0.8398,-0.4678,16.52,-53.41,-48.23
685,371961984,0.2778,-0.8257,-0.4551,17.44,-47.87,-47.20
686,371966983,0.2900,-0.8203,-0.4331,18.41,-42.50,-46.10
687,371971984,0.3027,-0.8218,-0.4209,19.76,-37.62,-44.82
688,371976984,0.3169,-0.8149,-0.4043,21.16,-32.68,-43.35
689,371981984,0.3320,-0.8066,-0.3916,22.74,-28.05,-41.89
690,371986984,0.3457,-0.7969,-0.3755,24.27,-23.48,-40.30
691,371991984,0.3599,-0.7847,-0.3530,25.91,-19.09,-38.84
692,371996998,0.3750,-0.7788,-0.3340,27.13,-14.94,-37.38
693,372001989,0.3955,-0.7661,-0.3130,28.41,-10.91,-36.10
694,372006983,0.4067,-0.7539,-0.2935,29.21,-6.95,-34.70
695,372011984,0.4165,-0.7476,-0.2764,29.82,-3.35,-33.35
696,372016984,0.4404,-0.7354,-0.2461,29.88,0.73,-32.13
697,372021984,0.4512,-0.7266,-0.2412,30.00,2.99,-31.16
698,372026984,0.4609,-0.7153,-0.2212,29.88,5.85,-30.12
699,372031983,0.4727,-0.7124,-0.2061,29.51,8.23,-29.15
700,372036982,0.4805,-0.7036,-0.1870,28.84,10.49,-28.23
701,372041984,0.4888,-0.6978,-0.1680,27.99,12.07,-27.44
702,372046983,0.5005,-0.6958,-0.1489,26.89,13.78,-26.59
703,372051984,0.5122,-0.6895,-0.1299,25.55,15.06,-25.73
704,372056984,0.5220,-0.6821,-0.1152,24.09,16.04,-25.00
705,372061985,0.5303,-0.6851,-0.0938,22.44,16.89,-24.02
706,372066984,0.5396,-0.6821,-0.0757,20.61,17.68,-23.05
707,372071984,0.5474,-0.6841,-0.0547,18.60,18.11,-22.07
708,372076984,0.5522,-0.6836,-0.0444,16.65,18.54,-20.98
709,372081984,0.5601,-0.6841,-0.0244,14.39,19.27,-19.82
710,372086982,0.5684,-0.6831,-0.0010,12.38,19.70,-18.72
711,372091982,0.5742,-0.6782,0.0161,10.06,20.00,-17.62
712,372096982,0.5869,-0.6699,0.0273,7.68,20.49,-16.59
713,372101982,0.5913,-0.6616,0.0405,5.37,21.04,-15.55
714,372107082,0.6025,-0.6577,0.0566,3.35,21.28,-14.57
715,372111984,0.6084,-0.6538,0.0630,1.52,21.52,-13.72
716,372116986,0.6191,-0.6479,0.0752,-0.37,21.71,-12.74
717,372121984,0.6294,-0.6533,0.0820,-1.95,21.89,-11.89
718,372126984,0.6377,-0.6470,0.1045,-3.17,21.89,-11.04
719,372131984,0.6528,-0.6445,0.1113,-4.21,21.71,-10.06
720,372136984,0.6602,-0.6357,0.1221,-5.12,21.52,-9.27
721,372141984,0.6733,-0.6343,0.1328,-5.85,21.16,-8.60
722,372146984,0.6787,-0.6318,0.1470,-6.22,20.61,-7.80
723,372151984,0.6943,-0.6362,0.1665,-6.40,20.12,-7.07
724,372156984,0.7007,-0.6362,0.1807,-6.46,19.51,-6.34
725,372161985,0.7090,-0.6377,0.1914,-6.34,18.72,-5.67
726,372166984,0.7148,-0.6436,0.2017,-6.10,17.99,-4.88
727,372171984,0.7236,-0.6470,0.2148,-6.04,17.13,-4.21
728,372176984,0.7285,-0.6470,0.2222,-5.91,15.91,-3.29
729,372181984,0.7271,-0.6519,0.2314,-5.98,15.55,-2.80
730,372186985,0.7324,-0.6509,0.2417,-6.22,14.57,-2.07
731,372191984,0.7329,-0.6519,0.2407,-6.71,13.90,-1.46
732,372196986,0.7368,-0.6465,0.2568,-7.32,12.93,-0.91
733,372201985,0.7373,-0.6465,0.2568,-8.41,12.07,-0.24
734,372206984,0.7422,-0.6479,0.2612,-9.70,11.46,0.37
735,372211984,0.7363,-0.6450,0.2686,-11.22,10.67,0.79
736,372216986,0.7437,-0.6489,0.2695,-13.11,9.88,1.34
737,372221984,0.7378,-0.6445,0.2681,-14.88,9.33,1.65
738,372226984,0.7344,-0.6445,0.2695,-16.71,8.60,1.95
739,372231984,0.7373,-0.6445,0.2749,-18.41,8.11,2.32
740,372236984,0.7349,-0.6450,0.2690,-19.94,7.44,2.62
741,372241984,0.7339,-0.6431,0.2686,-21.16,7.01,2.80
742,372247448,0.7324,-0.6489,0.2666,-22.26,6.40,3.23
743,372251984,0.7334,-0.6416,0.2700,-22.87,6.22,3.54
744,372256984,0.7339,-0.6470,0.2632,-23.41,5.73,3.84
745,372261984,0.7275,-0.6440,0.2646,-23.54,5.18,4.21
746,372266985,0.7271,-0.6470,0.2671,-23.41,4.88,4.57
747,372271984,0.7275,-0.6533,0.2666,-23.11,4.39,5.06
748,372276984,0.7251,-0.6484,0.2661,-22.74,4.02,5.30
749,372281984,0.7217,-0.6582,0.2559,-21.89,3.48,5.79
750,372286983,0.7207,-0.6562,0.2598,-21.46,3.11,5.98
751,372291984,0.7148,-0.6626,0.2554,-20.79,2.68,6.52
752,372296984,0.7168,-0.6650,0.2529,-20.43,2.38,6.71
753,372301984,0.7148,-0.6680,0.2529,-19.94,1.95,6.89
754,372306984,0.7065,-0.6675,0.2534,-19.88,1.89,7.20
755,372311984,0.7124,-0.6650,0.2456,-19.88,1.59,7.38
756,372316984,0.7104,-0.6660,0.2417,-19.94,1.40,7.50
757,372321983,0.7129,-0.6670,0.2383,-19.94,1.34,7.68
758,372326984,0.7109,-0.6646,0.2397,-20.12,1.28,7.62
759,372331984,0.7051,-0.6650,0.2373,-20.43,1.46,7.68
760,372337470,0.7026,-0.6626,0.2339,-20.67,1.65,7.62
761,372341984,0.7056,-0.6621,0.2290,-20.98,1.52,7.56
762,372346984,0.7007,-0.6650,0.2271,-21.10,1.65,7.44
763,372351984,0.6987,-0.6631,0.2300,-21.22,1.83,7.32
764,372356984,0.6968,-0.6660,0.2300,-21.28,1.83,7.20
765,372361984,0.6973,-0.6660,0.2300,-21.16,2.07,7.13
766,372366984,0.6934,-0.6631,0.2266,-21.04,2.32,6.89
767,372371984,0.6914,-0.6655,0.2295,-20.79,2.50,6.71
768,372376984,0.6934,-0.6650,0.2207,-20.30,2.80,6.52
769,372381983,0.6929,-0.6655,0.2236,-20.06,3.23,6.34
770,372386982,0.6880,-0.6724,0.2168,-19.57,3.41,6.28
771,372391984,0.6890,-0.6758,0.2192,-18.96,3.84,6.22
772,372396985,0.6938,-0.6777,0.2192,-18.35,4.21,6.34
773,372401982,0.6948,-0.6851,0.2104,-17.68,4.63,6.40
774,372407585,0.6958,-0.6855,0.2080,-17.07,5.12,6.59
775,372411986,0.6938,-0.6875,0.2070,-16.34,5.67,6.71
776,372416984,0.6987,-0.6880,0.2041,-15.85,6.04,6.95
777,372421984,0.6953,-0.6904,0.1978,-15.30,6.52,7.13
778,372426984,0.6978,-0.6899,0.2051,-15.00,7.07,7.32
779,372431984,0.6953,-0.6870,0.2007,-14.57,7.56,7.50
780,372436984,0.6968,-0.6904,0.1968,-14.45,8.05,7.68
781,372441984,0.6938,-0.6924,0.2061,-14.39,8.48,7.87
782,372446984,0.6919,-0.6953,0.2061,-14.33,9.02,7.93
783,372451984,0.6899,-0.6968,0.2031,-14.39,9.57,8.17
784,372456984,0.6943,-0.7002,0.2070,-14.27,10.12,8.29
785,372461984,0.6934,-0.7041,0.2124,-14.21,10.49,8.48
786,372467330,0.6934,-0.7051,0.2119,-14.09,11.04,8.54
787,372471984,0.6958,-0.7090,0.2061,-13.84,11.28,8.66
788,372476984,0.7007,-0.7056,0.2124,-13.54,11.71,8.72
789,372481984,0.6968,-0.7085,0.2056,-13.05,12.20,8.84
790,372486984,0.6953,-0.7085,0.2090,-12.62,12.50,8.96
791,372491984,0.6982,-0.7100,0.2085,-12.07,12.74,8.96
792,372496983,0.6987,-0.7085,0.2085,-11.46,13.23,8.96
793,372501984,0.6968,-0.7100,0.2119,-10.73,13.48,8.96
794,372506984,0.6938,-0.7114,0.2085,-10.06,13.72,9.02
795,372511984,0.6909,-0.7144,0.2109,-9.45,13.78,8.84
796,372516984,0.6924,-0.7124,0.2114,-8.72,14.15,8.72
797,372521983,0.6865,-0.7168,0.2227,-8.35,14.39,8.66
798,372526984,0.6865,-0.7207,0.2261,-7.68,14.51,8.48
799,372531984,0.6865,-0.7188,0.2300,-7.20,14.63,8.29
800,372536984,0.6875,-0.7178,0.2324,-6.83,15.00,8.11
801,372541984,0.6851,-0.7236,0.2349,-6.40,14.94,7.87
802,372547309,0.6851,-0.7202,0.2402,-6.10,14.94,7.56
803,372551984,0.6865,-0.7236,0.2432,-5.61,15.00,7.32
804,372556984,0.6836,-0.7271,0.2480,-5.24,14.94,7.20
805,372561984,0.6846,-0.7305,0.2471,-4.88,14.76,6.83
806,372566984,0.6851,-0.7275,0.2529,-4.45,14.82,6.71
807,372571985,0.6875,-0.7324,0.2539,-3.96,14.70,6.46
808,372576984,0.6855,-0.7324,0.2505,-3.84,14.57,6.28
809,372581984,0.6831,-0.7300,0.2495,-3.54,14.39,6.22
810,372586984,0.6816,-0.7290,0.2578,-3.23,14.21,6.04
811,372591984,0.6826,-0.7314,0.2534,-3.11,13.96,5.85
812,372596984,0.6782,-0.7305,0.2505,-2.93,13.84,5.85
813,372601984,0.6748,-0.7324,0.2480,-2.87,13.72,5.79
814,372606984,0.6772,-0.7261,0.2505,-2.87,13.72,5.79
815,372611983,0.6729,-0.7246,0.2461,-2.93,13.23,5.73
816,372616984,0.6675,-0.7251,0.2393,-3.05,12.99,5.85
817,372621984,0.6655,-0.7202,0.2388,-3.23,12.68,5.98
818,372626984,0.6621,-0.7188,0.2329,-3.41,12.44,6.16
819,372631984,0.6611,-0.7183,0.2334,-3.96,12.26,6.34
820,372636984,0.6533,-0.7163,0.2246,-4.45,11.89,6.71
821,372641984,0.6519,-0.7129,0.2183,-5.18,11.65,7.01
822,372646983,0.6494,-0.7124,0.2129,-5.98,11.16,7.50
823,372651984,0.6440,-0.7144,0.2134,-6.77,10.85,8.17
824,372656984,0.6406,-0.7134,0.2017,-7.56,10.55,8.78
825,372661984,0.6357,-0.7124,0.2017,-8.66,10.49,9.33
826,372666984,0.6377,-0.7061,0.1836,-9.70,10.18,10.12
827,372671984,0.6343,-0.7021,0.1738,-10.85,9.82,10.98
828,372676984,0.6294,-0.7002,0.1689,-12.07,9.63,11.83
829,372681983,0.6250,-0.6953,0.1577,-13.41,9.21,12.68
830,372686982,0.6191,-0.6899,0.1421,-14.76,8.96,13.60
831,372691982,0.6172,-0.6890,0.1333,-16.28,8.60,14.51
832,372696982,0.6182,-0.6890,0.1191,-17.68,8.35,15.43
833,372701982,0.6196,-0.6953,0.1055,-19.09,7.87,16.40
834,372708034,0.6196,-0.6973,0.0845,-20.73,7.13,18.05
835,372711984,0.6235,-0.6865,0.0723,-21.89,6.59,18.96
836,372716983,0.6357,-0.6875,0.0532,-23.29,5.91,20.18
837,372721984,0.6416,-0.6797,0.0171,-24.33,5.24,21.59
838,372726984,0.6455,-0.6914,0.0220,-24.94,4.27,22.87
839,372731984,0.6201,-0.7021,0.0137,-25.61,3.66,24.39
840,372736984,0.5991,-0.7144,-0.0200,-26.40,2.87,26.10
841,372741984,0.5801,-0.7026,-0.0283,-27.44,1.83,27.74
842,372746984,0.5703,-0.6919,0.0024,-28.66,0.85,29.33
843,372751984,0.5757,-0.6743,0.0190,-30.00,0.49,30.67
844,372756984,0.5898,-0.6675,0.0283,-31.46,0.49,31.59
845,372761984,0.5923,-0.6631,0.0503,-33.48,0.79,32.62
846,372766984,0.5791,-0.6597,0.0688,-35.49,1.52,33.23
847,372771984,0.5518,-0.6494,0.0630,-37.99,2.50,33.66
848,372776984,0.5225,-0.6582,0.0522,-40.18,3.35,34.15
849,372781984,0.5718,-0.7446,0.0127,-42.62,4.45,34.88
850,372786984,0.5991,-0.7905,-0.0547,-46.04,4.94,36.22
851,372791983,0.5444,-0.7554,-0.0493,-51.52,5.06,37.32
852,372797012,0.5195,-0.7441,-0.0269,-56.65,5.73,37.93
853,372801982,0.5000,-0.7378,-0.0332,-61.40,6.59,38.29
854,372806984,0.4751,-0.7251,-0.0220,-65.67,7.26,38.41
855,372811984,0.4609,-0.7178,-0.0166,-69.39,7.93,38.60
856,372816983,0.4546,-0.7119,-0.0278,-72.56,8.54,38.90
857,372821984,0.4512,-0.7124,-0.0371,-75.12,8.90,39.21
858,372826984,0.4390,-0.7056,-0.0239,-76.71,9.33,39.51
859,372831984,0.4170,-0.6948,-0.0054,-77.50,9.82,39.82
860,372836986,0.3970,-0.6948,-0.0132,-77.74,10.37,40.12
861,372841983,0.3813,-0.7056,-0.0356,-77.26,10.61,40.73
862,372846984,0.3696,-0.7061,-0.0273,-76.46,10.98,41.34
863,372851984,0.3677,-0.7070,-0.0259,-75.00,11.71,41.89
864,372856984,0.3687,-0.7163,-0.0439,-73.84,12.26,42.20
865,372861984,0.3638,-0.7144,-0.0659,-72.07,13.05,42.50
866,372866984,0.3652,-0.7163,-0.0649,-70.06,13.72,42.99
867,372871984,0.3594,-0.7217,-0.0698,-67.99,14.63,43.35
868,372876984,0.3555,-0.7354,-0.0894,-65.91,15.55,43.72
869,372881984,0.3555,-0.7471,-0.1030,-63.90,16.65,44.15
870,372886984,0.3550,-0.7505,-0.0962,-61.83,17.68,44.51
871,372891984,0.3623,-0.7559,-0.1001,-60.12,18.72,44.76
872,372896986,0.3701,-0.7607,-0.1074,-58.48,20.06,45.24
873,372901983,0.3711,-0.7627,-0.1157,-57.20,21.22,45.49
874,372906984,0.3672,-0.7720,-0.1177,-56.22,22.44,45.91
875,372911984,0.3633,-0.7773,-0.1147,-55.67,23.54,46.04
876,372916984,0.3618,-0.7778,-0.1333,-55.55,24.88,46.40
877,372921984,0.3564,-0.7837,-0.1333,-55.79,26.22,46.71
878,372927072,0.3486,-0.7881,-0.1343,-56.46,27.56,46.83
879,372931983,0.3442,-0.7925,-0.1367,-57.38,29.09,47.07
880,372936988,0.3447,-0.7949,-0.1348,-59.15,30.85,47.32
881,372941984,0.3442,-0.7949,-0.1357,-60.61,32.20,47.38
882,372946984,0.3423,-0.7944,-0.1343,-63.29,34.27,47.50
883,372952077,0.3384,-0.7969,-0.1392,-65.24,35.43,47.62
884,372956983,0.3315,-0.7925,-0.1401,-67.87,37.07,47.80
885,372961984,0.3286,-0.7959,-0.1421,-70.98,38.84,47.99
886,372966984,0.3213,-0.7939,-0.1401,-74.15,40.49,48.35
887,372971984,0.3208,-0.7930,-0.1455,-77.56,42.20,48.66
888,372976984,0.3179,-0.7905,-0.1406,-80.85,43.72,49.15
889,372981983,0.3135,-0.7930,-0.1401,-84.51,45.49,49.63
890,372986984,0.3154,-0.7925,-0.1455,-87.93,47.07,50.00
891,372991982,0.3086,-0.7925,-0.1421,-91.46,48.66,50.67
892,372996982,0.3115,-0.7939,-0.1426,-95.00,50.37,51.46
893,373001985,0.3086,-0.7891,-0.1445,-98.35,51.89,52.26
894,373007409,0.3062,-0.7886,-0.1421,-102.32,53.60,53.41
895,373011984,0.3091,-0.7886,-0.1455,-104.94,54.76,54.27
896,373016984,0.3130,-0.7876,-0.1421,-108.11,56.10,55.49
897,373021984,0.3135,-0.7832,-0.1509,-111.22,57.32,56.65
898,373026984,0.3115,-0.7847,-0.1504,-113.90,58.48,57.93
899,373031984,0.3179,-0.7803,-0.1533,-116.59,59.63,59.39
900,373036984,0.3145,-0.7754,-0.1611,-118.84,60.30,60.73
901,373041984,0.3125,-0.7759,-0.1597,-120.85,61.16,62.26
902,373046984,0.3130,-0.7695,-0.1650,-122.50,62.01,63.90
903,373051984,0.3081,-0.7661,-0.1631,-124.21,62.50,65.73
904,373056984,0.3037,-0.7637,-0.1680,-125.06,62.93,66.95
905,373062329,0.2979,-0.7554,-0.1743,-126.10,63.48,68.96
906,373066984,0.2925,-0.7524,-0.1733,-126.59,63.72,70.30
907,373071984,0.2871,-0.7515,-0.1763,-127.07,64.02,71.89
908,373076984,0.2803,-0.7534,-0.1802,-127.68,64.33,73.54
909,373081984,0.2671,-0.7539,-0.1836,-128.05,64.39,75.37
910,373086985,0.2607,-0.7471,-0.1753,-128.60,64.63,77.13
911,373091984,0.2588,-0.7466,-0.1836,-129.15,64.70,78.90
912,373096984,0.2534,-0.7490,-0.1865,-129.76,64.76,80.79
913,373101984,0.2437,-0.7515,-0.1968,-130.37,64.82,82.56
914,373106983,0.2368,-0.7598,-0.1938,-131.22,64.88,84.70
915,373111984,0.2349,-0.7705,-0.1934,-132.01,64.88,87.44
916,373116986,0.2261,-0.7754,-0.1963,-132.93,64.70,87.87
917,373121983,0.2271,-0.7920,-0.2002,-133.96,64.63,91.16
918,373126984,0.2222,-0.8008,-0.2090,-134.88,64.45,93.90
919,373131984,0.2285,-0.8130,-0.2119,-135.98,64.33,96.71
920,373136984,0.2236,-0.8135,-0.2109,-136.83,64.21,99.45
921,373141984,0.2183,-0.8149,-0.2168,-137.56,63.96,102.44
922,373147389,0.2090,-0.8184,-0.2285,-137.87,64.09,105.91
923,373151984,0.1982,-0.8125,-0.2251,-137.80,63.96,108.29
924,373157114,0.1924,-0.8130,-0.2280,-137.56,63.96,110.91
925,373161984,0.1821,-0.8052,-0.2358,-136.77,64.09,113.54
926,373166984,0.1636,-0.8071,-0.2471,-135.30,64.02,116.59
927,373171984,0.1577,-0.8013,-0.2520,-133.96,64.09,118.48
928,373176984,0.1406,-0.7998,-0.2583,-131.95,64.02,120.91
929,373181984,0.1313,-0.7944,-0.2622,-129.88,64.02,123.11
930,373186985,0.1152,-0.7861,-0.2744,-127.07,64.15,125.24
931,373191983,0.0981,-0.7822,-0.2769,-124.33,64.15,127.38
932,373196986,0.0942,-0.7832,-0.2827,-120.98,64.33,129.21
933,373201984,0.0815,-0.7803,-0.2886,-117.62,64.33,130.85
934,373206985,0.0732,-0.7842,-0.2930,-114.21,64.39,132.50
935,373211984,0.0615,-0.7964,-0.2979,-110.91,64.45,134.33
936,373216983,0.0508,-0.8076,-0.3091,-107.62,64.57,136.22
937,373221984,0.0454,-0.8164,-0.3110,-104.63,65.00,138.17
938,373226993,0.0352,-0.8276,-0.3198,-101.16,65.30,140.43
939,373231984,0.0312,-0.8350,-0.3296,-99.02,65.67,142.13
940,373236984,0.0288,-0.8472,-0.3369,-96.34,66.16,144.15
941,373241984,0.0239,-0.8564,-0.3398,-93.66,66.46,146.46
942,373247442,0.0195,-0.8701,-0.3457,-90.55,67.07,148.96
943,373251984,0.0142,-0.8774,-0.3594,-88.41,67.56,150.73
944,373256984,0.0073,-0.8906,-0.3687,-85.85,67.99,153.11
945,373261984,-0.0015,-0.8994,-0.3691,-83.23,68.78,155.18
946,373266984,-0.0156,-0.9062,-0.3809,-79.94,69.70,157.93
947,373271984,-0.0244,-0.9097,-0.3818,-77.50,70.30,159.70
948,373276984,-0.0332,-0.9136,-0.3867,-74.45,71.28,161.65
949,373281983,-0.0444,-0.9116,-0.3911,-70.85,72.20,163.72
950,373286982,-0.0566,-0.9141,-0.3965,-66.77,73.35,165.37
951,373292506,-0.0757,-0.9092,-0.4087,-61.40,74.88,167.38
952,373296984,-0.0879,-0.9136,-0.4146,-57.50,75.91,168.60
953,373301982,-0.1045,-0.9224,-0.4219,-52.26,77.32,170.00
954,373307508,-0.1245,-0.9331,-0.4263,-45.85,79.15,171.71
955,373311984,-0.1406,-0.9414,-0.4277,-41.46,80.43,172.93
956,373316983,-0.1572,-0.9463,-0.4312,-34.88,82.74,174.51
957,373321984,-0.1641,-0.9492,-0.4360,-30.55,83.84,175.37
958,373326984,-0.1758,-0.9434,-0.4277,-25.12,85.91,176.52
959,373331982,-0.1812,-0.9487,-0.4370,-19.51,86.04,177.44
960,373336984,-0.1909,-0.9492,-0.4365,-14.09,88.72,178.17
961,373341984,-0.2017,-0.9541,-0.4355,-8.54,90.79,178.90
962,373346984,-0.2119,-0.9556,-0.4268,-3.48,92.93,179.51
963,373351984,-0.2236,-0.9570,-0.4253,1.28,94.76,180.00
964,373356986,-0.2305,-0.9629,-0.4194,5.55,96.65,180.43
965,373361983,-0.2358,-0.9614,-0.4209,9.70,98.54,180.79
966,373367482,-0.2466,-0.9648,-0.4087,14.21,100.85,181.10
967,373371984,-0.2500,-0.9673,-0.4004,17.07,102.56,181.22
968,373376983,-0.2588,-0.9609,-0.4004,20.43,104.33,181.22
969,373381984,-0.2715,-0.9497,-0.3794,24.51,106.71,181.04
970,373387435,-0.2749,-0.9497,-0.3857,27.68,108.60,180.73
971,373391984,-0.2808,-0.9438,-0.3750,30.30,110.00,180.55
972,373396984,-0.2891,-0.9404,-0.3726,34.02,111.95,180.12
973,373401984,-0.2939,-0.9414,-0.3677,37.01,113.60,179.82
974,373406983,-0.3071,-0.9336,-0.3574,40.00,115.18,179.33
975,373411984,-0.3188,-0.9365,-0.3535,42.74,116.46,178.96
976,373416984,-0.3276,-0.9287,-0.3486,45.06,117.93,178.54
977,373421984,-0.3384,-0.9268,-0.3369,47.20,119.27,178.05
978,373426986,-0.3374,-0.9277,-0.3306,49.09,120.55,177.50
979,373431983,-0.3486,-0.9297,-0.3276,50.49,121.59,176.95
980,373436984,-0.3535,-0.9351,-0.3247,51.59,122.62,176.52
981,373441983,-0.3682,-0.9399,-0.3130,52.44,123.72,176.22
982,373446984,-0.3804,-0.9365,-0.3101,53.29,124.76,176.04
983,373451984,-0.3926,-0.9395,-0.2954,54.15,125.67,175.85
984,373456984,-0.4053,-0.9419,-0.2905,55.12,126.77,175.85
985,373461984,-0.4170,-0.9463,-0.2827,56.28,127.62,175.85
986,373466988,-0.4312,-0.9507,-0.2764,57.68,128.41,175.91
987,373471984,-0.4443,-0.9526,-0.2739,59.39,129.45,176.28
988,373476984,-0.4707,-0.9512,-0.2695,61.10,130.12,176.52
989,373481984,-0.4878,-0.9492,-0.2695,62.93,131.28,176.71
990,373486984,-0.5005,-0.9482,-0.2710,64.88,132.20,176.89
991,373491984,-0.5190,-0.9424,-0.2607,66.77,133.11,176.89
992,373496985,-0.5308,-0.9424,-0.2627,68.48,134.21,176.77
993,373501984,-0.5400,-0.9312,-0.2598,70.12,135.24,176.46
994,373506984,-0.5479,-0.9238,-0.2520,72.01,136.10,176.22
995,373511984,-0.5586,-0.9116,-0.2466,73.96,137.20,175.85
996,373516984,-0.5679,-0.9058,-0.2495,75.98,138.11,175.43
997,373521984,-0.5835,-0.9048,-0.2417,78.29,138.90,175.06
998,373526984,-0.5986,-0.9102,-0.2515,80.55,139.82,174.33
999,373531983,-0.6216,-0.9170,-0.2461,82.56,140.73,173.60
1000,373536984,-0.6367,-0.9263,-0.2402,83.60,141.71,172.68
1001,373541984,-0.6509,-0.9307,-0.2471,84.21,142.56,171.59
1002,373546984,-0.6641,-0.9375,-0.2354,84.33,143.35,170.30
1003,373551984,-0.6650,-0.9419,-0.2358,84.02,144.39,169.09
1004,373556984,-0.6675,-0.9409,-0.2378,83.60,145.12,167.68
1005,373561984,-0.6680,-0.9365,-0.2383,83.11,145.55,166.22
1006,373566984,-0.6670,-0.9336,-0.2285,82.62,146.04,164.45
1007,373571984,-0.6660,-0.9209,-0.2310,82.13,146.22,162.56
1008,373576984,-0.6660,-0.9092,-0.2266,81.89,146.40,160.85
1009,373581983,-0.6655,-0.9082,-0.2227,81.59,146.22,158.96
1010,373586982,-0.6685,-0.8999,-0.2192,81.52,146.16,157.07
1011,373591984,-0.6748,-0.8940,-0.2090,81.59,145.85,155.12
1012,373596983,-0.6738,-0.8857,-0.2129,81.65,145.67,153.29
1013,373601983,-0.6763,-0.8838,-0.2075,82.32,145.24,151.34
1014,373606982,-0.6768,-0.8784,-0.1982,82.62,144.63,149.57
1015,373611983,-0.6826,-0.8760,-0.2085,82.62,144.02,147.56
1016,373616984,-0.6909,-0.8784,-0.2026,82.20,143.54,145.49
1017,373621984,-0.6958,-0.8843,-0.2070,81.28,142.87,143.48
1018,373626984,-0.6948,-0.8853,-0.1997,79.70,142.20,141.28
1019,373631984,-0.6978,-0.8838,-0.2012,78.05,141.34,139.27
1020,373637042,-0.7056,-0.8848,-0.2041,76.04,140.43,137.07
1021,373641995,-0.7139,-0.8838,-0.1992,74.02,139.51,135.00
1022,373646984,-0.7236,-0.8862,-0.2021,72.13,138.66,132.62
1023,373651984,-0.7354,-0.8887,-0.2056,70.30,137.56,130.55
1024,373656984,-0.7490,-0.8911,-0.1982,68.23,136.59,128.29
1025,373661984,-0.7500,-0.8921,-0.1958,66.04,135.30,125.98
1026,373666983,-0.7510,-0.8882,-0.1978,63.72,134.39,123.84
1027,373671986,-0.7471,-0.8872,-0.1978,61.40,133.17,121.52
1028,373676984,-0.7495,-0.8862,-0.1919,59.27,132.07,119.33
1029,373681985,-0.7471,-0.8818,-0.1899,57.32,130.73,117.20
