# skilleye imu stream v1
# device=xiao_esp32c6 imu=mpu6050 addr=0x68
# rate_hz=200 accel_range_g=16 gyro_range_dps=2000 dlpf_hz=94
# units: accel in g, gyro in deg/s, t_us in microseconds since boot (monotonic)
# no shared clock with the camera -- tap the racket once before each take
# so both recordings share a spike to align on
seq,t_us,ax,ay,az,gx,gy,gz
0,80367982,-0.8887,0.4380,0.0928,1.52,0.24,-0.37
1,80372986,-0.8887,0.4385,0.0894,1.28,0.30,-0.43
2,80377981,-0.8877,0.4434,0.0986,1.10,0.30,-0.24
3,80382982,-0.8862,0.4375,0.0903,0.85,0.43,-0.30
4,80387981,-0.8882,0.4419,0.0908,0.67,0.49,-0.18
5,80392982,-0.8926,0.4404,0.0869,0.49,0.49,-0.18
6,80397980,-0.8877,0.4404,0.0962,0.49,0.61,-0.06
7,80402982,-0.8926,0.4409,0.0889,0.37,0.61,0.06
8,80407982,-0.8896,0.4404,0.0923,0.37,0.55,0.06
9,80412982,-0.8892,0.4395,0.0908,0.18,0.73,0.24
10,80417981,-0.8896,0.4409,0.0889,0.43,0.73,0.30
11,80422981,-0.8901,0.4419,0.0908,0.37,0.85,0.24
12,80427982,-0.8901,0.4434,0.0913,0.43,0.79,0.43
13,80432982,-0.8940,0.4438,0.0845,0.55,0.98,0.49
14,80437982,-0.8936,0.4458,0.0923,0.67,1.10,0.55
15,80442980,-0.8940,0.4429,0.0898,0.85,1.16,0.49
16,80447983,-0.8955,0.4424,0.0898,0.79,1.22,0.67
17,80452982,-0.8901,0.4419,0.0918,0.91,1.22,0.67
18,80457981,-0.8960,0.4448,0.0908,0.91,1.28,0.91
19,80462982,-0.8911,0.4443,0.0884,0.98,1.16,0.85
20,80467982,-0.8926,0.4390,0.0884,0.91,1.40,0.91
21,80472984,-0.8911,0.4375,0.0928,0.85,1.28,1.10
22,80477981,-0.8936,0.4404,0.0869,0.98,1.28,1.16
23,80482982,-0.8955,0.4390,0.0962,0.79,1.40,1.28
24,80487980,-0.8955,0.4399,0.0908,0.73,1.34,1.40
25,80493224,-0.8911,0.4424,0.0947,0.49,1.40,1.46
26,80497982,-0.8945,0.4375,0.0825,0.43,1.52,1.46
27,80502982,-0.8911,0.4399,0.0918,0.43,1.52,1.65
28,80508053,-0.8906,0.4424,0.0903,0.30,1.40,1.71
29,80512981,-0.8896,0.4365,0.0884,0.30,1.40,1.65
30,80517982,-0.8940,0.4390,0.0859,0.12,1.22,1.71
31,80523083,-0.8882,0.4390,0.0908,0.12,1.40,1.77
32,80527982,-0.8882,0.4385,0.0918,0.12,1.34,1.77
33,80533478,-0.8906,0.4370,0.0928,0.12,1.40,1.95
34,80537982,-0.8921,0.4321,0.0879,0.12,1.34,1.95
35,80542982,-0.8921,0.4370,0.0928,0.24,1.22,1.89
36,80547982,-0.8975,0.4351,0.0874,0.24,1.22,1.95
37,80552981,-0.8950,0.4355,0.0889,0.18,1.16,2.01
38,80557982,-0.8921,0.4355,0.0879,0.37,1.16,2.07
39,80562982,-0.8906,0.4292,0.0835,0.37,1.16,2.01
40,80567982,-0.8896,0.4316,0.0913,0.30,1.04,1.95
41,80572980,-0.8887,0.4312,0.0889,0.12,0.79,2.01
42,80577982,-0.8921,0.4302,0.0869,0.30,0.85,2.13
43,80583249,-0.8955,0.4307,0.0835,0.30,0.85,2.13
44,80587982,-0.8950,0.4307,0.0884,0.30,0.79,2.07
45,80592982,-0.8926,0.4258,0.0840,0.30,0.73,2.07
46,80597982,-0.8916,0.4297,0.0894,0.43,0.73,2.07
47,80602981,-0.8896,0.4287,0.0933,0.49,0.85,2.07
48,80607983,-0.8916,0.4277,0.0879,0.73,0.85,2.13
49,80612982,-0.8945,0.4277,0.0874,0.79,0.79,2.13
50,80617982,-0.8975,0.4287,0.0889,0.85,0.73,2.20
51,80622981,-0.8989,0.4302,0.0928,0.98,0.79,2.13
52,80627982,-0.8984,0.4272,0.0859,1.16,0.85,2.26
53,80632982,-0.9048,0.4268,0.0898,1.22,0.79,2.20
54,80637982,-0.9038,0.4263,0.0859,1.40,0.79,2.26
55,80642980,-0.9038,0.4258,0.0894,1.40,0.61,2.20
56,80647984,-0.9053,0.4248,0.0840,1.40,0.79,2.32
57,80652982,-0.9053,0.4272,0.0840,1.46,0.79,2.20
58,80657982,-0.9028,0.4268,0.0864,1.52,0.79,2.26
59,80662981,-0.9019,0.4268,0.0884,1.40,0.73,2.13
60,80667982,-0.9004,0.4243,0.0889,1.40,0.73,2.13
61,80672983,-0.9023,0.4238,0.0859,1.34,0.67,2.01
62,80677982,-0.9023,0.4229,0.0879,1.34,0.61,1.95
63,80682981,-0.9028,0.4229,0.0947,1.28,0.67,1.83
64,80687983,-0.9062,0.4219,0.0903,1.10,0.67,1.77
65,80692982,-0.9048,0.4219,0.0923,0.79,0.61,1.77
66,80697985,-0.9033,0.4180,0.0942,0.73,0.67,1.65
67,80702980,-0.9014,0.4170,0.0879,0.43,0.67,1.59
68,80707981,-0.8989,0.4199,0.0977,0.24,0.67,1.46
69,80712982,-0.9023,0.4180,0.0933,0.12,0.79,1.34
70,80718006,-0.8984,0.4165,0.0884,-0.24,0.67,1.28
71,80722980,-0.9019,0.4238,0.0908,-0.30,0.79,1.10
72,80727980,-0.9023,0.4209,0.0933,-0.43,0.91,0.98
73,80732980,-0.9033,0.4189,0.0972,-0.49,1.04,0.85
74,80737980,-0.8984,0.4180,0.0933,-0.55,1.10,0.67
75,80742980,-0.8979,0.4194,0.0957,-0.61,1.22,0.43
76,80747985,-0.8984,0.4199,0.0962,-0.67,1.28,0.30
77,80752981,-0.8970,0.4214,0.0986,-0.67,1.52,0.12
78,80758435,-0.8994,0.4263,0.0972,-0.73,1.59,-0.24
79,80762982,-0.8936,0.4199,0.1001,-0.61,1.77,-0.37
80,80767983,-0.8979,0.4224,0.0972,-0.61,1.89,-0.61
81,80772982,-0.8877,0.4263,0.0981,-0.67,2.01,-0.85
82,80778301,-0.8867,0.4258,0.0908,-0.49,2.01,-1.10
83,80782982,-0.8813,0.4272,0.0977,-0.55,2.20,-1.34
84,80787981,-0.8833,0.4282,0.1001,-0.49,2.44,-1.71
85,80792980,-0.8857,0.4341,0.1001,-0.43,2.50,-2.01
86,80797980,-0.8867,0.4370,0.1040,-0.61,2.50,-2.32
87,80803067,-0.8774,0.4390,0.1030,-0.67,2.87,-2.62
88,80807982,-0.8745,0.4424,0.1040,-0.79,2.87,-2.99
89,80812984,-0.8779,0.4414,0.1108,-1.16,3.17,-3.29
90,80817982,-0.8794,0.4448,0.1084,-1.71,3.29,-3.54
91,80822982,-0.8804,0.4487,0.1104,-2.20,3.48,-3.90
92,80827980,-0.8818,0.4478,0.1079,-2.87,3.72,-4.27
93,80832981,-0.8857,0.4502,0.1133,-3.60,4.09,-4.45
94,80837982,-0.8774,0.4497,0.1157,-4.45,4.39,-4.70
95,80842982,-0.8804,0.4492,0.1162,-5.43,4.57,-5.12
96,80847981,-0.8794,0.4512,0.1123,-6.40,5.12,-5.30
97,80853336,-0.8774,0.4521,0.1177,-7.56,5.37,-5.55
98,80857982,-0.8799,0.4590,0.1162,-8.54,5.73,-5.67
99,80862981,-0.8750,0.4556,0.1182,-9.70,6.10,-5.85
100,80867982,-0.8770,0.4590,0.1128,-11.10,6.52,-6.04
101,80872982,-0.8818,0.4614,0.1069,-12.26,6.83,-6.22
102,80877981,-0.8755,0.4604,0.1162,-13.35,7.26,-6.40
103,80882982,-0.8677,0.4619,0.1147,-14.51,7.38,-6.71
104,80887981,-0.8672,0.4634,0.1123,-15.67,7.93,-6.95
105,80892982,-0.8662,0.4673,0.1094,-16.95,8.11,-7.20
106,80897981,-0.8604,0.4644,0.1123,-17.99,8.60,-7.38
107,80902983,-0.8569,0.4629,0.1084,-19.33,8.90,-7.56
108,80907982,-0.8491,0.4668,0.0986,-20.55,9.09,-7.80
109,80912982,-0.8535,0.4658,0.1035,-21.77,9.45,-8.05
110,80917981,-0.8423,0.4648,0.1025,-23.11,9.76,-8.11
111,80922982,-0.8442,0.4678,0.0991,-24.15,10.06,-8.17
112,80928307,-0.8477,0.4648,0.1011,-25.67,10.55,-8.17
113,80932982,-0.8486,0.4668,0.1006,-26.71,10.91,-8.23
114,80937981,-0.8462,0.4673,0.0962,-27.93,11.28,-8.05
115,80942981,-0.8530,0.4692,0.0933,-29.33,11.83,-7.99
116,80947982,-0.8540,0.4717,0.0918,-30.37,12.26,-7.87
117,80952981,-0.8560,0.4800,0.0879,-31.52,12.50,-7.68
118,80957982,-0.8550,0.4824,0.0820,-32.56,12.99,-7.38
119,80962980,-0.8613,0.4888,0.0757,-33.60,13.41,-7.26
120,80967982,-0.8633,0.4971,0.0752,-34.82,14.02,-6.95
121,80972981,-0.8618,0.5098,0.0747,-35.85,14.51,-6.89
122,80977982,-0.8652,0.5190,0.0654,-37.01,14.94,-6.65
123,80982982,-0.8677,0.5161,0.0669,-37.80,15.37,-6.22
124,80987981,-0.8608,0.5186,0.0488,-38.78,15.85,-5.98
125,80992983,-0.8652,0.5225,0.0615,-39.45,16.22,-5.43
126,80998459,-0.8682,0.5259,0.0542,-40.37,16.83,-4.76
127,81002982,-0.8667,0.5312,0.0483,-40.73,17.32,-4.15
128,81007981,-0.8755,0.5376,0.0439,-41.46,17.93,-3.35
129,81012982,-0.8813,0.5381,0.0498,-42.01,18.54,-2.44
130,81017984,-0.8833,0.5435,0.0396,-42.62,19.27,-1.34
131,81022982,-0.8877,0.5444,0.0317,-43.05,19.70,-0.18
132,81027985,-0.8931,0.5518,0.0303,-43.41,20.37,0.91
133,81032981,-0.9014,0.5640,0.0337,-43.78,20.91,2.20
134,81037985,-0.9062,0.5645,0.0200,-44.15,21.59,3.48
135,81042982,-0.9131,0.5688,0.0176,-44.51,22.13,4.76
136,81047982,-0.9170,0.5776,0.0229,-45.06,22.74,6.10
137,81052982,-0.9165,0.5757,0.0200,-45.73,23.48,7.50
138,81057981,-0.9189,0.5869,0.0142,-46.46,24.02,9.09
139,81062982,-0.9160,0.5898,0.0166,-47.32,24.82,10.49
140,81067981,-0.9165,0.5923,0.0073,-48.23,25.49,11.89
141,81072982,-0.9165,0.5913,0.0137,-49.21,26.22,13.60
142,81077983,-0.9170,0.5962,0.0059,-50.24,27.01,15.30
143,81082982,-0.9131,0.5933,0.0034,-51.46,27.56,17.20
144,81087982,-0.9170,0.6016,0.0049,-52.93,28.48,18.96
145,81092982,-0.9136,0.6001,0.0015,-54.51,29.21,20.79
146,81097982,-0.9248,0.6001,0.0029,-56.22,29.94,22.74
147,81102981,-0.9268,0.5952,-0.0078,-57.99,30.55,24.88
148,81107982,-0.9243,0.5947,-0.0024,-59.82,31.28,26.89
149,81112980,-0.9277,0.5972,-0.0039,-61.59,31.95,29.02
150,81117984,-0.9214,0.5928,-0.0039,-63.48,32.62,31.16
151,81122981,-0.9185,0.5918,-0.0078,-65.12,33.29,33.29
152,81127982,-0.9160,0.5918,-0.0073,-66.65,34.09,35.49
153,81132984,-0.9102,0.5889,-0.0015,-68.29,35.18,37.62
154,81137981,-0.9058,0.5874,-0.0005,-69.76,35.79,39.63
155,81142981,-0.8979,0.5879,0.0054,-71.22,36.46,41.77
156,81147982,-0.8916,0.5845,0.0005,-72.32,37.32,43.54
157,81152981,-0.8916,0.5884,0.0063,-73.48,38.11,45.49
158,81157982,-0.8867,0.5859,0.0156,-74.57,39.09,47.20
159,81162981,-0.8867,0.5815,0.0122,-75.61,39.82,48.96
160,81167982,-0.8799,0.5830,0.0171,-76.52,40.73,50.55
161,81172982,-0.8755,0.5811,0.0249,-77.44,41.59,52.01
162,81177982,-0.8662,0.5806,0.0249,-78.29,42.56,53.29
163,81182982,-0.8647,0.5791,0.0342,-79.39,43.23,54.57
164,81187982,-0.8662,0.5796,0.0381,-80.30,44.33,55.73
165,81192986,-0.8647,0.5806,0.0356,-81.59,45.18,56.77
166,81197982,-0.8564,0.5820,0.0420,-82.93,45.98,57.62
167,81202981,-0.8574,0.5781,0.0464,-84.51,46.77,58.48
168,81207982,-0.8550,0.5776,0.0459,-86.16,47.44,58.96
169,81212982,-0.8511,0.5723,0.0527,-87.87,48.23,59.51
170,81217982,-0.8545,0.5786,0.0562,-89.70,48.90,60.00
171,81222983,-0.8501,0.5791,0.0513,-91.59,49.51,60.24
172,81227980,-0.8535,0.5762,0.0449,-93.41,50.18,60.49
173,81232982,-0.8560,0.5796,0.0508,-95.12,50.67,60.49
174,81237981,-0.8491,0.5786,0.0474,-96.52,51.16,60.43
175,81242983,-0.8413,0.5825,0.0508,-97.99,51.77,60.30
176,81247982,-0.8423,0.5859,0.0483,-98.84,52.20,60.24
177,81252982,-0.8364,0.5898,0.0444,-99.27,52.62,59.88
178,81257981,-0.8345,0.5898,0.0356,-99.45,53.11,59.39
179,81262982,-0.8315,0.5903,0.0381,-99.09,53.48,58.96
180,81267982,-0.8232,0.5942,0.0303,-98.41,53.96,58.48
181,81272982,-0.8223,0.6040,0.0239,-97.26,54.27,57.87
182,81277981,-0.8105,0.6060,0.0181,-95.79,54.51,57.32
183,81282982,-0.8052,0.6143,0.0088,-93.72,54.82,56.59
184,81287982,-0.8018,0.6157,0.0093,-91.16,55.12,55.98
185,81292982,-0.7944,0.6294,-0.0005,-88.17,55.49,55.37
186,81297981,-0.7930,0.6309,-0.0044,-85.00,55.85,54.76
187,81302982,-0.7925,0.6387,-0.0127,-81.28,55.98,54.21
188,81307983,-0.7832,0.6528,-0.0239,-77.32,56.28,53.60
189,81312982,-0.7832,0.6582,-0.0278,-73.05,56.46,53.11
190,81318040,-0.7842,0.6665,-0.0430,-68.72,56.65,52.74
191,81322982,-0.7754,0.6753,-0.0513,-63.96,56.65,52.20
192,81327982,-0.7729,0.6836,-0.0654,-59.21,57.01,51.83
193,81332982,-0.7734,0.6934,-0.0718,-54.21,56.95,51.65
194,81337980,-0.7705,0.7026,-0.0879,-49.27,57.07,51.46
195,81342981,-0.7739,0.7114,-0.0825,-44.21,57.13,51.46
196,81347982,-0.7715,0.7227,-0.0923,-39.39,57.20,51.52
197,81352981,-0.7778,0.7295,-0.1030,-34.51,57.32,51.52
198,81357982,-0.7876,0.7388,-0.1001,-29.88,57.68,51.65
199,81362982,-0.7910,0.7529,-0.1113,-25.73,58.05,52.07
200,81367982,-0.7949,0.7642,-0.1177,-22.38,58.54,52.38
201,81372981,-0.7949,0.7749,-0.1289,-19.51,58.96,52.80
202,81377982,-0.7964,0.7847,-0.1406,-17.20,59.39,53.54
203,81382981,-0.7959,0.7983,-0.1499,-15.55,59.63,54.33
204,81387995,-0.7930,0.8076,-0.1592,-14.27,60.18,55.24
205,81392984,-0.7969,0.8237,-0.1655,-13.35,60.55,56.34
206,81398107,-0.8042,0.8320,-0.1768,-12.87,61.04,57.68
207,81402983,-0.8037,0.8472,-0.1914,-12.32,61.65,58.90
208,81407981,-0.8013,0.8647,-0.2017,-11.89,62.26,60.37
209,81412982,-0.8037,0.8774,-0.2124,-11.65,62.68,61.95
210,81417982,-0.8057,0.8887,-0.2227,-11.40,63.29,63.60
211,81422982,-0.8101,0.9048,-0.2402,-11.28,64.27,65.37
212,81427982,-0.8062,0.9150,-0.2549,-11.22,65.18,67.13
213,81432982,-0.8062,0.9287,-0.2700,-11.10,66.04,69.09
214,81437982,-0.7998,0.9399,-0.2881,-10.73,67.13,71.28
215,81442982,-0.8032,0.9497,-0.3027,-9.82,68.11,73.54
216,81448341,-0.7979,0.9512,-0.3076,-9.02,69.57,75.91
217,81452982,-0.7588,0.9448,-0.3398,-7.93,71.04,78.60
218,81457982,-0.8247,0.9839,-0.3130,-7.32,72.50,81.04
219,81462982,-0.8545,0.9922,-0.3872,-6.95,73.78,83.35
220,81467981,-0.8481,1.0054,-0.4043,-6.59,74.94,86.89
221,81472982,-0.8198,1.0210,-0.3809,-5.55,76.34,87.87
222,81477982,-0.8027,1.0278,-0.4019,-4.45,77.80,90.67
223,81482982,-0.8022,1.0366,-0.4253,-2.99,79.45,93.29
224,81487983,-0.8154,1.0425,-0.4375,-1.95,81.40,95.79
225,81492982,-0.8223,1.0518,-0.4585,-1.22,82.56,98.23
226,81497982,-0.8193,1.0581,-0.4917,-1.28,85.37,100.73
227,81502982,-0.8140,1.0547,-0.5088,-1.40,86.04,103.11
228,81507981,-0.8037,1.0659,-0.5107,-1.52,85.91,105.55
229,81512982,-0.7969,1.0669,-0.5288,-1.40,88.54,107.80
230,81517982,-0.7954,1.0762,-0.5430,-1.10,90.18,110.00
231,81522982,-0.7944,1.0718,-0.5566,-0.30,91.95,112.13
232,81527982,-0.7959,1.0708,-0.5708,0.85,93.54,114.21
233,81532982,-0.7969,1.0762,-0.5825,2.26,95.18,116.34
234,81537982,-0.8003,1.0781,-0.6055,3.78,96.71,118.23
235,81542982,-0.7988,1.0869,-0.6172,5.24,97.93,120.12
236,81547981,-0.7886,1.0796,-0.6187,6.71,99.27,121.89
237,81552982,-0.7837,1.0879,-0.6392,8.23,100.37,123.60
238,81557982,-0.7720,1.0928,-0.6460,9.82,101.28,125.18
239,81562982,-0.7700,1.0933,-0.6494,11.46,102.13,126.77
240,81567981,-0.7617,1.0918,-0.6675,13.11,103.35,128.35
241,81572982,-0.7568,1.0967,-0.6787,14.70,104.15,129.76
242,81577982,-0.7480,1.0928,-0.6987,15.98,105.00,131.34
243,81582982,-0.7397,1.0913,-0.7056,17.44,105.91,132.80
244,81587980,-0.7314,1.0942,-0.7197,18.66,106.71,134.27
245,81592980,-0.7256,1.0967,-0.7334,20.67,107.62,135.79
246,81597982,-0.7261,1.0991,-0.7446,23.17,108.66,137.20
247,81602982,-0.7241,1.1025,-0.7510,26.83,109.70,139.09
248,81607981,-0.7241,1.1011,-0.7651,30.67,110.91,140.67
249,81612982,-0.7188,1.0981,-0.7690,35.30,112.13,142.13
250,81617982,-0.7075,1.0928,-0.7700,39.27,113.29,143.29
251,81622982,-0.7104,1.0874,-0.7739,44.76,114.76,145.00
252,81627981,-0.7056,1.0830,-0.7749,50.67,116.28,146.52
253,81632983,-0.7056,1.0728,-0.7622,56.89,117.99,147.99
254,81637982,-0.7007,1.0684,-0.7715,63.23,119.76,149.51
255,81642982,-0.6855,1.0659,-0.7754,69.70,121.65,150.98
256,81647980,-0.6855,1.0605,-0.7759,75.85,123.60,152.32
257,81652983,-0.6875,1.0493,-0.7793,81.46,125.67,153.41
258,81657981,-0.6797,1.0381,-0.7788,86.83,127.93,154.63
259,81662982,-0.6709,1.0312,-0.7793,91.52,130.30,155.43
260,81667982,-0.6631,1.0190,-0.7783,95.67,132.74,156.34
261,81672982,-0.6543,1.0044,-0.7852,99.15,135.49,157.01
262,81677982,-0.6440,0.9951,-0.7886,102.32,138.17,157.56
263,81682981,-0.6309,0.9858,-0.7910,105.37,140.85,157.93
264,81687982,-0.6143,0.9717,-0.7837,108.23,143.72,158.05
265,81692982,-0.6040,0.9688,-0.7900,110.79,146.46,158.05
266,81697982,-0.5942,0.9585,-0.7876,113.29,149.45,157.93
267,81702984,-0.5898,0.9512,-0.7812,115.61,152.20,157.62
268,81707982,-0.5850,0.9468,-0.7905,117.68,155.00,157.20
269,81712981,-0.5669,0.9375,-0.7920,119.76,157.80,156.34
270,81717980,-0.5542,0.9341,-0.7979,121.83,160.30,155.67
271,81722982,-0.5498,0.9312,-0.8071,123.96,162.56,154.70
272,81727982,-0.5396,0.9248,-0.8042,126.28,164.88,153.48
273,81732982,-0.5215,0.9116,-0.8042,129.70,166.95,152.13
274,81737981,-0.5015,0.8984,-0.7993,132.44,168.96,150.85
275,81742982,-0.4795,0.8857,-0.7930,136.71,170.85,149.27
276,81747981,-0.4653,0.8726,-0.7891,141.46,172.68,147.44
277,81752982,-0.4458,0.8604,-0.7832,146.40,174.27,145.55
278,81757981,-0.4277,0.8433,-0.7729,151.59,175.73,143.35
279,81762982,-0.4116,0.8291,-0.7646,156.59,176.89,141.10
280,81767982,-0.3882,0.8145,-0.7549,161.65,178.11,138.66
281,81772982,-0.3711,0.8022,-0.7471,166.59,179.09,136.16
282,81777984,-0.3643,0.7915,-0.7310,171.10,180.00,133.54
283,81782982,-0.3516,0.7886,-0.7368,175.06,180.55,130.79
284,81787982,-0.3354,0.7837,-0.7310,177.99,181.34,127.80
285,81792981,-0.3203,0.7676,-0.7290,180.06,181.77,124.82
286,81797984,-0.3159,0.7588,-0.7256,181.22,182.68,121.89
287,81802981,-0.3105,0.7446,-0.7124,181.89,183.05,118.72
288,81807982,-0.3062,0.7300,-0.6982,181.65,183.72,115.79
289,81812982,-0.2954,0.7197,-0.6782,181.22,184.57,112.93
290,81817980,-0.2822,0.7002,-0.6660,180.18,185.37,109.82
291,81822982,-0.2710,0.6797,-0.6558,178.66,186.10,106.95
292,81827982,-0.2539,0.6631,-0.6387,176.71,186.89,103.84
293,81832982,-0.2446,0.6455,-0.6270,173.90,187.62,100.91
294,81837981,-0.2329,0.6265,-0.6089,170.67,188.05,97.80
295,81842982,-0.2178,0.6123,-0.5996,167.13,188.78,94.76
296,81847982,-0.2046,0.5903,-0.5791,163.17,189.21,91.59
297,81852982,-0.1948,0.5737,-0.5664,159.02,189.57,87.62
298,81857981,-0.1904,0.5659,-0.5542,154.57,189.94,85.85
299,81862982,-0.1782,0.5444,-0.5322,149.94,190.12,82.80
300,81867982,-0.1680,0.5332,-0.5210,145.00,190.49,79.76
301,81872982,-0.1548,0.5190,-0.5103,140.18,190.55,76.89
302,81877981,-0.1479,0.5029,-0.5024,135.30,190.55,74.09
303,81882982,-0.1353,0.4927,-0.4888,129.70,190.43,71.40
304,81888514,-0.1133,0.4751,-0.4795,127.68,190.24,68.78
305,81892982,-0.0981,0.4619,-0.4634,123.60,189.94,66.10
306,81897982,-0.0796,0.4565,-0.4570,120.43,189.51,63.72
307,81902982,-0.0732,0.4385,-0.4478,117.50,188.90,61.22
308,81908030,-0.0503,0.4263,-0.4482,114.88,188.23,58.72
309,81912981,-0.0386,0.4102,-0.4380,112.80,187.26,56.46
310,81917982,-0.0166,0.3960,-0.4209,110.91,186.40,54.21
311,81922981,-0.0020,0.3813,-0.4072,109.51,185.49,51.95
312,81927982,0.0112,0.3765,-0.3911,108.41,184.51,49.70
313,81932981,0.0273,0.3813,-0.3711,107.44,183.35,47.56
314,81938419,0.0381,0.4150,-0.3564,106.46,182.26,45.30
315,81942984,0.0713,0.5186,-0.3438,104.88,181.04,43.05
316,81947987,0.1016,0.5439,-0.3423,103.41,180.12,41.52
317,81952981,0.1519,0.5171,-0.3203,101.77,179.02,40.18
318,81957980,0.1729,0.5298,-0.3350,100.85,178.11,39.27
319,81962982,0.1855,0.5269,-0.3555,100.12,177.01,37.99
320,81967982,0.2051,0.4648,-0.3433,100.55,176.04,37.01
321,81972981,0.2153,0.4209,-0.3389,101.95,175.12,35.98
322,81977980,0.1948,0.3701,-0.3291,104.02,174.33,35.18
323,81983102,0.1860,0.3330,-0.3477,106.65,173.78,33.84
324,81988374,0.1987,0.2905,-0.3950,110.67,172.50,32.20
325,81992983,0.2085,0.2671,-0.4346,114.02,171.77,31.16
326,81997981,0.2217,0.2148,-0.5078,119.21,170.73,29.63
327,82002980,0.2261,0.1782,-0.5654,125.55,169.33,28.23
328,82007983,0.2236,0.1572,-0.5820,130.61,168.23,26.52
329,82012982,0.2197,0.1460,-0.5986,136.77,167.32,24.63
330,82018038,0.2319,0.1289,-0.6152,142.26,166.59,22.74
331,82022983,0.2642,0.1016,-0.6230,146.83,165.79,20.67
332,82027982,0.2974,0.0859,-0.6353,150.79,165.24,18.66
333,82032982,0.3188,0.0762,-0.6372,153.72,164.63,16.59
334,82037982,0.3350,0.0723,-0.6299,155.98,164.21,14.63
335,82042982,0.3579,0.0776,-0.6221,157.13,163.78,12.50
336,82047983,0.3833,0.0903,-0.6172,157.56,163.54,10.43
337,82052982,0.4111,0.1094,-0.6016,157.01,163.48,8.17
338,82057981,0.4473,0.1343,-0.5820,155.73,162.80,5.85
339,82062981,0.4741,0.1587,-0.5566,153.05,162.50,3.35
340,82067984,0.4897,0.1895,-0.5508,150.73,162.32,1.52
341,82072980,0.5146,0.2051,-0.5332,147.32,162.01,-0.61
342,82077984,0.5249,0.2163,-0.5234,143.35,161.89,-2.74
343,82082980,0.5278,0.2188,-0.5332,139.15,161.34,-4.82
344,82087980,0.5400,0.2388,-0.4912,134.88,160.98,-6.95
345,82092983,0.5513,0.2480,-0.4814,130.67,160.43,-9.02
346,82097982,0.5562,0.2554,-0.4727,128.05,160.18,-11.04
347,82102982,0.5703,0.2563,-0.4692,124.15,159.63,-12.99
348,82107980,0.5698,0.2534,-0.4551,121.16,158.96,-15.00
349,82112984,0.5728,0.2578,-0.4541,119.21,158.41,-17.01
350,82117984,0.5688,0.2612,-0.4595,117.99,157.74,-18.84
351,82122981,0.5659,0.2622,-0.4419,117.93,157.13,-20.79
352,82127980,0.5757,0.2681,-0.4321,118.96,156.71,-22.74
353,82132984,0.5728,0.2827,-0.4214,120.85,156.34,-24.27
354,82137981,0.5728,0.3013,-0.4243,123.05,156.10,-26.04
355,82143537,0.5522,0.3032,-0.4292,126.71,155.43,-27.68
356,82147982,0.5459,0.3071,-0.4194,128.17,154.88,-28.66
357,82152985,0.5518,0.3232,-0.3940,131.46,154.57,-30.12
358,82157982,0.5474,0.3276,-0.3779,136.16,154.15,-31.46
359,82162981,0.5425,0.3481,-0.3647,140.67,153.84,-32.80
360,82168036,0.5439,0.3550,-0.3516,145.06,153.35,-34.33
361,82172982,0.5425,0.3799,-0.3281,149.57,152.80,-35.79
362,82177982,0.5591,0.3833,-0.3071,153.78,152.26,-37.38
363,82182982,0.5425,0.3784,-0.2900,157.99,151.71,-39.09
364,82187981,0.5522,0.3901,-0.2681,162.07,151.34,-40.61
365,82192983,0.5430,0.3911,-0.2671,165.79,150.55,-42.20
366,82197982,0.5493,0.4038,-0.2568,169.63,149.70,-43.96
367,82202982,0.5293,0.3979,-0.2402,172.87,149.02,-45.79
368,82207980,0.5112,0.3853,-0.2275,175.67,148.11,-47.38
369,82212982,0.4937,0.3955,-0.2241,178.78,147.38,-48.54
370,82217982,0.4971,0.4014,-0.1958,181.95,146.46,-49.94
371,82222981,0.4922,0.3975,-0.1733,185.00,145.79,-51.40
372,82227984,0.4780,0.3887,-0.1724,188.11,145.06,-52.87
373,82232980,0.4712,0.3994,-0.1538,191.10,144.09,-54.39
374,82237981,0.4570,0.4053,-0.1436,193.84,143.29,-56.04
375,82242983,0.4736,0.4033,-0.1240,196.46,142.56,-57.68
376,82247980,0.4404,0.4082,-0.0977,198.72,141.65,-59.45
377,82252984,0.4189,0.4087,-0.0903,200.73,140.61,-61.22
378,82257981,0.4199,0.4116,-0.0474,202.38,139.63,-63.11
379,82262980,0.4102,0.3950,-0.0415,204.09,138.90,-64.88
380,82268336,0.3989,0.3867,-0.0225,205.91,137.80,-66.59
381,82272984,0.4023,0.3979,0.0029,208.17,136.77,-68.41
382,82277981,0.4155,0.4077,0.0244,209.76,135.73,-70.00
383,82282982,0.4287,0.3970,0.0405,211.89,134.57,-72.50
384,82287981,0.4292,0.3911,0.0469,212.93,133.84,-74.21
385,82292982,0.4346,0.3799,0.0923,213.60,132.56,-76.28
386,82297981,0.4429,0.3955,0.0483,214.39,131.28,-78.54
387,82302982,0.4438,0.3945,0.0483,215.55,129.57,-80.85
388,82307981,0.4795,0.4243,0.0859,216.83,127.87,-83.29
389,82312982,0.4375,0.4463,0.0776,218.05,125.85,-86.10
390,82317981,0.4253,0.4082,0.0713,218.96,123.48,-89.09
391,82322980,0.3921,0.4175,0.0747,220.18,120.98,-91.89
392,82327982,0.4028,0.4277,0.0791,221.46,118.54,-95.06
393,82332982,0.4048,0.4214,0.0747,222.74,115.67,-97.87
394,82337982,0.4165,0.4243,0.0796,223.84,112.74,-100.73
395,82342981,0.4131,0.4146,0.0786,224.70,109.45,-103.60
396,82347982,0.4175,0.4248,0.0889,225.30,106.04,-106.34
397,82352983,0.4077,0.4248,0.0845,225.49,102.56,-109.02
398,82357982,0.4014,0.4438,0.0898,225.12,98.78,-111.89
399,82362981,0.3970,0.4429,0.0947,224.15,95.00,-114.51
400,82367982,0.3921,0.4536,0.0762,222.56,90.73,-117.20
401,82372983,0.3828,0.4673,0.0596,220.43,85.85,-119.70
402,82377982,0.3765,0.4829,0.0547,217.74,83.48,-122.26
403,82382981,0.3604,0.4839,0.0664,214.45,78.90,-124.70
404,82387982,0.3604,0.5073,0.0200,210.00,74.57,-127.32
405,82392982,0.3442,0.5142,0.0332,204.82,69.94,-130.06
406,82397982,0.3467,0.4927,-0.0112,198.78,65.12,-132.50
407,82402981,0.3672,0.5078,-0.0273,192.87,60.24,-134.82
408,82407982,0.3647,0.5225,-0.0073,186.77,55.73,-137.01
409,82412982,0.3193,0.5439,0.0132,180.37,51.71,-139.21
410,82417982,0.3203,0.5469,-0.0454,173.72,47.74,-141.40
411,82422983,0.3159,0.5566,-0.0425,167.20,43.54,-143.48
412,82427982,0.3267,0.5796,-0.0913,161.10,39.27,-145.61
413,82432982,0.3101,0.5825,-0.0996,155.37,35.06,-147.80
414,82437982,0.2905,0.5791,-0.0850,150.24,30.91,-149.57
415,82442980,0.2861,0.6016,-0.0859,145.73,27.26,-151.22
416,82447984,0.2832,0.6338,-0.1021,141.89,23.72,-152.99
417,82452981,0.2783,0.6431,-0.1113,138.72,20.37,-155.00
418,82457984,0.2837,0.6621,-0.1240,136.34,16.83,-156.89
419,82462982,0.2749,0.6934,-0.1309,134.88,13.90,-158.78
420,82467981,0.2617,0.6909,-0.1406,133.78,10.79,-160.30
421,82473062,0.2632,0.7007,-0.1597,133.29,7.99,-161.89
422,82477981,0.2671,0.7129,-0.1836,133.60,5.06,-163.23
423,82483043,0.2603,0.7295,-0.2139,134.70,2.26,-164.63
424,82487981,0.2466,0.7422,-0.2310,136.16,-0.49,-165.79
425,82492980,0.2295,0.7607,-0.2505,138.35,-3.17,-166.95
426,82497982,0.2217,0.7661,-0.2573,140.67,-5.79,-167.93
427,82502983,0.2256,0.7842,-0.2700,143.23,-7.93,-168.90
428,82507982,0.2290,0.7881,-0.2803,146.22,-10.18,-169.63
429,82512980,0.2363,0.7979,-0.2964,149.27,-12.01,-170.06
430,82517980,0.2280,0.8120,-0.3149,152.50,-13.96,-170.49
431,82522984,0.2021,0.8247,-0.3379,155.98,-15.85,-170.61
432,82527981,0.1782,0.8403,-0.3652,159.57,-17.74,-170.49
433,82532984,0.1514,0.8589,-0.3809,162.80,-19.57,-170.43
434,82537981,0.1304,0.8745,-0.4009,166.40,-21.59,-170.30
435,82542980,0.1128,0.9004,-0.4155,169.76,-23.48,-169.94
436,82547980,0.1064,0.9214,-0.4297,172.99,-25.37,-169.51
437,82552984,0.0908,0.9458,-0.4419,175.98,-27.32,-169.15
438,82557982,0.0767,0.9624,-0.4512,178.66,-29.15,-168.60
439,82563015,0.0581,0.9814,-0.4727,180.85,-30.85,-167.93
440,82567981,0.0396,0.9917,-0.4922,182.87,-32.38,-167.38
441,82572981,0.0142,1.0034,-0.5010,184.51,-33.96,-166.65
442,82577982,-0.0059,1.0103,-0.5029,185.43,-35.37,-165.98
443,82582984,-0.0293,1.0239,-0.5146,185.98,-36.46,-165.18
444,82587981,-0.0430,1.0303,-0.5098,186.04,-37.50,-164.63
445,82592982,-0.0571,1.0439,-0.5283,185.49,-38.35,-163.96
446,82597981,-0.0654,1.0488,-0.5376,184.33,-39.02,-163.23
447,82602982,-0.0737,1.0537,-0.5410,182.87,-39.76,-162.62
448,82607981,-0.0957,1.0625,-0.5557,180.85,-39.88,-161.89
449,82612980,-0.1050,1.0786,-0.5796,178.66,-40.00,-160.91
450,82617980,-0.1143,1.0850,-0.5898,176.71,-39.94,-160.18
451,82622984,-0.1392,1.0806,-0.6030,173.41,-39.88,-158.84
452,82627981,-0.1479,1.0947,-0.5947,171.10,-39.57,-158.05
453,82632982,-0.1631,1.0918,-0.6089,166.89,-38.84,-156.89
454,82637981,-0.1719,1.0933,-0.6230,163.78,-38.11,-155.98
455,82642980,-0.1895,1.1001,-0.6372,159.82,-37.38,-154.82
456,82647982,-0.1934,1.1104,-0.6401,155.43,-36.46,-153.54
457,82652982,-0.1958,1.1084,-0.6616,150.85,-35.30,-152.38
458,82657981,-0.1826,1.1240,-0.6973,146.46,-34.15,-151.04
459,82662982,-0.1562,1.1182,-0.6479,142.26,-32.80,-149.63
460,82667981,-0.1860,1.1260,-0.7217,137.74,-31.22,-148.11
461,82673425,-0.2041,1.1250,-0.6875,133.35,-29.39,-146.16
462,82677982,-0.2373,1.1411,-0.6797,130.85,-27.87,-144.82
463,82682981,-0.2407,1.1025,-0.6646,128.90,-25.49,-143.05
464,82687983,-0.2104,1.1089,-0.7329,128.48,-23.90,-141.04
465,82692981,-0.2256,1.1084,-0.6724,125.49,-22.20,-139.21
466,82697984,-0.2407,1.0986,-0.6694,122.26,-20.24,-137.20
467,82702982,-0.2378,1.0947,-0.6665,119.21,-18.41,-135.18
468,82707982,-0.2319,1.0825,-0.6865,116.40,-16.95,-133.11
469,82712981,-0.2217,1.0942,-0.6104,113.29,-15.12,-130.91
470,82717982,-0.2192,1.0576,-0.5513,108.66,-13.29,-128.78
471,82722982,-0.2480,1.0562,-0.6274,102.93,-11.95,-126.65
472,82727982,-0.2402,1.0713,-0.5874,97.80,-11.04,-124.09
473,82732980,-0.2397,1.0542,-0.4849,92.68,-9.88,-121.65
474,82737984,-0.2495,1.0728,-0.5303,85.85,-8.72,-119.33
475,82742981,-0.2798,1.0762,-0.5278,77.93,-7.99,-116.83
476,82747983,-0.2593,1.0781,-0.4502,70.37,-7.20,-114.33
477,82752982,-0.2793,1.0425,-0.4731,62.99,-6.52,-111.59
478,82757981,-0.2886,1.0342,-0.4790,56.22,-6.83,-108.96
479,82762984,-0.2803,1.0176,-0.4092,50.06,-6.71,-106.22
480,82767981,-0.2656,1.0298,-0.3906,44.82,-6.83,-103.41
481,82772982,-0.2529,1.0391,-0.3945,40.67,-7.44,-100.85
482,82777981,-0.2598,1.0366,-0.3857,37.74,-8.29,-98.23
483,82782984,-0.2695,1.0371,-0.3711,35.79,-9.57,-95.43
484,82787984,-0.2788,1.0400,-0.3730,34.82,-11.28,-92.80
485,82792982,-0.2861,1.0356,-0.3843,34.63,-13.54,-89.88
486,82797985,-0.2842,1.0459,-0.3682,35.73,-16.22,-86.89
487,82802982,-0.3076,1.0615,-0.3545,37.87,-19.39,-83.96
488,82807982,-0.3115,1.0796,-0.3501,40.37,-22.93,-80.91
489,82812982,-0.3159,1.0913,-0.3477,43.66,-26.95,-77.74
490,82817982,-0.3184,1.1138,-0.3247,47.07,-31.04,-74.15
491,82822982,-0.3237,1.1284,-0.3091,50.85,-35.67,-70.43
492,82827981,-0.3291,1.1455,-0.2910,55.18,-40.37,-66.40
493,82832982,-0.3394,1.1733,-0.2817,59.76,-45.55,-62.32
494,82837982,-0.3530,1.1782,-0.2832,64.39,-50.73,-57.87
495,82842980,-0.3628,1.1934,-0.2554,69.63,-56.28,-53.29
496,82847982,-0.3667,1.2124,-0.2446,75.43,-62.07,-48.41
497,82852984,-0.3770,1.2354,-0.2998,82.01,-68.35,-43.48
498,82857981,-0.3887,1.2461,-0.2461,88.84,-74.57,-38.11
499,82862982,-0.4097,1.2466,-0.1934,95.12,-80.98,-32.38
500,82867982,-0.4307,1.2505,-0.1685,99.76,-87.13,-26.22
501,82872982,-0.4644,1.2407,-0.1631,102.99,-93.60,-19.63
502,82877981,-0.5034,1.2319,-0.1489,104.76,-100.12,-12.74
503,82882982,-0.5288,1.2207,-0.1631,105.06,-106.71,-5.55
504,82887981,-0.5552,1.2041,-0.1631,104.76,-113.41,2.13
505,82892982,-0.5864,1.2075,-0.1665,104.09,-119.76,10.00
506,82897981,-0.6030,1.2007,-0.1606,103.41,-125.98,18.05
507,82902982,-0.6177,1.1943,-0.1743,103.23,-132.01,26.40
508,82907981,-0.6323,1.1841,-0.1870,103.29,-137.74,34.88
509,82912982,-0.6611,1.1704,-0.1953,103.60,-143.29,43.48
510,82917981,-0.6865,1.1641,-0.2100,103.72,-148.60,52.26
511,82922980,-0.7124,1.1484,-0.2212,103.66,-153.96,61.34
512,82928004,-0.7432,1.1343,-0.2295,103.11,-159.09,70.49
513,82932982,-0.7749,1.1167,-0.2275,101.95,-164.09,79.82
514,82937981,-0.8008,1.1025,-0.2397,100.30,-168.90,88.35
515,82942982,-0.8271,1.0889,-0.2368,97.93,-173.72,98.11
516,82947985,-0.8652,1.0659,-0.2310,95.12,-178.41,107.38
517,82952982,-0.8975,1.0493,-0.2329,91.95,-182.87,116.71
518,82957981,-0.9385,1.0229,-0.2441,88.54,-187.20,125.91
519,82962982,-0.9634,1.0059,-0.2607,84.88,-191.65,135.18
520,82967982,-0.9946,0.9844,-0.2715,81.04,-196.16,144.33
521,82972982,-1.0322,0.9663,-0.2905,77.38,-200.67,153.54
522,82977981,-1.0610,0.9487,-0.3022,74.70,-204.27,160.79
523,82982981,-1.1030,0.9292,-0.3179,71.59,-208.60,169.57
524,82987982,-1.1553,0.9102,-0.3359,68.54,-213.90,180.12
525,82992983,-1.1860,0.8921,-0.3481,66.89,-217.56,187.01
526,82997982,-1.2310,0.8823,-0.3691,65.00,-222.01,195.37
527,83003133,-1.2930,0.8647,-0.3877,63.48,-227.44,205.18
528,83007982,-1.3423,0.8540,-0.4014,62.26,-231.89,213.17
529,83012983,-1.3828,0.8491,-0.4062,61.59,-235.73,219.39
530,83017982,-1.4395,0.8379,-0.4067,60.49,-240.37,227.20
531,83022981,-1.4922,0.8262,-0.4106,59.39,-245.00,234.82
532,83027982,-1.5488,0.8120,-0.4204,58.41,-249.76,242.26
533,83032982,-1.5952,0.8115,-0.4175,57.56,-254.51,249.57
534,83037982,-1.6426,0.8018,-0.4316,56.71,-259.15,256.89
535,83042981,-1.6943,0.7983,-0.4521,55.49,-264.27,263.90
536,83047982,-1.7388,0.7871,-0.4604,54.09,-269.27,270.85
537,83052982,-1.7842,0.7847,-0.4814,52.62,-274.21,277.62
538,83057982,-1.8535,0.7881,-0.4907,50.85,-279.45,284.15
539,83062981,-1.9180,0.7827,-0.5112,49.09,-284.33,290.55
540,83067982,-1.9868,0.7935,-0.5156,46.77,-289.57,296.59
541,83072982,-2.0454,0.7773,-0.5039,43.54,-294.57,302.26
542,83077982,-2.0908,0.7622,-0.5083,39.82,-299.57,307.80
543,83083050,-2.1523,0.7627,-0.5200,35.85,-304.63,312.87
544,83087992,-2.2324,0.7842,-0.5410,32.32,-309.82,317.62
545,83092982,-2.2935,0.7925,-0.5259,29.02,-315.18,322.01
546,83097982,-2.3481,0.7900,-0.5146,25.98,-320.24,326.10
547,83102981,-2.3970,0.7886,-0.5005,22.93,-325.30,330.12
548,83107981,-2.4390,0.7905,-0.4790,19.88,-330.49,333.84
549,83112982,-2.5078,0.7842,-0.5093,16.83,-335.61,337.44
550,83117982,-2.5928,0.7847,-0.4844,13.11,-340.85,340.98
551,83122982,-2.6411,0.7881,-0.4966,9.15,-346.34,344.15
552,83127981,-2.6904,0.7935,-0.5132,4.70,-351.77,347.26
553,83132982,-2.7466,0.7979,-0.5298,0.12,-357.38,349.94
554,83137981,-2.7642,0.8159,-0.5259,-3.78,-362.93,352.44
555,83142982,-2.8428,0.8379,-0.6094,-7.07,-368.66,354.27
556,83147981,-2.9951,0.8960,-0.6094,-10.85,-374.45,355.79
557,83152980,-3.1362,0.9111,-0.6304,-15.18,-380.24,357.13
558,83157983,-3.1987,0.8857,-0.6274,-20.12,-386.34,358.35
559,83162982,-3.1777,0.9238,-0.6343,-24.57,-392.26,359.15
560,83167982,-3.2798,0.9575,-0.6040,-28.78,-397.62,359.45
561,83172981,-3.3896,0.9956,-0.6196,-32.87,-403.05,359.51
562,83177982,-3.4692,1.0229,-0.6562,-37.01,-408.17,359.27
563,83182985,-3.4858,1.0537,-0.5947,-41.16,-413.41,359.02
564,83187982,-3.4951,1.1030,-0.6260,-44.63,-417.93,358.60
565,83193315,-3.5610,1.1289,-0.6719,-47.93,-422.38,357.74
566,83197983,-3.6431,1.1680,-0.6934,-51.59,-426.65,356.59
567,83202981,-3.6831,1.2144,-0.7188,-55.43,-430.85,355.61
568,83207982,-3.6953,1.2485,-0.7329,-58.66,-434.33,354.76
569,83212984,-3.7480,1.2930,-0.7959,-62.13,-437.68,353.90
570,83217981,-3.8154,1.3467,-0.8306,-66.34,-440.91,353.05
571,83222980,-3.8750,1.3862,-0.8799,-70.67,-443.90,352.20
572,83227980,-3.8916,1.4160,-0.9131,-74.57,-446.28,351.40
573,83232983,-3.9258,1.4575,-0.9521,-77.93,-448.05,350.67
574,83237982,-3.9312,1.4956,-0.9883,-81.16,-449.88,349.94
575,83243048,-3.9785,1.5410,-1.0273,-84.39,-450.49,349.09
576,83247982,-4.0156,1.5747,-1.0708,-87.74,-450.91,348.41
577,83253420,-4.0142,1.6006,-1.1025,-91.28,-451.04,347.80
578,83257983,-4.0034,1.6284,-1.1421,-95.37,-450.24,347.38
579,83262981,-4.0000,1.6660,-1.1704,-98.66,-449.27,346.95
580,83267982,-4.0181,1.6846,-1.2041,-101.28,-447.44,346.89
581,83272981,-4.0020,1.7173,-1.2520,-102.38,-445.61,346.89
582,83277983,-3.9751,1.7642,-1.2949,-101.83,-443.11,347.13
583,83282982,-3.9526,1.8130,-1.3433,-99.76,-439.94,347.99
584,83287981,-3.9170,1.8506,-1.4111,-96.59,-436.46,349.15
585,83292982,-3.8726,1.9111,-1.4927,-92.01,-432.44,350.79
586,83297982,-3.8306,1.9609,-1.5503,-86.65,-427.87,353.54
587,83302982,-3.7910,2.0000,-1.5962,-81.46,-422.74,356.83
588,83307981,-3.7432,2.0449,-1.6406,-77.74,-417.44,360.73
589,83312982,-3.6934,2.0771,-1.6665,-77.07,-411.65,365.12
590,83317981,-3.6797,2.0977,-1.6885,-79.70,-405.12,369.88
591,83322982,-3.6626,2.1187,-1.7065,-85.61,-398.72,374.57
592,83327981,-3.6318,2.1631,-1.7485,-93.90,-392.07,379.39
593,83332982,-3.5732,2.1909,-1.7993,-103.35,-385.30,384.21
594,83337981,-3.5635,2.2163,-1.8066,-110.85,-379.94,387.93
595,83342982,-3.5337,2.2588,-1.8667,-120.18,-373.05,392.50
596,83347981,-3.4863,2.2930,-1.9253,-128.78,-366.34,397.13
597,83352982,-3.4336,2.3232,-1.9722,-136.04,-359.82,401.71
598,83357981,-3.4038,2.3594,-2.0435,-141.71,-353.48,406.28
599,83362982,-3.3857,2.3804,-2.0908,-147.01,-347.50,410.79
600,83367981,-3.4019,2.4170,-2.1509,-152.44,-341.52,415.12
601,83372982,-3.4023,2.4312,-2.1997,-157.74,-336.10,419.51
602,83377981,-3.3672,2.4409,-2.2524,-163.54,-330.98,423.96
603,83383022,-3.3208,2.4312,-2.2661,-169.45,-325.98,428.41
604,83387982,-3.2749,2.4312,-2.2759,-174.88,-321.46,433.11
605,83392983,-3.2935,2.4155,-2.2983,-178.78,-317.07,438.29
606,83397982,-3.2505,2.3950,-2.3433,-180.18,-312.68,443.96
607,83402983,-3.1582,2.3691,-2.3521,-179.82,-308.66,450.24
608,83407982,-3.1045,2.2964,-2.3101,-176.59,-304.21,457.13
609,83412982,-3.1260,2.2612,-2.3291,-171.28,-299.82,464.45
610,83417981,-3.0679,2.2246,-2.3296,-163.17,-294.94,472.32
611,83422982,-3.0752,2.1768,-2.3218,-152.87,-289.76,480.91
612,83427982,-3.0898,2.1030,-2.3452,-140.67,-284.21,489.76
613,83432982,-3.0796,2.0293,-2.3296,-127.20,-278.23,499.21
614,83437981,-3.0620,1.9419,-2.3481,-113.29,-271.46,509.09
615,83442982,-3.0762,1.8496,-2.3462,-98.78,-264.27,519.57
616,83447981,-3.0981,1.7354,-2.3379,-84.27,-256.83,530.18
617,83452982,-3.1104,1.6289,-2.3247,-70.67,-248.96,540.67
618,83457981,-3.1270,1.5137,-2.3252,-58.96,-241.10,551.52
619,83462982,-3.1460,1.3984,-2.3105,-48.90,-232.87,561.95
620,83467981,-3.1455,1.2847,-2.2935,-40.18,-224.63,572.01
621,83472982,-3.1509,1.1733,-2.2725,-33.23,-216.28,581.59
622,83477981,-3.1206,1.0664,-2.2637,-28.23,-207.74,590.73
623,83482982,-3.1094,0.9746,-2.2222,-24.27,-198.66,599.09
624,83487981,-3.0884,0.8804,-2.1851,-21.46,-189.63,607.13
625,83492981,-3.0771,0.7769,-2.1641,-19.39,-180.00,614.09
626,83498096,-3.0410,0.7056,-2.1479,-18.29,-170.73,620.24
627,83502984,-2.9644,0.6377,-2.1440,-17.50,-161.40,625.61
628,83507980,-2.9985,0.5630,-2.0771,-17.20,-151.83,629.70
629,83513173,-2.9917,0.4512,-2.0522,-18.35,-142.01,633.11
630,83517981,-2.9834,0.3745,-2.0654,-19.02,-132.32,635.67
631,83522982,-2.9829,0.3149,-2.0269,-18.54,-122.26,637.38
632,83527982,-2.9824,0.2251,-1.9844,-15.85,-111.59,638.35
633,83532981,-2.9785,0.1782,-1.9561,-10.61,-100.55,638.90
634,83537981,-2.9204,0.0762,-1.9692,-2.38,-88.48,638.60
635,83542982,-2.9272,0.0073,-1.9028,9.33,-75.30,637.99
636,83547982,-2.9067,-0.0405,-1.9106,24.57,-60.79,636.83
637,83552980,-2.9238,-0.1055,-1.9180,42.32,-45.73,635.12
638,83557981,-2.8906,-0.1807,-1.8750,60.85,-29.63,632.80
639,83563492,-2.8306,-0.2607,-1.8301,79.15,-12.80,630.12
640,83567982,-2.8047,-0.3159,-1.8174,96.95,4.57,626.83
641,83572982,-2.7944,-0.3691,-1.7529,113.78,22.80,622.74
642,83577982,-2.7681,-0.4536,-1.6694,129.45,41.89,617.68
643,83582981,-2.7212,-0.5479,-1.6367,140.61,61.16,611.89
644,83587982,-2.6782,-0.6421,-1.5889,148.96,80.30,605.49
645,83592982,-2.6382,-0.7393,-1.5347,152.50,99.15,598.23
646,83597981,-2.6211,-0.8042,-1.4771,151.65,117.38,589.94
647,83603148,-2.6270,-0.8804,-1.4390,145.55,134.02,580.37
648,83607982,-2.5532,-0.9683,-1.3965,134.57,149.33,569.70
649,83612982,-2.5684,-1.0386,-1.3179,119.82,163.11,558.05
650,83617982,-2.5239,-1.1079,-1.2373,101.16,175.06,545.49
651,83622981,-2.4785,-1.1733,-1.1514,80.61,185.37,532.44
652,83627982,-2.4512,-1.2266,-1.0688,59.63,194.21,519.15
653,83633534,-2.4482,-1.2983,-0.9619,39.45,201.65,505.67
654,83637983,-2.4116,-1.3540,-0.9277,20.85,207.44,492.44
655,83642982,-2.4360,-1.4014,-0.8667,5.30,212.07,479.27
656,83647982,-2.3960,-1.4565,-0.7715,-6.28,215.61,466.22
657,83652981,-2.3774,-1.5098,-0.7378,-13.11,218.29,453.35
658,83657982,-2.3477,-1.5557,-0.6948,-14.82,220.18,440.61
659,83662982,-2.3223,-1.6113,-0.6021,-12.20,221.59,427.80
660,83667982,-2.2793,-1.6465,-0.5425,-6.16,222.74,414.94
661,83672984,-2.2461,-1.6958,-0.4712,1.28,223.60,401.65
662,83677981,-2.2100,-1.7451,-0.3867,8.84,224.02,387.99
663,83683344,-2.1650,-1.8008,-0.3193,15.24,224.02,373.90
664,83687982,-2.1426,-1.8389,-0.2598,19.21,223.78,362.56
665,83692982,-2.0928,-1.8848,-0.1797,22.93,222.38,345.24
666,83697982,-2.0718,-1.9019,-0.1240,24.15,221.10,333.35
667,83702981,-2.0391,-1.9238,-0.0825,24.21,218.90,318.48
668,83707983,-1.9932,-1.9443,-0.0337,22.99,216.16,303.60
669,83712982,-1.9463,-1.9624,0.0176,20.98,212.62,288.54
670,83717982,-1.9121,-1.9917,0.0659,18.72,208.41,273.78
671,83722981,-1.8633,-1.9980,0.1084,16.95,204.09,259.09
672,83727982,-1.8037,-2.0073,0.1636,15.43,199.02,244.45
673,83732982,-1.7295,-2.0239,0.2197,14.76,193.72,229.63
674,83737982,-1.6719,-2.0347,0.2583,14.70,188.35,214.76
675,83742981,-1.5938,-2.0459,0.2954,15.49,182.38,199.76
676,83747982,-1.5381,-2.0474,0.3101,17.32,176.04,184.82
677,83752982,-1.4536,-2.0527,0.3389,20.12,169.63,169.94
678,83757981,-1.3887,-2.0513,0.3687,23.66,162.80,155.12
679,83762984,-1.3091,-2.0435,0.3838,27.56,155.91,140.30
680,83767981,-1.2358,-2.0288,0.4077,32.20,148.60,125.67
681,83772982,-1.1553,-2.0103,0.4331,36.95,140.91,111.04
682,83777981,-1.0825,-1.9985,0.4487,41.89,133.17,96.46
683,83782982,-1.0234,-2.0020,0.4839,47.20,125.18,82.20
684,83787981,-0.9443,-2.0024,0.5107,52.62,117.01,67.87
685,83792982,-0.8721,-1.9775,0.5425,58.11,108.66,53.60
686,83797981,-0.7891,-1.9419,0.5532,63.54,100.06,39.45
687,83802981,-0.7222,-1.8994,0.5815,68.90,91.10,25.30
688,83807982,-0.6377,-1.8369,0.5527,74.02,82.50,11.34
689,83812983,-0.6392,-1.7998,0.5527,79.27,72.87,-1.89
690,83817982,-0.5898,-1.7339,0.5518,84.02,63.60,-14.63
691,83822981,-0.5815,-1.6699,0.5049,88.11,54.33,-26.46
692,83827982,-0.5708,-1.6123,0.4785,91.71,45.00,-37.80
693,83832982,-0.5737,-1.5591,0.4736,94.76,35.61,-48.11
694,83837982,-0.5542,-1.5034,0.4653,96.95,26.65,-57.87
695,83842981,-0.5234,-1.4570,0.4619,97.87,17.87,-67.07
696,83847982,-0.4883,-1.4106,0.4629,97.74,9.09,-75.85
697,83852982,-0.4673,-1.3779,0.4502,96.77,0.61,-84.15
698,83857982,-0.4482,-1.3452,0.4463,95.12,-7.80,-91.89
699,83862981,-0.4419,-1.3110,0.4395,93.48,-15.73,-98.96
700,83867982,-0.4292,-1.2764,0.4312,91.95,-23.35,-105.55
701,83872981,-0.4199,-1.2446,0.4194,90.79,-30.73,-111.65
702,83877983,-0.4116,-1.2163,0.4097,90.43,-37.68,-117.07
703,83882982,-0.4014,-1.1880,0.4019,90.79,-44.21,-122.20
704,83887982,-0.4028,-1.1553,0.3838,91.46,-50.24,-126.77
705,83892981,-0.4058,-1.1216,0.3828,92.44,-55.98,-130.85
706,83897982,-0.4082,-1.0957,0.3613,93.66,-61.34,-134.33
707,83902981,-0.4072,-1.0664,0.3516,94.51,-66.34,-137.50
708,83907982,-0.4102,-1.0342,0.3389,95.30,-71.10,-140.06
709,83912983,-0.4092,-1.0059,0.3198,95.61,-75.43,-142.26
710,83917982,-0.4111,-0.9824,0.3037,95.37,-79.57,-144.21
711,83922981,-0.4165,-0.9580,0.2891,94.76,-83.48,-145.67
712,83927984,-0.4229,-0.9355,0.2803,93.35,-87.32,-146.77
713,83932983,-0.4199,-0.9106,0.2681,91.59,-90.79,-147.56
714,83937982,-0.4253,-0.8936,0.2554,89.45,-94.27,-148.05
715,83942981,-0.4312,-0.8804,0.2437,87.56,-97.38,-148.11
716,83947982,-0.4326,-0.8677,0.2422,85.98,-100.30,-147.74
717,83952982,-0.4375,-0.8560,0.2246,84.88,-102.62,-147.38
718,83957982,-0.4351,-0.8540,0.2236,84.51,-104.82,-146.46
719,83962981,-0.4351,-0.8511,0.2148,84.76,-106.77,-145.37
720,83967983,-0.4336,-0.8418,0.2031,85.61,-108.23,-144.09
721,83972981,-0.4243,-0.8477,0.1909,86.52,-109.57,-142.62
722,83977982,-0.4141,-0.8569,0.1831,87.38,-110.67,-141.22
723,83982982,-0.3931,-0.8647,0.1724,88.05,-112.01,-139.57
724,83987982,-0.3667,-0.8740,0.1646,88.54,-112.99,-138.11
725,83992981,-0.3413,-0.8833,0.1611,88.48,-114.15,-136.77
726,83997982,-0.3179,-0.8896,0.1494,88.11,-115.30,-135.49
727,84002981,-0.2827,-0.8994,0.1377,87.62,-116.34,-134.39
728,84008183,-0.2695,-0.8960,0.1382,87.44,-117.44,-133.66
729,84012982,-0.3179,-0.8120,0.1470,88.84,-118.41,-133.72
730,84017982,-0.2441,-0.9775,0.1455,93.29,-118.96,-132.87
731,84022982,-0.1230,-0.9478,0.1343,98.11,-119.76,-131.89
732,84027981,-0.1533,-0.9297,0.1011,102.07,-121.40,-131.52
733,84032982,-0.1367,-0.9204,0.1265,105.24,-123.05,-131.77
734,84037981,-0.0981,-0.9258,0.1523,107.13,-124.21,-132.13
735,84042982,-0.0791,-0.9341,0.1567,109.15,-125.73,-132.87
736,84047981,-0.0620,-0.9570,0.1587,109.82,-126.83,-133.60
737,84052982,-0.0356,-0.9482,0.1738,110.18,-127.99,-134.57
738,84057981,-0.0244,-0.9497,0.1694,110.18,-129.21,-135.61
739,84062982,0.0073,-0.9336,0.1943,109.70,-130.00,-136.83
740,84067981,0.0820,-0.9248,0.1973,110.18,-130.85,-138.05
741,84072982,0.1255,-0.9404,0.2349,111.59,-131.65,-139.21
742,84077981,0.0415,-0.9604,0.1768,112.13,-132.87,-140.12
743,84082984,0.0601,-0.9424,0.1880,112.32,-133.90,-140.91
744,84087980,0.0435,-0.9082,0.2085,112.74,-134.76,-141.71
745,84092982,0.0303,-0.8906,0.1997,112.93,-135.18,-142.99
746,84097981,0.1060,-0.8979,0.1680,112.99,-135.91,-144.21
747,84102980,0.1187,-0.8823,0.1807,114.94,-136.46,-145.37
748,84107984,0.0601,-0.8794,0.1914,117.80,-136.71,-146.28
749,84112981,0.0278,-0.8750,0.1963,121.46,-136.34,-146.95
750,84117983,0.0317,-0.8789,0.2388,123.90,-135.91,-147.13
751,84122982,0.0664,-0.8545,0.2349,127.13,-135.06,-147.32
752,84127982,-0.0293,-0.7148,0.1802,129.94,-134.09,-147.99
753,84132981,0.0918,-0.9253,0.2827,135.91,-132.38,-147.74
754,84137982,0.1440,-0.9038,0.3101,141.52,-130.00,-147.13
755,84142982,0.1416,-0.8428,0.1875,145.85,-128.54,-146.77
756,84147982,0.1509,-0.7793,0.2305,148.90,-127.20,-146.95
757,84152981,0.1943,-0.7563,0.2803,150.43,-125.43,-147.38
758,84157982,0.2061,-0.7578,0.2295,150.67,-123.90,-147.99
759,84162982,0.2114,-0.7661,0.2275,149.09,-122.62,-148.78
760,84167982,0.2183,-0.7710,0.2573,145.98,-120.98,-149.63
761,84172981,0.2441,-0.7559,0.2393,141.65,-119.33,-150.73
762,84177982,0.3052,-0.7388,0.2251,136.04,-118.05,-151.71
763,84182982,0.2588,-0.7114,0.2310,130.24,-116.52,-152.99
764,84187982,0.2720,-0.6938,0.2256,122.38,-115.12,-154.51
765,84192982,0.3032,-0.6899,0.2202,113.78,-113.66,-155.73
766,84197984,0.3188,-0.6724,0.2319,104.76,-112.32,-157.07
767,84203515,0.3447,-0.6484,0.2373,93.66,-110.49,-158.66
768,84207982,0.3672,-0.6353,0.2349,86.10,-109.27,-159.88
769,84212982,0.3936,-0.6211,0.2456,76.95,-107.68,-161.28
770,84217982,0.4302,-0.6113,0.2466,68.17,-106.22,-162.74
771,84222983,0.4795,-0.6094,0.2500,60.18,-104.45,-164.09
772,84227982,0.5024,-0.5928,0.2363,53.23,-102.93,-165.55
773,84232981,0.5215,-0.5762,0.2300,47.38,-101.28,-166.95
774,84237982,0.5342,-0.5640,0.2295,42.44,-100.00,-168.35
775,84242982,0.5522,-0.5518,0.2153,38.48,-98.54,-169.82
776,84247982,0.5449,-0.5483,0.2026,35.61,-97.38,-170.91
777,84252981,0.5391,-0.5425,0.2007,33.66,-95.79,-172.07
778,84257982,0.5259,-0.5361,0.1836,32.44,-94.45,-173.05
779,84262984,0.5176,-0.5283,0.1880,31.65,-93.72,-174.02
780,84267981,0.5264,-0.5103,0.1675,31.22,-92.56,-175.12
781,84272982,0.5190,-0.4878,0.1558,30.85,-91.10,-176.28
782,84277981,0.5068,-0.4844,0.1631,30.61,-90.12,-177.38
783,84282984,0.4980,-0.4766,0.1616,30.67,-89.15,-178.48
784,84287981,0.4917,-0.4756,0.1567,30.55,-88.05,-179.27
785,84292980,0.4888,-0.4561,0.1509,30.49,-87.26,-180.06
786,84297982,0.4917,-0.4434,0.1626,30.43,-86.40,-180.85
787,84302982,0.4946,-0.4277,0.1533,30.18,-85.73,-181.89
788,84307982,0.5034,-0.4146,0.1572,29.39,-85.24,-182.87
789,84312981,0.5029,-0.3955,0.1577,28.60,-84.82,-183.96
790,84317982,0.5103,-0.3740,0.1528,27.62,-84.57,-185.06
791,84322983,0.5308,-0.3613,0.1523,26.40,-84.63,-186.04
792,84327982,0.4937,-0.3359,0.1455,25.06,-84.57,-187.13
793,84332981,0.4775,-0.3457,0.1753,23.78,-84.57,-188.05
794,84337982,0.4692,-0.3247,0.1680,22.74,-84.21,-188.78
795,84342982,0.5107,-0.2891,0.1611,22.01,-84.15,-189.76
796,84347982,0.5317,-0.2588,0.1616,21.34,-83.78,-190.85
797,84352981,0.5439,-0.2388,0.1562,20.85,-83.29,-191.95
798,84357983,0.5425,-0.2246,0.1665,20.49,-82.74,-192.99
799,84362982,0.5352,-0.2202,0.1646,20.06,-81.77,-193.72
800,84367982,0.5493,-0.1978,0.1689,19.39,-80.55,-194.39
801,84372981,0.5757,-0.1743,0.1616,18.41,-79.45,-194.76
802,84377982,0.5933,-0.1528,0.1572,17.20,-77.87,-195.18
803,84382982,0.6069,-0.1294,0.1694,15.61,-76.34,-195.55
804,84387982,0.6216,-0.1079,0.1655,13.72,-75.00,-195.73
805,84392981,0.6528,-0.0742,0.1616,10.79,-73.29,-195.85
806,84397982,0.6694,-0.0439,0.1626,7.07,-71.77,-195.79
807,84402982,0.6943,-0.0107,0.1562,2.68,-70.24,-195.79
808,84407981,0.6831,0.0088,0.1421,-2.20,-68.41,-195.73
809,84412980,0.6870,0.0117,0.1426,-7.32,-66.71,-195.24
810,84417983,0.6890,0.0181,0.1533,-12.50,-64.94,-194.82
811,84422982,0.6763,0.0347,0.1479,-17.44,-63.05,-194.21
812,84427983,0.6577,0.0527,0.1226,-22.50,-60.85,-193.66
813,84432981,0.6660,0.0894,0.1440,-25.43,-59.09,-193.35
814,84437982,0.6440,0.1094,0.1304,-28.60,-56.95,-192.93
815,84443055,0.6274,0.1133,0.0806,-30.85,-55.06,-192.80
816,84447982,0.6333,0.1128,0.1079,-32.50,-52.80,-192.56
817,84452981,0.6001,0.1313,0.1118,-33.35,-50.43,-192.32
818,84457982,0.5874,0.1538,0.0532,-33.54,-48.23,-192.20
819,84462983,0.5908,0.1826,0.0503,-32.93,-45.91,-192.13
820,84467982,0.5903,0.1895,0.0493,-32.26,-43.66,-192.01
821,84472981,0.5820,0.2036,0.0117,-31.52,-41.28,-192.01
822,84477982,0.5762,0.2192,0.0161,-30.85,-38.96,-191.95
823,84482982,0.5786,0.2388,0.0225,-30.30,-36.77,-191.89
824,84487982,0.5884,0.2573,0.0093,-29.88,-34.45,-192.01
825,84492981,0.5962,0.2764,0.0063,-29.82,-32.13,-192.07
826,84497982,0.5947,0.2866,0.0122,-29.88,-30.00,-192.13
827,84502982,0.5908,0.2993,0.0132,-29.94,-27.80,-192.13
828,84507982,0.5850,0.3081,0.0049,-30.18,-25.49,-192.26
829,84512981,0.5713,0.3184,0.0020,-30.30,-23.05,-192.32
830,84517982,0.5698,0.3364,-0.0039,-30.06,-20.79,-192.44
831,84522982,0.5693,0.3550,-0.0068,-29.70,-18.48,-192.68
832,84527983,0.5542,0.3647,-0.0103,-29.15,-16.28,-192.93
833,84532981,0.5488,0.3765,-0.0093,-28.41,-13.96,-193.11
834,84537982,0.5464,0.3965,-0.0073,-27.38,-11.52,-193.54
835,84542983,0.5439,0.4146,-0.0088,-26.34,-9.09,-194.02
836,84547982,0.5444,0.4248,-0.0088,-25.24,-6.71,-194.51
837,84552981,0.5522,0.4312,-0.0171,-24.09,-4.39,-195.24
838,84557982,0.5508,0.4385,-0.0210,-23.11,-2.07,-196.16
839,84563008,0.5513,0.4531,-0.0068,-22.07,0.12,-197.38
840,84567982,0.5508,0.4658,0.0225,-21.59,2.56,-198.72
841,84572981,0.5605,0.4756,0.0454,-21.59,4.88,-200.55
842,84577982,0.5684,0.4800,0.0630,-22.26,7.13,-202.50
843,84582984,0.5713,0.4873,0.0947,-23.35,9.39,-204.57
844,84587981,0.5664,0.4976,0.1211,-25.18,11.59,-207.01
845,84592982,0.5620,0.5068,0.1284,-27.32,13.54,-209.39
846,84597981,0.5474,0.5151,0.1279,-29.39,15.43,-212.01
847,84602982,0.5347,0.5254,0.1440,-30.91,17.50,-214.45
848,84607981,0.5103,0.5371,0.1636,-32.13,19.33,-217.01
849,84612982,0.4849,0.5493,0.1836,-32.62,21.34,-219.33
850,84617981,0.4463,0.5713,0.1982,-33.05,23.23,-221.77
851,84622981,0.4053,0.5801,0.2183,-32.87,25.18,-224.02
852,84627980,0.3647,0.5903,0.2334,-32.44,27.01,-226.28
853,84633328,0.3242,0.6133,0.2349,-31.52,28.72,-228.48
854,84637982,0.2856,0.6270,0.2480,-30.06,30.30,-230.61
855,84642982,0.2578,0.6396,0.2446,-28.54,32.20,-232.74
856,84647982,0.2476,0.6724,0.2480,-26.77,33.72,-235.18
857,84652981,0.2485,0.6997,0.2544,-25.30,35.18,-237.68
858,84657983,0.2485,0.7266,0.2578,-24.27,36.16,-240.18
859,84662981,0.2305,0.7461,0.2539,-24.02,37.20,-242.62
860,84667982,0.2080,0.7622,0.2573,-24.09,37.68,-244.76
861,84672982,0.1821,0.7769,0.2515,-24.51,38.29,-246.89
862,84677982,0.1538,0.7959,0.2559,-25.18,38.78,-248.96
863,84682981,0.1235,0.8018,0.2598,-26.04,39.21,-250.79
864,84687982,0.0874,0.8071,0.2666,-26.83,39.51,-252.68
865,84692982,0.0483,0.8062,0.2739,-27.99,39.76,-254.21
866,84697982,0.0117,0.8062,0.2773,-29.27,39.88,-255.85
867,84703226,-0.0234,0.8037,0.2788,-30.73,40.06,-257.20
868,84707982,-0.0557,0.8052,0.2803,-32.44,40.18,-258.60
869,84712982,-0.0923,0.8018,0.2827,-34.27,40.06,-260.00
870,84717982,-0.1201,0.7959,0.2769,-36.16,40.06,-261.52
871,84722981,-0.1494,0.7944,0.2783,-37.93,39.82,-262.99
872,84727982,-0.1768,0.7930,0.2793,-39.63,39.76,-264.45
873,84732983,-0.2051,0.7988,0.2876,-40.91,39.70,-265.98
874,84737986,-0.2178,0.8296,0.2759,-42.01,39.39,-267.56
875,84742980,-0.2148,0.8511,0.2681,-42.56,39.02,-268.78
876,84747986,-0.2158,0.8730,0.2734,-42.74,38.48,-270.61
877,84752980,-0.2207,0.8931,0.2749,-42.26,37.99,-271.59
878,84757980,-0.2368,0.9194,0.2710,-40.98,37.26,-272.68
879,84762984,-0.2539,0.9395,0.2764,-38.48,36.52,-273.72
880,84767981,-0.2710,0.9580,0.2783,-34.33,35.67,-274.76
881,84772984,-0.2866,0.9653,0.2769,-30.85,34.76,-275.43
882,84777981,-0.3140,0.9692,0.2837,-25.79,33.72,-276.16
883,84782980,-0.3369,0.9751,0.2817,-20.06,32.74,-276.71
884,84787984,-0.3594,0.9756,0.2788,-13.78,31.28,-277.20
885,84792982,-0.3872,0.9790,0.2778,-6.95,29.88,-277.80
886,84797983,-0.4004,0.9902,0.2705,0.49,28.23,-278.54
887,84802983,-0.4165,1.0068,0.2725,8.29,26.46,-279.15
888,84807982,-0.4292,1.0190,0.2676,16.28,24.51,-280.00
889,84812982,-0.4570,1.0337,0.2578,24.21,22.32,-280.73
890,84817982,-0.4868,1.0527,0.2549,31.89,20.18,-281.16
891,84822980,-0.5171,1.0884,0.2520,39.51,17.68,-281.77
892,84827982,-0.5273,1.1206,0.2402,46.83,15.24,-282.50
893,84832984,-0.5425,1.1470,0.2417,53.78,12.68,-283.05
894,84837981,-0.5601,1.1729,0.2427,60.49,10.12,-283.78
895,84842982,-0.5771,1.1982,0.2373,66.95,7.44,-284.39
896,84847982,-0.5972,1.2148,0.2305,72.93,4.88,-285.06
897,84852982,-0.6118,1.2251,0.2305,78.48,2.07,-285.67
898,84857982,-0.6323,1.2354,0.2227,83.72,-0.67,-286.40
899,84862982,-0.6528,1.2354,0.2183,88.41,-3.41,-287.20
900,84867982,-0.6719,1.2373,0.2061,92.62,-6.40,-288.05
901,84872983,-0.6855,1.2480,0.2051,96.34,-9.39,-288.96
902,84877982,-0.7061,1.2461,0.1968,99.09,-12.13,-289.88
903,84882982,-0.7432,1.2476,0.1973,100.61,-15.06,-290.61
904,84887982,-0.7964,1.2539,0.1846,100.61,-17.99,-290.98
905,84892982,-0.8457,1.2651,0.1724,99.09,-20.79,-291.28
906,84897982,-0.8970,1.2710,0.1616,96.10,-23.60,-291.40
907,84902982,-0.9468,1.2793,0.1484,91.95,-26.34,-291.16
908,84907982,-0.9912,1.2900,0.1538,86.46,-28.84,-290.79
909,84912982,-1.0381,1.2798,0.1509,80.24,-31.04,-289.94
910,84917982,-1.0811,1.2842,0.1523,73.11,-33.11,-288.72
911,84922980,-1.1191,1.2852,0.1377,65.24,-35.06,-287.20
912,84927982,-1.1660,1.2827,0.1284,57.13,-36.83,-285.61
913,84932984,-1.1987,1.2817,0.1255,49.09,-38.17,-283.60
914,84937981,-1.2178,1.2700,0.1211,41.52,-39.51,-281.77
915,84942982,-1.2466,1.2612,0.1147,34.82,-40.61,-279.70
916,84947982,-1.2583,1.2544,0.1123,29.33,-41.34,-277.74
917,84952984,-1.2690,1.2466,0.1162,25.43,-42.26,-275.79
918,84957981,-1.2783,1.2349,0.1182,22.68,-42.68,-273.90
919,84962982,-1.2983,1.2188,0.1270,20.98,-43.11,-271.95
920,84967981,-1.3242,1.2124,0.1191,20.49,-43.54,-269.76
921,84972980,-1.3540,1.1982,0.1050,20.91,-43.96,-267.80
922,84977984,-1.3701,1.1865,0.1011,22.38,-44.57,-266.10
923,84982982,-1.3818,1.1680,0.0952,25.24,-45.43,-264.45
924,84987981,-1.3872,1.1514,0.0913,29.15,-46.34,-262.93
925,84992982,-1.3853,1.1265,0.0732,34.45,-47.38,-261.65
926,84997981,-1.3784,1.1064,0.0737,40.85,-48.66,-260.49
927,85002982,-1.3218,1.0571,0.0527,47.87,-50.24,-259.45
928,85007981,-1.3364,1.0591,0.0586,55.00,-52.20,-258.60
929,85012980,-1.3633,1.0361,0.0488,62.87,-54.21,-257.87
930,85017984,-1.3896,1.0215,0.0430,71.40,-56.46,-257.07
931,85022981,-1.3970,1.0005,0.0391,79.94,-58.96,-256.34
932,85027983,-1.4043,0.9746,0.0493,88.35,-61.16,-255.37
933,85033104,-1.4229,0.9575,0.0376,96.65,-63.66,-254.15
934,85037982,-1.4414,0.9370,0.0210,104.45,-66.16,-252.87
935,85042983,-1.4575,0.9170,0.0288,111.95,-68.84,-251.46
936,85047982,-1.4634,0.8984,0.0200,119.09,-71.40,-249.70
937,85052982,-1.4688,0.8774,0.0088,126.34,-73.96,-247.93
938,85057982,-1.4731,0.8530,0.0088,131.46,-76.59,-245.79
939,85062981,-1.4712,0.8325,0.0010,138.54,-78.90,-243.48
940,85067982,-1.4653,0.8125,-0.0063,145.06,-81.34,-240.79
941,85072982,-1.4619,0.7896,-0.0024,151.22,-83.41,-237.68
942,85077982,-1.4668,0.7676,0.0054,157.13,-85.43,-234.27
943,85082984,-1.4736,0.7432,-0.0073,162.93,-87.13,-230.55
944,85087981,-1.4736,0.7300,-0.0020,167.26,-88.48,-227.38
945,85092982,-1.4644,0.7012,-0.0005,172.93,-90.43,-222.26
946,85097981,-1.4590,0.6816,-0.0044,176.34,-91.71,-218.60
947,85102982,-1.4429,0.6597,-0.0137,180.24,-93.17,-213.60
948,85107981,-1.4287,0.6367,-0.0288,183.11,-94.02,-208.05
949,85112980,-1.4116,0.6250,-0.0303,184.94,-95.18,-202.50
950,85117984,-1.3950,0.6064,-0.0454,185.85,-95.98,-196.65
951,85122981,-1.3901,0.5894,-0.0474,185.79,-96.59,-190.55
952,85127982,-1.3589,0.5918,-0.0557,185.43,-96.71,-184.45
953,85132981,-1.3496,0.5674,-0.0688,184.51,-96.83,-178.48
954,85137980,-1.3267,0.5522,-0.0796,183.17,-96.89,-172.38
955,85142983,-1.2378,0.5273,-0.0791,181.16,-96.77,-166.40
956,85147982,-1.2871,0.5205,-0.0542,178.72,-96.10,-160.49
957,85152980,-1.3110,0.5142,-0.0796,175.91,-95.37,-154.82
958,85157984,-1.3252,0.5176,-0.0659,173.29,-94.09,-149.21
959,85162981,-1.3335,0.5220,-0.0464,170.79,-92.99,-143.78
960,85167982,-1.3203,0.5151,-0.0459,168.60,-91.46,-138.35
961,85172980,-1.2935,0.4985,-0.0464,166.52,-89.76,-133.23
962,85177980,-1.2671,0.4854,-0.0361,164.70,-87.87,-127.99
963,85182981,-1.2388,0.4746,-0.0356,162.74,-85.85,-122.93
964,85187983,-1.2119,0.4692,-0.0420,160.73,-83.48,-117.68
965,85192986,-1.1992,0.4624,-0.0469,158.60,-81.46,-112.74
966,85197982,-1.1895,0.4546,-0.0488,156.16,-79.21,-107.74
967,85203426,-1.1772,0.4546,-0.0527,152.80,-76.65,-102.01
968,85207983,-1.1768,0.4429,-0.0552,150.30,-75.06,-98.23
969,85212981,-1.1758,0.4409,-0.0630,146.59,-73.29,-93.48
970,85217994,-1.1680,0.4341,-0.0688,142.56,-71.40,-88.96
971,85222984,-1.1699,0.4316,-0.0703,138.41,-69.45,-84.39
972,85227982,-1.1733,0.4277,-0.0869,133.90,-67.87,-80.00
973,85233474,-1.1577,0.4194,-0.0840,128.11,-65.49,-74.76
974,85238118,-1.1553,0.4126,-0.0752,125.00,-64.09,-71.40
975,85242981,-1.1411,0.4111,-0.0830,120.24,-62.13,-67.20
976,85247984,-1.1235,0.4028,-0.0820,115.43,-60.24,-63.17
977,85252981,-1.1016,0.3989,-0.0850,110.67,-58.29,-59.15
978,85257982,-1.0674,0.3896,-0.0850,105.85,-56.34,-55.30
979,85262981,-1.0366,0.3804,-0.0864,100.91,-54.39,-51.34
980,85267982,-1.0103,0.3740,-0.0806,95.91,-52.26,-47.74
981,85272981,-0.9902,0.3691,-0.0776,90.91,-50.18,-44.09
982,85277982,-0.9736,0.3613,-0.0835,85.73,-48.05,-40.67
983,85282980,-0.9565,0.3584,-0.0825,80.79,-45.98,-37.32
984,85287984,-0.9526,0.3550,-0.0757,75.85,-43.84,-33.96
985,85292981,-0.9517,0.3525,-0.0713,71.04,-41.46,-30.73
986,85297982,-0.9482,0.3491,-0.0659,66.46,-39.21,-27.56
987,85302981,-0.9448,0.3457,-0.0654,62.01,-36.95,-24.51
988,85307982,-0.9316,0.3433,-0.0605,57.80,-34.57,-21.46
989,85312982,-0.9233,0.3374,-0.0576,53.90,-31.89,-18.66
990,85317983,-0.9214,0.3281,-0.0591,50.18,-29.57,-15.85
991,85322982,-0.9214,0.3286,-0.0498,46.65,-27.01,-13.11
992,85327982,-0.9292,0.3198,-0.0396,43.54,-24.57,-10.49
993,85332981,-0.9355,0.3154,-0.0352,40.67,-21.83,-7.93
994,85337983,-0.9404,0.3125,-0.0303,37.99,-19.45,-5.30
995,85343065,-0.9360,0.3115,-0.0298,35.37,-17.07,-2.87
996,85347982,-0.9365,0.3081,-0.0273,33.05,-14.57,-0.55
997,85352981,-0.9282,0.3008,-0.0229,30.73,-12.38,1.71
998,85357982,-0.9243,0.2969,-0.0151,28.54,-10.18,3.90
999,85362981,-0.9224,0.2954,-0.0171,26.52,-8.11,6.10
1000,85367982,-0.9238,0.2900,-0.0176,24.51,-6.22,8.11
1001,85372982,-0.9214,0.2876,-0.0146,22.50,-4.09,10.00
1002,85377982,-0.9155,0.2778,-0.0107,20.79,-2.20,11.89
1003,85382980,-0.9131,0.2749,-0.0078,19.09,-0.55,13.72
1004,85387984,-0.9116,0.2710,0.0015,17.68,1.10,15.61
1005,85392982,-0.9092,0.2710,0.0073,16.52,2.93,17.13
1006,85397982,-0.9141,0.2598,0.0112,15.55,4.45,18.96
1007,85402981,-0.9214,0.2554,0.0146,14.82,5.98,20.61
1008,85407982,-0.9321,0.2544,0.0166,14.27,7.44,22.26
1009,85412984,-0.9375,0.2485,0.0278,13.96,9.15,23.90
1010,85417981,-0.9492,0.2490,0.0366,13.66,10.49,25.30
1011,85422982,-0.9458,0.2427,0.0391,13.41,11.77,26.77
1012,85427982,-0.9507,0.2363,0.0396,13.23,13.11,28.11
1013,85432980,-0.9512,0.2329,0.0449,13.05,14.39,29.33
1014,85437983,-0.9478,0.2300,0.0547,12.80,15.49,30.43
1015,85442981,-0.9468,0.2310,0.0596,12.80,16.65,31.40
1016,85447983,-0.9463,0.2295,0.0703,12.80,17.74,32.26
1017,85452982,-0.9468,0.2261,0.0640,12.68,18.78,33.17
1018,85457981,-0.9395,0.2188,0.0762,12.74,19.70,33.66
1019,85462982,-0.9360,0.2148,0.0859,12.74,20.79,34.27
1020,85467982,-0.9341,0.2163,0.0854,12.62,21.83,34.82
1021,85472982,-0.9287,0.2119,0.0967,12.93,22.56,35.43
1022,85477982,-0.9263,0.2046,0.1074,13.11,23.60,35.91
1023,85482980,-0.9238,0.2017,0.1152,13.23,24.39,36.40
1024,85487984,-0.9292,0.1978,0.1138,13.05,25.18,36.71
1025,85492982,-0.9287,0.1929,0.1230,13.11,25.98,37.26
1026,85497982,-0.9302,0.1880,0.1274,13.17,26.83,37.56
1027,85502982,-0.9302,0.1860,0.1294,12.87,27.50,37.93
1028,85507982,-0.9307,0.1860,0.1304,12.38,27.87,38.23
1029,85512982,-0.9336,0.1865,0.1367,11.65,28.23,38.48
1030,85517982,-0.9385,0.1846,0.1353,10.98,28.48,38.78
1031,85522984,-0.9443,0.1816,0.1440,10.12,28.60,38.96
1032,85527982,-0.9468,0.1787,0.1519,9.09,28.72,39.15
1033,85532982,-0.9395,0.1743,0.1499,7.93,28.60,39.21
1034,85537982,-0.9414,0.1714,0.1553,6.59,28.66,39.45
1035,85542981,-0.9434,0.1655,0.1699,5.55,28.60,39.70
1036,85547982,-0.9590,0.1665,0.1689,4.21,28.35,39.88
1037,85552982,-0.9619,0.1655,0.1665,3.05,28.11,40.06
1038,85557982,-0.9658,0.1655,0.1689,1.95,27.87,40.12
1039,85562980,-0.9731,0.1606,0.1709,0.91,27.50,40.12
1040,85567982,-0.9722,0.1606,0.1733,0.00,27.07,40.06
1041,85572981,-0.9756,0.1646,0.1772,-1.16,26.52,40.06
1042,85577982,-0.9849,0.1646,0.1689,-2.26,26.04,39.94
1043,85582980,-0.9917,0.1675,0.1675,-3.48,25.37,39.51
1044,85587980,-0.9961,0.1689,0.1665,-4.88,24.57,39.21
1045,85593195,-1.0073,0.1685,0.1602,-6.52,23.72,38.72
1046,85597982,-1.0254,0.1714,0.1553,-8.23,22.80,38.29
1047,85602984,-1.0410,0.1699,0.1577,-10.00,21.89,37.87
1048,85607981,-1.0562,0.1621,0.1616,-11.71,21.04,37.50
1049,85612983,-1.0693,0.1543,0.1641,-13.41,20.12,37.07
1050,85617982,-1.0747,0.1543,0.1636,-14.88,19.15,37.07
1051,85622982,-1.0781,0.1499,0.1621,-15.98,18.29,36.77
1052,85627982,-1.0732,0.1445,0.1655,-17.07,17.62,36.71
1053,85632980,-1.0537,0.1436,0.1689,-17.87,16.83,36.52
1054,85637984,-1.0356,0.1450,0.1763,-18.41,16.34,36.22
1055,85643172,-1.0151,0.1406,0.1675,-18.72,15.98,36.04
1056,85647982,-0.9937,0.1392,0.1733,-18.84,15.61,35.67
1057,85652982,-0.9688,0.1392,0.1743,-18.60,15.37,35.24
1058,85657982,-0.9575,0.1406,0.1807,-18.17,15.12,34.82
1059,85662981,-0.9492,0.1387,0.1846,-17.50,15.30,34.45
1060,85667982,-0.9360,0.1353,0.1895,-16.77,15.61,33.90
1061,85672980,-0.9297,0.1343,0.1909,-15.61,15.67,33.29
1062,85677982,-0.9272,0.1328,0.1899,-14.27,16.10,32.74
1063,85682981,-0.9297,0.1328,0.1987,-12.68,16.52,32.32
1064,85687982,-0.9321,0.1299,0.2046,-10.98,17.32,31.71
1065,85692981,-0.9365,0.1323,0.2012,-9.15,18.05,31.22
1066,85697982,-0.9468,0.1279,0.2080,-6.95,18.84,30.73
1067,85702981,-0.9561,0.1348,0.2104,-4.70,19.88,30.24
1068,85707984,-0.9580,0.1304,0.2075,-2.50,20.79,29.70
1069,85712982,-0.9629,0.1318,0.2090,-0.18,21.89,29.39
1070,85717982,-0.9595,0.1309,0.2090,2.13,22.56,28.90
1071,85722982,-0.9653,0.1382,0.2017,4.27,23.72,28.35
1072,85727982,-0.9683,0.1392,0.2031,6.28,24.63,28.05
1073,85732984,-0.9688,0.1387,0.2002,8.23,25.55,27.56
1074,85737981,-0.9712,0.1372,0.2065,10.12,26.46,27.07
1075,85742982,-0.9785,0.1318,0.2056,11.89,27.32,26.59
1076,85747982,-0.9839,0.1333,0.2100,13.60,28.23,26.34
1077,85752983,-0.9976,0.1309,0.2100,15.18,29.15,26.10
1078,85757982,-1.0068,0.1284,0.2207,16.95,30.18,25.85
1079,85762982,-1.0083,0.1318,0.2202,18.29,31.28,25.49
1080,85767982,-1.0127,0.1294,0.2222,19.51,32.32,25.30
1081,85772982,-1.0117,0.1299,0.2222,20.49,33.29,25.00
1082,85777982,-1.0088,0.1318,0.2231,21.10,34.33,24.70
1083,85782982,-1.0083,0.1372,0.2236,21.34,35.43,24.33
1084,85787980,-1.0068,0.1382,0.2280,21.22,36.16,23.78
1085,85792982,-1.0078,0.1367,0.2319,20.55,36.71,23.29
1086,85797984,-1.0073,0.1357,0.2236,19.45,37.56,22.87
1087,85802981,-1.0093,0.1353,0.2285,17.87,38.29,22.44
1088,85807982,-1.0049,0.1289,0.2305,15.91,38.72,21.89
1089,85813504,-1.0083,0.1270,0.2363,13.41,39.27,21.46
1090,85817984,-1.0010,0.1250,0.2432,10.98,39.88,21.34
1091,85822981,-1.0005,0.1235,0.2588,7.13,40.61,20.98
1092,85827982,-1.0000,0.1201,0.2612,2.38,41.34,20.61
1093,85832980,-0.9985,0.1187,0.2549,-3.72,42.01,20.37
1094,85837982,-1.0029,0.1226,0.2554,-10.73,42.74,20.12
1095,85842981,-1.0015,0.1260,0.2466,-18.78,43.23,19.94
1096,85847983,-1.0063,0.1279,0.2432,-27.50,43.78,19.76
1097,85853262,-1.0127,0.1353,0.2437,-38.78,44.09,19.39
1098,85857982,-1.0171,0.1421,0.2402,-46.59,44.39,19.27
1099,85862981,-1.0229,0.1440,0.2358,-56.34,44.45,19.15
1100,85867982,-1.0249,0.1479,0.2280,-65.98,44.45,19.02
1101,85872980,-1.0249,0.1499,0.2178,-74.94,44.57,18.96
1102,85877982,-1.0200,0.1494,0.2280,-83.54,44.57,18.84
1103,85882981,-1.0195,0.1489,0.2202,-91.34,44.45,18.90
1104,85887982,-1.0161,0.1533,0.2144,-98.41,44.45,19.09
1105,85892980,-1.0112,0.1514,0.2129,-104.45,44.33,19.27
1106,85897984,-1.0107,0.1504,0.2256,-109.51,44.27,19.57
1107,85902981,-1.0093,0.1504,0.2314,-113.54,44.33,20.06
1108,85907981,-1.0088,0.1504,0.2422,-116.83,44.57,20.30
1109,85912982,-1.0093,0.1479,0.2559,-119.27,45.06,20.85
1110,85917981,-1.0132,0.1484,0.2563,-121.16,45.49,21.34
1111,85922983,-1.0137,0.1489,0.2578,-122.26,45.73,21.95
1112,85927982,-1.0229,0.1489,0.2715,-122.80,46.28,22.62
1113,85932983,-1.0337,0.1475,0.2700,-122.87,46.71,23.17
1114,85937982,-1.0391,0.1528,0.2759,-122.62,47.20,23.90
1115,85942983,-1.0479,0.1558,0.2715,-121.89,47.68,24.45
1116,85947982,-1.0483,0.1567,0.2778,-120.67,48.11,24.94
1117,85952981,-1.0493,0.1592,0.2812,-119.27,48.60,25.30
1118,85957982,-1.0498,0.1572,0.2803,-117.44,48.78,25.67
1119,85962982,-1.0503,0.1567,0.2793,-115.43,48.78,26.04
1120,85967982,-1.0503,0.1558,0.2808,-112.99,48.84,26.34
1121,85972980,-1.0483,0.1606,0.2666,-110.61,48.78,26.46
1122,85977982,-1.0513,0.1558,0.2715,-107.99,48.48,26.71
1123,85982981,-1.0444,0.1567,0.2598,-104.94,48.11,26.83
1124,85987982,-1.0352,0.1606,0.2549,-101.77,47.80,26.77
1125,85992980,-1.0337,0.1577,0.2495,-98.60,47.13,26.65
1126,85997982,-1.0278,0.1665,0.2363,-95.06,46.40,26.46
1127,86002982,-1.0210,0.1665,0.2437,-91.40,45.49,26.28
1128,86007982,-1.0117,0.1646,0.2329,-87.38,44.76,25.79
1129,86012982,-1.0059,0.1670,0.2231,-83.29,43.72,25.43
1130,86017982,-0.9995,0.1616,0.2188,-79.09,42.87,25.00
1131,86022981,-0.9976,0.1670,0.2144,-74.57,41.83,24.51
1132,86027982,-0.9946,0.1699,0.2085,-70.24,40.67,23.84
1133,86033000,-0.9941,0.1777,0.2056,-65.49,39.70,23.11
1134,86037980,-0.9849,0.1743,0.1963,-60.85,38.54,22.26
1135,86042984,-0.9854,0.1812,0.1953,-56.10,37.26,21.52
1136,86047981,-0.9790,0.1807,0.1943,-51.04,35.85,20.79
1137,86052981,-0.9756,0.1807,0.1846,-46.22,34.63,20.06
1138,86057982,-0.9683,0.1909,0.1782,-41.22,33.23,19.21
1139,86062982,-0.9561,0.1836,0.1802,-36.28,31.95,18.29
1140,86067981,-0.9507,0.1875,0.1787,-31.52,30.73,17.44
1141,86072983,-0.9487,0.1890,0.1763,-26.83,29.39,16.59
1142,86077982,-0.9468,0.1895,0.1597,-22.20,27.80,15.67
1143,86082983,-0.9463,0.1924,0.1606,-17.74,26.46,14.88
1144,86087982,-0.9443,0.1924,0.1558,-13.35,25.00,14.09
1145,86092983,-0.9399,0.1914,0.1475,-9.27,23.54,13.41
1146,86097980,-0.9351,0.1914,0.1553,-5.37,22.07,12.74
1147,86102980,-0.9360,0.1895,0.1465,-1.46,20.61,12.13
1148,86107984,-0.9341,0.1895,0.1489,2.26,19.02,11.40
1149,86112982,-0.9297,0.1909,0.1450,5.67,17.44,10.67
1150,86117986,-0.9316,0.1958,0.1431,9.02,15.85,10.12
1151,86122981,-0.9312,0.1968,0.1421,12.07,14.15,9.51
1152,86127984,-0.9336,0.1992,0.1436,15.30,12.74,8.72
1153,86132982,-0.9316,0.2056,0.1440,18.11,11.28,7.87
1154,86137981,-0.9277,0.2139,0.1426,20.85,9.70,7.20
1155,86142980,-0.9331,0.2188,0.1514,23.60,8.35,6.40
1156,86147984,-0.9316,0.2231,0.1460,26.22,6.83,5.67
1157,86152981,-0.9390,0.2246,0.1489,28.17,5.85,4.94
1158,86157981,-0.9380,0.2300,0.1523,31.16,4.09,3.96
1159,86162982,-0.9419,0.2300,0.1519,33.29,2.80,3.17
1160,86167980,-0.9355,0.2388,0.1543,34.82,1.59,2.62
1161,86173017,-0.9395,0.2363,0.1558,37.07,0.00,1.52
1162,86177983,-0.9370,0.2417,0.1528,38.35,-1.16,0.91
1163,86182985,-0.9375,0.2441,0.1680,39.70,-2.56,0.00
1164,86187982,-0.9370,0.2402,0.1646,40.91,-3.84,-0.61
1165,86193214,-0.9399,0.2446,0.1670,42.26,-5.43,-1.59
1166,86197982,-0.9482,0.2446,0.1660,42.74,-6.46,-2.13
1167,86202980,-0.9565,0.2466,0.1611,43.23,-7.56,-2.74
1168,86207982,-0.9595,0.2471,0.1611,43.66,-8.90,-3.41
1169,86212980,-0.9619,0.2529,0.1646,43.90,-10.06,-3.96
1170,86217982,-0.9585,0.2456,0.1626,43.90,-11.22,-4.51
1171,86222985,-0.9551,0.2529,0.1694,43.90,-12.56,-5.18
1172,86227981,-0.9536,0.2505,0.1685,43.72,-13.54,-5.67
1173,86232980,-0.9453,0.2505,0.1582,43.41,-14.70,-6.28
1174,86237980,-0.9473,0.2554,0.1646,43.11,-15.67,-6.77
1175,86242982,-0.9429,0.2549,0.1572,42.74,-16.77,-7.32
1176,86248483,-0.9502,0.2593,0.1558,42.20,-18.11,-7.87
1177,86253420,-0.9526,0.2544,0.1489,41.71,-18.90,-8.41
1178,86257982,-0.9556,0.2588,0.1484,41.46,-19.76,-8.84
1179,86262981,-0.9575,0.2568,0.1411,40.85,-20.55,-9.15
1180,86267981,-0.9541,0.2549,0.1377,40.49,-21.52,-9.57
1181,86272983,-0.9507,0.2559,0.1294,39.94,-22.26,-9.82
1182,86277984,-0.9502,0.2588,0.1348,39.63,-23.17,-10.30
1183,86282982,-0.9478,0.2520,0.1299,39.39,-24.02,-10.61
1184,86287982,-0.9473,0.2559,0.1240,39.09,-24.82,-10.73
1185,86292981,-0.9492,0.2529,0.1196,38.96,-25.79,-11.10
1186,86297982,-0.9482,0.2563,0.1177,38.96,-26.46,-11.28
1187,86302981,-0.9517,0.2554,0.1138,38.96,-27.13,-11.34
1188,86307996,-0.9546,0.2588,0.1040,39.27,-27.80,-11.59
1189,86312982,-0.9604,0.2568,0.1084,39.45,-28.48,-11.71
1190,86317982,-0.9590,0.2603,0.1035,39.94,-29.09,-11.83
1191,86322982,-0.9517,0.2593,0.0977,40.30,-29.76,-12.01
1192,86327981,-0.9526,0.2593,0.0972,40.98,-30.24,-12.01
1193,86332982,-0.9478,0.2583,0.0972,41.71,-30.85,-12.07
1194,86337981,-0.9478,0.2583,0.0908,42.44,-31.46,-12.13
1195,86342982,-0.9448,0.2627,0.0908,43.23,-31.77,-12.20
1196,86347982,-0.9565,0.2603,0.0928,44.21,-32.38,-12.26
1197,86352982,-0.9570,0.2603,0.0869,45.12,-32.62,-12.26
1198,86357982,-0.9624,0.2627,0.0874,46.16,-33.17,-12.20
1199,86362981,-0.9629,0.2637,0.0864,47.01,-33.48,-12.07
1200,86367982,-0.9600,0.2646,0.0801,48.05,-33.90,-12.07
1201,86372982,-0.9609,0.2622,0.0742,49.02,-34.15,-12.07
1202,86378021,-0.9624,0.2622,0.0830,50.12,-34.33,-11.89
1203,86382982,-0.9692,0.2622,0.0781,51.16,-34.51,-11.71
1204,86387981,-0.9629,0.2578,0.0791,52.13,-34.70,-11.52
1205,86392982,-0.9688,0.2622,0.0752,53.29,-34.94,-11.34
1206,86397981,-0.9702,0.2627,0.0820,54.21,-34.94,-11.10
1207,86402984,-0.9639,0.2622,0.0752,55.18,-35.06,-10.85
1208,86407981,-0.9629,0.2593,0.0762,56.22,-34.94,-10.61
1209,86412982,-0.9678,0.2598,0.0767,57.13,-35.00,-10.43
1210,86417981,-0.9683,0.2642,0.0791,58.05,-34.88,-10.12
1211,86422982,-0.9707,0.2646,0.0732,58.84,-34.76,-9.82
1212,86427981,-0.9771,0.2651,0.0679,59.63,-34.70,-9.57
1213,86432982,-0.9805,0.2646,0.0771,60.49,-34.45,-9.33
1214,86437984,-0.9746,0.2607,0.0752,61.04,-34.45,-8.96
1215,86442981,-0.9771,0.2642,0.0732,61.65,-34.09,-8.66
1216,86448415,-0.9722,0.2612,0.0732,62.13,-33.84,-8.35
1217,86452982,-0.9717,0.2607,0.0693,62.56,-33.66,-7.93
1218,86457981,-0.9688,0.2612,0.0708,62.87,-33.41,-7.68
1219,86462983,-0.9688,0.2632,0.0703,63.05,-33.17,-7.26
1220,86467981,-0.9712,0.2646,0.0806,63.29,-32.80,-7.01
1221,86472982,-0.9717,0.2617,0.0747,63.54,-32.26,-6.77
1222,86477981,-0.9688,0.2627,0.0732,63.72,-31.89,-6.52
1223,86483201,-0.9678,0.2637,0.0718,63.72,-31.59,-6.16
1224,86487982,-0.9697,0.2603,0.0737,63.54,-31.16,-5.67
1225,86492982,-0.9712,0.2612,0.0698,63.48,-30.73,-5.43
1226,86497982,-0.9717,0.2588,0.0752,63.41,-30.37,-5.12
1227,86502982,-0.9746,0.2598,0.0679,63.11,-29.76,-4.88
1228,86507981,-0.9771,0.2627,0.0664,62.68,-29.15,-4.39
1229,86512982,-0.9741,0.2617,0.0708,62.50,-28.66,-4.21
1230,86517981,-0.9775,0.2598,0.0674,62.13,-27.99,-3.90
1231,86522984,-0.9688,0.2598,0.0688,61.46,-27.32,-3.60
1232,86527981,-0.9692,0.2593,0.0659,60.98,-26.89,-3.41
1233,86532985,-0.9634,0.2563,0.0674,60.43,-26.28,-3.11
1234,86537982,-0.9595,0.2612,0.0713,59.63,-25.61,-2.80
1235,86542982,-0.9629,0.2627,0.0601,58.90,-25.00,-2.56
1236,86547982,-0.9653,0.2617,0.0703,58.05,-24.27,-2.32
1237,86552982,-0.9639,0.2607,0.0698,57.07,-23.60,-2.07
1238,86557981,-0.9658,0.2593,0.0649,56.16,-22.93,-1.83
1239,86562980,-0.9683,0.2593,0.0669,55.18,-22.20,-1.71
1240,86567984,-0.9697,0.2603,0.0674,53.90,-21.46,-1.46
1241,86572982,-0.9580,0.2583,0.0698,52.68,-20.91,-1.22
1242,86577981,-0.9648,0.2573,0.0674,51.34,-20.18,-1.04
1243,86582982,-0.9697,0.2559,0.0645,50.12,-19.57,-0.79
1244,86587981,-0.9648,0.2583,0.0649,48.78,-18.78,-0.73
1245,86592982,-0.9624,0.2554,0.0601,47.44,-18.17,-0.55
1246,86597981,-0.9595,0.2612,0.0591,46.10,-17.32,-0.37
1247,86602982,-0.9609,0.2598,0.0688,44.57,-16.65,-0.18
1248,86607982,-0.9531,0.2578,0.0679,43.17,-15.98,-0.06
1249,86612982,-0.9551,0.2607,0.0645,41.52,-15.30,0.12
1250,86617981,-0.9517,0.2612,0.0640,40.06,-14.57,0.24
1251,86622982,-0.9565,0.2573,0.0659,38.66,-13.96,0.43
1252,86627981,-0.9526,0.2573,0.0591,37.13,-13.11,0.43
1253,86632982,-0.9590,0.2578,0.0640,35.67,-12.44,0.61
1254,86637982,-0.9526,0.2598,0.0630,34.09,-11.83,0.67
1255,86642982,-0.9517,0.2593,0.0688,32.68,-11.04,0.79
1256,86647981,-0.9512,0.2622,0.0674,31.16,-10.37,0.79
1257,86652982,-0.9561,0.2607,0.0640,29.51,-9.63,0.85
1258,86657981,-0.9546,0.2607,0.0649,27.99,-9.09,0.91
1259,86662982,-0.9546,0.2612,0.0645,26.40,-8.35,0.91
1260,86667981,-0.9517,0.2617,0.0601,24.82,-7.50,0.98
1261,86672982,-0.9487,0.2612,0.0664,23.23,-6.95,0.91
1262,86677981,-0.9434,0.2588,0.0625,21.77,-6.22,0.98
1263,86682982,-0.9438,0.2588,0.0674,20.12,-5.55,0.98
1264,86687981,-0.9399,0.2593,0.0708,18.60,-4.94,0.91
