# skilleye imu stream v1
# device=xiao_esp32c6 imu=mpu6050 addr=0x68
# rate_hz=200 accel_range_g=16 gyro_range_dps=2000 dlpf_hz=94
# units: accel in g, gyro in deg/s, t_us in microseconds since boot (monotonic)
# no shared clock with the camera -- tap the racket once before each take
# so both recordings share a spike to align on
seq,t_us,ax,ay,az,gx,gy,gz
0,301360440,-0.9077,0.3467,0.0542,11.46,5.55,11.16
1,301365449,-0.9355,0.3267,0.0439,11.59,5.73,11.46
2,301370440,-0.9443,0.3340,0.0391,11.52,5.79,11.83
3,301375442,-0.9487,0.3379,0.0420,11.28,5.85,12.13
4,301380442,-0.9497,0.3369,0.0420,11.16,5.55,12.32
5,301385442,-0.9355,0.3218,0.0327,11.10,5.43,12.87
6,301390442,-0.9004,0.3062,0.0332,10.55,4.94,13.35
7,301395442,-0.8398,0.3145,0.0225,9.33,4.45,13.96
8,301400440,-0.8984,0.3555,0.0557,8.23,4.15,13.78
9,301405462,-0.9585,0.3506,0.0479,7.44,3.84,13.60
10,301410442,-1.0210,0.3491,0.0552,7.68,3.41,13.54
11,301415442,-1.0376,0.3442,0.0439,8.29,3.05,13.96
12,301420442,-1.0322,0.3398,0.0571,8.72,2.80,14.39
13,301425443,-1.0063,0.3423,0.0454,9.09,2.50,14.63
14,301430442,-0.9912,0.3384,0.0449,9.39,2.07,14.82
15,301435441,-0.9609,0.3374,0.0508,9.45,1.71,15.18
16,301440443,-0.9463,0.3208,0.0586,9.57,1.28,15.49
17,301445441,-0.9341,0.3296,0.0674,9.70,1.10,15.79
18,301450442,-0.9282,0.3286,0.0645,9.88,0.67,16.10
19,301455442,-0.9199,0.3271,0.0664,10.06,0.49,16.59
20,301460442,-0.9199,0.3291,0.0635,10.12,0.30,17.07
21,301465441,-0.9053,0.3306,0.0615,10.24,0.06,17.50
22,301470443,-0.9023,0.3311,0.0723,10.00,-0.30,17.93
23,301475441,-0.8940,0.3281,0.0610,9.76,-0.55,18.41
24,301480442,-0.8452,0.3330,0.0459,8.90,-1.04,19.02
25,301485442,-0.8428,0.3247,0.0889,7.93,-1.52,19.63
26,301490442,-0.8149,0.3291,0.0391,6.52,-1.95,20.12
27,301495441,-0.8516,0.3418,0.0776,4.88,-2.32,20.49
28,301500443,-0.8809,0.3589,0.0942,3.54,-2.68,20.67
29,301505441,-0.8647,0.3506,0.0767,2.20,-2.93,20.85
30,301510441,-0.8955,0.3438,0.0693,0.98,-3.48,21.04
31,301515444,-0.9648,0.3799,0.0957,-0.30,-3.72,21.10
32,301520441,-1.0269,0.3770,0.0952,-1.28,-3.78,21.28
33,301525442,-1.0376,0.3906,0.1235,-2.32,-3.66,21.46
34,301530440,-1.0649,0.3940,0.1035,-3.35,-3.66,21.52
35,301535442,-1.0483,0.4170,0.0942,-4.57,-3.90,21.71
36,301540441,-1.0312,0.4199,0.0972,-6.22,-4.09,21.95
37,301545442,-1.0039,0.4224,0.0967,-8.23,-4.45,22.38
38,301550442,-0.9775,0.4380,0.0918,-10.49,-4.82,22.80
39,301555742,-0.9595,0.4526,0.0942,-12.99,-5.30,23.23
40,301560443,-0.9443,0.4639,0.0957,-15.73,-5.85,23.84
41,301565442,-0.9326,0.4834,0.0981,-18.48,-6.40,24.51
42,301570443,-0.9385,0.4824,0.0889,-21.16,-6.71,25.18
43,301575440,-0.9365,0.4932,0.0674,-23.17,-7.44,26.22
44,301580442,-0.9067,0.5796,0.1616,-24.45,-7.32,26.95
45,301585442,-0.9268,0.5674,0.0830,-25.85,-7.32,27.93
46,301590442,-0.9736,0.6055,0.0410,-26.89,-7.80,29.39
47,301595442,-1.0254,0.5542,0.0063,-27.44,-8.66,30.73
48,301600443,-0.9673,0.6665,0.0986,-27.07,-8.90,32.26
49,301605441,-0.9741,0.6953,0.0645,-26.34,-8.84,33.72
50,301610442,-1.0132,0.6655,0.0020,-25.12,-9.21,35.73
51,301615440,-1.0454,0.6899,0.0132,-23.54,-9.51,38.05
52,301620442,-1.0586,0.6875,0.0244,-21.34,-9.63,40.73
53,301625443,-1.0649,0.7173,0.0244,-18.41,-9.57,43.60
54,301630442,-1.0493,0.7446,0.0278,-14.51,-9.39,46.71
55,301635441,-1.0308,0.7559,0.0371,-10.06,-8.66,50.00
56,301640443,-1.0161,0.7666,0.0386,-5.06,-7.74,53.29
57,301645441,-1.0029,0.7837,0.0220,-0.12,-6.95,56.83
58,301650443,-0.9980,0.8066,0.0273,5.06,-5.73,60.37
59,301655442,-1.0088,0.8276,0.0234,10.18,-4.57,64.15
60,301660442,-1.0234,0.8379,0.0093,15.30,-3.48,68.11
61,301665441,-1.0381,0.8545,0.0024,20.43,-2.20,72.07
62,301670443,-1.0474,0.8662,0.0029,25.37,-0.73,76.22
63,301675441,-1.0474,0.8784,-0.0039,30.00,0.61,80.37
64,301680442,-1.0444,0.8936,-0.0181,34.09,1.89,84.27
65,301685442,-1.0537,0.9028,-0.0278,37.56,3.23,88.05
66,301690443,-1.0581,0.9150,-0.0264,40.37,4.57,92.68
67,301695441,-1.0664,0.9219,-0.0342,42.44,6.10,96.95
68,301700442,-1.0732,0.9287,-0.0454,43.78,7.44,100.91
69,301705441,-1.0752,0.9302,-0.0566,44.27,8.72,104.94
70,301710442,-1.0664,0.9316,-0.0522,44.09,10.12,108.66
71,301715442,-1.0591,0.9341,-0.0620,43.11,11.52,112.20
72,301720443,-1.0513,0.9355,-0.0615,41.34,12.93,115.61
73,301725442,-1.0479,0.9355,-0.0732,39.09,14.21,118.78
74,301730442,-1.0425,0.9429,-0.0850,36.10,15.73,121.77
75,301735441,-1.0420,0.9482,-0.0879,32.62,17.26,124.63
76,301740443,-1.0396,0.9536,-0.0986,28.66,18.54,127.13
77,301745442,-1.0405,0.9600,-0.1025,24.45,19.82,129.45
78,301750442,-1.0371,0.9658,-0.1099,20.00,21.28,131.52
79,301755441,-1.0400,0.9697,-0.1201,15.61,22.62,133.48
80,301760443,-1.0381,0.9727,-0.1265,11.28,23.90,135.37
81,301765441,-1.0347,0.9805,-0.1367,7.01,25.30,137.01
82,301770443,-1.0405,0.9878,-0.1440,3.11,26.65,138.48
83,301775442,-1.0376,0.9927,-0.1587,-0.61,28.05,139.88
84,301780442,-1.0415,1.0000,-0.1699,-3.66,29.70,141.28
85,301785983,-1.0366,1.0063,-0.1777,-6.40,31.10,142.56
86,301790443,-1.0342,1.0112,-0.1909,-8.54,32.80,143.78
87,301795441,-1.0308,1.0093,-0.2031,-9.94,34.27,144.94
88,301800442,-1.0283,1.0176,-0.2070,-10.43,36.16,146.16
89,301805442,-1.0176,1.0156,-0.2207,-10.24,38.05,147.32
90,301810442,-1.0054,1.0181,-0.2271,-9.15,40.00,148.54
91,301815441,-0.9980,1.0249,-0.2397,-7.44,42.07,149.63
92,301820442,-0.9922,1.0283,-0.2471,-4.94,44.15,150.73
93,301825441,-0.9888,1.0435,-0.2568,-2.07,46.16,151.83
94,301830443,-0.9932,1.0522,-0.2725,1.59,48.23,152.68
95,301835442,-0.9888,1.0605,-0.2798,5.55,50.18,153.35
96,301840442,-0.9902,1.0679,-0.2949,9.94,52.20,153.90
97,301845441,-0.9883,1.0762,-0.3008,14.45,54.27,154.33
98,301850442,-0.9956,1.0781,-0.3179,19.33,56.16,154.88
99,301855441,-0.9937,1.0815,-0.3213,24.09,58.17,155.18
100,301860443,-0.9990,1.0801,-0.3311,28.78,60.24,155.67
101,301865442,-0.9829,1.0801,-0.3384,33.35,62.26,156.04
102,301870442,-0.9795,1.0762,-0.3394,37.44,64.33,156.40
103,301875441,-0.9639,1.0664,-0.3438,41.04,66.52,156.89
104,301880442,-0.9512,1.0654,-0.3477,44.45,68.72,157.32
105,301885441,-0.9375,1.0693,-0.3594,47.13,71.04,157.74
106,301890443,-0.9258,1.0645,-0.3604,49.02,73.17,157.99
107,301895442,-0.9141,1.0723,-0.3716,50.37,75.30,158.23
108,301900442,-0.9097,1.0742,-0.3794,50.91,77.26,158.29
109,301905441,-0.9019,1.0791,-0.3862,50.73,79.21,158.41
110,301910442,-0.8906,1.0854,-0.4019,50.12,81.16,158.23
111,301915441,-0.8887,1.0977,-0.4087,49.15,82.56,157.93
112,301920506,-0.8838,1.1030,-0.4199,47.80,85.06,157.56
113,301926008,-0.8613,1.1128,-0.4214,46.52,86.16,157.13
114,301930444,-0.8486,1.1094,-0.4346,45.61,85.91,156.89
115,301935442,-0.8218,1.1030,-0.4336,44.51,85.91,156.46
116,301940443,-0.8052,1.0952,-0.4297,44.15,87.62,156.34
117,301945440,-0.7808,1.0820,-0.4204,43.90,89.39,156.34
118,301950442,-0.7495,1.0757,-0.4292,43.66,91.16,156.34
119,301955877,-0.7217,1.0586,-0.4150,43.05,93.05,156.28
120,301960442,-0.7017,1.0562,-0.4194,42.13,94.27,156.28
121,301965442,-0.6914,1.0566,-0.4224,40.73,96.22,156.22
122,301970442,-0.6934,1.0503,-0.4224,38.90,97.74,156.16
123,301975442,-0.6562,1.0259,-0.4287,36.89,99.27,155.91
124,301980441,-0.5996,1.0352,-0.4453,34.33,100.55,155.67
125,301985440,-0.5742,1.0278,-0.4438,31.52,101.71,155.55
126,301990442,-0.5684,1.0112,-0.4370,28.66,102.87,155.43
127,301995442,-0.5659,1.0044,-0.4424,25.85,103.72,155.30
128,302000440,-0.5552,0.9971,-0.4438,23.05,104.70,155.24
129,302005442,-0.5352,0.9805,-0.4453,19.94,105.49,155.24
130,302010442,-0.4995,0.9580,-0.4561,17.01,106.34,155.55
131,302015442,-0.4829,0.9438,-0.4175,14.39,107.01,156.04
132,302020442,-0.4688,0.9229,-0.4097,12.13,108.41,156.52
133,302025611,-0.4365,0.8936,-0.3779,10.43,110.24,157.38
134,302030443,-0.4248,0.8716,-0.3779,9.45,111.65,157.99
135,302035442,-0.4023,0.8574,-0.3755,8.60,112.93,158.66
136,302040442,-0.3784,0.8315,-0.3564,7.38,114.51,159.39
137,302045442,-0.3550,0.8140,-0.3462,6.34,115.91,160.00
138,302050442,-0.3301,0.7876,-0.3403,5.30,117.01,160.43
139,302055442,-0.3018,0.7671,-0.3330,4.21,118.05,160.79
140,302060443,-0.2812,0.7456,-0.3267,2.93,118.78,161.04
141,302065442,-0.2593,0.7251,-0.3252,1.65,119.27,160.85
142,302070442,-0.2373,0.7080,-0.3174,0.49,119.57,160.73
143,302075442,-0.2188,0.6846,-0.3081,-0.30,119.45,160.37
144,302080442,-0.1978,0.6587,-0.2930,-0.79,119.39,160.00
145,302085442,-0.1753,0.6382,-0.2812,-0.67,118.96,159.33
146,302090442,-0.1514,0.6113,-0.2695,0.06,118.41,158.72
147,302095440,-0.1323,0.5933,-0.2568,1.04,117.93,157.80
148,302100442,-0.1123,0.5669,-0.2490,2.32,117.26,156.83
149,302105444,-0.0850,0.5474,-0.2290,3.78,116.52,155.67
150,302110441,-0.0669,0.5264,-0.2231,5.61,115.73,154.21
151,302115442,-0.0483,0.5049,-0.2012,7.68,114.88,152.80
152,302120442,-0.0400,0.4844,-0.2007,10.06,114.02,151.04
153,302125440,-0.0156,0.4702,-0.1826,12.62,113.11,149.09
154,302130442,0.0073,0.4478,-0.1680,15.61,112.07,146.83
155,302135444,0.0337,0.4238,-0.1660,18.90,111.04,144.70
156,302140441,0.0591,0.4019,-0.1470,22.50,109.94,142.32
157,302145442,0.0830,0.3765,-0.1343,26.28,108.84,139.82
158,302150441,0.1011,0.3569,-0.1240,30.43,107.99,137.26
159,302155442,0.1177,0.3325,-0.1084,34.45,106.83,134.45
160,302160441,0.1211,0.3213,-0.0977,38.72,106.04,131.59
161,302165442,0.1230,0.3018,-0.0854,42.99,105.18,128.66
162,302170441,0.1240,0.2817,-0.0693,47.32,104.15,125.67
163,302175442,0.1133,0.2661,-0.0581,51.65,103.29,122.50
164,302180441,0.1016,0.2476,-0.0508,56.16,102.44,119.51
165,302185443,0.1006,0.2368,-0.0381,60.61,101.59,116.22
166,302190440,0.1084,0.2261,-0.0278,65.18,100.85,112.99
167,302195445,0.1187,0.2080,-0.0186,69.70,100.18,109.63
168,302200441,0.1147,0.2144,0.0034,74.15,99.51,106.10
169,302205442,0.1094,0.1704,0.0039,78.66,99.02,102.80
170,302210442,0.1279,0.1631,-0.0049,83.29,98.35,99.51
171,302215442,0.1519,0.1641,0.0151,87.80,97.56,96.16
172,302220441,0.1641,0.1538,0.0303,92.38,97.07,92.74
173,302225441,0.1729,0.1421,0.0264,97.13,96.34,88.48
174,302230442,0.1807,0.1260,0.0254,102.13,95.73,86.04
175,302235444,0.1812,0.1172,0.0337,107.01,94.94,82.62
176,302240441,0.1753,0.1206,0.0454,111.95,94.21,78.90
177,302245442,0.1772,0.1211,0.0474,116.77,93.35,75.30
178,302250441,0.1880,0.1060,0.0605,121.59,92.50,71.59
179,302255442,0.2021,0.0864,0.0728,126.83,91.59,67.99
180,302260441,0.3496,0.1001,0.5127,127.32,90.06,64.27
181,302265442,0.3179,0.1055,0.4355,113.23,85.79,60.00
182,302270441,0.6753,0.0801,1.3447,87.93,78.60,55.24
183,302275442,0.6353,0.1055,1.3057,35.91,63.23,49.21
184,302280441,0.2803,0.1328,0.9629,0.73,53.41,43.48
185,302285442,0.0244,0.1538,0.7100,-19.94,46.34,39.09
186,302290441,-0.0454,0.2114,0.6226,-30.30,40.49,36.71
187,302295442,0.0112,0.1182,0.6694,-37.44,35.18,35.18
188,302300442,0.1216,0.1836,0.6821,-44.88,29.27,33.96
189,302305442,0.1509,0.1934,0.6572,-51.59,23.23,32.01
190,302310442,0.1274,0.1543,0.6255,-55.55,17.44,28.90
191,302315442,0.1128,0.1392,0.5703,-55.98,12.13,25.49
192,302320442,0.1128,0.1255,0.5317,-53.96,6.89,21.40
193,302325443,0.0913,0.1011,0.5312,-50.06,1.77,16.65
194,302330441,0.0552,0.0928,0.5190,-44.82,-3.05,11.52
195,302335442,0.0200,0.0928,0.5024,-38.29,-8.05,6.04
196,302340442,-0.0264,0.1050,0.4819,-30.37,-12.80,0.12
197,302345440,-0.0864,0.1157,0.4619,-21.04,-17.38,-6.04
198,302350442,-0.1460,0.1265,0.4277,-10.37,-21.65,-12.38
199,302355442,-0.1792,0.1245,0.3911,2.01,-25.85,-18.90
200,302360443,-0.2134,0.1274,0.3721,15.98,-30.12,-25.49
201,302365442,-0.2490,0.1421,0.3374,31.10,-34.27,-32.13
202,302370442,-0.3140,0.1558,0.3179,47.07,-38.60,-39.15
203,302375442,-0.3696,0.1548,0.2729,64.88,-42.99,-46.22
204,302380442,-0.3765,0.1724,0.2529,83.41,-47.68,-53.23
205,302385442,-0.3955,0.1934,0.2256,102.07,-52.62,-60.24
206,302390442,-0.4292,0.2041,0.1899,120.73,-57.50,-67.32
207,302395442,-0.4771,0.2251,0.1401,139.33,-62.74,-74.21
208,302400451,-0.5347,0.2246,0.0752,158.05,-67.80,-80.91
209,302405442,-0.4878,0.2358,0.0684,176.04,-73.05,-87.32
210,302410441,-0.2212,0.3433,0.2744,185.73,-80.30,-93.41
211,302415442,-0.4497,0.4297,0.2861,185.06,-90.49,-98.90
212,302420441,-0.7080,0.3267,-0.0234,191.10,-97.68,-105.12
213,302425690,-0.6646,0.2876,-0.0112,196.59,-105.37,-111.71
214,302430443,-0.6743,0.2759,-0.0688,200.37,-113.17,-117.44
215,302435441,-0.7075,0.2954,-0.1328,204.57,-120.06,-122.93
216,302440442,-0.8311,0.3237,-0.2256,207.50,-126.83,-128.41
217,302445443,-0.8315,0.3301,-0.3159,211.28,-132.74,-134.02
218,302450442,-0.7881,0.3276,-0.3354,212.56,-138.72,-139.76
219,302455440,-0.7876,0.3467,-0.3657,210.67,-144.76,-145.55
220,302460442,-0.8066,0.3579,-0.4082,205.37,-151.22,-151.46
221,302465443,-0.8481,0.3604,-0.4521,196.65,-157.93,-157.56
222,302470442,-0.8843,0.3569,-0.4980,185.00,-164.82,-163.84
223,302475442,-0.9126,0.3691,-0.5371,170.12,-172.01,-170.30
224,302480443,-0.9287,0.3774,-0.5845,152.32,-179.15,-176.89
225,302485442,-0.9512,0.3960,-0.6143,130.79,-186.16,-183.90
226,302490442,-0.9878,0.4146,-0.6577,108.23,-193.05,-191.10
227,302495442,-1.0430,0.4326,-0.6948,82.44,-199.51,-198.78
228,302500442,-1.0938,0.4424,-0.7134,54.76,-205.55,-206.65
229,302505442,-1.1533,0.4624,-0.7466,25.37,-210.85,-214.88
230,302510442,-1.1973,0.5098,-0.7632,-5.30,-215.37,-223.84
231,302515442,-1.2417,0.5483,-0.7778,-37.68,-218.90,-233.23
232,302520443,-1.2964,0.5713,-0.8159,-71.46,-221.52,-243.23
233,302525442,-1.3545,0.5991,-0.8496,-106.16,-223.35,-253.35
234,302530442,-1.4189,0.6460,-0.8755,-141.89,-224.21,-264.15
235,302535442,-1.4893,0.6895,-0.9019,-177.74,-223.90,-275.18
236,302540443,-1.5454,0.7388,-0.9307,-213.41,-222.74,-286.71
237,302545442,-1.5757,0.7949,-0.9502,-248.29,-220.85,-298.54
238,302550442,-1.5703,0.8569,-0.9561,-282.13,-217.68,-310.79
239,302555442,-1.5713,0.9165,-0.9712,-313.84,-213.60,-323.35
240,302560442,-1.5928,0.9771,-0.9771,-343.17,-208.54,-335.98
241,302565442,-1.6353,1.0469,-0.9878,-369.27,-202.62,-348.54
242,302570442,-1.6836,1.1104,-0.9951,-391.71,-196.28,-360.98
243,302575442,-1.7354,1.1724,-0.9878,-410.24,-189.15,-372.80
244,302580443,-1.7720,1.2456,-0.9810,-424.70,-181.83,-384.09
245,302585442,-1.8301,1.3052,-0.9238,-435.18,-173.90,-394.63
246,302590442,-1.8823,1.3398,-0.9023,-441.34,-165.49,-404.27
247,302595442,-1.9473,1.4111,-0.8428,-442.93,-156.89,-412.62
248,302600442,-2.0244,1.4829,-0.7476,-439.45,-147.80,-420.12
249,302605442,-2.0957,1.5376,-0.6436,-431.10,-137.99,-426.71
250,302610443,-2.1655,1.5918,-0.5723,-417.74,-128.17,-432.38
251,302615442,-2.2480,1.6719,-0.5000,-400.24,-118.72,-437.20
252,302620443,-2.3364,1.7314,-0.4360,-378.90,-109.63,-441.46
253,302625772,-2.4180,1.7710,-0.3853,-353.72,-101.89,-444.76
254,302630443,-2.4976,1.7983,-0.3042,-325.06,-95.61,-446.83
255,302635866,-2.5869,1.8184,-0.2227,-292.74,-90.30,-447.62
256,302640443,-2.6133,1.8560,-0.1328,-257.26,-86.28,-447.26
257,302645442,-2.6294,1.8638,-0.0508,-220.12,-83.66,-445.61
258,302650442,-2.6377,1.8750,0.0190,-182.07,-82.68,-442.62
259,302655442,-2.6367,1.8760,0.0679,-144.21,-83.54,-438.60
260,302660443,-2.6338,1.8945,0.1333,-108.05,-86.22,-433.41
261,302665440,-2.6353,1.8989,0.1938,-74.27,-90.91,-427.38
262,302670440,-2.6396,1.9092,0.2515,-43.90,-97.20,-420.37
263,302675442,-2.6323,1.9121,0.3086,-17.56,-104.94,-412.68
264,302680443,-2.6172,1.9175,0.3618,4.09,-113.90,-404.33
265,302685442,-2.6060,1.9238,0.4155,20.91,-123.96,-395.43
266,302690442,-2.5942,1.9219,0.4512,32.50,-134.63,-385.79
267,302695442,-2.6084,1.9067,0.4810,39.57,-146.16,-375.55
268,302700443,-2.5894,1.9214,0.5312,42.87,-157.68,-364.76
269,302705442,-2.5625,1.9136,0.5664,43.05,-169.09,-353.72
270,302710443,-2.5557,1.9146,0.5981,41.34,-180.30,-341.65
271,302715440,-2.5439,1.9194,0.6240,38.54,-191.65,-328.96
272,302720442,-2.5293,1.9116,0.6567,35.43,-202.50,-316.04
273,302725571,-2.4897,1.9121,0.6646,32.50,-213.05,-302.38
274,302730442,-2.4790,1.9141,0.6592,30.18,-223.35,-288.35
275,302735443,-2.4507,1.9087,0.6802,28.90,-233.78,-273.84
276,302740442,-2.4482,1.8989,0.6685,29.09,-243.90,-259.09
277,302745444,-2.4468,1.9019,0.6606,31.04,-254.33,-244.15
278,302750441,-2.4375,1.8926,0.6460,34.39,-264.70,-228.78
279,302755440,-2.4155,1.8867,0.6255,40.00,-275.24,-213.29
280,302760442,-2.4058,1.8682,0.6211,47.68,-285.67,-197.56
281,302765444,-2.3940,1.8506,0.6035,57.26,-295.91,-181.46
282,302770441,-2.3809,1.8359,0.5928,67.87,-305.98,-165.43
283,302775442,-2.3765,1.8076,0.5811,79.33,-315.73,-149.27
284,302780442,-2.3608,1.7842,0.5591,91.22,-325.18,-132.93
285,302785442,-2.3306,1.7646,0.5332,103.48,-334.70,-116.40
286,302790441,-2.3091,1.7485,0.5044,115.67,-343.84,-100.18
287,302795442,-2.2881,1.7251,0.4717,128.11,-352.62,-83.96
288,302800441,-2.2856,1.7051,0.4385,137.50,-361.16,-67.99
289,302805442,-2.2871,1.6797,0.4126,146.34,-369.21,-52.07
290,302810442,-2.2886,1.6597,0.3848,153.48,-376.65,-36.22
291,302815442,-2.2837,1.6445,0.3506,159.02,-383.90,-20.73
292,302820442,-2.2710,1.6172,0.3203,162.50,-390.67,-5.49
293,302825595,-2.2607,1.5957,0.2881,164.33,-396.95,9.33
294,302830442,-2.2354,1.5698,0.2646,164.45,-402.50,23.78
295,302835440,-2.2036,1.5469,0.2373,163.05,-407.68,38.05
296,302840440,-2.1699,1.5112,0.2129,160.06,-412.44,51.65
297,302845440,-2.1191,1.4868,0.1880,156.16,-416.52,64.94
298,302850585,-2.0630,1.4556,0.1729,150.61,-420.06,77.68
299,302855444,-2.0142,1.4243,0.1597,143.90,-423.29,89.45
300,302860441,-1.9619,1.3848,0.1484,136.04,-425.98,101.28
301,302865442,-1.9121,1.3413,0.1475,127.62,-428.11,112.50
302,302870441,-1.8574,1.3037,0.1450,117.26,-429.88,123.11
303,302875442,-1.8062,1.2676,0.1362,106.04,-431.46,133.11
304,302880441,-1.7622,1.2305,0.1260,93.72,-432.68,142.44
305,302885442,-1.7280,1.2007,0.1152,80.67,-434.02,150.98
306,302890441,-1.6953,1.1558,0.1064,67.01,-435.18,159.02
307,302895442,-1.6802,1.1147,0.1055,53.60,-436.28,166.46
308,302900442,-1.6655,1.0757,0.1060,40.61,-437.20,173.35
309,302905442,-1.6514,1.0396,0.0942,28.60,-437.87,179.82
310,302910441,-1.6353,1.0010,0.1011,18.05,-438.29,185.91
311,302915442,-1.6245,0.9585,0.1035,9.02,-438.48,191.77
312,302920441,-1.6118,0.9150,0.1025,1.52,-438.41,197.32
313,302925442,-1.5928,0.8755,0.1113,-4.21,-438.11,202.74
314,302930441,-1.5962,0.8452,0.0991,-7.74,-437.68,207.20
315,302935442,-1.5557,0.8037,0.0830,-11.46,-436.71,213.48
316,302940441,-1.5156,0.7690,0.0571,-14.39,-436.22,218.66
317,302945440,-1.4941,0.7817,0.1172,-15.91,-435.37,222.80
318,302950442,-1.4653,0.7339,0.0874,-16.52,-434.15,228.84
319,302955444,-1.4072,0.7031,0.1255,-15.98,-432.62,233.84
320,302960441,-1.3628,0.6748,0.1294,-15.43,-430.79,238.17
321,302965442,-1.3325,0.6274,0.1187,-14.45,-428.11,244.51
322,302970442,-1.3247,0.6235,0.1089,-14.15,-426.34,248.78
323,302975442,-1.2788,0.5737,0.0977,-14.21,-424.09,254.21
324,302980441,-1.2690,0.5542,0.1006,-14.51,-422.01,259.57
325,302985442,-1.2646,0.5420,0.0898,-14.57,-419.57,264.94
326,302990441,-1.2344,0.5171,0.0845,-14.76,-417.13,270.43
327,302995442,-1.2026,0.4927,0.0869,-14.45,-414.51,275.91
328,303000441,-1.1753,0.4658,0.0913,-13.78,-411.77,281.22
329,303005442,-1.1479,0.4331,0.0962,-12.44,-408.48,286.95
330,303010441,-1.1216,0.4097,0.0981,-10.85,-405.18,292.68
331,303015442,-1.0889,0.3823,0.0972,-8.66,-401.34,298.29
332,303020441,-1.0410,0.3511,0.1074,-6.28,-397.07,304.45
333,303025442,-0.9873,0.3174,0.1074,-3.90,-392.38,310.43
334,303030442,-0.9458,0.2886,0.1060,-2.26,-387.26,316.59
335,303035442,-0.9219,0.2661,0.1030,-1.22,-382.07,322.56
336,303040442,-0.9287,0.2456,0.0728,-0.98,-376.83,328.54
337,303045440,-0.9619,0.2129,0.0474,-0.98,-371.89,334.51
338,303050548,-0.9624,0.1782,0.0083,-2.01,-366.40,341.83
339,303055444,-0.9551,0.1558,-0.0020,-2.80,-362.68,346.59
340,303060441,-0.9487,0.1279,-0.0166,-3.35,-358.35,352.50
341,303065442,-0.9409,0.1001,-0.0244,-3.35,-354.15,358.29
342,303070441,-0.9370,0.0708,-0.0356,-2.44,-349.51,364.21
343,303075589,-0.9263,0.0269,-0.0278,0.30,-344.15,371.59
344,303080441,-0.9126,0.0078,-0.0352,2.99,-340.49,376.59
345,303085442,-0.8901,-0.0244,-0.0303,7.20,-335.55,382.80
346,303090441,-0.8691,-0.0503,-0.0454,12.07,-330.43,388.96
347,303095442,-0.8564,-0.0786,-0.0459,17.93,-325.55,395.30
348,303100441,-0.8506,-0.1143,-0.0425,24.70,-320.18,401.83
349,303105442,-0.8657,-0.1328,-0.0474,31.95,-314.88,408.35
350,303110441,-0.9043,-0.1572,-0.0537,39.76,-309.57,415.06
351,303115440,-0.9629,-0.1812,-0.0605,47.99,-303.90,422.01
352,303120442,-1.0215,-0.2036,-0.0776,56.28,-298.60,429.09
353,303125463,-1.0781,-0.2271,-0.0815,64.33,-293.23,436.34
354,303130442,-1.1245,-0.2471,-0.0869,72.32,-287.56,443.72
355,303135442,-1.1582,-0.2681,-0.0850,79.76,-281.65,451.04
356,303140442,-1.1851,-0.2861,-0.0752,86.46,-275.67,458.41
357,303145440,-1.2217,-0.3071,-0.0552,92.87,-269.57,465.73
358,303150440,-1.2686,-0.3252,-0.0498,98.90,-263.17,473.05
359,303155442,-1.3047,-0.3359,-0.0483,104.02,-256.40,480.24
360,303160442,-1.4009,-0.3481,-0.0620,107.99,-249.70,487.56
361,303165442,-1.5127,-0.3662,-0.0430,110.85,-243.17,494.88
362,303170441,-1.6123,-0.3721,-0.0474,112.38,-236.59,501.83
363,303175442,-1.6987,-0.3892,-0.0483,112.74,-230.06,508.66
364,303180441,-1.7681,-0.3999,-0.0449,111.34,-223.72,515.12
365,303185443,-1.8198,-0.4023,-0.0513,107.87,-217.32,521.22
366,303190440,-1.8809,-0.4048,-0.0630,102.44,-211.22,526.77
367,303195445,-1.9478,-0.4053,-0.0620,94.82,-205.61,531.77
368,303200441,-2.0103,-0.4043,-0.0615,86.04,-200.30,536.04
369,303205442,-2.0669,-0.3994,-0.0547,75.67,-195.30,539.82
370,303210441,-2.1157,-0.4038,-0.0474,64.70,-190.85,542.80
371,303215442,-2.1519,-0.4106,-0.0293,52.99,-186.46,545.49
372,303220441,-2.1675,-0.4185,-0.0156,40.98,-182.56,547.56
373,303225442,-2.1758,-0.4150,-0.0054,28.60,-178.90,549.15
374,303230441,-2.1982,-0.4111,0.0039,16.04,-175.55,550.43
375,303235442,-2.2378,-0.3950,0.0142,3.41,-172.68,551.16
376,303240442,-2.2812,-0.3809,0.0322,-9.33,-170.12,551.10
377,303245443,-2.3242,-0.3711,0.0332,-22.32,-168.23,550.49
378,303250441,-2.3677,-0.3496,0.0308,-35.18,-166.59,549.39
379,303255461,-2.3789,-0.3608,-0.0054,-48.17,-166.04,547.93
380,303260442,-2.4521,-0.2642,0.0684,-61.04,-165.67,545.61
381,303265444,-2.4727,-0.3281,0.0347,-73.48,-165.49,542.56
382,303270441,-2.4595,-0.3521,0.0347,-85.30,-165.85,539.57
383,303275442,-2.4878,-0.3403,0.0503,-96.89,-166.59,536.22
384,303280441,-2.5366,-0.3452,0.0620,-107.93,-167.80,532.68
385,303285442,-2.6147,-0.3574,0.0693,-118.23,-169.09,528.90
386,303290441,-2.6992,-0.3403,0.1060,-127.87,-170.55,524.76
387,303295442,-2.7759,-0.3433,0.1118,-137.07,-172.01,520.18
388,303300441,-2.8418,-0.3325,0.1104,-146.04,-173.90,514.94
389,303305442,-2.9038,-0.3301,0.1133,-155.49,-176.10,509.15
390,303310441,-2.9497,-0.3247,0.1108,-165.49,-178.41,502.74
391,303315442,-2.9795,-0.3306,0.1030,-176.40,-181.46,495.98
392,303320441,-3.0586,-0.3550,0.0908,-187.80,-185.12,488.84
393,303325442,-3.0869,-0.3511,0.0825,-199.45,-189.21,481.16
394,303330441,-3.1035,-0.3589,0.0791,-210.91,-194.09,472.99
395,303335442,-3.1411,-0.3706,0.0732,-221.77,-199.27,464.27
396,303340441,-3.1812,-0.3940,0.0801,-231.71,-204.63,455.18
397,303345442,-3.2349,-0.3618,0.0298,-240.79,-210.49,445.61
398,303350441,-3.3018,-0.4053,0.0635,-248.84,-216.59,435.49
399,303355440,-3.3853,-0.4253,-0.0054,-256.34,-223.17,425.00
400,303360442,-3.4824,-0.4268,-0.0229,-262.99,-230.24,414.21
401,303365443,-3.5767,-0.4346,-0.0425,-269.15,-237.80,402.80
402,303370442,-3.6592,-0.4414,-0.0967,-274.51,-245.67,390.85
403,303375442,-3.7251,-0.4565,-0.1216,-278.54,-253.78,378.41
404,303380442,-3.7944,-0.4741,-0.1460,-281.52,-261.95,365.49
405,303385442,-3.8501,-0.4995,-0.1763,-283.41,-270.24,352.26
406,303390442,-3.9014,-0.5337,-0.1904,-283.54,-278.35,338.66
407,303395442,-3.9526,-0.5737,-0.2031,-282.13,-286.16,324.88
408,303400442,-3.9927,-0.6196,-0.2202,-278.90,-293.23,310.85
409,303405442,-4.0176,-0.6631,-0.2173,-273.66,-299.57,296.65
410,303410443,-4.0205,-0.6982,-0.2144,-266.28,-304.76,282.32
411,303415442,-4.0093,-0.7407,-0.2144,-257.44,-308.23,267.62
412,303420442,-3.9814,-0.7827,-0.2129,-247.87,-311.71,252.07
413,303425442,-3.9409,-0.8301,-0.2119,-237.99,-313.48,236.04
414,303430442,-3.8799,-0.8760,-0.2061,-229.15,-314.15,219.33
415,303435442,-3.7959,-0.9292,-0.2046,-221.77,-313.90,201.89
416,303440443,-3.7104,-0.9800,-0.2095,-217.13,-312.32,183.54
417,303445442,-3.6060,-1.0312,-0.1875,-215.55,-310.06,164.39
418,303450472,-3.4858,-1.0708,-0.1870,-216.89,-306.65,143.96
419,303455440,-3.3535,-1.1177,-0.1846,-221.34,-302.44,122.62
420,303460554,-3.2485,-1.1592,-0.1704,-229.21,-297.26,99.57
421,303465442,-3.1465,-1.1992,-0.1592,-239.70,-291.10,76.40
422,303470442,-3.0225,-1.2266,-0.1572,-252.20,-283.96,51.95
423,303475442,-2.8970,-1.2437,-0.1440,-265.67,-275.79,26.28
424,303480441,-2.7842,-1.2466,-0.1421,-279.88,-266.65,-0.30
425,303485440,-2.7090,-1.2759,-0.1440,-294.45,-256.16,-27.56
426,303490442,-2.6055,-1.2559,-0.1382,-308.41,-245.00,-55.49
427,303495442,-2.5122,-1.2305,-0.1426,-320.98,-232.87,-84.15
428,303500441,-2.4336,-1.2026,-0.1587,-332.01,-219.51,-113.05
429,303505442,-2.3730,-1.1685,-0.1709,-341.59,-205.30,-142.20
430,303510441,-2.3276,-1.1221,-0.1816,-349.39,-190.30,-171.28
431,303515440,-2.3086,-1.0693,-0.2007,-355.67,-174.45,-200.06
432,303520442,-2.3115,-1.0151,-0.2036,-360.30,-158.41,-228.48
433,303525442,-2.3423,-0.9590,-0.2246,-363.29,-141.65,-255.85
434,303530442,-2.4092,-0.8984,-0.2388,-364.82,-124.15,-282.07
435,303535442,-2.5010,-0.8398,-0.2397,-364.51,-106.40,-307.13
436,303540441,-2.5991,-0.7817,-0.2310,-362.80,-88.05,-330.67
437,303545442,-2.7075,-0.7173,-0.2290,-359.76,-68.66,-352.56
438,303550441,-2.8047,-0.6528,-0.2100,-356.22,-48.90,-373.11
439,303555440,-2.8838,-0.5791,-0.2134,-352.62,-28.66,-392.56
440,303560440,-2.9546,-0.4941,-0.2192,-349.63,-8.23,-411.10
441,303565442,-3.0010,-0.4263,-0.2300,-347.50,12.20,-428.60
442,303570442,-3.0361,-0.3618,-0.2446,-346.10,32.32,-445.55
443,303575442,-3.0713,-0.3018,-0.2598,-345.79,52.56,-461.71
444,303580441,-3.0898,-0.2441,-0.2759,-346.46,72.38,-477.32
445,303585442,-3.1055,-0.1875,-0.2964,-347.99,91.65,-491.89
446,303590442,-3.1157,-0.1348,-0.3159,-350.06,111.22,-506.04
447,303595442,-3.1426,-0.0859,-0.3315,-351.77,130.85,-519.27
448,303600441,-3.1675,-0.0449,-0.3398,-352.80,150.18,-531.83
449,303605442,-3.2163,-0.0176,-0.3525,-353.05,169.57,-543.41
450,303610441,-3.2710,0.0054,-0.3564,-352.62,189.09,-554.09
451,303615442,-3.3242,0.0225,-0.3711,-351.22,208.60,-563.60
452,303620441,-3.3667,0.0371,-0.3687,-348.84,228.17,-572.07
453,303625442,-3.3984,0.0645,-0.3711,-345.06,247.38,-579.57
454,303630441,-3.4087,0.1040,-0.3843,-339.88,266.16,-586.40
455,303635442,-3.4102,0.1523,-0.4004,-332.99,284.63,-593.05
456,303640441,-3.4067,0.2051,-0.4082,-324.57,302.38,-599.57
457,303645442,-3.4048,0.2632,-0.4268,-314.63,319.70,-606.16
458,303650442,-3.4106,0.3091,-0.4219,-302.87,336.16,-612.80
459,303655441,-3.4424,0.3452,-0.4312,-289.33,352.01,-619.21
460,303660442,-3.4780,0.3828,-0.4404,-274.02,366.89,-625.61
461,303665444,-3.5342,0.4170,-0.4561,-257.01,380.91,-631.89
462,303670441,-3.6040,0.4409,-0.4438,-238.72,393.72,-637.68
463,303675442,-3.6968,0.4624,-0.4404,-219.02,405.98,-642.93
464,303680441,-3.8101,0.4717,-0.4160,-198.78,417.68,-647.87
465,303685442,-3.9341,0.4683,-0.3784,-178.35,428.72,-652.13
466,303690441,-4.0283,0.4590,-0.3638,-158.23,439.09,-655.85
467,303695440,-4.1265,0.4990,-0.3574,-139.27,449.02,-659.15
468,303700442,-4.2466,0.5542,-0.3276,-122.07,458.11,-662.62
469,303705444,-4.3804,0.5957,-0.2969,-106.59,466.28,-666.40
470,303710441,-4.4819,0.6494,-0.2891,-91.65,473.54,-670.73
471,303715442,-4.5483,0.6895,-0.2822,-77.99,480.06,-675.37
472,303720442,-4.6099,0.7236,-0.2612,-66.22,485.67,-679.88
473,303725442,-4.6821,0.7568,-0.2534,-55.79,490.00,-684.27
474,303730442,-4.7793,0.8076,-0.2368,-45.00,493.72,-688.72
475,303735442,-4.9048,0.8599,-0.2178,-33.78,496.40,-692.87
476,303740441,-5.0615,0.9214,-0.2178,-23.11,497.87,-697.26
477,303745442,-5.2290,0.9707,-0.2324,-12.32,497.93,-701.71
478,303750443,-5.3892,1.0171,-0.2441,-0.37,496.71,-705.98
479,303755441,-5.5762,1.0557,-0.2856,10.49,493.66,-710.06
480,303760440,-5.7720,1.1079,-0.3301,20.98,489.09,-713.96
481,303765440,-5.9531,1.1338,-0.3521,31.40,482.62,-717.38
482,303770440,-6.1421,1.1978,-0.3999,40.00,474.76,-720.79
483,303775440,-6.3018,1.2744,-0.4395,47.80,465.98,-724.39
484,303781031,-6.4438,1.3687,-0.4556,56.22,456.40,-728.41
485,303785444,-6.5933,1.4595,-0.4341,64.70,446.71,-732.87
486,303790442,-6.7373,1.5298,-0.4229,75.37,437.20,-737.44
487,303795442,-6.8589,1.5767,-0.3896,86.77,427.93,-741.46
488,303800441,-7.0122,1.6523,-0.3442,97.44,419.09,-744.76
489,303805442,-7.1143,1.6870,-0.3003,108.29,411.28,-746.77
490,303810442,-7.2217,1.7192,-0.2695,117.32,403.78,-746.40
491,303815442,-7.3281,1.7251,-0.2817,121.77,396.95,-743.90
492,303820441,-7.3130,1.7017,-0.2754,121.34,390.30,-738.72
493,303825442,-7.1807,1.7075,-0.2969,113.54,384.09,-730.91
494,303830442,-6.9883,1.6943,-0.3066,96.28,378.90,-720.49
495,303835442,-6.7505,1.6836,-0.3281,70.18,375.24,-707.26
496,303840441,-6.5068,1.6719,-0.3599,35.98,373.35,-691.16
497,303845442,-6.2100,1.7148,-0.3315,-5.98,374.15,-672.26
498,303850441,-5.9858,1.6924,-0.3105,-51.89,378.66,-651.04
499,303855442,-5.7725,1.7051,-0.2900,-98.48,387.26,-627.07
500,303860441,-5.5874,1.6973,-0.2114,-147.38,399.09,-601.46
501,303865440,-5.4111,1.7207,-0.2720,-198.48,413.35,-574.33
502,303870442,-5.2988,1.7495,-0.2778,-249.51,429.39,-545.91
503,303875444,-5.2329,1.8032,-0.2686,-301.65,446.77,-517.32
504,303880441,-5.1958,1.8550,-0.2534,-352.13,465.61,-488.23
505,303885442,-5.1816,1.9316,-0.1987,-397.93,485.79,-458.66
506,303890442,-5.1899,1.9248,-0.1577,-438.23,506.59,-427.62
507,303895441,-5.2334,1.8857,-0.1763,-472.20,526.89,-394.45
508,303900442,-5.2705,1.8413,-0.1763,-499.70,545.37,-359.21
509,303905442,-5.2974,1.7925,-0.1724,-520.55,561.52,-321.89
510,303910442,-5.3086,1.7300,-0.1826,-534.63,574.70,-282.93
511,303915442,-5.3252,1.6621,-0.1870,-542.50,584.70,-243.29
512,303920443,-5.3384,1.6113,-0.1792,-544.94,591.28,-203.54
513,303925442,-5.3564,1.5659,-0.1855,-543.11,594.57,-164.15
514,303930442,-5.4062,1.5283,-0.1797,-537.99,594.76,-126.10
515,303935775,-5.4634,1.4829,-0.1465,-530.49,592.74,-89.70
516,303940442,-5.5161,1.4521,-0.1255,-521.16,588.66,-55.00
517,303945442,-5.5796,1.4175,-0.0972,-510.91,583.29,-22.38
518,303950443,-5.6724,1.3848,-0.0815,-500.67,576.65,8.78
519,303955442,-5.7861,1.3706,-0.0439,-490.61,569.27,38.29
520,303960442,-5.8677,1.3579,-0.0015,-480.73,561.52,66.89
521,303965441,-5.8662,1.3179,0.0366,-470.61,553.66,94.15
522,303970442,-5.8052,1.2710,0.0728,-460.12,545.49,121.22
523,303975443,-5.7012,1.2104,0.0903,-449.33,537.38,147.26
524,303980442,-5.6011,1.1548,0.0850,-438.72,528.60,172.50
525,303985442,-5.5000,1.1079,0.0547,-429.33,518.60,196.71
526,303990442,-5.3774,1.0684,0.0225,-421.10,507.32,219.57
527,303995442,-5.2896,1.0459,-0.0103,-413.96,494.70,240.98
528,304000443,-5.2227,1.0278,-0.0391,-407.50,480.55,260.91
529,304005454,-5.1362,1.0308,-0.0664,-402.01,465.12,279.27
530,304010443,-5.1377,1.0532,-0.0718,-397.07,448.78,295.98
531,304015442,-5.1484,1.0576,-0.0850,-392.44,431.77,310.85
532,304020442,-5.1475,1.0835,-0.0811,-387.74,414.33,324.51
533,304025442,-5.1436,1.0835,-0.0859,-382.26,396.95,336.52
534,304030443,-5.1123,1.0830,-0.0864,-376.77,379.39,347.26
535,304035442,-5.0581,1.1030,-0.0664,-370.61,361.77,356.46
536,304040442,-5.3472,1.0078,0.1216,-365.00,343.48,364.15
537,304045442,-5.6748,-2.7388,9.6152,-855.00,202.32,310.30
538,304050443,-4.0010,-1.7041,2.8945,-967.32,191.10,314.88
539,304055442,-3.3740,0.7690,-1.7920,-933.60,170.06,329.45
540,304060442,-3.7974,1.9243,1.0962,-868.96,135.18,341.22
541,304065442,-4.0337,1.3003,1.8501,-807.99,126.52,349.51
542,304070442,-4.0503,0.9438,-0.4473,-752.50,104.27,354.63
543,304075442,-4.2671,1.2261,-0.3896,-702.50,75.91,355.49
544,304080443,-4.3867,1.3120,0.5171,-666.40,60.18,353.96
545,304085442,-4.3413,1.1992,-0.0269,-612.38,30.85,350.49
546,304090442,-4.2930,1.2593,-0.2017,-574.39,9.76,347.87
547,304095442,-4.1348,1.1118,0.2012,-523.96,-10.24,345.43
548,304100442,-3.9233,0.9487,0.0732,-469.02,-27.93,344.09
549,304105706,-3.8340,0.9043,0.1318,-398.60,-45.12,343.72
550,304110443,-3.7847,0.9189,0.2354,-349.88,-54.02,343.72
551,304115442,-3.7432,0.8369,0.3315,-287.50,-62.38,344.76
552,304120443,-3.6353,0.7734,0.3232,-225.55,-67.99,347.01
553,304125442,-3.5195,0.7310,0.3345,-167.13,-71.83,349.88
554,304130443,-3.4507,0.7031,0.3335,-114.45,-74.45,352.62
555,304135440,-3.3911,0.6865,0.3003,-61.16,-76.95,355.12
556,304140442,-3.3516,0.6670,0.2891,-31.40,-78.17,356.40
557,304145442,-3.2764,0.6274,0.2944,-0.30,-79.09,357.62
558,304150442,-3.1816,0.5811,0.3271,25.00,-79.27,358.84
559,304155442,-3.0591,0.5103,0.3564,45.06,-78.48,360.06
560,304160442,-3.0039,0.4697,0.3950,59.82,-77.01,361.16
561,304165442,-2.9722,0.5015,0.3833,69.57,-75.30,361.65
562,304170443,-2.9082,0.5024,0.3760,74.82,-73.41,361.10
563,304175440,-2.8115,0.4697,0.3765,75.73,-71.71,359.63
564,304180442,-2.7202,0.4424,0.3809,72.99,-70.06,357.68
565,304185443,-2.6265,0.4326,0.3799,67.38,-68.78,355.18
566,304190441,-2.5400,0.4302,0.3872,59.33,-67.68,352.20
567,304195445,-2.4521,0.4185,0.3818,49.70,-66.83,348.54
568,304200442,-2.3452,0.4116,0.3838,38.41,-66.40,344.27
569,304205442,-2.2549,0.3843,0.3760,26.22,-66.34,339.51
570,304210443,-2.1641,0.3774,0.3726,13.54,-66.65,334.39
571,304215440,-2.0840,0.3589,0.3760,0.49,-67.50,328.84
572,304220442,-2.0034,0.3604,0.3638,-12.62,-68.54,323.11
573,304225443,-1.9214,0.3438,0.3594,-25.37,-70.00,317.01
574,304230442,-1.8423,0.3418,0.3521,-37.62,-71.46,310.73
575,304235440,-1.7729,0.3364,0.3340,-48.84,-73.60,304.21
576,304240442,-1.7144,0.3354,0.3057,-59.09,-76.16,297.44
577,304245444,-1.6504,0.3218,0.2969,-67.80,-79.15,290.55
578,304250441,-1.5815,0.2939,0.3018,-74.63,-82.32,283.90
579,304255442,-1.5137,0.2700,0.3115,-79.09,-85.30,277.32
580,304260442,-1.4473,0.2490,0.3218,-80.73,-88.11,271.04
581,304265442,-1.3989,0.2388,0.3369,-79.82,-90.24,265.00
582,304270441,-1.3579,0.2329,0.3594,-76.52,-91.95,258.90
583,304275442,-1.3320,0.2163,0.3799,-71.10,-92.80,253.17
584,304280442,-1.2734,0.2222,0.4038,-63.72,-92.93,247.56
585,304285442,-1.2251,0.2495,0.3955,-55.79,-91.77,241.83
586,304290441,-1.1963,0.1445,0.4458,-47.13,-90.49,236.52
587,304295442,-1.1851,0.1533,0.3687,-37.80,-88.96,231.65
588,304300442,-1.1504,0.1665,0.3721,-27.87,-87.68,226.65
589,304305442,-1.0967,0.1948,0.3784,-17.68,-85.67,221.34
590,304310441,-1.0005,0.1338,0.4043,-6.52,-83.60,216.28
591,304315442,-0.8901,0.0996,0.3779,5.67,-81.28,211.77
592,304320441,-0.7695,0.0732,0.4048,18.54,-78.41,207.62
593,304325442,-0.5942,0.0762,0.4966,30.85,-74.70,203.72
594,304330441,-0.5664,0.0098,0.3096,42.32,-71.46,200.12
595,304335749,-0.5034,0.0669,0.4321,55.30,-67.68,196.10
596,304340443,-0.4717,-0.0498,0.5029,62.93,-64.15,193.23
597,304345441,-0.4751,0.0332,0.4351,71.65,-59.57,189.76
598,304350440,-0.4111,0.0391,0.4160,80.37,-55.79,185.73
599,304355442,-0.2891,0.0430,0.4756,88.48,-51.71,181.52
600,304360443,-0.1797,0.0386,0.4619,95.67,-47.56,177.26
601,304365442,-0.0781,0.0200,0.4360,101.34,-43.84,172.68
602,304370442,0.0205,0.0312,0.4248,105.79,-40.43,167.68
603,304375441,0.0972,0.0547,0.4229,108.60,-37.74,162.01
604,304380442,0.1577,0.0742,0.3901,109.76,-35.55,155.85
605,304385443,0.2080,0.0596,0.3882,109.51,-34.09,149.27
606,304390442,0.2549,0.0498,0.3892,108.35,-33.23,142.32
607,304395442,0.3027,0.0190,0.3857,106.22,-32.99,135.37
608,304400440,0.3467,0.0049,0.4141,103.96,-33.05,128.35
609,304405442,0.3838,-0.0317,0.4429,101.34,-33.23,121.65
610,304410442,0.4126,-0.0435,0.4600,98.54,-33.29,115.18
611,304415442,0.4341,-0.0391,0.4829,95.67,-33.48,108.60
612,304420441,0.4653,-0.0464,0.5146,92.26,-33.60,102.07
613,304425442,0.4785,-0.0522,0.5283,88.96,-33.78,95.49
614,304430441,0.4780,-0.0454,0.5400,85.73,-33.96,88.23
615,304435442,0.4810,-0.0337,0.5513,82.87,-34.15,82.74
616,304440441,0.4751,-0.0322,0.5664,80.43,-34.33,76.16
617,304445442,0.4712,-0.0234,0.5688,78.54,-34.76,69.63
618,304450441,0.4639,-0.0156,0.5747,77.50,-34.94,63.48
619,304455442,0.4521,-0.0083,0.5835,76.89,-35.49,57.50
620,304460441,0.4478,-0.0029,0.5923,76.77,-35.79,51.65
621,304465442,0.4468,0.0073,0.5874,77.20,-36.04,46.04
622,304470441,0.4390,0.0234,0.5854,77.87,-36.28,40.55
623,304475443,0.4375,0.0381,0.5923,78.66,-36.71,35.12
624,304480441,0.4370,0.0645,0.5830,80.00,-36.95,29.76
625,304485442,0.4380,0.0938,0.5830,81.65,-37.38,24.39
626,304490442,0.4453,0.1108,0.5889,83.66,-37.87,19.27
627,304495442,0.4565,0.1230,0.5869,86.34,-38.35,14.21
628,304500441,0.4692,0.1387,0.5962,89.51,-38.78,9.45
629,304505442,0.4717,0.1499,0.6123,93.05,-38.90,4.82
630,304510441,0.4678,0.1646,0.6060,96.46,-39.21,0.61
631,304515442,0.4595,0.1831,0.6099,99.94,-39.51,-3.54
632,304520442,0.4473,0.1992,0.6040,102.99,-40.06,-7.56
633,304525440,0.4502,0.2212,0.6016,105.37,-40.79,-11.52
634,304530442,0.4531,0.2417,0.6001,107.01,-41.65,-15.37
635,304535443,0.4497,0.2598,0.5952,107.74,-42.56,-19.27
636,304540442,0.4561,0.2725,0.5864,107.68,-44.09,-23.11
637,304545442,0.4590,0.2974,0.5762,106.83,-45.30,-26.83
638,304550442,0.4702,0.3267,0.5806,105.12,-46.71,-30.73
639,304555467,0.4736,0.3481,0.5630,103.11,-48.05,-34.76
640,304560442,0.4849,0.3662,0.5635,100.49,-49.70,-38.60
641,304565443,0.4839,0.3774,0.5498,97.56,-51.52,-42.62
642,304570442,0.4912,0.3921,0.5430,94.70,-53.23,-46.40
643,304575442,0.4902,0.4170,0.5405,91.65,-54.76,-50.30
644,304580442,0.4858,0.4385,0.5249,88.96,-56.46,-54.15
645,304585440,0.4849,0.4521,0.5234,86.16,-58.23,-58.05
646,304590442,0.4844,0.4580,0.5161,83.35,-59.70,-61.77
647,304595443,0.4810,0.4741,0.5000,80.67,-61.22,-65.49
648,304600442,0.4741,0.4897,0.4839,78.29,-62.99,-69.21
649,304605442,0.4722,0.4966,0.4785,75.91,-64.51,-72.80
650,304610442,0.4756,0.5171,0.4619,73.84,-66.22,-76.52
651,304615442,0.4800,0.5239,0.4463,72.01,-67.87,-80.18
652,304620443,0.4868,0.5322,0.4434,70.43,-69.51,-83.72
653,304625442,0.4761,0.5410,0.4302,69.27,-71.04,-87.07
654,304630442,0.4575,0.5439,0.4028,68.48,-72.80,-90.49
655,304635442,0.4390,0.5562,0.3945,67.68,-74.45,-93.78
656,304640442,0.4116,0.5723,0.3828,67.32,-76.34,-97.07
657,304645442,0.3853,0.5747,0.3623,67.38,-78.17,-100.18
658,304650442,0.3569,0.5825,0.3501,67.50,-80.00,-103.23
659,304655442,0.3413,0.5825,0.3389,67.99,-82.01,-106.16
660,304660442,0.3125,0.5830,0.3271,68.72,-84.09,-108.90
661,304665442,0.2944,0.5850,0.3066,69.63,-86.16,-111.46
662,304670442,0.2739,0.5933,0.2983,70.67,-88.11,-113.84
663,304675442,0.2612,0.5879,0.2842,71.89,-90.30,-116.10
664,304680442,0.2490,0.5942,0.2695,73.23,-92.68,-118.17
665,304685440,0.2397,0.6001,0.2471,74.51,-94.63,-120.12
666,304690442,0.2227,0.6021,0.2280,75.61,-97.07,-121.89
667,304695444,0.2134,0.6113,0.2065,76.52,-99.57,-123.48
668,304700441,0.2065,0.6123,0.1953,77.38,-102.07,-125.00
669,304705442,0.1987,0.6138,0.1689,77.68,-104.63,-126.28
670,304710441,0.1787,0.6416,0.1455,77.80,-107.44,-127.68
671,304715442,0.1636,0.6172,0.1143,77.56,-110.30,-128.54
672,304720441,0.1348,0.6094,0.0845,77.38,-113.54,-129.09
673,304725442,0.1167,0.6221,0.1064,77.20,-116.34,-129.39
674,304730442,0.0933,0.6216,0.0874,77.26,-119.02,-129.63
675,304735442,0.0698,0.6226,0.0630,77.38,-121.46,-129.63
676,304740441,0.0513,0.6250,0.0459,77.56,-124.02,-129.45
677,304745440,0.0410,0.6265,0.0381,77.56,-126.34,-129.15
678,304750547,0.0332,0.6279,-0.0005,77.44,-128.60,-128.60
679,304755442,0.0239,0.6411,-0.0293,77.01,-130.79,-128.23
680,304760442,0.0278,0.6602,-0.0547,76.22,-132.99,-127.80
681,304765444,0.0249,0.6699,-0.0840,75.24,-135.30,-127.44
682,304770442,0.0093,0.6909,-0.1094,73.96,-137.74,-126.95
683,304775442,-0.0068,0.7114,-0.1436,72.38,-139.88,-126.71
684,304780441,-0.0264,0.7314,-0.1821,70.73,-141.89,-126.52
685,304785441,-0.0439,0.7432,-0.2041,69.02,-144.15,-126.28
686,304790440,-0.0610,0.7549,-0.2266,67.20,-145.73,-126.10
687,304795442,-0.0796,0.7666,-0.2495,65.79,-147.56,-125.73
688,304800444,-0.1152,0.7778,-0.2656,64.21,-148.84,-125.24
689,304805442,-0.1538,0.7778,-0.2959,62.74,-149.76,-124.82
690,304810441,-0.1836,0.7935,-0.3267,61.34,-150.55,-124.15
691,304815442,-0.2046,0.8066,-0.3516,59.82,-151.22,-123.48
692,304820441,-0.2148,0.8130,-0.3818,58.54,-151.46,-122.56
693,304825442,-0.2163,0.8340,-0.4062,57.50,-151.52,-121.71
694,304830441,-0.2578,0.8062,-0.4321,56.65,-151.34,-120.49
695,304835442,-0.2773,0.8218,-0.4380,55.98,-150.73,-118.84
696,304840441,-0.2954,0.8354,-0.4683,55.73,-149.63,-117.13
697,304845442,-0.3140,0.8452,-0.4731,55.37,-148.35,-114.94
698,304850441,-0.3247,0.8472,-0.4839,54.57,-146.59,-112.80
699,304855442,-0.3315,0.8521,-0.5083,53.05,-144.76,-110.61
700,304860441,-0.3350,0.8589,-0.5283,50.49,-142.87,-108.48
701,304865442,-0.3481,0.8696,-0.5386,46.83,-140.98,-106.28
702,304870442,-0.3535,0.8701,-0.5576,42.26,-138.90,-104.39
703,304875442,-0.3564,0.8711,-0.5718,36.71,-136.83,-102.50
704,304880441,-0.3540,0.8696,-0.5742,30.24,-134.88,-100.73
705,304885443,-0.3438,0.8682,-0.5776,23.05,-132.68,-99.21
706,304890441,-0.3286,0.8770,-0.5947,15.12,-130.79,-97.93
707,304895442,-0.3198,0.8862,-0.6123,7.01,-128.78,-97.01
708,304900442,-0.3203,0.8872,-0.6230,-1.22,-127.13,-96.04
709,304905442,-0.3311,0.8960,-0.6274,-9.15,-125.43,-95.37
710,304910441,-0.3345,0.8984,-0.6206,-16.22,-123.66,-94.51
711,304915442,-0.3252,0.9058,-0.6250,-22.50,-121.95,-93.96
712,304920441,-0.3101,0.9106,-0.6250,-27.93,-120.00,-93.78
713,304925442,-0.2925,0.9170,-0.6255,-32.07,-118.17,-93.48
714,304930441,-0.2905,0.9224,-0.6274,-35.37,-116.52,-93.35
715,304935440,-0.2959,0.9209,-0.6167,-37.62,-114.57,-93.05
716,304940442,-0.2998,0.9204,-0.6245,-39.21,-112.93,-93.05
717,304945443,-0.3008,0.9194,-0.6104,-39.94,-111.40,-92.99
718,304950442,-0.2979,0.9224,-0.6128,-40.06,-109.82,-92.99
719,304955441,-0.2998,0.9243,-0.6074,-39.39,-108.60,-92.93
720,304960443,-0.2944,0.9272,-0.6006,-38.23,-107.56,-93.05
721,304965442,-0.2939,0.9351,-0.6079,-36.40,-106.46,-93.05
722,304970443,-0.2998,0.9468,-0.6064,-33.78,-105.91,-93.17
723,304975441,-0.3096,0.9512,-0.6157,-30.85,-105.12,-93.11
724,304980442,-0.3218,0.9697,-0.6118,-27.01,-104.57,-93.17
725,304985442,-0.3433,0.9824,-0.6104,-22.44,-104.09,-93.11
726,304990442,-0.3652,0.9893,-0.6016,-16.95,-103.90,-93.11
727,304995696,-0.3818,0.9966,-0.5957,-10.85,-103.41,-92.74
728,305000443,-0.3970,1.0044,-0.5938,-4.27,-102.80,-92.26
729,305005442,-0.4136,1.0054,-0.5859,2.68,-102.38,-91.77
730,305010441,-0.4238,1.0088,-0.5781,9.51,-101.77,-91.10
731,305015442,-0.4307,1.0068,-0.5659,16.16,-101.22,-90.37
732,305020441,-0.4321,1.0015,-0.5586,22.44,-100.85,-89.45
733,305025442,-0.4375,0.9937,-0.5508,28.05,-100.18,-88.35
734,305030441,-0.4473,0.9878,-0.5381,32.74,-99.51,-87.26
735,305035442,-0.4648,0.9849,-0.5391,36.52,-98.96,-85.91
736,305040441,-0.4731,0.9780,-0.5391,39.39,-98.29,-84.63
737,305045442,-0.4771,0.9688,-0.5347,41.40,-97.99,-83.05
738,305050442,-0.4751,0.9609,-0.5273,42.87,-97.20,-81.46
739,305055529,-0.4775,0.9526,-0.5225,43.54,-96.52,-79.82
740,305060442,-0.4819,0.9492,-0.5137,43.54,-95.67,-78.17
741,305065443,-0.4946,0.9463,-0.5142,43.05,-94.70,-76.40
742,305070442,-0.5146,0.9507,-0.5176,42.07,-94.15,-74.82
743,305075441,-0.5317,0.9492,-0.5093,40.61,-92.93,-73.29
744,305080442,-0.5508,0.9487,-0.5083,39.15,-92.13,-71.83
745,305085442,-0.5649,0.9482,-0.5098,37.62,-90.61,-70.18
746,305090442,-0.5684,0.9478,-0.4912,36.04,-89.45,-68.66
747,305095440,-0.5669,0.9390,-0.4922,34.57,-88.05,-67.20
748,305100441,-0.5659,0.9326,-0.4819,33.23,-86.40,-65.61
749,305105444,-0.5688,0.9355,-0.4712,31.71,-84.94,-64.21
750,305110441,-0.5854,0.9307,-0.4756,29.94,-83.41,-62.87
751,305115442,-0.6172,0.9331,-0.4927,28.23,-82.01,-61.59
752,305120442,-0.6396,0.9336,-0.5000,27.01,-80.85,-60.37
753,305125442,-0.6514,0.9321,-0.4951,26.59,-79.88,-59.33
754,305130441,-0.6484,0.9355,-0.4824,27.07,-78.72,-58.41
755,305135442,-0.6367,0.9316,-0.4692,28.90,-77.32,-57.38
756,305140441,-0.6328,0.9292,-0.4683,31.77,-75.91,-56.59
757,305145442,-0.6323,0.9302,-0.4604,35.55,-74.39,-55.61
758,305150441,-0.6406,0.9272,-0.4585,39.76,-72.62,-54.63
759,305155442,-0.6436,0.9233,-0.4600,44.09,-70.98,-53.78
760,305160441,-0.6411,0.9209,-0.4546,48.29,-69.57,-53.05
761,305165442,-0.6460,0.9185,-0.4546,52.32,-68.17,-52.26
762,305170441,-0.6538,0.9160,-0.4556,55.98,-66.77,-51.40
763,305175442,-0.6641,0.9209,-0.4595,59.33,-65.55,-50.79
764,305180441,-0.6631,0.9136,-0.4531,62.07,-64.45,-50.00
765,305185442,-0.6616,0.9087,-0.4497,64.63,-63.17,-49.21
766,305190440,-0.6562,0.9043,-0.4448,66.28,-62.26,-48.48
767,305195786,-0.6597,0.8979,-0.4370,68.48,-60.55,-47.44
768,305200443,-0.6582,0.8901,-0.4399,69.45,-59.45,-46.65
769,305205442,-0.6523,0.8867,-0.4243,70.18,-57.87,-45.37
770,305210442,-0.6523,0.8809,-0.4316,70.24,-56.77,-44.57
771,305215441,-0.6533,0.8760,-0.4238,69.27,-55.18,-43.29
772,305220442,-0.6558,0.8677,-0.4175,68.41,-54.15,-42.38
773,305225442,-0.6689,0.8604,-0.4136,66.52,-52.80,-41.28
774,305230443,-0.6802,0.8589,-0.4180,64.27,-51.46,-40.24
775,305235441,-0.6865,0.8569,-0.4160,61.77,-50.30,-39.15
776,305240442,-0.6802,0.8501,-0.4053,59.09,-49.02,-38.11
777,305245442,-0.6685,0.8472,-0.3999,56.40,-47.80,-37.07
778,305250442,-0.6577,0.8359,-0.3965,53.60,-46.59,-35.98
779,305255441,-0.6548,0.8320,-0.3979,50.79,-45.37,-35.06
780,305260442,-0.6475,0.8276,-0.3862,47.87,-44.09,-34.09
781,305265442,-0.6494,0.8213,-0.3848,44.88,-42.87,-33.23
782,305270442,-0.6587,0.8184,-0.3945,41.65,-41.83,-32.44
783,305275441,-0.6665,0.8179,-0.3945,38.29,-40.91,-31.71
784,305280443,-0.6665,0.8149,-0.3940,34.76,-39.94,-30.98
785,305285442,-0.6577,0.8105,-0.3823,31.65,-39.02,-30.30
786,305290442,-0.6572,0.8076,-0.3735,28.60,-38.05,-29.57
787,305295441,-0.6528,0.8003,-0.3750,25.79,-37.07,-29.15
788,305300442,-0.6553,0.8022,-0.3657,23.11,-36.04,-28.54
789,305305442,-0.6592,0.8003,-0.3628,20.55,-34.94,-27.87
790,305310443,-0.6753,0.7993,-0.3623,17.93,-34.02,-27.44
791,305315441,-0.6768,0.7935,-0.3618,15.43,-33.05,-26.89
792,305320442,-0.6768,0.7910,-0.3535,13.60,-32.20,-26.46
793,305325442,-0.6646,0.7852,-0.3574,11.89,-31.28,-25.85
794,305330442,-0.6631,0.7866,-0.3481,10.73,-30.30,-25.43
795,305335441,-0.6650,0.7842,-0.3354,10.00,-29.45,-25.06
796,305340443,-0.6704,0.7783,-0.3306,9.45,-28.29,-24.51
797,305345442,-0.6753,0.7803,-0.3374,9.39,-27.38,-24.15
798,305350442,-0.6797,0.7788,-0.3257,9.70,-26.40,-23.78
799,305355441,-0.6777,0.7749,-0.3257,10.12,-25.49,-23.41
800,305360442,-0.6675,0.7695,-0.3164,10.85,-24.39,-23.17
801,305365442,-0.6562,0.7666,-0.3066,11.95,-23.35,-22.87
802,305370442,-0.6484,0.7593,-0.3047,13.05,-22.50,-22.56
803,305375441,-0.6465,0.7544,-0.3042,14.15,-21.59,-22.07
804,305380443,-0.6450,0.7490,-0.3032,14.94,-20.85,-21.71
805,305385442,-0.6431,0.7441,-0.3013,15.67,-20.18,-21.40
806,305390442,-0.6440,0.7397,-0.2944,16.16,-19.57,-20.98
807,305395441,-0.6382,0.7412,-0.2920,16.52,-18.90,-20.55
808,305400446,-0.6431,0.7334,-0.2871,16.71,-18.54,-20.30
809,305405442,-0.6411,0.7300,-0.2754,16.83,-18.05,-19.94
810,305410443,-0.6406,0.7256,-0.2749,16.77,-17.68,-19.70
811,305415441,-0.6440,0.7212,-0.2754,16.46,-17.38,-19.33
812,305420442,-0.6519,0.7202,-0.2705,15.91,-16.95,-19.09
813,305425442,-0.6499,0.7192,-0.2734,15.24,-16.77,-18.96
814,305430442,-0.6494,0.7144,-0.2656,14.45,-16.71,-18.90
815,305435440,-0.6436,0.7090,-0.2637,13.54,-16.46,-18.66
816,305440442,-0.6436,0.7031,-0.2598,12.74,-16.34,-18.35
817,305445443,-0.6372,0.7002,-0.2573,11.77,-16.16,-18.29
818,305450442,-0.6333,0.6987,-0.2583,11.04,-16.16,-18.17
819,305455441,-0.6382,0.6909,-0.2554,9.94,-16.16,-18.17
820,305460443,-0.6387,0.6880,-0.2471,8.96,-16.22,-17.99
821,305465441,-0.6353,0.6860,-0.2505,7.99,-16.28,-17.80
