# skilleye imu stream v1
# device=xiao_esp32c6 imu=mpu6050 addr=0x68
# rate_hz=200 accel_range_g=16 gyro_range_dps=2000 dlpf_hz=94
# units: accel in g, gyro in deg/s, t_us in microseconds since boot (monotonic)
# no shared clock with the camera -- tap the racket once before each take
# so both recordings share a spike to align on
seq,t_us,ax,ay,az,gx,gy,gz
0,128519514,0.5752,0.8418,0.3174,-7.32,-12.01,20.43
1,128524517,0.5874,0.8472,0.3115,-7.01,-11.95,21.16
2,128529516,0.5977,0.8511,0.3052,-6.59,-11.89,22.01
3,128534516,0.6104,0.8516,0.3066,-6.28,-11.89,22.74
4,128539515,0.6250,0.8555,0.3022,-6.16,-11.77,23.60
5,128544516,0.6367,0.8530,0.3071,-6.10,-11.77,24.33
6,128549515,0.6387,0.8472,0.3130,-6.10,-11.71,25.00
7,128554516,0.6465,0.8442,0.3096,-6.40,-11.65,25.37
8,128559516,0.6494,0.8403,0.3062,-7.07,-11.71,25.79
9,128564516,0.6489,0.8403,0.3188,-7.80,-11.52,25.91
10,128569514,0.6484,0.8379,0.3159,-8.60,-11.52,26.04
11,128574516,0.6489,0.8340,0.3184,-9.70,-11.34,25.98
12,128579515,0.6533,0.8306,0.3169,-10.98,-11.52,26.16
13,128584516,0.6523,0.8262,0.3223,-12.13,-11.71,26.04
14,128589514,0.6519,0.8242,0.3188,-13.54,-11.95,25.98
15,128594514,0.6484,0.8130,0.3159,-15.12,-12.32,26.10
16,128599516,0.6396,0.8071,0.3105,-16.59,-12.87,26.04
17,128604516,0.6338,0.7949,0.3052,-18.35,-13.35,26.28
18,128609517,0.6240,0.7852,0.3047,-19.82,-13.90,26.46
19,128614516,0.6128,0.7720,0.3032,-21.16,-14.21,26.95
20,128619516,0.6089,0.7622,0.2998,-22.32,-14.82,27.50
21,128624514,0.6021,0.7554,0.3027,-23.29,-15.24,27.99
22,128629517,0.5923,0.7476,0.3037,-24.15,-15.55,28.66
23,128634516,0.5796,0.7432,0.3066,-24.63,-16.04,29.21
24,128639515,0.5737,0.7275,0.3096,-25.00,-16.22,29.76
25,128644516,0.5669,0.7202,0.3086,-25.24,-16.65,30.30
26,128649516,0.5557,0.7144,0.3052,-25.18,-16.77,30.91
27,128654586,0.5493,0.7085,0.3076,-24.94,-17.26,31.65
28,128659515,0.5459,0.6978,0.2998,-24.45,-17.74,32.44
29,128664518,0.5361,0.6929,0.2959,-23.60,-18.35,33.41
30,128669514,0.5288,0.6855,0.3018,-22.38,-18.84,34.39
31,128674516,0.5317,0.6782,0.2969,-21.16,-19.63,35.43
32,128679515,0.5229,0.6680,0.2832,-19.51,-20.37,36.65
33,128684516,0.5273,0.6665,0.2974,-17.74,-21.34,37.87
34,128689514,0.5259,0.6606,0.2725,-15.91,-22.44,39.09
35,128694518,0.5200,0.6543,0.2778,-13.96,-23.84,40.37
36,128699515,0.5210,0.6460,0.2754,-11.77,-25.37,41.46
37,128704516,0.5225,0.6377,0.2720,-9.27,-26.89,42.62
38,128709514,0.5215,0.6299,0.2744,-6.65,-28.60,43.60
39,128714514,0.5176,0.6299,0.2754,-3.54,-30.30,44.57
40,128719518,0.5020,0.6299,0.2734,-0.67,-32.32,45.37
41,128724515,0.5039,0.6279,0.2998,2.74,-34.15,46.10
42,128729516,0.5225,0.6416,0.3081,6.28,-36.34,46.52
43,128734518,0.5420,0.6470,0.3105,9.82,-38.60,46.83
44,128739514,0.5645,0.6646,0.3301,13.72,-40.61,46.65
45,128744516,0.6025,0.6758,0.3442,17.87,-42.68,46.34
46,128749515,0.6279,0.6743,0.3418,21.77,-44.45,45.55
47,128754518,0.6460,0.6748,0.3403,25.49,-46.52,44.51
48,128759636,0.6543,0.6646,0.3311,28.84,-48.35,43.60
49,128764516,0.6602,0.6475,0.3262,31.59,-50.37,42.56
50,128769515,0.6675,0.6411,0.3188,33.78,-52.87,41.52
51,128774516,0.6748,0.6367,0.3271,35.73,-55.18,40.73
52,128779514,0.6772,0.6392,0.3198,37.13,-57.74,39.57
53,128784516,0.6870,0.6426,0.3076,38.41,-60.49,38.35
54,128789515,0.6992,0.6377,0.3174,39.39,-63.05,37.07
55,128794516,0.7148,0.6333,0.3169,40.49,-65.73,35.79
56,128799516,0.7168,0.6357,0.3179,41.71,-68.41,34.57
57,128805058,0.7275,0.6348,0.3149,43.11,-70.85,33.35
58,128809516,0.7319,0.6353,0.3135,45.12,-73.23,32.13
59,128814516,0.7349,0.6377,0.3179,47.62,-75.49,30.79
60,128819516,0.7417,0.6333,0.3154,50.61,-77.74,29.51
61,128824517,0.7466,0.6387,0.3149,54.27,-79.57,28.23
62,128829516,0.7544,0.6294,0.3076,58.23,-81.59,27.32
63,128834516,0.7622,0.6196,0.3081,62.80,-83.23,26.34
64,128839516,0.7705,0.6138,0.3052,67.80,-84.94,25.67
65,128844515,0.7700,0.6123,0.3003,73.05,-86.10,24.82
66,128849516,0.7729,0.6113,0.2983,78.48,-87.62,24.15
67,128854863,0.7759,0.6040,0.2930,84.15,-88.72,23.54
68,128859517,0.7754,0.6040,0.2817,89.63,-89.76,22.99
69,128864516,0.7725,0.5991,0.2720,95.06,-90.79,22.50
70,128869516,0.7734,0.5942,0.2739,100.30,-91.89,22.01
71,128874515,0.7725,0.5864,0.2568,105.30,-92.32,21.65
72,128879516,0.7715,0.5771,0.2539,110.06,-92.87,21.46
73,128884516,0.7642,0.5645,0.2344,114.63,-93.72,21.16
74,128889516,0.7622,0.5562,0.2266,119.09,-94.39,21.04
75,128894517,0.7617,0.5474,0.2231,123.54,-94.94,20.91
76,128899516,0.7622,0.5371,0.2109,128.23,-95.24,20.91
77,128904516,0.7583,0.5205,0.2085,131.46,-95.49,20.91
78,128909516,0.7578,0.5132,0.2017,135.73,-95.67,20.98
79,128914518,0.7617,0.5039,0.1909,140.00,-95.79,21.10
80,128919514,0.7603,0.5034,0.1831,144.02,-95.85,21.16
81,128924516,0.7642,0.5088,0.1787,147.87,-95.98,21.22
82,128929515,0.7656,0.5127,0.1655,151.77,-95.85,21.10
83,128934559,0.7646,0.5220,0.1548,155.37,-96.22,21.04
84,128939516,0.7666,0.5200,0.1431,158.78,-95.98,20.79
85,128944516,0.7656,0.5088,0.1333,161.77,-95.85,20.55
86,128949515,0.7642,0.4966,0.1343,164.21,-95.73,20.37
87,128954518,0.7676,0.4795,0.1196,166.40,-95.79,20.24
88,128959515,0.7661,0.4648,0.1060,168.35,-95.67,20.06
89,128964703,0.7598,0.4517,0.0918,170.12,-95.49,19.94
90,128969516,0.7583,0.4312,0.0850,171.77,-95.49,19.88
91,128974517,0.7529,0.4297,0.0732,173.35,-95.61,19.82
92,128979518,0.7583,0.4277,0.0615,174.82,-95.79,19.57
93,128984516,0.7627,0.4292,0.0498,176.10,-95.98,19.39
94,128989515,0.7690,0.4204,0.0439,177.38,-96.22,19.15
95,128994518,0.7710,0.4097,0.0356,178.41,-96.59,18.72
96,128999515,0.7734,0.4131,0.0259,179.33,-96.95,18.35
97,129004516,0.7773,0.4297,-0.0063,180.06,-97.38,17.80
98,129009515,0.7915,0.4429,-0.0420,180.85,-98.11,17.20
99,129014518,0.7988,0.4487,-0.0728,181.77,-99.02,16.59
100,129019515,0.8057,0.4419,-0.0938,182.20,-99.94,16.10
101,129024516,0.8086,0.4258,-0.1030,182.44,-100.98,15.49
102,129029515,0.7915,0.4160,-0.1104,182.80,-101.83,15.00
103,129034514,0.7656,0.3989,-0.1167,183.17,-102.44,14.70
104,129039516,0.7598,0.3916,-0.1221,183.78,-103.11,14.51
105,129044517,0.7642,0.3833,-0.1323,184.45,-103.35,14.39
106,129049515,0.7505,0.3726,-0.1250,185.06,-103.60,14.27
107,129054516,0.7471,0.3701,-0.1284,185.61,-103.66,14.39
108,129059515,0.7485,0.3770,-0.1338,186.22,-103.41,14.39
109,129064517,0.7573,0.3936,-0.1685,186.77,-103.11,14.33
110,129069515,0.7671,0.4141,-0.2217,187.26,-102.99,14.15
111,129074518,0.7710,0.4307,-0.2617,187.50,-102.93,13.84
112,129079515,0.7666,0.4297,-0.2881,187.13,-102.80,13.48
113,129084516,0.7593,0.4141,-0.3101,186.34,-102.56,13.23
114,129089515,0.7480,0.3945,-0.3286,185.12,-102.38,12.99
115,129094516,0.7407,0.3735,-0.3374,183.54,-101.89,12.87
116,129099515,0.7290,0.3613,-0.3442,181.77,-101.46,12.74
117,129104516,0.7104,0.3491,-0.3589,179.82,-100.73,12.80
118,129109515,0.6934,0.3394,-0.3774,177.93,-99.88,12.80
119,129114516,0.6797,0.3296,-0.4038,176.16,-99.21,12.80
120,129119516,0.6631,0.3203,-0.4312,174.15,-98.35,12.80
121,129124565,0.6592,0.3154,-0.4409,172.13,-97.87,12.74
122,129129516,0.6631,0.3184,-0.4570,169.88,-97.13,12.56
123,129134514,0.6855,0.3247,-0.5068,168.11,-96.71,12.26
124,129139517,0.6963,0.3188,-0.5713,166.04,-96.77,11.95
125,129144516,0.6797,0.4082,-0.4722,164.33,-96.40,11.65
126,129149515,0.6533,0.3408,-0.5854,164.09,-95.73,10.73
127,129154516,0.6479,0.2207,-0.7153,162.50,-96.52,10.73
128,129159515,0.6567,0.1992,-0.5781,160.73,-96.28,11.04
129,129164517,0.6313,0.1714,-0.5679,159.27,-95.06,11.04
130,129169515,0.6255,0.1831,-0.6201,157.68,-94.27,11.04
131,129174518,0.5928,0.1919,-0.6978,156.52,-93.84,11.04
132,129179515,0.5786,0.2007,-0.6357,155.12,-92.99,11.04
133,129184517,0.5557,0.2012,-0.5991,153.66,-91.04,10.85
134,129189514,0.5576,0.1953,-0.6436,152.26,-89.51,10.61
135,129194518,0.5483,0.1777,-0.6772,150.67,-88.17,10.12
136,129199516,0.5415,0.1602,-0.6558,148.78,-86.52,9.88
137,129204516,0.5405,0.1479,-0.6611,146.71,-84.88,9.45
138,129209515,0.5405,0.1313,-0.7031,143.96,-83.48,8.90
139,129214516,0.5337,0.1162,-0.7241,141.10,-82.38,8.29
140,129219516,0.5269,0.0977,-0.7168,137.87,-81.10,7.74
141,129224514,0.5215,0.0835,-0.7202,134.51,-80.00,7.01
142,129229516,0.5151,0.0732,-0.7437,129.76,-78.96,6.16
143,129234517,0.4985,0.0610,-0.7642,127.93,-78.17,5.37
144,129239516,0.4956,0.0532,-0.7798,123.84,-77.56,4.51
145,129244516,0.4795,0.0396,-0.8096,120.06,-76.89,3.54
146,129249516,0.4614,0.0396,-0.8369,116.52,-76.34,2.56
147,129254516,0.4448,0.0312,-0.8345,112.93,-75.79,1.52
148,129259518,0.4316,0.0249,-0.8301,109.27,-75.00,0.49
149,129264516,0.4224,0.0264,-0.8369,105.37,-74.39,-0.67
150,129269515,0.4146,0.0254,-0.8496,101.40,-73.72,-1.77
151,129274516,0.4087,0.0234,-0.8550,97.32,-73.17,-2.99
152,129279516,0.4077,0.0195,-0.8633,92.99,-72.32,-4.27
153,129284516,0.4038,0.0127,-0.8750,88.60,-71.77,-5.67
154,129289515,0.3960,0.0122,-0.8828,84.09,-71.65,-7.07
155,129294516,0.3911,0.0088,-0.8960,79.57,-71.34,-8.60
156,129299515,0.3804,0.0044,-0.9072,74.94,-71.22,-10.24
157,129304516,0.3857,0.0020,-0.9272,70.24,-71.04,-11.89
158,129309515,0.3696,-0.0142,-0.9473,65.43,-71.16,-13.66
159,129314516,0.3550,-0.0322,-0.9517,60.37,-70.91,-15.43
160,129319515,0.3257,-0.0557,-0.9541,55.12,-70.61,-17.07
161,129324514,0.3218,-0.0562,-0.9380,49.76,-70.06,-18.84
162,129329518,0.3003,-0.0542,-0.9644,44.70,-69.09,-20.49
163,129334516,0.2793,-0.0415,-0.9575,39.51,-68.23,-22.20
164,129339515,0.3169,-0.0278,-0.9380,35.06,-67.20,-23.96
165,129344514,0.2788,-0.0371,-0.9561,30.79,-66.04,-25.85
166,129349518,0.2627,-0.0352,-0.9429,26.52,-64.63,-27.68
167,129354516,0.3208,-0.0186,-0.9263,22.62,-63.41,-29.39
168,129359516,0.2793,-0.0293,-0.9453,19.39,-61.95,-31.16
169,129364515,0.2476,-0.0293,-0.9487,15.73,-60.85,-32.87
170,129369516,0.3091,-0.0254,-0.9277,12.38,-59.82,-34.33
171,129374516,0.2749,-0.0474,-0.9419,9.57,-58.78,-35.91
172,129379517,0.2417,-0.0571,-0.9595,6.77,-57.74,-37.26
173,129384515,0.2896,-0.0581,-0.9395,4.02,-57.20,-38.54
174,129389516,0.2534,-0.0728,-0.9497,2.26,-56.28,-39.63
175,129394516,0.2144,-0.0786,-0.9487,0.24,-55.43,-40.49
176,129399516,0.2163,-0.0737,-0.9478,-1.28,-54.57,-41.10
177,129404515,0.2612,-0.0537,-0.8857,-2.07,-53.54,-41.77
178,129409516,0.2275,-0.0586,-0.8740,-1.77,-52.26,-42.38
179,129414516,0.1865,-0.0581,-0.9092,-1.34,-51.10,-42.74
180,129419516,0.1860,-0.0513,-0.9170,-0.61,-50.43,-43.17
181,129424516,0.2305,-0.0522,-0.8784,0.61,-49.39,-43.54
182,129429514,0.1650,-0.0698,-0.8735,2.38,-48.35,-43.72
183,129434516,0.1357,-0.0645,-0.8945,3.78,-47.74,-43.84
184,129439516,0.2021,-0.0439,-0.8765,5.61,-47.56,-43.96
185,129444516,0.1646,-0.0396,-0.8813,7.87,-47.32,-44.02
186,129449643,0.1333,-0.0332,-0.9131,9.94,-47.32,-44.09
187,129454518,0.1479,-0.0254,-0.9409,11.65,-47.62,-43.90
188,129459515,0.2075,-0.0420,-0.9346,13.84,-48.11,-43.78
189,129464516,0.1401,-0.0693,-0.9141,16.28,-48.11,-43.72
190,129469515,0.1045,-0.0776,-0.8984,18.41,-48.23,-43.23
191,129474517,0.1094,-0.0562,-0.9106,20.37,-48.35,-42.87
192,129479515,0.1567,-0.0386,-0.8872,22.62,-48.23,-42.44
193,129484518,0.0928,-0.0410,-0.8633,25.49,-47.87,-41.95
194,129489515,0.0630,-0.0366,-0.8755,27.68,-47.20,-41.46
195,129494516,0.1138,-0.0093,-0.8540,29.76,-46.89,-40.91
196,129499515,0.0942,-0.0122,-0.8662,32.20,-46.71,-40.55
197,129504516,0.0537,-0.0156,-0.8999,34.09,-46.34,-40.00
198,129509515,0.1084,-0.0200,-0.8789,35.67,-46.10,-39.57
199,129514516,0.0640,-0.0269,-0.9136,37.50,-45.79,-38.96
200,129519515,0.0547,-0.0117,-0.9341,38.54,-45.91,-38.54
201,129524516,0.0801,-0.0142,-0.9849,39.82,-46.04,-38.11
202,129529515,0.0181,-0.0430,-0.9985,40.30,-46.34,-37.56
203,129534516,0.0171,-0.0566,-0.9258,40.00,-46.22,-37.01
204,129539515,0.0483,-0.0513,-0.9541,40.00,-45.79,-36.28
205,129544514,0.0039,-0.0581,-1.0112,39.70,-45.79,-35.61
206,129549517,-0.0093,-0.0723,-0.9473,38.60,-45.18,-34.70
207,129554516,0.0044,-0.0620,-0.9136,37.13,-44.15,-33.84
208,129559516,0.0557,-0.0420,-0.9009,35.30,-43.05,-33.11
209,129564515,0.0654,-0.0322,-0.9253,34.15,-41.65,-32.44
210,129569516,0.0122,-0.0454,-0.9307,32.50,-40.49,-31.83
211,129574516,-0.0073,-0.0679,-0.9165,30.43,-39.09,-30.98
212,129579516,0.0020,-0.0703,-0.9331,27.74,-37.80,-30.24
213,129584517,0.0161,-0.0693,-0.9277,25.00,-36.34,-29.51
214,129589516,0.0312,-0.0547,-0.9087,22.13,-34.94,-28.90
215,129594516,0.0391,-0.0439,-0.9263,19.63,-33.41,-28.29
216,129599516,0.0112,-0.0439,-0.9653,17.62,-32.13,-27.87
217,129604515,-0.0083,-0.0513,-0.9810,15.37,-31.16,-27.38
218,129609516,-0.0112,-0.0557,-0.9692,13.23,-30.00,-26.95
219,129614516,0.0015,-0.0498,-0.9785,11.28,-28.90,-26.59
220,129619516,0.0132,-0.0435,-0.9917,9.33,-27.62,-26.22
221,129624515,0.0142,-0.0366,-0.9858,7.93,-26.22,-25.91
222,129629516,0.0088,-0.0366,-0.9800,6.77,-25.00,-25.55
223,129634516,0.0093,-0.0337,-0.9712,5.91,-23.54,-25.12
224,129639516,0.0073,-0.0371,-0.9751,5.18,-22.01,-24.88
225,129644515,0.0098,-0.0396,-0.9727,4.76,-20.61,-24.57
226,129649516,0.0088,-0.0381,-0.9614,4.21,-19.02,-24.21
227,129654517,0.0156,-0.0410,-0.9585,3.96,-17.68,-23.72
228,129659516,0.0181,-0.0410,-0.9590,3.78,-16.16,-23.29
229,129664514,0.0171,-0.0381,-0.9531,3.90,-14.88,-22.74
230,129669514,0.0269,-0.0405,-0.9497,4.27,-13.48,-22.26
231,129674563,0.0288,-0.0386,-0.9497,4.63,-12.13,-21.71
232,129679516,0.0312,-0.0396,-0.9458,5.12,-11.10,-21.22
233,129684516,0.0308,-0.0366,-0.9434,5.61,-9.94,-20.67
234,129689515,0.0361,-0.0366,-0.9434,5.98,-9.21,-20.24
235,129694516,0.0391,-0.0356,-0.9487,6.59,-8.17,-19.57
236,129699515,0.0376,-0.0322,-0.9463,7.07,-7.32,-18.96
237,129704518,0.0376,-0.0283,-0.9458,7.50,-6.77,-18.48
238,129709515,0.0352,-0.0288,-0.9424,7.93,-6.16,-18.05
239,129714516,0.0342,-0.0259,-0.9390,8.35,-5.37,-17.38
240,129719515,0.0376,-0.0249,-0.9312,8.60,-5.18,-17.07
241,129724516,0.0352,-0.0171,-0.9277,9.02,-4.51,-16.46
242,129729515,0.0376,-0.0146,-0.9131,9.09,-4.09,-16.22
243,129734516,0.0386,-0.0171,-0.9072,9.09,-3.41,-15.67
244,129739516,0.0371,-0.0156,-0.9019,9.21,-3.17,-15.30
245,129744687,0.0410,-0.0215,-0.8950,8.96,-2.62,-14.76
246,129749516,0.0464,-0.0171,-0.8892,8.54,-2.50,-14.39
247,129754648,0.0518,-0.0195,-0.8896,8.05,-2.26,-13.90
248,129759518,0.0615,-0.0210,-0.8789,7.50,-2.20,-13.35
249,129764516,0.0601,-0.0171,-0.8799,7.26,-2.01,-13.11
250,129769516,0.0615,-0.0200,-0.8809,6.77,-2.26,-12.56
251,129774515,0.0674,-0.0151,-0.8779,6.34,-2.32,-12.01
252,129779516,0.0669,-0.0166,-0.8906,5.85,-2.44,-11.52
253,129784516,0.0635,-0.0151,-0.8911,5.61,-2.74,-10.98
254,129789517,0.0635,-0.0137,-0.8843,5.24,-3.35,-10.55
255,129794515,0.0674,-0.0151,-0.8867,4.82,-3.72,-10.00
256,129799516,0.0654,-0.0137,-0.8818,4.51,-4.09,-9.39
257,129804516,0.0645,-0.0132,-0.8848,4.02,-4.76,-8.96
258,129809516,0.0703,-0.0098,-0.8804,3.54,-5.30,-8.35
259,129814515,0.0674,-0.0103,-0.8760,2.99,-6.16,-7.87
260,129819517,0.0752,-0.0127,-0.8726,2.62,-6.59,-7.38
261,129824516,0.0728,-0.0161,-0.8691,2.07,-7.26,-6.89
262,129829516,0.0737,-0.0176,-0.8711,1.65,-7.93,-6.46
263,129834517,0.0732,-0.0171,-0.8696,1.16,-8.35,-5.98
264,129839516,0.0742,-0.0186,-0.8608,0.98,-8.90,-5.55
265,129844515,0.0684,-0.0171,-0.8569,0.91,-9.33,-5.00
266,129849516,0.0664,-0.0146,-0.8647,0.98,-9.82,-4.63
267,129854515,0.0698,-0.0122,-0.8569,1.10,-10.24,-3.96
268,129859518,0.0737,-0.0146,-0.8579,1.59,-10.61,-3.60
269,129864516,0.0737,-0.0146,-0.8633,2.13,-10.91,-3.23
270,129869515,0.0732,-0.0190,-0.8628,2.80,-11.34,-2.56
271,129874514,0.0732,-0.0161,-0.8677,3.48,-11.89,-2.32
272,129879662,0.0752,-0.0200,-0.8726,4.45,-12.50,-1.71
273,129884516,0.0762,-0.0229,-0.8760,4.94,-12.74,-1.34
274,129889516,0.0732,-0.0244,-0.8789,5.73,-13.17,-0.91
275,129894516,0.0728,-0.0312,-0.8721,6.28,-13.60,-0.37
276,129899515,0.0693,-0.0342,-0.8726,6.83,-14.02,0.12
277,129904516,0.0698,-0.0332,-0.8760,7.20,-14.39,0.49
278,129909516,0.0654,-0.0391,-0.8691,7.74,-14.57,0.79
279,129914516,0.0688,-0.0332,-0.8701,8.05,-14.82,1.04
280,129919515,0.0674,-0.0327,-0.8682,8.35,-14.94,1.28
281,129924516,0.0674,-0.0352,-0.8662,8.66,-15.06,1.59
282,129929516,0.0674,-0.0322,-0.8643,8.72,-15.06,1.71
283,129934516,0.0674,-0.0312,-0.8667,8.78,-15.18,1.83
284,129939515,0.0713,-0.0278,-0.8628,8.78,-15.12,1.83
285,129944516,0.0664,-0.0322,-0.8667,8.54,-15.06,1.83
286,129949516,0.0645,-0.0342,-0.8716,8.35,-14.82,2.01
287,129954514,0.0635,-0.0317,-0.8779,7.74,-14.82,1.95
288,129960069,0.0596,-0.0298,-0.8804,7.07,-14.70,1.83
289,129964516,0.0566,-0.0308,-0.8809,6.59,-14.51,1.89
290,129969516,0.0581,-0.0308,-0.8779,6.04,-14.45,1.77
291,129974516,0.0562,-0.0273,-0.8804,5.30,-14.27,1.65
292,129979514,0.0605,-0.0312,-0.8843,4.70,-14.02,1.65
293,129984514,0.0581,-0.0391,-0.8818,4.02,-14.02,1.65
294,129989514,0.0586,-0.0439,-0.8789,3.41,-13.66,1.71
295,129994516,0.0537,-0.0405,-0.8740,2.74,-13.48,1.65
296,129999515,0.0601,-0.0439,-0.8716,2.20,-13.29,1.59
297,130004516,0.0562,-0.0444,-0.8726,1.71,-12.93,1.59
298,130009515,0.0625,-0.0435,-0.8765,1.04,-12.80,1.65
299,130014516,0.0635,-0.0444,-0.8804,0.49,-12.56,1.65
300,130019515,0.0635,-0.0425,-0.8838,-0.12,-12.38,1.65
301,130024516,0.0684,-0.0454,-0.8823,-0.73,-12.32,1.40
302,130029515,0.0703,-0.0356,-0.8872,-1.34,-12.38,1.46
303,130034516,0.0649,-0.0361,-0.8965,-1.95,-12.32,1.34
304,130039516,0.0625,-0.0361,-0.8940,-2.50,-12.26,1.28
305,130044516,0.0630,-0.0332,-0.8931,-3.23,-12.38,0.98
306,130049515,0.0610,-0.0386,-0.8960,-3.66,-12.26,0.98
307,130054516,0.0581,-0.0366,-0.9004,-4.09,-12.13,0.85
308,130059515,0.0591,-0.0400,-0.8970,-4.51,-12.13,0.85
309,130064518,0.0562,-0.0420,-0.8979,-4.94,-12.13,0.79
310,130069515,0.0547,-0.0474,-0.8940,-5.30,-12.07,0.67
311,130074516,0.0552,-0.0479,-0.9043,-5.67,-11.83,0.73
312,130079515,0.1304,-0.2065,-1.6592,-28.54,-6.40,-2.38
313,130084516,0.1162,-0.1089,-0.7314,-33.17,-6.10,-2.93
314,130089515,0.0522,-0.0181,-0.2915,-30.79,-2.01,-3.23
315,130094516,0.0732,0.0171,-1.0381,-27.56,-2.20,-3.54
316,130099516,0.0840,-0.0010,-1.3062,-23.90,-5.85,-3.54
317,130104516,0.0332,-0.0415,-0.7432,-19.63,-5.55,-3.41
318,130109515,0.0391,-0.0586,-0.6416,-15.30,-3.72,-3.11
319,130114516,0.0850,-0.0493,-1.0898,-10.49,-4.70,-2.80
320,130119516,0.0854,-0.0366,-1.0771,-5.67,-6.52,-2.80
321,130124518,0.0566,-0.0317,-0.7153,-1.04,-5.67,-2.74
322,130129515,0.0586,-0.0269,-0.7637,3.11,-4.51,-2.56
323,130134516,0.1265,-0.0327,-1.5483,-5.12,-2.07,-3.54
324,130139514,0.1572,-0.0269,-1.4180,-3.05,-3.29,-3.41
325,130144516,0.0586,-0.0225,-0.3594,-0.18,-0.49,-3.29
326,130149515,0.0654,-0.0190,-0.8022,3.11,0.55,-3.23
327,130154516,0.0918,-0.0249,-1.2832,5.73,-2.26,-3.17
328,130159516,0.0801,-0.0356,-1.0117,3.72,-1.34,-3.23
329,130164516,0.0713,-0.0317,-0.6738,5.18,-0.06,-3.05
330,130169515,0.0737,-0.0229,-0.7993,6.71,0.55,-2.80
331,130174518,0.0820,-0.0264,-1.0312,7.87,-0.67,-2.68
332,130179515,0.0850,-0.0278,-0.9224,5.37,-0.12,-2.68
333,130184516,0.0747,-0.0337,-0.8291,5.79,0.12,-2.56
334,130189514,0.0605,-0.0303,-0.8130,6.34,0.12,-2.20
335,130194514,0.0669,-0.0259,-0.8872,6.52,-0.37,-2.13
336,130199518,0.0527,-0.0215,-0.9111,6.04,-0.73,-2.01
337,130204516,0.0674,-0.0244,-0.7549,3.84,0.18,-1.83
338,130209516,0.0718,-0.0225,-0.8501,3.78,-0.18,-1.65
339,130214515,0.0684,-0.0171,-0.9272,2.87,-0.67,-1.59
340,130219516,0.0688,-0.0229,-0.8174,0.85,-0.55,-1.46
341,130224522,0.0532,-0.0225,-0.8369,0.49,-0.79,-1.40
342,130229516,0.0630,-0.0205,-0.8208,-0.91,-0.91,-1.22
343,130234518,0.0645,-0.0137,-0.8560,-2.38,-0.91,-1.22
344,130239515,0.0703,-0.0098,-0.8545,-3.54,-1.40,-1.10
345,130244514,0.0688,-0.0137,-0.8516,-4.94,-1.52,-1.28
346,130249516,0.0669,-0.0146,-0.8589,-6.04,-1.77,-1.16
347,130254516,0.0674,-0.0122,-0.8530,-7.38,-2.07,-1.40
348,130259515,0.0630,-0.0195,-0.8799,-8.72,-2.20,-1.40
349,130264516,0.0654,-0.0200,-0.8584,-9.70,-2.26,-1.59
350,130269516,0.0586,-0.0142,-0.8579,-10.49,-2.26,-1.65
351,130274517,0.0654,-0.0142,-0.8594,-11.16,-2.44,-1.89
352,130279516,0.0635,-0.0034,-0.8511,-12.01,-2.44,-2.01
353,130284515,0.0625,0.0005,-0.8413,-12.44,-2.50,-2.01
354,130289516,0.0679,0.0010,-0.8389,-13.05,-2.38,-2.26
355,130294516,0.0776,-0.0068,-0.8926,-14.51,-1.71,-2.38
356,130299516,0.0732,-0.0122,-0.8218,-14.88,-1.77,-2.44
357,130304516,0.0664,-0.0039,-0.8442,-15.67,-0.98,-2.50
358,130309515,0.0625,-0.0015,-0.8667,-15.73,-0.67,-2.50
359,130314516,0.0791,0.0034,-0.8218,-15.49,-0.24,-2.38
360,130319516,0.0503,-0.0034,-0.8682,-15.00,0.30,-2.38
361,130324516,0.0513,0.0039,-0.8159,-14.82,0.73,-2.20
362,130329515,0.0474,0.0054,-0.8657,-14.76,1.16,-2.13
363,130334516,0.0596,-0.0039,-0.8608,-14.15,1.65,-1.95
364,130339515,0.0732,0.0010,-0.9536,-12.68,2.01,-1.83
365,130344514,0.0645,0.0132,-0.7798,-10.06,2.80,-1.40
366,130349516,0.0620,0.0239,-0.9180,-7.13,3.05,-0.98
367,130354515,0.0605,0.0122,-0.8062,-4.39,3.48,-0.49
368,130359516,0.0713,0.0156,-0.9580,-0.98,3.72,-0.06
369,130364831,0.0933,0.0054,-0.9468,3.66,2.99,0.55
370,130369517,0.1143,-0.0024,-1.0371,6.77,2.74,1.10
371,130374516,0.1250,0.0112,-0.9697,10.43,1.71,1.71
372,130379516,0.1396,0.0142,-1.0273,13.48,1.04,2.32
373,130384515,0.1392,0.0254,-0.9277,16.34,0.12,2.56
374,130389516,0.1206,0.0439,-0.9780,16.89,0.49,2.56
375,130394516,0.1372,0.0615,-0.8125,16.95,0.18,2.26
376,130399516,0.1489,0.0752,-0.8340,16.22,1.10,1.71
377,130404517,0.1948,0.0601,-0.8081,16.95,0.79,1.16
378,130409516,0.1699,0.0361,-0.7661,16.83,2.80,0.67
379,130414516,0.1235,0.0479,-1.0396,18.60,1.65,0.30
380,130419516,0.0854,0.0142,-0.7720,17.26,2.93,-0.18
381,130424515,0.0459,-0.0122,-1.0581,16.46,2.07,-0.61
382,130429516,0.0264,-0.0171,-0.8364,15.24,1.10,-0.73
383,130434516,0.0044,-0.0176,-0.8774,13.17,1.46,-1.10
384,130439516,0.0566,-0.0249,-1.0312,12.80,-0.24,-1.28
385,130444515,0.0576,-0.0088,-0.7861,11.46,-0.37,-1.46
386,130449517,0.0698,0.0146,-0.8481,9.45,-0.12,-1.83
387,130454515,0.0688,0.0254,-0.8306,7.99,-1.16,-2.13
388,130459515,-0.0107,0.0405,-0.6079,3.90,0.00,-2.68
389,130464516,0.0186,0.0068,-0.7485,-0.30,0.24,-3.17
390,130469515,0.0698,-0.0054,-0.7803,-3.78,-0.24,-3.54
391,130474518,0.0635,0.0146,-0.7368,-8.23,0.00,-3.72
392,130479515,0.0586,-0.0093,-0.8779,-12.32,-0.43,-3.90
393,130484516,0.0620,-0.0049,-0.8750,-15.85,-1.65,-4.02
394,130489515,0.0513,0.0098,-0.8970,-19.70,-2.32,-4.45
395,130494516,0.0195,-0.0005,-1.0010,-23.60,-2.62,-4.82
396,130499517,0.0215,-0.0029,-0.9380,-25.98,-2.93,-5.12
397,130504516,0.0586,-0.0176,-0.9941,-26.65,-2.87,-5.18
398,130509516,0.0967,0.0181,-0.9941,-26.04,-2.26,-4.88
399,130514516,0.1245,0.0010,-0.9692,-22.68,-1.22,-4.39
400,130519515,0.1221,-0.0015,-0.9341,-17.32,-1.83,-3.54
401,130524516,0.1255,-0.0029,-0.8911,-10.12,-0.98,-2.44
402,130529515,0.1177,0.0200,-0.9697,-2.99,-2.68,-1.52
403,130534518,0.0981,0.0356,-0.8062,4.63,-1.77,-0.67
404,130539515,0.1055,0.0303,-1.0127,11.28,-3.60,0.18
405,130544516,0.1030,0.0039,-0.8110,17.01,-2.80,1.16
406,130549514,0.1333,-0.0078,-1.0244,21.40,-3.35,1.95
407,130554515,0.0898,0.0151,-0.7876,24.57,-2.26,2.38
408,130559518,0.1045,0.0210,-1.0376,25.98,-2.56,2.74
409,130564515,0.0684,0.0312,-0.7290,24.70,-0.61,2.87
410,130569516,0.0688,0.0425,-0.9390,22.62,-0.55,2.44
411,130574517,0.0596,0.0542,-0.7461,20.12,-0.61,1.95
412,130579516,0.0645,0.0366,-0.8735,17.20,-0.06,1.28
413,130584515,0.0737,0.0420,-0.8457,13.90,-0.67,0.67
414,130589516,0.0679,0.0337,-0.7935,9.15,-0.55,-0.06
415,130594516,0.0708,0.0181,-0.8809,5.37,-1.40,-0.55
416,130599516,0.0688,0.0078,-0.7959,1.46,-1.77,-1.22
417,130604515,0.0688,-0.0054,-0.8706,-2.26,-2.13,-1.65
418,130609517,0.0630,-0.0220,-0.8555,-5.18,-3.05,-1.95
419,130614516,0.0356,-0.0342,-0.9121,-7.93,-2.99,-2.20
420,130619516,0.0244,-0.0410,-0.8579,-8.48,-2.93,-2.32
421,130624515,0.0229,-0.0386,-0.8667,-8.72,-2.68,-2.07
422,130629517,0.0298,-0.0391,-0.8442,-8.29,-2.56,-1.89
423,130634516,0.0430,-0.0342,-0.8169,-7.74,-1.65,-1.46
424,130639516,0.0684,0.0244,-0.7866,-6.65,-1.22,-1.10
425,130644517,0.0625,0.0278,-0.7373,-5.67,0.06,-1.16
426,130649516,0.0713,0.0151,-0.7559,-3.84,1.16,-0.91
427,130654515,-0.0249,0.0859,-0.7104,-1.59,2.99,-0.67
428,130659515,-0.0098,0.0806,-0.7358,0.24,3.96,-0.91
429,130664516,0.0054,0.0273,-0.6841,1.65,5.79,-0.91
430,130669516,0.0229,0.0161,-0.7734,2.20,6.95,-0.55
431,130674516,0.0337,0.0117,-0.7314,2.74,8.05,-0.49
432,130679516,0.0659,-0.0093,-0.7949,2.74,9.09,-0.49
433,130684516,0.0747,-0.0059,-0.7847,2.93,9.51,-0.24
434,130689516,0.4619,-0.1128,-3.3911,-0.85,15.00,-0.73
435,130694515,0.4009,-0.1440,-2.1582,-1.71,5.24,-0.43
436,130699516,0.1206,0.0288,0.3315,7.68,5.61,0.85
437,130704515,0.1909,-0.0176,-0.9058,11.77,4.27,2.13
438,130709516,0.2061,-0.0376,-2.3296,11.34,0.79,2.68
439,130714518,0.1094,-0.0342,-1.7056,-1.52,-4.88,1.77
440,130719515,0.1089,-0.0225,-0.1729,-6.16,-7.20,1.71
441,130724516,0.1396,-0.0688,-0.6138,-1.59,-7.87,2.44
442,130729515,0.0449,-0.0703,-0.9727,-4.15,-12.56,2.93
443,130734516,0.1802,-0.0649,-1.1812,-2.74,-6.28,2.50
444,130739521,0.1567,-0.0234,-0.0181,0.06,-5.06,2.93
445,130744516,0.1045,0.0122,-1.1855,2.87,-0.61,3.66
446,130749515,0.0283,0.0127,-0.5845,6.04,-0.30,4.39
447,130754514,-0.0073,0.0679,-1.6631,8.41,2.68,4.88
448,130759518,0.0713,0.1211,-1.3682,5.30,0.79,4.70
449,130764516,0.1377,0.0474,-0.6724,2.50,-0.30,4.94
450,130769515,0.1235,0.0488,-0.9102,1.59,-2.20,5.37
451,130774514,0.1250,-0.0088,-0.7554,-0.98,-6.04,5.55
452,130779516,0.1172,-0.2310,-1.0366,0.91,-0.73,5.67
453,130784516,0.0786,-0.1006,-0.6870,4.09,-1.34,5.79
454,130789515,0.0605,0.0615,-0.6313,3.35,1.46,5.43
455,130794516,0.0913,0.0752,-0.7979,3.11,-1.95,5.43
456,130799515,0.0898,-0.0044,-1.0078,1.34,-4.39,5.43
457,130804515,0.0596,-0.0107,-0.6353,1.83,-1.22,5.24
458,130809516,0.0845,0.0464,-0.8604,3.72,0.24,5.37
459,130814537,0.0776,0.0566,-0.8374,2.62,-1.40,5.12
460,130819515,0.0610,0.0151,-0.8354,0.91,-2.26,4.82
461,130824516,0.0479,0.0283,-0.8462,2.80,-0.55,4.57
462,130829515,0.0640,0.0566,-0.8799,3.72,-1.04,4.45
463,130834516,0.0649,0.0371,-0.8413,1.40,-2.13,3.72
464,130839515,0.0596,0.0322,-0.8511,1.04,-1.04,3.35
465,130844516,0.0742,0.0352,-0.8813,3.72,-0.79,3.48
466,130849515,0.0835,0.0298,-0.8887,2.13,-1.34,3.23
467,130854514,0.0747,0.0337,-0.8735,1.95,-1.71,3.05
468,130859518,0.0796,0.0239,-0.8643,3.17,-1.34,3.05
469,130864516,0.0869,0.0317,-0.8745,2.44,-1.04,2.87
470,130869515,0.0859,0.0254,-0.8774,2.62,-1.77,2.74
471,130874516,0.0854,0.0200,-0.8667,2.62,-1.34,2.74
472,130879565,0.0898,0.0181,-0.8823,2.87,-1.04,2.80
473,130884518,0.0869,0.0078,-0.8770,2.74,-1.59,2.68
474,130889515,0.0854,0.0088,-0.8657,2.44,-1.52,2.80
475,130894516,0.0908,0.0020,-0.8628,2.87,-1.28,2.80
476,130899515,0.0801,0.0098,-0.8594,2.56,-1.22,2.87
477,130904516,0.0728,0.0151,-0.8740,2.20,-1.28,2.80
478,130909515,0.0767,0.0117,-0.8813,2.62,-1.16,2.99
479,130914516,0.0874,0.0142,-0.8755,2.56,-1.34,2.99
480,130919516,0.0781,0.0225,-0.8779,2.50,-1.52,2.93
481,130924516,0.0903,0.0244,-0.8711,2.62,-1.40,2.93
482,130929515,0.0864,0.0176,-0.8687,2.74,-1.40,2.99
483,130934518,0.0864,0.0283,-0.8774,2.44,-1.40,2.80
484,130939515,0.0864,0.0308,-0.8745,2.38,-1.34,2.74
485,130944516,0.0815,0.0322,-0.8823,2.62,-1.40,2.68
486,130949515,0.0801,0.0205,-0.8687,2.56,-1.40,2.44
487,130954517,0.0815,0.0332,-0.8716,2.44,-1.34,2.38
488,130959514,0.0806,0.0527,-0.8667,2.56,-1.10,2.13
489,130964515,0.0767,0.0547,-0.8926,2.50,-1.40,1.77
490,130969518,0.0703,0.0405,-0.8877,2.62,-1.40,1.28
491,130974516,0.0874,0.0142,-0.8687,2.80,-1.40,1.22
492,130979518,0.0991,-0.0088,-0.8789,2.62,-1.28,1.40
493,130984516,0.0996,-0.0054,-0.8735,2.56,-1.46,1.59
494,130989515,0.0840,0.0249,-0.8682,2.56,-1.28,1.77
495,130994516,0.0830,0.0293,-0.8687,2.38,-1.34,1.77
496,130999515,0.0845,0.0181,-0.8730,2.44,-1.22,1.71
497,131004516,0.0889,0.0117,-0.8853,2.50,-1.46,1.65
498,131009515,0.0879,0.0132,-0.8779,2.56,-1.46,1.59
499,131014516,0.0918,0.0088,-0.8711,2.68,-1.40,1.71
500,131019516,0.0894,0.0093,-0.8662,2.50,-1.40,1.89
501,131024516,0.0850,0.0186,-0.8760,2.50,-1.46,1.95
502,131029515,0.0859,0.0166,-0.8711,2.62,-1.28,1.89
503,131034518,0.0908,0.0161,-0.8750,2.56,-1.40,1.95
504,131039515,0.0811,0.0010,-0.8755,2.50,-1.40,1.95
505,131044516,0.0879,0.0195,-0.8701,2.56,-1.40,2.01
506,131049515,0.0850,0.0186,-0.8784,2.74,-1.34,1.83
507,131054516,0.0859,0.0054,-0.8721,2.62,-1.28,1.89
508,131059514,0.0879,0.0103,-0.8799,2.56,-1.59,1.83
509,131064516,0.0859,0.0220,-0.8716,2.62,-1.34,1.83
510,131069516,0.0864,0.0166,-0.8677,2.68,-1.34,1.83
511,131074516,0.0889,0.0117,-0.8735,2.50,-1.46,1.95
512,131079516,0.0864,0.0161,-0.8701,2.50,-1.34,1.89
513,131084923,0.0903,0.0171,-0.8560,2.50,-1.22,1.77
514,131089517,0.0811,0.0122,-0.8701,2.20,-1.16,1.83
515,131094516,0.0796,0.0112,-0.8823,2.74,-1.46,1.95
516,131099516,0.0864,0.0156,-0.8701,2.32,-1.40,1.77
517,131104515,0.0952,0.0176,-0.8633,2.74,-1.40,1.83
518,131109516,0.0771,0.0176,-0.8701,2.62,-1.16,1.83
519,131114515,0.0869,0.0225,-0.8799,2.56,-1.59,1.83
520,131119518,0.0918,0.0254,-0.8755,2.50,-1.40,1.71
521,131124516,0.0884,0.0239,-0.8760,2.62,-1.16,1.59
522,131129515,0.0815,0.0293,-0.8740,2.50,-1.46,1.52
523,131134516,0.0854,0.0308,-0.8672,2.50,-1.40,1.34
524,131139516,0.0854,0.0259,-0.8701,2.80,-1.10,1.40
525,131144517,0.0845,0.0195,-0.8726,2.68,-1.28,1.16
526,131149516,0.0908,0.0190,-0.8652,2.50,-1.59,1.10
527,131154515,0.0898,0.0151,-0.8745,2.62,-1.16,1.04
528,131159594,0.0869,0.0044,-0.8774,2.68,-1.22,0.98
529,131164516,0.0864,0.0034,-0.8735,2.62,-1.59,1.16
530,131169514,0.0723,0.0146,-0.8672,2.56,-1.22,1.22
531,131174515,0.0869,0.0088,-0.8784,2.68,-1.04,1.28
532,131179516,0.0933,0.0005,-0.8770,2.62,-1.40,1.22
533,131184515,0.0903,0.0020,-0.8755,2.68,-1.22,1.28
534,131189515,0.0869,0.0034,-0.8740,2.68,-1.28,1.52
535,131194518,0.0884,0.0210,-0.8687,2.50,-1.22,1.59
536,131199516,0.0864,0.0146,-0.8735,2.56,-1.40,1.77
537,131204516,0.0869,0.0127,-0.8706,2.62,-1.22,1.95
538,131209516,0.0850,0.0190,-0.8809,2.56,-1.28,1.95
539,131214517,0.0850,0.0171,-0.8770,2.56,-1.28,1.89
540,131219515,0.0854,0.0107,-0.8755,2.68,-1.22,1.95
541,131224518,0.0811,0.0112,-0.8774,2.62,-1.34,1.89
542,131229515,0.0820,0.0156,-0.8706,2.68,-1.28,1.83
543,131235021,0.0874,0.0078,-0.8740,2.74,-1.16,1.89
544,131239516,0.0859,0.0171,-0.8770,2.62,-1.28,1.83
545,131244516,0.0859,0.0117,-0.8760,2.62,-1.34,1.77
546,131249516,0.0845,0.0098,-0.8750,2.56,-1.28,1.83
547,131254514,0.0864,0.0166,-0.8765,2.62,-1.28,1.77
548,131259516,0.0859,0.0161,-0.8745,2.56,-1.28,1.89
549,131264516,0.0908,0.0161,-0.8726,2.50,-1.34,1.83
550,131269516,0.0884,0.0132,-0.8711,2.50,-1.40,1.89
551,131274515,0.0864,0.0122,-0.8730,2.62,-1.28,1.89
552,131279516,0.0874,0.0166,-0.8730,2.56,-1.40,1.83
553,131284516,0.0864,0.0103,-0.8750,2.68,-1.40,1.89
554,131289865,0.0854,0.0137,-0.8745,2.56,-1.40,1.77
555,131294517,0.0884,0.0142,-0.8765,2.56,-1.34,1.83
556,131299516,0.0854,0.0171,-0.8711,2.62,-1.40,1.83
557,131304516,0.0840,0.0112,-0.8760,2.62,-1.40,1.83
558,131309516,0.0854,0.0181,-0.8774,2.62,-1.28,1.89
559,131314515,0.0898,0.0176,-0.8740,2.56,-1.40,1.89
560,131319516,0.0874,0.0176,-0.8789,2.56,-1.28,1.83
561,131324517,0.0864,0.0137,-0.8721,2.56,-1.40,1.83
562,131329516,0.0845,0.0117,-0.8765,2.50,-1.28,1.77
563,131334515,0.0869,0.0161,-0.8770,2.62,-1.34,1.89
564,131339516,0.0845,0.0166,-0.8755,2.62,-1.40,1.89
565,131344516,0.0889,0.0142,-0.8740,2.62,-1.34,1.83
566,131349516,0.0864,0.0171,-0.8760,2.62,-1.34,1.83
567,131354515,0.0869,0.0166,-0.8701,2.56,-1.40,1.83
568,131359516,0.0898,0.0146,-0.8726,2.50,-1.46,1.89
569,131364515,0.0874,0.0176,-0.8794,2.56,-1.34,1.83
570,131369517,0.0864,0.0132,-0.8760,2.56,-1.34,1.89
571,131374516,0.0850,0.0142,-0.8735,2.68,-1.40,1.83
572,131379516,0.0820,0.0161,-0.8721,2.74,-1.34,1.83
573,131384515,0.0859,0.0176,-0.8711,2.62,-1.34,1.89
574,131389516,0.0889,0.0142,-0.8726,2.62,-1.28,1.83
575,131394517,0.0835,0.0161,-0.8760,2.62,-1.40,1.83
576,131399516,0.0845,0.0112,-0.8745,2.62,-1.34,1.95
577,131404515,0.0854,0.0151,-0.8711,2.68,-1.34,1.83
578,131409516,0.0850,0.0151,-0.8765,2.56,-1.40,1.83
579,131414516,0.0889,0.0137,-0.8755,2.56,-1.52,1.83
580,131419516,0.0864,0.0132,-0.8691,2.62,-1.28,1.89
581,131424515,0.0850,0.0112,-0.8726,2.74,-1.34,1.83
582,131429517,0.0859,0.0142,-0.8711,2.56,-1.40,1.89
583,131434516,0.0815,0.0112,-0.8745,2.62,-1.28,1.83
584,131439516,0.0850,0.0142,-0.8726,2.56,-1.40,1.77
585,131444515,0.0859,0.0186,-0.8750,2.56,-1.34,1.83
586,131449516,0.0869,0.0171,-0.8770,2.56,-1.28,1.89
587,131454516,0.0864,0.0137,-0.8770,2.68,-1.28,1.89
588,131459516,0.0879,0.0088,-0.8691,2.50,-1.40,1.89
589,131464515,0.0859,0.0171,-0.8735,2.68,-1.34,1.83
590,131469516,0.0864,0.0151,-0.8735,2.62,-1.52,1.95
591,131474565,0.0869,0.0151,-0.8774,2.56,-1.46,1.89
592,131479516,0.0879,0.0142,-0.8755,2.62,-1.28,1.95
593,131484516,0.0850,0.0127,-0.8730,2.56,-1.34,1.89
594,131489516,0.0884,0.0142,-0.8804,2.62,-1.28,1.83
595,131494514,0.0884,0.0151,-0.8789,2.50,-1.40,1.83
596,131499517,0.0894,0.0161,-0.8735,2.44,-1.34,1.83
597,131504515,0.0869,0.0107,-0.8730,2.56,-1.34,1.89
598,131509516,0.0850,0.0166,-0.8765,2.56,-1.59,1.83
599,131514514,0.0850,0.0151,-0.8730,2.68,-1.40,1.71
600,131519785,0.0864,0.0132,-0.8755,2.68,-1.40,1.83
601,131525170,0.0869,0.0137,-0.8716,2.50,-1.28,1.83
602,131529516,0.0884,0.0156,-0.8730,2.62,-1.34,1.95
603,131534516,0.0859,0.0146,-0.8765,2.62,-1.34,1.89
604,131539516,0.0835,0.0151,-0.8755,2.56,-1.34,1.89
605,131544514,0.0874,0.0156,-0.8784,2.62,-1.28,1.77
606,131549516,0.0854,0.0166,-0.8691,2.56,-1.28,1.89
607,131554516,0.0884,0.0161,-0.8750,2.56,-1.34,1.83
608,131559516,0.0840,0.0137,-0.8677,2.56,-1.40,1.89
609,131564515,0.0825,0.0186,-0.8716,2.68,-1.40,1.77
610,131569516,0.0874,0.0156,-0.8667,2.62,-1.46,1.89
611,131574517,0.0854,0.0146,-0.8765,2.62,-1.34,1.83
612,131579516,0.0830,0.0142,-0.8730,2.56,-1.40,1.89
613,131584515,0.0879,0.0181,-0.8735,2.62,-1.28,1.95
614,131589516,0.0845,0.0122,-0.8706,2.56,-1.34,1.83
615,131594516,0.0913,0.0156,-0.8711,2.44,-1.40,1.89
616,131599516,0.0864,0.0127,-0.8730,2.50,-1.34,1.89
617,131604515,0.0859,0.0132,-0.8745,2.56,-1.40,1.89
618,131609516,0.0859,0.0127,-0.8770,2.62,-1.34,1.83
619,131614516,0.0859,0.0190,-0.8701,2.50,-1.40,1.89
620,131619516,0.0859,0.0132,-0.8760,2.50,-1.46,1.83
621,131624515,0.0898,0.0176,-0.8730,2.62,-1.46,1.77
622,131629516,0.0869,0.0171,-0.8730,2.62,-1.40,1.83
623,131634517,0.0840,0.0200,-0.8760,2.56,-1.34,1.95
624,131639516,0.0830,0.0146,-0.8755,2.62,-1.46,1.77
625,131644515,0.0869,0.0161,-0.8760,2.56,-1.28,1.83
626,131649516,0.0859,0.0151,-0.8726,2.56,-1.28,1.83
627,131654517,0.0840,0.0176,-0.8794,2.62,-1.40,1.83
628,131659516,0.0859,0.0151,-0.8726,2.56,-1.40,1.89
629,131664515,0.0889,0.0127,-0.8765,2.62,-1.34,1.83
630,131669516,0.0850,0.0142,-0.8750,2.56,-1.40,1.83
631,131674516,0.0859,0.0156,-0.8726,2.56,-1.34,1.77
632,131679517,0.0854,0.0137,-0.8691,2.56,-1.40,1.83
633,131684514,0.0869,0.0132,-0.8696,2.62,-1.40,1.95
634,131689514,0.0874,0.0156,-0.8667,2.62,-1.22,1.89
635,131694516,0.0854,0.0161,-0.8721,2.62,-1.59,1.89
636,131699517,0.0898,0.0181,-0.8745,2.62,-1.40,1.89
637,131704516,0.0884,0.0166,-0.8750,2.56,-1.28,1.83
638,131709515,0.0864,0.0127,-0.8750,2.56,-1.46,1.83
639,131714516,0.0820,0.0142,-0.8706,2.68,-1.34,1.77
640,131719515,0.0884,0.0161,-0.8774,2.56,-1.34,1.83
641,131724517,0.0845,0.0186,-0.8735,2.56,-1.40,1.83
642,131729515,0.0869,0.0161,-0.8735,2.56,-1.28,1.83
643,131734518,0.0850,0.0181,-0.8774,2.62,-1.34,1.83
644,131739515,0.0864,0.0171,-0.8696,2.62,-1.34,1.83
645,131744516,0.0835,0.0151,-0.8716,2.62,-1.34,1.89
646,131749515,0.0859,0.0161,-0.8784,2.68,-1.40,1.95
647,131754516,0.0840,0.0132,-0.8721,2.62,-1.52,1.89
648,131759515,0.0884,0.0132,-0.8696,2.56,-1.34,1.95
649,131764516,0.0869,0.0171,-0.8779,2.62,-1.34,1.89
650,131769515,0.0850,0.0176,-0.8691,2.56,-1.40,1.89
651,131774516,0.0854,0.0166,-0.8784,2.50,-1.34,1.83
652,131779514,0.0859,0.0166,-0.8701,2.56,-1.28,1.89
653,131784514,0.0825,0.0161,-0.8706,2.56,-1.28,1.89
654,131789516,0.0903,0.0181,-0.8755,2.56,-1.34,1.89
655,131794518,0.0830,0.0142,-0.8696,2.62,-1.28,1.77
656,131799515,0.0859,0.0146,-0.8726,2.62,-1.46,1.83
657,131804516,0.0830,0.0156,-0.8750,2.56,-1.46,1.89
658,131809515,0.0859,0.0132,-0.8726,2.62,-1.22,1.83
659,131814516,0.0845,0.0161,-0.8740,2.68,-1.34,1.83
660,131819515,0.0898,0.0127,-0.8721,2.56,-1.34,1.83
661,131824516,0.0879,0.0142,-0.8750,2.44,-1.34,1.83
662,131829515,0.0874,0.0137,-0.8730,2.62,-1.28,1.83
663,131834516,0.0864,0.0151,-0.8755,2.62,-1.40,1.83
664,131839516,0.0835,0.0132,-0.8682,2.44,-1.34,1.89
665,131844516,0.0874,0.0156,-0.8682,2.62,-1.34,1.89
666,131849515,0.0859,0.0122,-0.8706,2.62,-1.34,1.83
667,131854518,0.0854,0.0103,-0.8765,2.56,-1.46,1.89
668,131859515,0.0869,0.0151,-0.8755,2.56,-1.40,1.83
669,131864516,0.0879,0.0142,-0.8735,2.62,-1.40,1.83
670,131869515,0.0854,0.0151,-0.8730,2.62,-1.34,1.83
671,131874516,0.0845,0.0181,-0.8745,2.56,-1.40,1.83
672,131879515,0.0854,0.0146,-0.8701,2.56,-1.40,1.83
673,131884516,0.0879,0.0093,-0.8774,2.56,-1.34,1.89
674,131889515,0.0894,0.0142,-0.8677,2.50,-1.40,1.77
675,131894517,0.0874,0.0151,-0.8657,2.56,-1.40,1.89
676,131899515,0.0850,0.0166,-0.8662,2.56,-1.16,1.89
677,131904570,0.0874,0.0142,-0.8716,2.62,-1.40,1.83
678,131909515,0.0830,0.0137,-0.8794,2.68,-1.40,1.77
679,131914516,0.0859,0.0156,-0.8735,2.62,-1.28,1.77
680,131919515,0.0898,0.0161,-0.8716,2.56,-1.40,1.77
681,131924516,0.0850,0.0122,-0.8706,2.56,-1.28,1.89
682,131929515,0.0879,0.0146,-0.8755,2.62,-1.28,1.77
683,131934611,0.0864,0.0186,-0.8726,2.56,-1.34,1.89
684,131939516,0.0869,0.0186,-0.8716,2.50,-1.28,1.83
685,131944516,0.0835,0.0166,-0.8730,2.56,-1.46,1.95
686,131949515,0.0869,0.0127,-0.8696,2.50,-1.40,1.89
687,131954516,0.0850,0.0146,-0.8755,2.56,-1.34,1.83
688,131959515,0.0830,0.0151,-0.8716,2.50,-1.34,1.89
689,131964516,0.0854,0.0151,-0.8735,2.62,-1.46,1.83
690,131969515,0.0854,0.0146,-0.8721,2.56,-1.40,1.89
691,131974516,0.0840,0.0127,-0.8745,2.62,-1.40,1.83
692,131979515,0.0879,0.0122,-0.8799,2.68,-1.34,1.95
693,131984516,0.0835,0.0112,-0.8721,2.56,-1.46,1.89
694,131989612,0.0859,0.0122,-0.8735,2.68,-1.46,1.89
695,131994516,0.0859,0.0127,-0.8721,2.68,-1.34,1.83
696,131999515,0.0845,0.0161,-0.8716,2.56,-1.40,1.89
697,132004514,0.0815,0.0171,-0.8745,2.56,-1.34,1.89
698,132009518,0.0840,0.0181,-0.8730,2.50,-1.34,1.83
699,132014516,0.0850,0.0146,-0.8750,2.56,-1.46,1.95
700,132019515,0.0884,0.0146,-0.8770,2.62,-1.34,1.83
701,132024516,0.0879,0.0156,-0.8706,2.56,-1.40,1.83
702,132029515,0.0874,0.0146,-0.8794,2.68,-1.22,1.89
703,132034518,0.0850,0.0122,-0.8750,2.62,-1.28,1.83
704,132039515,0.0850,0.0176,-0.8765,2.68,-1.46,1.89
705,132044516,0.0869,0.0146,-0.8730,2.68,-1.46,1.89
706,132049515,0.0874,0.0176,-0.8721,2.62,-1.40,1.89
707,132054641,0.0879,0.0142,-0.8716,2.62,-1.34,1.89
708,132059549,0.0864,0.0186,-0.8687,2.62,-1.40,1.83
709,132064515,0.0859,0.0127,-0.8730,2.56,-1.34,1.83
710,132069516,0.0850,0.0176,-0.8730,2.62,-1.40,1.83
711,132074518,0.0884,0.0166,-0.8760,2.50,-1.46,1.83
712,132079515,0.0864,0.0127,-0.8726,2.56,-1.46,1.95
713,132084514,0.0840,0.0171,-0.8687,2.62,-1.40,1.95
714,132089516,0.0874,0.0151,-0.8701,2.56,-1.34,1.77
715,132094516,0.0879,0.0122,-0.8735,2.56,-1.40,1.83
716,132099516,0.0825,0.0142,-0.8765,2.56,-1.40,1.83
717,132104514,0.0850,0.0161,-0.8774,2.62,-1.34,1.83
718,132109516,0.0850,0.0122,-0.8687,2.62,-1.40,1.95
719,132114516,0.0879,0.0200,-0.8789,2.56,-1.46,1.89
720,132119517,0.0850,0.0156,-0.8716,2.68,-1.46,1.89
721,132124515,0.0889,0.0161,-0.8667,2.68,-1.28,1.89
722,132129516,0.0811,0.0171,-0.8721,2.62,-1.40,1.95
723,132134516,0.0840,0.0146,-0.8687,2.56,-1.40,1.89
724,132139516,0.0869,0.0142,-0.8774,2.68,-1.28,1.89
725,132144517,0.0840,0.0176,-0.8745,2.68,-1.46,1.83
726,132149516,0.0850,0.0142,-0.8784,2.56,-1.28,1.83
727,132154516,0.0840,0.0132,-0.8750,2.62,-1.34,1.89
728,132159516,0.0840,0.0142,-0.8770,2.62,-1.34,1.83
729,132164517,0.0889,0.0117,-0.8745,2.50,-1.34,1.77
730,132169516,0.0889,0.0137,-0.8711,2.56,-1.40,1.83
731,132174516,0.0864,0.0166,-0.8672,2.56,-1.34,1.83
732,132179516,0.0859,0.0151,-0.8750,2.56,-1.28,1.89
733,132184515,0.0869,0.0166,-0.8730,2.62,-1.34,1.89
734,132189517,0.0859,0.0176,-0.8716,2.56,-1.46,1.83
735,132194516,0.0884,0.0132,-0.8687,2.44,-1.40,1.83
736,132199517,0.0884,0.0166,-0.8672,2.50,-1.34,1.89
737,132204515,0.0864,0.0161,-0.8691,2.56,-1.28,1.89
738,132209516,0.0879,0.0137,-0.8706,2.68,-1.34,1.89
739,132214517,0.0840,0.0151,-0.8779,2.68,-1.40,1.89
740,132219516,0.0830,0.0132,-0.8701,2.68,-1.40,1.89
741,132224515,0.0840,0.0146,-0.8726,2.62,-1.40,1.89
742,132229516,0.0874,0.0146,-0.8770,2.62,-1.40,1.95
743,132234516,0.0854,0.0200,-0.8755,2.62,-1.40,1.89
744,132239518,0.0854,0.0142,-0.8696,2.62,-1.40,1.89
745,132244514,0.0884,0.0176,-0.8706,2.56,-1.40,1.83
746,132249517,0.0908,0.0161,-0.8730,2.62,-1.46,1.83
747,132254829,0.0825,0.0171,-0.8726,2.62,-1.40,1.89
748,132259516,0.0874,0.0137,-0.8804,2.62,-1.40,1.83
749,132264517,0.0854,0.0156,-0.8755,2.68,-1.34,1.95
750,132269822,0.0854,0.0142,-0.8740,2.74,-1.34,1.83
751,132274515,0.0845,0.0146,-0.8726,2.50,-1.28,1.89
752,132279519,0.0825,0.0151,-0.8701,2.50,-1.28,1.89
753,132284516,0.0869,0.0146,-0.8730,2.62,-1.22,1.95
754,132289515,0.0840,0.0142,-0.8745,2.56,-1.40,1.89
755,132294516,0.0864,0.0171,-0.8701,2.56,-1.34,1.77
756,132299516,0.0874,0.0122,-0.8799,2.50,-1.40,1.83
757,132304516,0.0879,0.0151,-0.8794,2.56,-1.46,1.89
758,132309515,0.0854,0.0171,-0.8740,2.68,-1.40,1.83
759,132314516,0.0859,0.0195,-0.8726,2.50,-1.28,1.83
760,132319515,0.0889,0.0176,-0.8730,2.56,-1.40,1.83
761,132324516,0.0898,0.0151,-0.8687,2.62,-1.34,1.71
762,132329515,0.0879,0.0166,-0.8770,2.56,-1.34,1.83
763,132334516,0.0815,0.0171,-0.8760,2.56,-1.52,1.83
764,132339515,0.0845,0.0146,-0.8750,2.56,-1.40,1.89
765,132344514,0.0884,0.0186,-0.8711,2.56,-1.28,1.95
766,132349518,0.0874,0.0132,-0.8687,2.62,-1.22,1.89
767,132354515,0.0864,0.0151,-0.8750,2.68,-1.46,1.89
768,132359516,0.0884,0.0146,-0.8735,2.56,-1.40,1.89
769,132364516,0.0864,0.0132,-0.8726,2.56,-1.46,1.83
770,132369516,0.0850,0.0146,-0.8755,2.56,-1.34,1.89
771,132374515,0.0879,0.0186,-0.8750,2.62,-1.40,1.83
772,132379516,0.0864,0.0146,-0.8730,2.62,-1.40,1.83
773,132384516,0.0869,0.0122,-0.8735,2.68,-1.52,1.71
774,132389516,0.0840,0.0117,-0.8672,2.56,-1.46,1.77
775,132394517,0.0845,0.0132,-0.8706,2.62,-1.34,1.83
776,132399516,0.0840,0.0161,-0.8701,2.56,-1.52,1.95
777,132404516,0.0859,0.0117,-0.8691,2.62,-1.28,1.83
778,132409516,0.0859,0.0137,-0.8755,2.56,-1.46,1.89
779,132414514,0.0859,0.0137,-0.8745,2.56,-1.40,1.83
780,132419515,0.0864,0.0151,-0.8750,2.68,-1.52,1.83
781,132424516,0.0854,0.0161,-0.8730,2.56,-1.40,1.83
782,132429515,0.0874,0.0107,-0.8730,2.50,-1.34,1.89
783,132434516,0.0869,0.0161,-0.8662,2.68,-1.28,1.77
784,132439515,0.0859,0.0166,-0.8750,2.50,-1.34,1.83
785,132444515,0.0864,0.0151,-0.8721,2.62,-1.28,1.89
786,132449516,0.0869,0.0132,-0.8740,2.56,-1.28,1.89
787,132454517,0.0854,0.0156,-0.8701,2.68,-1.40,1.83
788,132459516,0.0845,0.0161,-0.8677,2.68,-1.46,1.89
789,132464515,0.0864,0.0142,-0.8745,2.62,-1.46,1.83
790,132469516,0.0879,0.0098,-0.8770,2.56,-1.34,1.83
791,132474516,0.0874,0.0127,-0.8696,2.56,-1.40,1.83
792,132479516,0.0869,0.0132,-0.8721,2.62,-1.34,1.83
793,132484515,0.0879,0.0137,-0.8794,2.62,-1.40,1.89
794,132489516,0.0830,0.0151,-0.8760,2.68,-1.40,1.89
795,132494515,0.0864,0.0171,-0.8784,2.56,-1.22,1.77
796,132499516,0.0869,0.0181,-0.8740,2.56,-1.28,1.95
797,132504556,0.0894,0.0127,-0.8716,2.56,-1.52,1.89
798,132509517,0.0869,0.0181,-0.8691,2.62,-1.40,1.83
799,132514514,0.0850,0.0190,-0.8804,2.62,-1.34,1.83
800,132519516,0.0845,0.0156,-0.8730,2.56,-1.28,1.83
801,132524516,0.0864,0.0156,-0.8760,2.62,-1.34,1.89
802,132529516,0.0889,0.0137,-0.8745,2.68,-1.34,1.89
803,132534515,0.0869,0.0166,-0.8716,2.50,-1.22,1.83
804,132539516,0.0874,0.0146,-0.8716,2.50,-1.28,1.89
805,132544516,0.0854,0.0166,-0.8657,2.62,-1.40,1.77
806,132549516,0.0859,0.0142,-0.8730,2.62,-1.28,1.89
807,132554517,0.0869,0.0156,-0.8726,2.56,-1.28,1.83
808,132559516,0.0854,0.0137,-0.8726,2.62,-1.28,1.89
809,132564516,0.0835,0.0151,-0.8721,2.56,-1.28,1.89
810,132569516,0.0879,0.0137,-0.8721,2.56,-1.34,1.83
811,132574515,0.0859,0.0156,-0.8770,2.62,-1.40,1.89
812,132579516,0.0859,0.0127,-0.8799,2.62,-1.34,1.83
813,132584516,0.0850,0.0146,-0.8750,2.50,-1.28,1.89
814,132589516,0.0835,0.0103,-0.8726,2.56,-1.34,1.77
815,132594515,0.0854,0.0146,-0.8730,2.56,-1.34,1.83
816,132599517,0.0825,0.0166,-0.8760,2.56,-1.46,1.83
817,132604516,0.0864,0.0171,-0.8735,2.50,-1.34,1.83
818,132609516,0.0859,0.0112,-0.8735,2.56,-1.46,1.83
819,132614517,0.0854,0.0137,-0.8774,2.62,-1.40,1.83
820,132619516,0.0869,0.0132,-0.8735,2.62,-1.34,1.95
821,132624516,0.0869,0.0166,-0.8672,2.56,-1.46,1.89
822,132629516,0.0859,0.0142,-0.8730,2.68,-1.40,1.89
823,132634515,0.0884,0.0117,-0.8765,2.56,-1.46,1.83
824,132639516,0.0879,0.0156,-0.8726,2.56,-1.28,1.89
825,132644516,0.0859,0.0200,-0.8721,2.62,-1.28,1.95
826,132649516,0.0864,0.0156,-0.8706,2.62,-1.34,1.95
827,132654516,0.0840,0.0186,-0.8779,2.74,-1.28,1.95
828,132659516,0.0884,0.0137,-0.8799,2.56,-1.22,1.89
829,132664516,0.0854,0.0142,-0.8745,2.68,-1.28,1.89
830,132669515,0.0889,0.0112,-0.8750,2.50,-1.22,1.83
831,132674514,0.0850,0.0132,-0.8755,2.62,-1.40,1.95
832,132679516,0.0874,0.0166,-0.8755,2.56,-1.34,1.83
833,132684517,0.0864,0.0156,-0.8667,2.56,-1.22,1.89
834,132689516,0.0835,0.0166,-0.8760,2.56,-1.34,1.77
835,132694514,0.0854,0.0127,-0.8760,2.56,-1.28,1.83
836,132699516,0.0879,0.0127,-0.8711,2.50,-1.22,1.89
837,132704517,0.0889,0.0142,-0.8750,2.56,-1.34,1.83
838,132709516,0.0889,0.0122,-0.8735,2.68,-1.34,1.77
839,132714515,0.0869,0.0127,-0.8701,2.62,-1.40,1.89
840,132719516,0.0889,0.0161,-0.8711,2.50,-1.34,1.95
841,132724516,0.0859,0.0166,-0.8716,2.56,-1.46,1.77
842,132729517,0.0845,0.0156,-0.8740,2.62,-1.34,1.89
843,132734515,0.0850,0.0156,-0.8779,2.56,-1.40,1.77
844,132739516,0.0835,0.0156,-0.8745,2.56,-1.40,1.89
845,132744516,0.0879,0.0195,-0.8745,2.68,-1.40,1.89
846,132749516,0.0894,0.0132,-0.8696,2.44,-1.34,1.83
847,132754514,0.0854,0.0151,-0.8740,2.50,-1.34,1.83
848,132759518,0.0894,0.0137,-0.8740,2.56,-1.40,1.83
849,132764516,0.0854,0.0151,-0.8711,2.56,-1.28,1.95
850,132769516,0.0864,0.0142,-0.8711,2.68,-1.46,1.89
851,132774515,0.0889,0.0181,-0.8784,2.56,-1.34,1.89
852,132779516,0.0874,0.0161,-0.8765,2.56,-1.46,1.89
853,132784516,0.0859,0.0127,-0.8677,2.56,-1.40,1.83
854,132789516,0.0830,0.0156,-0.8696,2.68,-1.46,1.95
855,132794516,0.0869,0.0161,-0.8745,2.50,-1.28,1.95
856,132799516,0.0864,0.0151,-0.8735,2.68,-1.46,1.89
857,132804517,0.0840,0.0176,-0.8750,2.62,-1.46,1.89
858,132809516,0.0854,0.0142,-0.8735,2.56,-1.34,1.83
859,132814516,0.0884,0.0107,-0.8740,2.62,-1.40,1.89
860,132819516,0.0864,0.0137,-0.8745,2.62,-1.34,1.89
861,132824526,0.0835,0.0151,-0.8750,2.74,-1.28,1.89
862,132829515,0.0859,0.0151,-0.8701,2.62,-1.28,1.83
863,132834516,0.0845,0.0117,-0.8682,2.62,-1.28,1.83
864,132839515,0.0854,0.0142,-0.8809,2.62,-1.34,1.95
865,132844516,0.0845,0.0151,-0.8745,2.56,-1.34,1.95
866,132849515,0.0894,0.0176,-0.8735,2.44,-1.34,1.89
867,132854515,0.0806,0.0166,-0.8770,2.44,-1.40,1.71
868,132859794,0.0874,0.0137,-0.8701,2.56,-1.46,1.83
869,132864518,0.0854,0.0161,-0.8779,2.62,-1.40,1.89
870,132869515,0.0840,0.0137,-0.8735,2.62,-1.34,1.95
871,132874516,0.0850,0.0127,-0.8784,2.68,-1.46,1.89
872,132879515,0.0864,0.0151,-0.8706,2.56,-1.46,1.95
873,132884524,0.0869,0.0112,-0.8691,2.62,-1.40,1.89
874,132889518,0.0864,0.0161,-0.8716,2.56,-1.40,1.89
875,132894516,0.0889,0.0161,-0.8750,2.56,-1.40,1.71
876,132899516,0.0864,0.0151,-0.8672,2.50,-1.28,1.89
877,132904514,0.0889,0.0161,-0.8701,2.68,-1.28,1.95
878,132909517,0.0864,0.0142,-0.8833,2.62,-1.34,1.89
879,132914516,0.0879,0.0137,-0.8789,2.56,-1.40,1.89
880,132919515,0.0869,0.0161,-0.8745,2.56,-1.46,1.83
881,132924514,0.0835,0.0166,-0.8784,2.56,-1.22,1.83
882,132929518,0.0869,0.0132,-0.8779,2.56,-1.28,1.89
883,132934516,0.0874,0.0161,-0.8716,2.62,-1.40,1.83
884,132939515,0.0859,0.0176,-0.8765,2.62,-1.34,1.89
885,132944516,0.0835,0.0200,-0.8760,2.50,-1.28,1.89
886,132949515,0.0869,0.0137,-0.8726,2.56,-1.34,1.83
887,132954517,0.0840,0.0132,-0.8721,2.68,-1.52,1.89
888,132959581,0.0869,0.0156,-0.8701,2.56,-1.28,1.95
889,132964518,0.0840,0.0146,-0.8745,2.56,-1.28,1.83
890,132969515,0.0894,0.0186,-0.8730,2.62,-1.40,1.83
891,132974516,0.0894,0.0122,-0.8667,2.56,-1.28,1.89
892,132979515,0.0884,0.0186,-0.8735,2.62,-1.34,1.89
893,132984516,0.0879,0.0146,-0.8770,2.62,-1.34,1.83
894,132989515,0.0864,0.0186,-0.8750,2.68,-1.46,1.83
895,132994516,0.0854,0.0171,-0.8774,2.62,-1.34,1.83
896,132999515,0.0898,0.0132,-0.8755,2.62,-1.28,1.89
897,133004516,0.0845,0.0161,-0.8750,2.62,-1.40,1.89
898,133009516,0.0869,0.0132,-0.8735,2.56,-1.34,1.89
899,133014516,0.0864,0.0161,-0.8735,2.56,-1.40,1.95
900,133019515,0.0830,0.0171,-0.8745,2.56,-1.46,1.89
901,133024516,0.0835,0.0127,-0.8755,2.62,-1.34,1.83
902,133029514,0.0825,0.0146,-0.8774,2.68,-1.28,1.83
903,133034518,0.0830,0.0161,-0.8750,2.68,-1.28,1.89
904,133039515,0.0864,0.0151,-0.8730,2.50,-1.40,1.89
905,133044638,0.0845,0.0156,-0.8755,2.56,-1.52,1.83
906,133049516,0.0869,0.0137,-0.8726,2.56,-1.28,1.89
907,133054516,0.0854,0.0137,-0.8726,2.56,-1.28,1.83
908,133059516,0.0869,0.0156,-0.8726,2.68,-1.46,1.77
909,133064515,0.0825,0.0161,-0.8760,2.62,-1.46,1.83
910,133069517,0.0903,0.0171,-0.8770,2.62,-1.40,1.89
911,133074516,0.0889,0.0171,-0.8701,2.56,-1.46,1.95
912,133079516,0.0879,0.0151,-0.8706,2.56,-1.22,1.89
913,133084517,0.0845,0.0151,-0.8716,2.74,-1.34,1.95
914,133089516,0.0889,0.0127,-0.8706,2.56,-1.52,1.83
915,133094516,0.0845,0.0186,-0.8643,2.50,-1.40,1.83
916,133099516,0.0820,0.0098,-0.8794,2.62,-1.52,1.95
917,133104515,0.0874,0.0142,-0.8774,2.62,-1.46,1.95
918,133109516,0.0859,0.0127,-0.8755,2.56,-1.34,1.83
919,133114515,0.0874,0.0146,-0.8760,2.56,-1.34,1.83
920,133119518,0.0874,0.0151,-0.8755,2.62,-1.40,1.95
921,133124516,0.0850,0.0142,-0.8721,2.62,-1.34,1.95
922,133129515,0.0830,0.0142,-0.8706,2.56,-1.46,1.89
923,133134516,0.0864,0.0176,-0.8716,2.62,-1.40,1.89
924,133139516,0.0835,0.0181,-0.8691,2.62,-1.40,1.89
925,133144518,0.0874,0.0122,-0.8740,2.68,-1.28,1.89
926,133149515,0.0874,0.0161,-0.8750,2.50,-1.40,1.83
927,133154516,0.0835,0.0146,-0.8789,2.56,-1.40,1.83
928,133159515,0.0864,0.0142,-0.8745,2.62,-1.40,1.83
929,133164516,0.0854,0.0151,-0.8706,2.56,-1.40,1.77
930,133169516,0.0879,0.0181,-0.8730,2.56,-1.28,1.89
931,133174516,0.0859,0.0186,-0.8740,2.62,-1.28,1.83
932,133179515,0.0859,0.0166,-0.8755,2.74,-1.34,1.77
933,133184517,0.0884,0.0146,-0.8740,2.56,-1.46,1.83
934,133189514,0.0874,0.0161,-0.8765,2.68,-1.28,1.89
935,133194516,0.0874,0.0151,-0.8687,2.62,-1.34,1.89
936,133199518,0.0859,0.0146,-0.8770,2.68,-1.34,1.83
937,133204516,0.0850,0.0142,-0.8740,2.56,-1.40,1.89
938,133209516,0.0869,0.0122,-0.8799,2.62,-1.28,1.89
939,133214517,0.0845,0.0127,-0.8789,2.62,-1.34,1.89
940,133219516,0.0850,0.0161,-0.8701,2.68,-1.28,1.89
941,133224516,0.0879,0.0181,-0.8789,2.62,-1.40,1.95
942,133229516,0.0850,0.0156,-0.8784,2.68,-1.34,1.89
943,133234514,0.0864,0.0151,-0.8774,2.56,-1.34,1.89
944,133239517,0.0874,0.0171,-0.8716,2.62,-1.34,1.77
945,133244516,0.0879,0.0127,-0.8784,2.56,-1.46,1.95
946,133249516,0.0869,0.0166,-0.8755,2.50,-1.16,1.83
947,133254515,0.0869,0.0098,-0.8740,2.56,-1.52,1.83
948,133259516,0.0869,0.0127,-0.8774,2.62,-1.46,1.77
949,133264516,0.0850,0.0146,-0.8706,2.62,-1.34,1.89
950,133269516,0.0859,0.0161,-0.8740,2.56,-1.40,1.83
951,133274517,0.0854,0.0186,-0.8730,2.62,-1.46,1.83
952,133279516,0.0898,0.0142,-0.8691,2.62,-1.34,1.83
953,133284516,0.0854,0.0166,-0.8677,2.62,-1.34,1.89
954,133289516,0.0850,0.0132,-0.8745,2.50,-1.40,1.95
955,133294515,0.0854,0.0166,-0.8755,2.62,-1.34,2.01
956,133299517,0.0835,0.0146,-0.8716,2.56,-1.28,2.01
957,133304516,0.0815,0.0132,-0.8794,2.62,-1.34,1.89
958,133309516,0.0825,0.0137,-0.8730,2.68,-1.40,1.89
959,133314514,0.0830,0.0132,-0.8726,2.62,-1.40,1.89
960,133319518,0.0859,0.0107,-0.8726,2.50,-1.46,1.89
961,133324516,0.0850,0.0166,-0.8701,2.62,-1.34,1.89
962,133329515,0.0898,0.0137,-0.8745,2.68,-1.40,1.89
963,133334516,0.0845,0.0112,-0.8740,2.56,-1.52,1.95
964,133339515,0.0889,0.0151,-0.8726,2.50,-1.28,1.77
965,133344516,0.0850,0.0127,-0.8745,2.56,-1.40,1.89
966,133349515,0.0845,0.0137,-0.8760,2.62,-1.34,1.89
967,133354516,0.0830,0.0166,-0.8730,2.50,-1.22,1.89
968,133359515,0.0835,0.0137,-0.8745,2.62,-1.28,1.83
969,133364517,0.0840,0.0122,-0.8701,2.62,-1.34,1.89
970,133369515,0.0879,0.0151,-0.8716,2.50,-1.40,1.83
971,133374518,0.0835,0.0151,-0.8696,2.50,-1.40,1.95
972,133379515,0.0850,0.0156,-0.8730,2.62,-1.28,1.89
973,133384516,0.0884,0.0166,-0.8794,2.56,-1.46,1.89
974,133389515,0.0830,0.0156,-0.8784,2.62,-1.28,1.83
975,133394516,0.0898,0.0161,-0.8691,2.62,-1.34,1.89
976,133399515,0.0889,0.0142,-0.8696,2.62,-1.28,1.77
977,133404516,0.0889,0.0166,-0.8774,2.62,-1.34,1.83
978,133409515,0.0854,0.0151,-0.8726,2.56,-1.34,1.89
979,133414518,0.0884,0.0181,-0.8721,2.62,-1.28,1.89
980,133419515,0.0859,0.0200,-0.8740,2.62,-1.22,1.89
981,133424516,0.0879,0.0161,-0.8770,2.56,-1.40,1.89
982,133429515,0.0869,0.0132,-0.8726,2.62,-1.22,1.83
983,133434516,0.0825,0.0176,-0.8672,2.56,-1.40,1.83
984,133439515,0.0874,0.0171,-0.8711,2.56,-1.40,1.89
985,133444518,0.0864,0.0146,-0.8765,2.62,-1.40,1.77
986,133449515,0.0879,0.0142,-0.8784,2.68,-1.52,1.83
987,133454516,0.0835,0.0161,-0.8726,2.68,-1.34,1.89
988,133459515,0.0884,0.0176,-0.8740,2.56,-1.46,1.89
989,133464516,0.0879,0.0161,-0.8735,2.68,-1.40,1.83
990,133469577,0.0845,0.0137,-0.8716,2.62,-1.28,1.89
991,133474516,0.0850,0.0151,-0.8721,2.56,-1.46,1.89
992,133479516,0.0908,0.0146,-0.8750,2.62,-1.28,1.95
993,133484516,0.0859,0.0112,-0.8701,2.68,-1.46,1.83
994,133489520,0.0898,0.0132,-0.8813,2.68,-1.34,1.89
995,133494516,0.0859,0.0161,-0.8701,2.56,-1.40,2.01
996,133499515,0.0864,0.0142,-0.8745,2.56,-1.28,1.89
997,133504518,0.0845,0.0166,-0.8765,2.62,-1.40,1.89
998,133509515,0.0884,0.0142,-0.8740,2.56,-1.28,1.89
999,133514514,0.0835,0.0146,-0.8696,2.62,-1.34,1.89
1000,133519516,0.0854,0.0137,-0.8730,2.56,-1.28,1.89
1001,133524516,0.0874,0.0127,-0.8726,2.62,-1.28,1.95
1002,133529515,0.0869,0.0142,-0.8706,2.56,-1.28,1.89
1003,133534516,0.0884,0.0156,-0.8774,2.68,-1.40,1.95
1004,133539515,0.0854,0.0146,-0.8701,2.62,-1.40,1.83
1005,133544516,0.0879,0.0151,-0.8779,2.68,-1.28,1.95
1006,133549516,0.0850,0.0166,-0.8750,2.62,-1.46,1.95
1007,133554516,0.0884,0.0137,-0.8770,2.62,-1.40,1.77
1008,133559515,0.0864,0.0117,-0.8721,2.62,-1.28,1.83
1009,133564516,0.0898,0.0146,-0.8735,2.62,-1.22,1.83
1010,133569515,0.0864,0.0142,-0.8760,2.62,-1.34,1.83
1011,133574658,0.0854,0.0127,-0.8755,2.68,-1.34,1.83
1012,133579517,0.0884,0.0142,-0.8657,2.62,-1.52,1.89
1013,133584516,0.0854,0.0137,-0.8755,2.56,-1.34,1.89
1014,133589516,0.0874,0.0171,-0.8779,2.44,-1.40,1.77
1015,133594515,0.0889,0.0142,-0.8706,2.56,-1.34,1.95
1016,133599517,0.0884,0.0146,-0.8735,2.56,-1.46,1.83
1017,133604516,0.0859,0.0137,-0.8755,2.56,-1.34,1.89
1018,133609516,0.0864,0.0146,-0.8745,2.62,-1.34,1.89
1019,133614515,0.0854,0.0088,-0.8726,2.62,-1.40,1.83
1020,133619516,0.0854,0.0190,-0.8730,2.68,-1.40,1.95
1021,133624516,0.0840,0.0146,-0.8726,2.56,-1.34,1.95
1022,133629516,0.0825,0.0166,-0.8765,2.50,-1.52,1.83
1023,133634515,0.0884,0.0156,-0.8760,2.62,-1.40,1.77
1024,133639516,0.0884,0.0117,-0.8735,2.68,-1.34,1.83
1025,133644514,0.0859,0.0166,-0.8765,2.56,-1.40,1.83
1026,133649516,0.0903,0.0142,-0.8794,2.56,-1.22,1.83
1027,133654517,0.0864,0.0225,-0.8667,2.62,-1.40,1.83
1028,133659516,0.0859,0.0117,-0.8750,2.56,-1.34,2.01
1029,133664515,0.0859,0.0107,-0.8760,2.56,-1.34,1.77
1030,133669516,0.0850,0.0088,-0.8818,2.62,-1.46,1.89
1031,133674516,0.0845,0.0171,-0.8716,2.56,-1.40,1.83
1032,133679516,0.0874,0.0146,-0.8721,2.68,-1.52,1.95
1033,133684515,0.0879,0.0142,-0.8726,2.56,-1.40,1.83
1034,133689516,0.0869,0.0156,-0.8770,2.56,-1.40,1.89
1035,133694516,0.0864,0.0151,-0.8726,2.62,-1.46,1.77
1036,133699517,0.0840,0.0146,-0.8672,2.68,-1.40,1.77
1037,133704967,0.0835,0.0132,-0.8657,2.56,-1.40,1.83
1038,133709516,0.0864,0.0156,-0.8740,2.68,-1.34,1.89
1039,133714516,0.0879,0.0156,-0.8716,2.62,-1.40,1.77
1040,133719516,0.0845,0.0176,-0.8726,2.68,-1.34,1.89
1041,133724516,0.0889,0.0127,-0.8711,2.56,-1.34,1.89
1042,133729516,0.0859,0.0088,-0.8696,2.62,-1.40,1.89
1043,133734516,0.0830,0.0156,-0.8667,2.50,-1.40,1.83
1044,133739516,0.0859,0.0127,-0.8770,2.62,-1.40,1.89
1045,133744514,0.0879,0.0166,-0.8755,2.68,-1.40,1.89
1046,133749517,0.0869,0.0137,-0.8711,2.62,-1.40,1.83
1047,133754516,0.0898,0.0132,-0.8765,2.62,-1.40,1.83
1048,133759515,0.0840,0.0151,-0.8696,2.68,-1.40,1.77
1049,133764516,0.0850,0.0117,-0.8726,2.56,-1.46,1.89
1050,133769515,0.0864,0.0146,-0.8682,2.62,-1.46,1.95
1051,133774515,0.0845,0.0166,-0.8696,2.56,-1.34,1.83
1052,133779700,0.0820,0.0161,-0.8740,2.56,-1.46,1.89
1053,133784516,0.0845,0.0156,-0.8687,2.62,-1.52,1.83
1054,133789515,0.0835,0.0142,-0.8711,2.56,-1.28,1.83
1055,133794516,0.0835,0.0112,-0.8687,2.56,-1.34,1.83
1056,133799515,0.0894,0.0117,-0.8740,2.56,-1.40,1.89
1057,133804516,0.0898,0.0171,-0.8735,2.62,-1.34,1.83
1058,133809515,0.0884,0.0142,-0.8726,2.56,-1.46,1.83
1059,133814516,0.0840,0.0171,-0.8750,2.56,-1.40,1.89
1060,133819515,0.0894,0.0137,-0.8696,2.56,-1.22,1.89
1061,133824514,0.0854,0.0166,-0.8706,2.56,-1.28,1.77
1062,133829619,0.0850,0.0151,-0.8735,2.68,-1.40,1.83
1063,133834516,0.0874,0.0181,-0.8716,2.56,-1.34,1.77
1064,133839515,0.0884,0.0161,-0.8701,2.62,-1.40,1.89
1065,133844516,0.0869,0.0137,-0.8706,2.56,-1.34,1.83
1066,133849734,0.0854,0.0127,-0.8721,2.56,-1.34,1.89
1067,133854516,0.0869,0.0112,-0.8750,2.56,-1.34,1.95
1068,133859515,0.0850,0.0122,-0.8696,2.62,-1.34,1.83
1069,133864518,0.0869,0.0151,-0.8672,2.56,-1.34,1.89
1070,133869515,0.0859,0.0137,-0.8696,2.62,-1.34,1.89
1071,133874516,0.0869,0.0146,-0.8765,2.68,-1.46,1.89
1072,133879515,0.0850,0.0181,-0.8672,2.62,-1.40,1.89
1073,133884516,0.0850,0.0171,-0.8735,2.56,-1.40,1.83
1074,133889516,0.0840,0.0166,-0.8701,2.56,-1.40,1.89
1075,133894517,0.0825,0.0166,-0.8730,2.50,-1.40,1.83
1076,133899515,0.0840,0.0132,-0.8735,2.56,-1.28,1.95
1077,133904516,0.0859,0.0132,-0.8716,2.50,-1.34,1.77
1078,133909515,0.0845,0.0151,-0.8677,2.56,-1.34,1.77
1079,133914516,0.0874,0.0181,-0.8760,2.62,-1.46,1.89
1080,133919515,0.0850,0.0142,-0.8687,2.62,-1.40,1.83
1081,133924930,0.0845,0.0156,-0.8696,2.62,-1.16,1.83
1082,133929517,0.0850,0.0161,-0.8726,2.50,-1.34,1.83
1083,133934802,0.0869,0.0151,-0.8804,2.62,-1.28,1.83
1084,133939516,0.0898,0.0142,-0.8770,2.62,-1.34,1.77
1085,133944516,0.0903,0.0112,-0.8721,2.62,-1.28,1.77
1086,133949516,0.0854,0.0156,-0.8706,2.56,-1.40,1.83
1087,133954515,0.0884,0.0151,-0.8726,2.56,-1.46,1.77
1088,133959517,0.0864,0.0132,-0.8706,2.62,-1.16,1.95
1089,133964516,0.0859,0.0142,-0.8755,2.62,-1.46,1.89
1090,133969516,0.0864,0.0176,-0.8779,2.62,-1.46,1.89
1091,133974515,0.0879,0.0171,-0.8745,2.62,-1.34,1.89
1092,133979516,0.0869,0.0151,-0.8760,2.68,-1.22,1.89
1093,133984518,0.0879,0.0117,-0.8730,2.56,-1.52,1.95
1094,133989517,0.0854,0.0146,-0.8745,2.68,-1.46,1.89
1095,133994516,0.0854,0.0137,-0.8774,2.50,-1.40,1.89
1096,133999516,0.0850,0.0142,-0.8740,2.56,-1.46,1.95
1097,134004515,0.0845,0.0122,-0.8696,2.56,-1.22,1.89
1098,134009516,0.0820,0.0127,-0.8726,2.62,-1.34,1.83
1099,134014517,0.0820,0.0117,-0.8682,2.56,-1.40,1.83
1100,134019516,0.0835,0.0117,-0.8755,2.50,-1.28,1.83
1101,134024515,0.0884,0.0146,-0.8760,2.62,-1.28,1.89
1102,134029516,0.0879,0.0156,-0.8740,2.56,-1.40,1.95
1103,134034519,0.0825,0.0156,-0.8755,2.56,-1.40,1.95
1104,134039516,0.0859,0.0166,-0.8726,2.62,-1.34,1.89
1105,134044516,0.0850,0.0171,-0.8735,2.50,-1.40,1.83
1106,134049516,0.0864,0.0132,-0.8696,2.56,-1.22,1.83
1107,134054581,0.0879,0.0146,-0.8721,2.62,-1.46,1.89
1108,134059517,0.0830,0.0107,-0.8784,2.62,-1.46,1.83
1109,134064516,0.0869,0.0151,-0.8745,2.56,-1.34,1.71
1110,134069516,0.0850,0.0117,-0.8657,2.62,-1.34,1.83
1111,134074515,0.0869,0.0176,-0.8716,2.62,-1.34,1.83
1112,134079516,0.0859,0.0132,-0.8721,2.44,-1.52,1.89
1113,134084523,0.0889,0.0171,-0.8716,2.44,-1.40,1.95
1114,134089517,0.0918,0.0166,-0.8770,2.50,-1.46,1.77
1115,134094516,0.0864,0.0161,-0.8779,2.68,-1.40,1.95
1116,134099516,0.0874,0.0166,-0.8789,2.62,-1.46,1.83
1117,134104514,0.0874,0.0132,-0.8716,2.56,-1.46,1.83
1118,134109516,0.0869,0.0137,-0.8726,2.62,-1.34,1.83
1119,134114517,0.0845,0.0156,-0.8745,2.56,-1.34,1.89
1120,134119517,0.0835,0.0142,-0.8799,2.56,-1.34,1.77
1121,134124515,0.0854,0.0166,-0.8652,2.68,-1.34,1.77
1122,134129524,0.0850,0.0151,-0.8750,2.68,-1.40,1.89
1123,134134516,0.0850,0.0176,-0.8774,2.68,-1.40,1.83
1124,134139774,0.0854,0.0117,-0.8784,2.62,-1.40,1.77
1125,134144516,0.0845,0.0161,-0.8696,2.56,-1.40,1.89
1126,134149515,0.0825,0.0137,-0.8711,2.62,-1.28,1.95
1127,134154514,0.0854,0.0151,-0.8740,2.50,-1.34,1.89
1128,134159517,0.0864,0.0161,-0.8750,2.68,-1.40,1.89
1129,134164518,0.0869,0.0166,-0.8696,2.56,-1.34,1.89
1130,134169516,0.0923,0.0137,-0.8726,2.62,-1.34,1.89
1131,134174516,0.0874,0.0195,-0.8730,2.50,-1.40,1.83
1132,134179515,0.0894,0.0156,-0.8730,2.68,-1.46,1.77
1133,134184515,0.0854,0.0156,-0.8735,2.56,-1.40,1.89
1134,134189516,0.0864,0.0166,-0.8726,2.62,-1.34,1.95
1135,134194517,0.0840,0.0137,-0.8711,2.62,-1.34,1.89
1136,134199517,0.0815,0.0107,-0.8721,2.56,-1.40,1.89
1137,134204516,0.0850,0.0146,-0.8701,2.68,-1.34,1.89
1138,134209515,0.0840,0.0151,-0.8779,2.68,-1.40,1.89
1139,134214516,0.0859,0.0142,-0.8730,2.62,-1.40,1.83
1140,134219515,0.0864,0.0161,-0.8750,2.50,-1.40,1.95
1141,134224516,0.0850,0.0156,-0.8735,2.56,-1.40,1.89
1142,134229515,0.0854,0.0146,-0.8721,2.62,-1.46,1.95
1143,134234518,0.0864,0.0132,-0.8730,2.56,-1.34,1.83
1144,134239515,0.0864,0.0181,-0.8770,2.62,-1.40,1.83
1145,134244516,0.0859,0.0171,-0.8682,2.56,-1.34,1.89
1146,134249515,0.0840,0.0161,-0.8765,2.62,-1.34,1.95
1147,134254514,0.0859,0.0112,-0.8784,2.50,-1.46,1.95
1148,134259516,0.0889,0.0161,-0.8799,2.56,-1.40,1.83
1149,134264516,0.0869,0.0132,-0.8735,2.50,-1.40,1.83
1150,134269516,0.0850,0.0117,-0.8770,2.56,-1.40,1.83
1151,134274516,0.0874,0.0146,-0.8716,2.56,-1.40,1.89
1152,134279516,0.0850,0.0161,-0.8765,2.68,-1.52,1.89
1153,134284516,0.0889,0.0166,-0.8740,2.62,-1.46,1.83
1154,134289516,0.0845,0.0112,-0.8721,2.56,-1.46,1.89
1155,134294518,0.0825,0.0166,-0.8755,2.56,-1.46,1.89
1156,134299515,0.0884,0.0166,-0.8813,2.68,-1.59,1.77
1157,134304516,0.0864,0.0137,-0.8730,2.68,-1.46,1.83
1158,134309515,0.0879,0.0171,-0.8774,2.68,-1.28,1.83
1159,134314516,0.0874,0.0151,-0.8774,2.62,-1.28,1.89
1160,134319515,0.0850,0.0146,-0.8643,2.74,-1.28,1.89
1161,134324516,0.0845,0.0156,-0.8726,2.56,-1.46,1.95
1162,134329515,0.0889,0.0151,-0.8726,2.62,-1.40,1.83
1163,134334860,0.0859,0.0132,-0.8721,2.62,-1.46,1.77
1164,134339517,0.0913,0.0146,-0.8721,2.62,-1.28,1.83
1165,134344826,0.0874,0.0161,-0.8726,2.56,-1.22,1.83
1166,134349516,0.0859,0.0137,-0.8706,2.74,-1.46,1.83
1167,134354516,0.0864,0.0146,-0.8745,2.56,-1.40,1.83
1168,134359516,0.0864,0.0142,-0.8706,2.62,-1.28,1.95
1169,134364516,0.0835,0.0171,-0.8677,2.56,-1.34,1.89
1170,134369516,0.0879,0.0146,-0.8735,2.62,-1.46,1.89
1171,134374516,0.0913,0.0181,-0.8760,2.56,-1.46,1.95
1172,134379516,0.0879,0.0176,-0.8716,2.62,-1.22,1.89
1173,134384516,0.0889,0.0186,-0.8745,2.44,-1.46,1.83
1174,134389516,0.0830,0.0146,-0.8716,2.62,-1.40,1.83
1175,134394559,0.0869,0.0142,-0.8701,2.56,-1.28,1.89
1176,134399517,0.0864,0.0151,-0.8809,2.56,-1.40,1.83
1177,134404516,0.0854,0.0151,-0.8750,2.56,-1.40,1.89
1178,134409516,0.0854,0.0132,-0.8691,2.62,-1.40,1.83
1179,134414516,0.0840,0.0146,-0.8691,2.62,-1.28,1.89
1180,134419516,0.0845,0.0151,-0.8716,2.50,-1.34,1.89
1181,134424516,0.0874,0.0137,-0.8701,2.62,-1.34,1.89
1182,134429516,0.0859,0.0186,-0.8735,2.68,-1.46,1.77
1183,134434516,0.0850,0.0127,-0.8760,2.62,-1.28,1.83
1184,134439516,0.0898,0.0161,-0.8774,2.68,-1.40,1.71
1185,134444516,0.0864,0.0137,-0.8755,2.68,-1.40,1.89
1186,134449516,0.0830,0.0151,-0.8770,2.68,-1.34,1.83
1187,134454517,0.0811,0.0127,-0.8765,2.62,-1.34,1.83
1188,134459516,0.0835,0.0146,-0.8711,2.68,-1.46,1.83
1189,134464831,0.0864,0.0151,-0.8735,2.62,-1.28,1.89
1190,134469516,0.0874,0.0151,-0.8716,2.56,-1.40,1.83
1191,134474516,0.0864,0.0161,-0.8765,2.56,-1.40,1.95
1192,134479516,0.0854,0.0151,-0.8750,2.62,-1.34,1.89
1193,134484516,0.0864,0.0171,-0.8691,2.56,-1.40,1.89
1194,134489517,0.0869,0.0142,-0.8721,2.62,-1.28,1.95
1195,134494514,0.0859,0.0146,-0.8696,2.56,-1.34,1.77
1196,134499516,0.0879,0.0127,-0.8706,2.44,-1.40,1.83
1197,134504516,0.0850,0.0132,-0.8716,2.50,-1.34,1.89
1198,134509515,0.0850,0.0146,-0.8706,2.56,-1.34,1.89
1199,134514516,0.0864,0.0142,-0.8789,2.68,-1.40,1.89
1200,134519515,0.0874,0.0122,-0.8711,2.56,-1.34,1.83
1201,134524516,0.0913,0.0181,-0.8716,2.56,-1.34,1.83
1202,134529515,0.0864,0.0161,-0.8716,2.56,-1.34,1.83
1203,134534516,0.0854,0.0161,-0.8721,2.56,-1.52,1.89
1204,134539515,0.0825,0.0112,-0.8735,2.56,-1.28,1.83
1205,134544516,0.0864,0.0137,-0.8721,2.56,-1.40,1.89
1206,134549516,0.0894,0.0142,-0.8726,2.56,-1.40,1.89
1207,134554516,0.0879,0.0181,-0.8740,2.62,-1.34,1.83
1208,134559516,0.0850,0.0127,-0.8735,2.62,-1.34,1.89
1209,134564517,0.0854,0.0127,-0.8760,2.62,-1.34,1.83
1210,134569516,0.0874,0.0122,-0.8770,2.74,-1.40,1.95
1211,134574516,0.0884,0.0137,-0.8726,2.62,-1.40,1.83
1212,134579516,0.0874,0.0156,-0.8730,2.62,-1.40,1.89
1213,134584516,0.0884,0.0151,-0.8677,2.56,-1.34,1.89
1214,134589516,0.0918,0.0146,-0.8667,2.62,-1.40,1.89
1215,134594515,0.0859,0.0112,-0.8696,2.62,-1.28,1.83
1216,134599516,0.0854,0.0122,-0.8701,2.62,-1.40,1.83
1217,134604518,0.0874,0.0156,-0.8745,2.50,-1.40,1.83
1218,134609515,0.0884,0.0137,-0.8760,2.56,-1.40,1.89
1219,134614516,0.0859,0.0176,-0.8735,2.56,-1.34,1.83
1220,134619515,0.0854,0.0132,-0.8691,2.68,-1.34,1.83
1221,134624516,0.0874,0.0132,-0.8745,2.56,-1.40,1.89
1222,134629515,0.0840,0.0137,-0.8716,2.56,-1.40,1.77
1223,134634516,0.0879,0.0117,-0.8765,2.62,-1.34,1.83
1224,134639515,0.0820,0.0127,-0.8726,2.56,-1.40,1.89
1225,134644516,0.0811,0.0127,-0.8745,2.62,-1.40,1.83
1226,134649515,0.0874,0.0181,-0.8760,2.56,-1.34,1.77
1227,134654516,0.0884,0.0161,-0.8706,2.62,-1.34,1.89
1228,134659516,0.0879,0.0151,-0.8726,2.56,-1.40,1.89
1229,134664514,0.0859,0.0137,-0.8740,2.68,-1.40,1.83
1230,134669514,0.0835,0.0161,-0.8765,2.50,-1.34,1.83
1231,134674516,0.0889,0.0142,-0.8770,2.56,-1.40,1.83
1232,134679515,0.0889,0.0166,-0.8647,2.50,-1.22,1.83
1233,134684516,0.0879,0.0132,-0.8813,2.56,-1.40,1.89
1234,134689515,0.0830,0.0171,-0.8765,2.50,-1.46,1.89
1235,134694517,0.0869,0.0161,-0.8740,2.50,-1.34,1.77
1236,134699515,0.0879,0.0112,-0.8755,2.56,-1.34,1.95
1237,134704518,0.0889,0.0156,-0.8716,2.56,-1.40,1.77
1238,134709516,0.0869,0.0132,-0.8706,2.62,-1.34,1.83
1239,134714516,0.0879,0.0122,-0.8716,2.68,-1.28,1.83
1240,134719515,0.0854,0.0127,-0.8774,2.68,-1.46,1.83
1241,134724516,0.0889,0.0122,-0.8750,2.68,-1.34,1.89
1242,134729515,0.0859,0.0146,-0.8740,2.62,-1.28,1.77
1243,134734516,0.0869,0.0186,-0.8706,2.50,-1.40,1.77
1244,134739515,0.0850,0.0137,-0.8774,2.62,-1.28,1.95
1245,134744514,0.0869,0.0117,-0.8799,2.62,-1.40,1.77
1246,134749517,0.0879,0.0161,-0.8794,2.68,-1.40,1.77
1247,134754515,0.0845,0.0117,-0.8735,2.62,-1.46,1.83
1248,134759516,0.0840,0.0112,-0.8779,2.56,-1.34,1.83
1249,134764516,0.0874,0.0166,-0.8667,2.68,-1.40,1.83
1250,134769516,0.0815,0.0166,-0.8721,2.56,-1.34,1.83
1251,134774517,0.0854,0.0151,-0.8706,2.56,-1.28,1.89
1252,134779516,0.0864,0.0122,-0.8730,2.62,-1.28,1.83
1253,134784516,0.0825,0.0186,-0.8750,2.56,-1.34,1.77
1254,134789516,0.0854,0.0161,-0.8730,2.56,-1.28,1.77
1255,134794548,0.0874,0.0166,-0.8755,2.68,-1.22,1.83
1256,134799516,0.0879,0.0122,-0.8701,2.56,-1.28,1.77
1257,134804516,0.0859,0.0117,-0.8750,2.68,-1.28,1.83
1258,134809516,0.0854,0.0151,-0.8784,2.68,-1.40,1.77
1259,134814516,0.0889,0.0190,-0.8701,2.56,-1.28,1.89
1260,134819515,0.0854,0.0161,-0.8823,2.68,-1.28,1.89
1261,134824514,0.0864,0.0171,-0.8789,2.56,-1.28,1.83
1262,134829561,0.0850,0.0166,-0.8765,2.62,-1.46,1.89
1263,134834516,0.0879,0.0161,-0.8701,2.74,-1.46,1.83
1264,134839516,0.0869,0.0132,-0.8755,2.62,-1.40,1.83
1265,134844515,0.0869,0.0166,-0.8730,2.56,-1.34,1.89
1266,134849516,0.0884,0.0156,-0.8740,2.62,-1.28,1.89
1267,134854516,0.0854,0.0171,-0.8682,2.68,-1.40,1.83
1268,134859515,0.0854,0.0117,-0.8716,2.62,-1.34,1.77
1269,134864518,0.0869,0.0142,-0.8696,2.56,-1.40,1.83
1270,134869515,0.0879,0.0137,-0.8706,2.50,-1.34,1.89
1271,134874516,0.0845,0.0146,-0.8745,2.56,-1.34,1.77
1272,134879515,0.0850,0.0156,-0.8735,2.50,-1.22,1.89
1273,134884516,0.0825,0.0156,-0.8813,2.50,-1.46,1.83
1274,134889515,0.0835,0.0103,-0.8760,2.62,-1.40,1.77
1275,134894516,0.0869,0.0107,-0.8750,2.62,-1.34,1.89
1276,134899515,0.0850,0.0151,-0.8721,2.62,-1.40,1.83
1277,134904516,0.0806,0.0137,-0.8735,2.74,-1.34,1.95
1278,134909516,0.0845,0.0156,-0.8691,2.62,-1.40,1.83
1279,134914516,0.0864,0.0117,-0.8696,2.68,-1.34,1.83
1280,134919515,0.0845,0.0200,-0.8682,2.56,-1.34,1.95
1281,134924516,0.0874,0.0117,-0.8721,2.62,-1.34,1.89
1282,134929515,0.0879,0.0142,-0.8730,2.62,-1.34,1.89
1283,134934516,0.0894,0.0146,-0.8716,2.56,-1.34,1.83
1284,134939516,0.0884,0.0142,-0.8745,2.50,-1.28,1.83
1285,134944516,0.0874,0.0166,-0.8735,2.56,-1.28,1.83
1286,134949515,0.0840,0.0132,-0.8750,2.62,-1.34,1.77
1287,134954518,0.0815,0.0151,-0.8750,2.62,-1.40,1.89
1288,134959515,0.0884,0.0166,-0.8667,2.56,-1.40,1.89
1289,134964516,0.0830,0.0151,-0.8740,2.62,-1.34,1.77
1290,134969514,0.0845,0.0142,-0.8745,2.56,-1.28,1.83
1291,134974515,0.0894,0.0161,-0.8760,2.56,-1.34,1.83
1292,134979518,0.0879,0.0146,-0.8745,2.50,-1.46,1.83
1293,134984518,0.0869,0.0137,-0.8701,2.50,-1.34,1.89
1294,134989515,0.0850,0.0176,-0.8770,2.74,-1.34,1.95
1295,134994516,0.0820,0.0161,-0.8765,2.68,-1.10,1.95
1296,134999515,0.0850,0.0181,-0.8760,2.62,-1.52,1.77
1297,135004515,0.0835,0.0142,-0.8716,2.56,-1.46,1.89
1298,135009516,0.0854,0.0166,-0.8770,2.62,-1.34,1.77
1299,135014518,0.0898,0.0132,-0.8740,2.62,-1.40,1.95
1300,135019515,0.0825,0.0166,-0.8740,2.62,-1.46,1.89
1301,135024516,0.0864,0.0122,-0.8755,2.68,-1.40,1.95
1302,135029516,0.0850,0.0171,-0.8726,2.62,-1.40,1.83
1303,135034786,0.0874,0.0146,-0.8667,2.62,-1.46,1.77
1304,135039516,0.0864,0.0146,-0.8735,2.62,-1.28,1.89
1305,135044516,0.0869,0.0146,-0.8721,2.56,-1.40,1.77
1306,135049518,0.0854,0.0142,-0.8682,2.62,-1.46,1.83
1307,135054518,0.0874,0.0142,-0.8735,2.62,-1.40,1.83
1308,135059516,0.0850,0.0146,-0.8745,2.62,-1.52,1.95
1309,135064516,0.0854,0.0132,-0.8755,2.56,-1.34,1.89
1310,135069516,0.0879,0.0107,-0.8716,2.62,-1.28,1.89
1311,135074514,0.0859,0.0146,-0.8701,2.56,-1.28,1.83
1312,135079515,0.0859,0.0181,-0.8726,2.62,-1.40,1.89
1313,135084516,0.0850,0.0171,-0.8745,2.56,-1.40,1.83
1314,135089515,0.0850,0.0166,-0.8706,2.50,-1.34,1.89
1315,135094516,0.0854,0.0195,-0.8711,2.62,-1.46,1.89
1316,135099515,0.0879,0.0107,-0.8696,2.62,-1.40,1.77
1317,135104518,0.0884,0.0107,-0.8760,2.62,-1.46,1.95
1318,135109515,0.0840,0.0132,-0.8691,2.56,-1.34,1.77
1319,135114516,0.0874,0.0117,-0.8696,2.50,-1.34,1.83
1320,135119516,0.0864,0.0122,-0.8711,2.62,-1.40,1.89
1321,135124516,0.0874,0.0166,-0.8730,2.50,-1.40,1.83
1322,135129515,0.0864,0.0137,-0.8770,2.62,-1.28,2.01
1323,135134516,0.0879,0.0161,-0.8735,2.62,-1.40,1.89
1324,135139515,0.0845,0.0161,-0.8740,2.50,-1.52,1.83
1325,135144518,0.0854,0.0195,-0.8765,2.56,-1.46,1.89
1326,135149515,0.0869,0.0186,-0.8745,2.62,-1.40,1.89
1327,135154516,0.0854,0.0137,-0.8740,2.62,-1.40,1.89
1328,135159522,0.0845,0.0142,-0.8755,2.62,-1.34,1.77
1329,135164514,0.0879,0.0151,-0.8701,2.62,-1.46,1.83
1330,135169538,0.0850,0.0127,-0.8701,2.56,-1.40,1.89
1331,135174516,0.0845,0.0137,-0.8765,2.56,-1.28,1.95
1332,135179516,0.0859,0.0127,-0.8726,2.62,-1.46,1.89
1333,135184516,0.0854,0.0137,-0.8706,2.56,-1.46,1.89
1334,135189514,0.0903,0.0146,-0.8721,2.50,-1.46,1.89
1335,135194518,0.0874,0.0171,-0.8779,2.62,-1.34,1.95
1336,135199516,0.0854,0.0156,-0.8721,2.56,-1.40,1.83
1337,135204516,0.0840,0.0146,-0.8779,2.56,-1.40,1.83
1338,135209515,0.0874,0.0171,-0.8794,2.62,-1.40,1.95
1339,135214553,0.0859,0.0142,-0.8711,2.62,-1.40,1.83
1340,135219515,0.0854,0.0132,-0.8711,2.50,-1.40,1.89
1341,135224516,0.0859,0.0122,-0.8770,2.62,-1.34,1.83
1342,135229516,0.0884,0.0161,-0.8740,2.62,-1.28,1.95
1343,135234516,0.0869,0.0142,-0.8696,2.56,-1.40,1.83
1344,135239516,0.0854,0.0176,-0.8726,2.62,-1.28,1.77
1345,135244842,0.0859,0.0142,-0.8716,2.50,-1.34,1.89
1346,135249516,0.0879,0.0146,-0.8696,2.56,-1.28,1.83
1347,135254516,0.0864,0.0156,-0.8750,2.62,-1.40,1.89
1348,135259516,0.0864,0.0166,-0.8730,2.68,-1.46,1.83
1349,135264720,0.0889,0.0146,-0.8716,2.62,-1.40,1.83
1350,135269516,0.0859,0.0137,-0.8804,2.62,-1.46,1.89
1351,135274516,0.0898,0.0137,-0.8745,2.68,-1.40,1.83
1352,135279517,0.0908,0.0146,-0.8779,2.56,-1.34,1.95
1353,135284515,0.0864,0.0127,-0.8804,2.56,-1.46,1.89
1354,135289516,0.0869,0.0151,-0.8716,2.62,-1.28,1.83
1355,135294516,0.0854,0.0210,-0.8735,2.56,-1.40,1.83
1356,135299516,0.0859,0.0142,-0.8726,2.56,-1.52,1.83
1357,135304515,0.0864,0.0117,-0.8740,2.56,-1.22,1.89
1358,135309516,0.0889,0.0137,-0.8711,2.56,-1.46,1.89
1359,135314516,0.0835,0.0151,-0.8770,2.68,-1.52,1.89
1360,135319516,0.0835,0.0166,-0.8779,2.56,-1.40,1.89
1361,135324515,0.0850,0.0186,-0.8701,2.56,-1.40,1.83
1362,135329516,0.0830,0.0146,-0.8662,2.62,-1.40,1.77
1363,135334516,0.0894,0.0151,-0.8760,2.56,-1.34,1.83
1364,135339516,0.0898,0.0117,-0.8706,2.56,-1.40,1.83
1365,135344515,0.0850,0.0132,-0.8706,2.56,-1.40,1.89
1366,135349516,0.0854,0.0161,-0.8745,2.62,-1.46,1.89
1367,135354516,0.0889,0.0127,-0.8730,2.56,-1.28,1.83
1368,135359516,0.0864,0.0117,-0.8755,2.62,-1.34,1.95
1369,135364515,0.0879,0.0151,-0.8716,2.56,-1.40,1.89
1370,135369516,0.0850,0.0137,-0.8779,2.62,-1.34,1.89
1371,135374516,0.0889,0.0142,-0.8755,2.56,-1.40,1.89
1372,135379516,0.0850,0.0161,-0.8770,2.62,-1.34,1.83
1373,135384516,0.0869,0.0171,-0.8691,2.56,-1.40,1.83
1374,135389515,0.0898,0.0137,-0.8760,2.56,-1.28,1.83
1375,135394518,0.0850,0.0146,-0.8755,2.62,-1.34,1.83
1376,135399515,0.0884,0.0122,-0.8750,2.56,-1.28,1.89
1377,135404516,0.0845,0.0176,-0.8770,2.56,-1.34,1.77
1378,135409516,0.0884,0.0186,-0.8765,2.62,-1.40,1.95
1379,135414556,0.0830,0.0146,-0.8716,2.62,-1.46,1.89
1380,135419515,0.0869,0.0181,-0.8770,2.56,-1.34,1.89
1381,135424516,0.0894,0.0171,-0.8774,2.56,-1.46,1.89
1382,135429515,0.0840,0.0161,-0.8774,2.62,-1.40,1.83
1383,135434518,0.0874,0.0151,-0.8726,2.62,-1.34,1.83
1384,135439515,0.0859,0.0161,-0.8730,2.62,-1.40,1.77
1385,135444517,0.0879,0.0117,-0.8735,2.62,-1.34,1.83
1386,135449515,0.0889,0.0117,-0.8735,2.62,-1.40,1.89
1387,135454518,0.0859,0.0166,-0.8721,2.68,-1.28,1.83
1388,135459515,0.0889,0.0127,-0.8735,2.56,-1.40,1.89
1389,135464516,0.0869,0.0146,-0.8789,2.62,-1.40,1.89
1390,135469515,0.0869,0.0132,-0.8750,2.56,-1.34,1.77
1391,135474516,0.0845,0.0146,-0.8711,2.62,-1.28,1.83
1392,135479516,0.0845,0.0142,-0.8701,2.56,-1.34,1.83
1393,135484807,0.0840,0.0112,-0.8770,2.62,-1.22,1.89
1394,135489517,0.0854,0.0146,-0.8735,2.62,-1.40,1.77
1395,135494516,0.0859,0.0146,-0.8784,2.50,-1.46,1.89
1396,135499516,0.0854,0.0151,-0.8750,2.56,-1.34,1.89
1397,135504517,0.0850,0.0161,-0.8716,2.50,-1.40,1.83
1398,135509516,0.0850,0.0161,-0.8687,2.56,-1.34,1.89
1399,135514516,0.0859,0.0127,-0.8726,2.50,-1.34,1.83
1400,135519516,0.0859,0.0142,-0.8687,2.56,-1.22,1.95
1401,135524515,0.0835,0.0122,-0.8774,2.56,-1.22,1.89
1402,135529516,0.0869,0.0156,-0.8682,2.56,-1.34,1.89
1403,135534516,0.0854,0.0166,-0.8726,2.56,-1.34,1.95
1404,135539516,0.0869,0.0146,-0.8765,2.56,-1.28,1.95
1405,135544515,0.0850,0.0117,-0.8687,2.68,-1.34,1.83
1406,135549518,0.0864,0.0127,-0.8774,2.62,-1.34,1.89
1407,135554516,0.0889,0.0176,-0.8716,2.50,-1.28,2.01
1408,135559517,0.0903,0.0127,-0.8735,2.68,-1.34,1.89
1409,135564516,0.0884,0.0171,-0.8730,2.50,-1.34,1.89
1410,135569516,0.0854,0.0142,-0.8789,2.56,-1.40,1.83
1411,135574516,0.0889,0.0137,-0.8770,2.68,-1.40,1.83
1412,135579516,0.0889,0.0132,-0.8750,2.56,-1.40,1.83
