# skilleye imu stream v1
# device=xiao_esp32c6 imu=mpu6050 addr=0x68
# rate_hz=200 accel_range_g=16 gyro_range_dps=2000 dlpf_hz=94
# units: accel in g, gyro in deg/s, t_us in microseconds since boot (monotonic)
# no shared clock with the camera -- tap the racket once before each take
# so both recordings share a spike to align on
seq,t_us,ax,ay,az,gx,gy,gz
0,284994514,0.3462,0.9268,0.3140,7.62,-6.04,4.39
1,284999520,0.3491,0.9253,0.3120,7.38,-5.85,4.33
2,285004516,0.3462,0.9282,0.3101,7.26,-5.67,4.21
3,285009518,0.3447,0.9302,0.3101,7.01,-5.55,4.15
4,285014515,0.3486,0.9263,0.3115,6.77,-5.43,4.02
5,285019515,0.3467,0.9238,0.3120,6.40,-5.37,4.02
6,285024516,0.3467,0.9258,0.3130,6.22,-5.06,3.72
7,285029516,0.3442,0.9224,0.3096,5.79,-4.82,3.84
8,285034516,0.3496,0.9258,0.3105,5.55,-4.57,3.54
9,285039515,0.3452,0.9312,0.3159,5.24,-4.51,3.48
10,285044516,0.3506,0.9268,0.3081,5.18,-4.21,3.41
11,285049516,0.3477,0.9209,0.3164,4.76,-4.09,3.35
12,285054516,0.3501,0.9243,0.3110,4.45,-3.66,3.23
13,285059515,0.3511,0.9297,0.3066,4.21,-3.60,3.23
14,285064516,0.3535,0.9243,0.3096,3.78,-3.48,3.05
15,285069902,0.3467,0.9248,0.3032,3.41,-3.29,3.05
16,285074517,0.3491,0.9224,0.3062,2.99,-3.23,2.93
17,285079516,0.3530,0.9229,0.3091,2.68,-3.05,2.74
18,285084516,0.3550,0.9229,0.3037,2.38,-2.93,2.74
19,285089514,0.3540,0.9248,0.3135,2.13,-2.99,2.68
20,285094516,0.3525,0.9243,0.3052,2.01,-2.93,2.56
21,285099516,0.3540,0.9214,0.3071,1.83,-2.87,2.62
22,285104515,0.3516,0.9194,0.3013,1.83,-2.80,2.50
23,285109516,0.3491,0.9209,0.3057,1.83,-2.74,2.44
24,285114515,0.3481,0.9175,0.3101,2.01,-2.68,2.56
25,285119915,0.3501,0.9189,0.3032,2.07,-2.56,2.44
26,285124516,0.3501,0.9165,0.3091,2.38,-2.38,2.44
27,285129516,0.3521,0.9175,0.3086,2.62,-2.32,2.44
28,285134516,0.3481,0.9131,0.3140,2.74,-2.13,2.44
29,285139515,0.3506,0.9194,0.3115,3.05,-2.20,2.38
30,285144516,0.3506,0.9175,0.3076,3.35,-2.07,2.56
31,285149516,0.3530,0.9180,0.3081,3.41,-1.95,2.56
32,285154517,0.3555,0.9199,0.3135,3.60,-2.07,2.44
33,285159515,0.3525,0.9165,0.3145,3.90,-2.01,2.38
34,285164516,0.3535,0.9131,0.3174,4.02,-1.95,2.44
35,285169517,0.3540,0.9150,0.3091,4.15,-1.83,2.38
36,285174516,0.3530,0.9146,0.3110,4.33,-1.95,2.44
37,285179515,0.3530,0.9141,0.3110,4.63,-1.95,2.38
38,285184516,0.3521,0.9146,0.3091,4.94,-1.89,2.44
39,285189515,0.3525,0.9155,0.3125,5.12,-1.77,2.44
40,285194518,0.3594,0.9180,0.3110,5.43,-1.95,2.32
41,285200053,0.3560,0.9180,0.3086,5.73,-1.83,2.38
42,285204516,0.3550,0.9160,0.3164,6.10,-1.77,2.38
43,285209517,0.3516,0.9209,0.3154,6.28,-1.71,2.38
44,285214516,0.3525,0.9150,0.3071,6.52,-1.71,2.32
45,285219515,0.3511,0.9189,0.3105,6.71,-1.71,2.26
46,285224516,0.3540,0.9189,0.3140,6.95,-1.65,2.26
47,285229516,0.3545,0.9189,0.3169,7.01,-1.77,2.32
48,285234517,0.3530,0.9199,0.3120,7.07,-1.65,2.20
49,285239515,0.3560,0.9204,0.3179,6.95,-1.65,2.13
50,285244516,0.3550,0.9165,0.3149,6.89,-1.71,2.13
51,285249516,0.3535,0.9224,0.3149,6.89,-1.52,2.01
52,285254516,0.3574,0.9209,0.3198,6.83,-1.71,1.89
53,285259517,0.3574,0.9185,0.3154,6.71,-1.71,1.95
54,285264516,0.3521,0.9238,0.3140,6.59,-1.77,1.89
55,285269516,0.3569,0.9189,0.3140,6.46,-1.77,1.83
56,285274516,0.3594,0.9194,0.3091,6.22,-1.83,1.65
57,285279517,0.3594,0.9248,0.3154,6.10,-1.83,1.52
58,285284516,0.3613,0.9253,0.3179,6.04,-1.95,1.46
59,285289516,0.3574,0.9277,0.3164,5.85,-2.01,1.28
60,285294516,0.3584,0.9263,0.3218,5.73,-1.89,1.16
61,285299516,0.3599,0.9263,0.3149,5.73,-1.95,0.98
62,285304516,0.3604,0.9312,0.3159,5.49,-1.83,0.79
63,285309515,0.3569,0.9263,0.3110,5.24,-1.89,0.67
64,285314516,0.3579,0.9302,0.3159,5.12,-2.07,0.43
65,285319515,0.3550,0.9307,0.3154,4.76,-1.89,0.30
66,285324516,0.3560,0.9282,0.3154,4.57,-2.01,0.12
67,285329997,0.3525,0.9292,0.3130,4.27,-2.13,-0.06
68,285334518,0.3569,0.9307,0.3120,4.02,-2.01,-0.12
69,285339516,0.3569,0.9297,0.3110,3.78,-2.07,-0.37
70,285344516,0.3579,0.9302,0.3096,3.48,-2.26,-0.55
71,285349516,0.3569,0.9312,0.3096,3.23,-2.13,-0.49
72,285354516,0.3560,0.9272,0.3110,3.05,-2.13,-0.67
73,285359516,0.3530,0.9302,0.3105,3.05,-2.26,-0.85
74,285364516,0.3550,0.9341,0.3149,2.87,-2.26,-1.04
75,285369516,0.3501,0.9351,0.3110,2.62,-2.26,-0.98
76,285374516,0.3511,0.9321,0.3110,2.68,-2.26,-1.28
77,285379516,0.3511,0.9326,0.3135,2.62,-2.13,-1.34
78,285384517,0.3506,0.9341,0.3101,2.38,-2.32,-1.28
79,285389516,0.3496,0.9321,0.3105,2.50,-2.38,-1.46
80,285394516,0.3462,0.9312,0.3164,2.50,-2.38,-1.46
81,285399516,0.3467,0.9351,0.3101,2.44,-2.38,-1.59
82,285404516,0.3442,0.9321,0.3047,2.50,-2.44,-1.52
83,285409517,0.3423,0.9360,0.3086,2.44,-2.56,-1.59
84,285414516,0.3433,0.9365,0.3081,2.38,-2.56,-1.65
85,285419516,0.3472,0.9360,0.3086,2.38,-2.50,-1.59
86,285424516,0.3457,0.9351,0.3076,2.44,-2.62,-1.65
87,285429516,0.3447,0.9355,0.3096,2.50,-2.68,-1.52
88,285434516,0.3438,0.9341,0.3091,2.44,-2.62,-1.52
89,285439517,0.3413,0.9365,0.3091,2.50,-2.68,-1.46
90,285444594,0.3442,0.9380,0.3066,2.50,-2.68,-1.46
91,285449519,0.3389,0.9370,0.3018,2.44,-2.62,-1.34
92,285454516,0.3384,0.9355,0.3047,2.20,-2.68,-1.22
93,285459516,0.3438,0.9370,0.3052,2.07,-2.74,-1.22
94,285464516,0.3428,0.9404,0.3081,1.71,-2.68,-1.04
95,285469516,0.3423,0.9375,0.3062,1.59,-2.68,-1.10
96,285474516,0.3447,0.9399,0.3052,1.46,-2.80,-1.04
97,285479516,0.3403,0.9404,0.3032,1.34,-2.87,-0.98
98,285484517,0.3477,0.9375,0.3086,1.16,-2.87,-0.79
99,285489516,0.3413,0.9385,0.3027,1.16,-2.99,-0.85
100,285494516,0.3423,0.9399,0.2993,1.16,-2.87,-0.67
101,285499516,0.3433,0.9409,0.3037,1.16,-2.93,-0.61
102,285504516,0.3442,0.9404,0.3057,1.22,-3.05,-0.55
103,285509517,0.3408,0.9395,0.2974,1.34,-2.99,-0.37
104,285514516,0.3394,0.9360,0.3062,1.46,-2.93,-0.30
105,285519516,0.3433,0.9355,0.3032,1.65,-3.11,-0.18
106,285524516,0.3418,0.9341,0.2998,1.65,-3.05,0.00
107,285529516,0.3408,0.9351,0.3003,1.71,-3.05,0.18
108,285534516,0.3384,0.9346,0.3071,1.77,-2.93,0.30
109,285539517,0.3398,0.9321,0.3003,1.71,-3.05,0.43
110,285544516,0.3428,0.9380,0.2969,1.77,-3.23,0.43
111,285549516,0.3423,0.9385,0.3018,1.83,-3.41,0.55
112,285554516,0.3418,0.9370,0.2959,1.77,-3.23,0.79
113,285559517,0.3433,0.9365,0.2944,1.89,-3.29,0.85
114,285564516,0.3418,0.9360,0.3018,1.83,-3.41,0.98
115,285569516,0.3438,0.9326,0.2969,2.01,-3.35,1.04
116,285574516,0.3442,0.9341,0.2969,1.95,-3.23,1.22
117,285579518,0.3433,0.9331,0.3008,2.13,-3.35,1.28
118,285584517,0.3442,0.9321,0.2964,2.26,-3.41,1.40
119,285589516,0.3408,0.9346,0.2925,2.38,-3.29,1.59
120,285594515,0.3423,0.9321,0.2988,2.50,-3.54,1.71
121,285599518,0.3379,0.9316,0.2998,2.62,-3.41,1.95
122,285604515,0.3462,0.9253,0.3018,2.56,-3.48,2.01
123,285609516,0.3438,0.9292,0.2969,2.68,-3.54,2.20
124,285614515,0.3442,0.9312,0.2954,2.87,-3.54,2.44
125,285619516,0.3462,0.9307,0.3022,2.87,-3.48,2.44
126,285624515,0.3467,0.9302,0.3018,3.11,-3.72,2.68
127,285629516,0.3428,0.9355,0.2988,3.23,-3.90,2.80
128,285634515,0.3457,0.9321,0.3018,3.41,-3.78,2.93
129,285639516,0.3467,0.9321,0.3022,3.72,-3.66,3.11
130,285644516,0.3481,0.9341,0.3037,3.72,-3.72,3.17
131,285649516,0.3477,0.9336,0.3052,3.84,-3.78,3.23
132,285654515,0.3477,0.9395,0.3013,3.96,-3.90,3.29
133,285659516,0.3472,0.9351,0.3027,4.09,-3.72,3.41
134,285664515,0.3477,0.9341,0.3047,4.09,-3.84,3.41
135,285669518,0.3486,0.9395,0.3008,4.21,-3.72,3.48
136,285674515,0.3481,0.9331,0.3022,4.15,-3.90,3.66
137,285679516,0.3521,0.9370,0.3042,4.02,-3.96,3.72
138,285684515,0.3496,0.9355,0.3022,4.02,-4.02,3.72
139,285689514,0.3545,0.9316,0.3091,3.90,-4.09,3.90
140,285694518,0.3545,0.9307,0.3066,3.66,-4.27,3.96
141,285699515,0.3506,0.9351,0.3057,3.66,-4.27,4.09
142,285704516,0.3506,0.9351,0.3071,3.41,-4.39,4.15
143,285709514,0.3511,0.9321,0.3062,3.35,-4.39,4.27
144,285714517,0.3545,0.9360,0.3027,3.41,-4.57,4.15
145,285719516,0.3545,0.9341,0.3071,3.41,-4.76,4.21
146,285724516,0.3540,0.9365,0.3086,3.48,-4.63,4.27
147,285729514,0.3574,0.9399,0.3135,3.60,-4.76,4.21
148,285734516,0.3530,0.9390,0.2988,3.90,-4.76,4.21
149,285739516,0.3486,0.9390,0.3047,4.09,-4.82,4.21
150,285744518,0.3516,0.9375,0.3018,4.27,-4.94,4.21
151,285749516,0.3511,0.9385,0.2969,4.39,-4.88,4.21
152,285754515,0.3555,0.9385,0.2998,4.63,-4.88,4.21
153,285759518,0.3481,0.9390,0.3013,4.70,-5.00,4.21
154,285764515,0.3462,0.9346,0.3052,4.76,-5.06,4.27
155,285769516,0.3501,0.9370,0.3018,4.82,-5.12,4.21
156,285774515,0.3457,0.9326,0.3018,4.70,-5.00,4.21
157,285779518,0.3472,0.9341,0.2964,4.45,-5.24,4.33
158,285784515,0.3481,0.9346,0.2959,4.27,-5.18,4.15
159,285789516,0.3486,0.9341,0.2944,4.09,-5.12,4.33
160,285794515,0.3496,0.9360,0.2925,3.84,-5.24,4.27
161,285799518,0.3501,0.9370,0.2969,3.54,-5.18,4.27
162,285804515,0.3457,0.9365,0.2964,3.41,-5.18,4.21
163,285809514,0.3442,0.9346,0.2944,3.23,-5.00,4.15
164,285814516,0.3472,0.9365,0.2993,3.29,-4.94,4.09
165,285819906,0.3447,0.9297,0.2935,3.05,-5.00,4.15
166,285824517,0.3472,0.9351,0.2954,2.99,-4.88,4.15
167,285829516,0.3491,0.9346,0.2988,2.99,-4.94,4.02
168,285834516,0.3511,0.9321,0.3008,3.05,-4.82,3.96
169,285839516,0.3530,0.9321,0.2871,2.99,-4.76,3.90
170,285844516,0.3491,0.9365,0.2935,3.11,-4.82,3.84
171,285849517,0.3462,0.9346,0.2930,3.11,-4.51,3.72
172,285854516,0.3521,0.9307,0.2896,3.05,-4.57,3.72
173,285859516,0.3501,0.9321,0.2861,2.99,-4.51,3.60
174,285864516,0.3525,0.9346,0.2852,2.99,-4.33,3.66
175,285869516,0.3496,0.9292,0.2852,2.80,-4.33,3.48
176,285874516,0.3521,0.9312,0.2900,2.50,-4.39,3.48
177,285879516,0.3501,0.9297,0.2915,2.50,-4.39,3.41
178,285884516,0.3472,0.9277,0.2939,2.32,-4.27,3.41
179,285889516,0.3486,0.9282,0.2881,2.13,-4.15,3.29
180,285894516,0.3472,0.9287,0.2905,2.07,-4.15,3.23
181,285899516,0.3491,0.9316,0.2905,1.95,-3.96,3.23
182,285904516,0.3506,0.9272,0.2896,2.01,-3.96,3.17
183,285909516,0.3491,0.9253,0.2905,2.07,-3.96,3.23
184,285914516,0.3496,0.9282,0.2837,1.95,-3.90,3.23
185,285919516,0.3516,0.9248,0.2896,1.95,-3.84,3.23
186,285924516,0.3511,0.9248,0.2856,2.07,-3.84,3.23
187,285929517,0.3501,0.9238,0.2852,1.95,-3.78,3.11
188,285934516,0.3506,0.9243,0.2798,2.26,-3.78,3.11
189,285939515,0.3486,0.9243,0.2891,2.13,-3.84,3.11
190,285944516,0.3516,0.9194,0.2822,2.20,-3.78,3.11
191,285949517,0.3501,0.9243,0.2896,2.38,-3.78,3.17
192,285954515,0.3521,0.9238,0.2910,2.26,-3.78,3.05
193,285959516,0.3506,0.9272,0.2866,2.44,-3.84,2.99
194,285964515,0.3521,0.9248,0.2837,2.50,-3.78,2.99
195,285969516,0.3501,0.9233,0.2852,2.74,-3.66,2.93
196,285974515,0.3501,0.9243,0.2803,2.87,-3.72,2.87
197,285979518,0.3525,0.9263,0.2812,2.99,-3.54,2.80
198,285984515,0.3511,0.9263,0.2842,3.05,-3.78,2.62
199,285989516,0.3535,0.9248,0.2827,3.35,-3.60,2.62
200,285994515,0.3516,0.9268,0.2896,3.41,-3.48,2.56
201,285999516,0.3467,0.9219,0.2808,3.54,-3.48,2.44
202,286004515,0.3491,0.9214,0.2808,3.66,-3.29,2.38
203,286009518,0.3481,0.9233,0.2808,3.78,-3.35,2.26
204,286014515,0.3491,0.9243,0.2871,3.66,-3.29,2.07
205,286019516,0.3491,0.9272,0.2773,3.66,-3.23,1.89
206,286024515,0.3511,0.9248,0.2749,3.54,-3.23,1.77
207,286029516,0.3506,0.9287,0.2861,3.60,-3.23,1.65
208,286034517,0.3457,0.9243,0.2788,3.66,-3.17,1.52
209,286039518,0.3501,0.9263,0.2861,3.54,-3.11,1.34
210,286044515,0.3501,0.9258,0.2793,3.41,-2.80,1.16
211,286049516,0.3477,0.9272,0.2827,3.29,-2.87,1.16
212,286054515,0.3477,0.9263,0.2769,3.11,-2.74,0.98
213,286059516,0.3555,0.9248,0.2769,2.93,-2.68,0.91
214,286064515,0.3481,0.9268,0.2773,2.68,-2.68,0.67
215,286069516,0.3501,0.9292,0.2827,2.38,-2.56,0.67
216,286074515,0.3496,0.9287,0.2798,2.20,-2.56,0.49
217,286079516,0.3477,0.9297,0.2749,1.95,-2.50,0.37
218,286084515,0.3540,0.9253,0.2783,1.71,-2.50,0.30
219,286089516,0.3511,0.9287,0.2769,1.59,-2.50,0.18
220,286094515,0.3506,0.9263,0.2812,1.40,-2.38,0.12
221,286099516,0.3525,0.9287,0.2778,1.28,-2.44,0.06
222,286104515,0.3530,0.9292,0.2827,1.22,-2.56,-0.06
223,286109518,0.3506,0.9282,0.2798,1.34,-2.56,-0.06
224,286114515,0.3516,0.9272,0.2876,1.40,-2.38,-0.12
225,286119965,0.3501,0.9346,0.2837,1.52,-2.32,-0.12
226,286124516,0.3501,0.9272,0.2808,1.71,-2.32,-0.18
227,286129517,0.3477,0.9316,0.2783,1.89,-2.26,-0.12
228,286134516,0.3477,0.9268,0.2856,2.20,-2.26,-0.18
229,286139516,0.3472,0.9302,0.2812,2.56,-2.26,-0.12
230,286144516,0.3477,0.9277,0.2856,2.74,-2.07,-0.12
231,286149516,0.3511,0.9292,0.2793,3.17,-2.01,-0.12
232,286154517,0.3477,0.9331,0.2852,3.35,-1.89,0.00
233,286159516,0.3496,0.9297,0.2837,3.54,-1.83,0.06
234,286164516,0.3501,0.9316,0.2803,3.66,-1.77,0.06
235,286169516,0.3481,0.9336,0.2793,3.78,-1.77,0.06
236,286174516,0.3491,0.9355,0.2749,3.90,-1.71,0.06
237,286179702,0.3467,0.9370,0.2847,3.84,-1.59,0.12
238,286184516,0.3491,0.9385,0.2798,3.90,-1.71,0.12
239,286189642,0.3442,0.9360,0.2832,3.78,-1.71,0.18
240,286194518,0.3467,0.9380,0.2764,3.78,-1.59,0.18
241,286199516,0.3462,0.9385,0.2788,3.60,-1.46,0.18
242,286204516,0.3496,0.9395,0.2764,3.29,-1.59,0.30
243,286209719,0.3477,0.9380,0.2822,3.17,-1.16,0.37
244,286214517,0.3501,0.9375,0.2817,2.99,-1.22,0.43
245,286219516,0.3481,0.9434,0.2812,2.80,-1.22,0.43
246,286224516,0.3555,0.9414,0.2832,2.68,-1.04,0.49
247,286229516,0.3486,0.9390,0.2803,2.62,-1.04,0.43
248,286234516,0.3511,0.9395,0.2812,2.62,-0.79,0.49
249,286239516,0.3501,0.9404,0.2891,2.62,-0.79,0.49
250,286244516,0.3491,0.9385,0.2852,2.80,-0.91,0.67
251,286249516,0.3530,0.9390,0.2891,2.74,-0.79,0.67
252,286254516,0.3486,0.9443,0.2847,2.93,-0.73,0.79
253,286259517,0.3491,0.9414,0.2822,2.99,-0.55,1.04
254,286264516,0.3525,0.9434,0.2803,3.11,-0.61,1.16
255,286269516,0.3564,0.9395,0.2847,3.23,-0.67,1.22
256,286274516,0.3550,0.9443,0.2852,3.54,-0.73,1.28
257,286279516,0.3491,0.9458,0.2832,3.60,-0.67,1.40
258,286284516,0.3564,0.9419,0.2773,3.90,-0.61,1.46
259,286289516,0.3516,0.9424,0.2881,3.96,-0.49,1.59
260,286294516,0.3535,0.9399,0.2866,4.15,-0.49,1.71
261,286299516,0.3521,0.9351,0.2876,4.15,-0.61,1.83
262,286304516,0.3496,0.9424,0.2886,4.27,-0.49,1.83
263,286309517,0.3477,0.9390,0.2842,4.21,-0.55,1.95
264,286314516,0.3496,0.9370,0.2803,4.21,-0.43,2.01
265,286319516,0.3521,0.9351,0.2803,3.90,-0.55,2.20
266,286324516,0.3447,0.9390,0.2866,3.66,-0.61,2.26
267,286329516,0.3477,0.9395,0.2808,3.54,-0.61,2.38
268,286334516,0.3462,0.9385,0.2803,3.41,-0.55,2.44
269,286339516,0.3516,0.9365,0.2856,3.17,-0.55,2.56
270,286344516,0.3452,0.9370,0.2852,3.11,-0.43,2.68
271,286349515,0.3428,0.9370,0.2876,3.35,-0.49,2.74
272,286354516,0.3506,0.9365,0.2803,3.35,-0.49,2.68
273,286359516,0.3511,0.9370,0.2808,3.41,-0.43,2.80
274,286364516,0.3511,0.9360,0.2842,3.35,-0.43,2.87
275,286369516,0.3496,0.9365,0.2881,3.48,-0.37,2.93
276,286374516,0.3525,0.9351,0.2832,3.66,-0.30,2.93
277,286379516,0.3491,0.9341,0.2827,3.66,-0.30,2.93
278,286384516,0.3540,0.9307,0.2842,3.66,-0.30,2.87
279,286389517,0.3545,0.9375,0.2881,3.72,-0.37,3.05
280,286394516,0.3516,0.9341,0.2832,3.72,-0.24,3.05
281,286399516,0.3516,0.9346,0.2847,3.90,-0.30,2.99
282,286404516,0.3506,0.9395,0.2881,4.02,-0.43,3.05
283,286409517,0.3521,0.9326,0.2808,4.02,-0.18,3.11
284,286414516,0.3477,0.9380,0.2886,4.15,-0.24,3.05
285,286419516,0.3521,0.9365,0.2832,4.09,-0.24,2.99
286,286424516,0.3521,0.9355,0.2866,4.15,-0.12,2.99
287,286429516,0.3506,0.9336,0.2822,4.27,-0.18,3.05
288,286434517,0.3535,0.9312,0.2905,4.33,-0.18,2.99
289,286439516,0.3486,0.9331,0.2881,4.33,0.00,3.17
290,286444516,0.3501,0.9316,0.2842,4.51,-0.06,2.99
291,286449514,0.3477,0.9316,0.2798,4.45,-0.06,2.93
292,286455057,0.3472,0.9297,0.2817,4.39,-0.06,2.99
293,286459516,0.3467,0.9297,0.2847,4.33,0.00,2.93
294,286464516,0.3457,0.9321,0.2847,4.33,0.00,3.11
295,286469516,0.3462,0.9297,0.2876,4.21,0.06,2.99
296,286474515,0.3472,0.9287,0.2905,4.02,0.12,2.99
297,286479516,0.3506,0.9282,0.2876,3.96,0.06,2.99
298,286484518,0.3442,0.9263,0.2842,4.02,0.12,2.99
299,286489514,0.3438,0.9268,0.2871,3.96,0.00,3.11
300,286494516,0.3452,0.9297,0.2905,4.02,0.06,3.17
301,286499516,0.3447,0.9282,0.2812,4.09,0.06,3.23
302,286504515,0.3467,0.9277,0.2861,4.21,0.06,3.11
303,286509516,0.3491,0.9263,0.2856,4.33,0.24,3.11
304,286514515,0.3481,0.9302,0.2866,4.63,0.18,3.17
305,286519516,0.3501,0.9253,0.2886,4.76,0.12,3.23
306,286524515,0.3481,0.9297,0.2905,4.94,0.24,3.17
307,286529853,0.3472,0.9248,0.2866,5.00,0.24,3.17
308,286534516,0.3506,0.9258,0.2886,5.06,0.24,3.17
309,286539516,0.3496,0.9238,0.2900,5.06,0.37,3.11
310,286544516,0.3501,0.9229,0.2910,5.12,0.06,3.17
311,286549515,0.3491,0.9243,0.2905,4.94,0.30,3.17
312,286554516,0.3521,0.9229,0.2896,4.88,0.18,3.11
313,286559515,0.3511,0.9253,0.2891,4.82,0.24,3.11
314,286564758,0.3511,0.9258,0.2891,4.57,0.30,2.93
315,286569516,0.3545,0.9219,0.2944,4.33,0.12,2.87
316,286574515,0.3506,0.9248,0.2935,4.15,0.00,2.93
317,286579518,0.3550,0.9233,0.2939,4.02,0.18,2.87
318,286584515,0.3545,0.9258,0.2915,3.96,0.06,2.74
319,286589514,0.3540,0.9258,0.2930,4.02,0.06,2.74
320,286594516,0.3555,0.9302,0.2910,3.96,-0.12,2.62
321,286599516,0.3560,0.9297,0.2891,4.15,0.12,2.50
322,286604515,0.3516,0.9282,0.2900,4.27,0.00,2.50
323,286609516,0.3569,0.9292,0.2881,4.39,-0.06,2.50
324,286614515,0.3594,0.9238,0.2900,4.27,0.00,2.26
325,286619518,0.3555,0.9277,0.2910,4.39,-0.30,2.26
326,286624515,0.3550,0.9292,0.2881,4.33,-0.24,2.26
327,286629514,0.3540,0.9229,0.2910,4.39,-0.37,2.13
328,286634516,0.3550,0.9297,0.2861,4.27,-0.30,2.07
329,286639516,0.3550,0.9258,0.2944,4.15,-0.49,2.07
330,286644515,0.3589,0.9272,0.2896,4.09,-0.30,2.01
331,286649516,0.3516,0.9282,0.2949,3.84,-0.55,1.95
332,286654515,0.3555,0.9297,0.2876,3.72,-0.61,1.83
333,286659517,0.3525,0.9277,0.2847,3.60,-0.67,1.89
334,286664515,0.3569,0.9297,0.2900,3.54,-0.61,1.89
335,286669518,0.3501,0.9282,0.2842,3.48,-0.73,1.89
336,286674515,0.3545,0.9268,0.2886,3.41,-0.85,1.83
337,286679514,0.3560,0.9292,0.2925,3.48,-0.85,1.77
338,286684514,0.3560,0.9258,0.2861,3.54,-0.85,1.77
339,286689516,0.3550,0.9243,0.2852,3.60,-0.91,1.89
340,286694515,0.3535,0.9277,0.2881,3.78,-1.10,1.89
341,286699516,0.3481,0.9253,0.2876,3.90,-1.16,1.95
342,286704515,0.3486,0.9282,0.2896,4.09,-1.16,1.95
343,286709516,0.3496,0.9272,0.2905,4.33,-1.16,2.01
344,286714515,0.3525,0.9258,0.2939,4.51,-1.22,2.07
345,286719518,0.3540,0.9243,0.2876,4.76,-1.46,2.13
346,286724515,0.3574,0.9263,0.2852,4.94,-1.46,2.20
347,286729514,0.3560,0.9248,0.2837,5.06,-1.52,2.26
348,286734516,0.3604,0.9282,0.2866,5.18,-1.71,2.38
349,286739515,0.3608,0.9292,0.2842,5.12,-1.89,2.38
350,286744516,0.3618,0.9253,0.2783,5.18,-2.01,2.38
351,286749515,0.3633,0.9248,0.2749,5.24,-2.32,2.56
352,286754516,0.3647,0.9224,0.2808,5.30,-2.56,2.62
353,286759516,0.3643,0.9253,0.2788,5.37,-2.74,2.68
354,286764516,0.3633,0.9233,0.2783,5.55,-2.80,2.74
355,286769517,0.3643,0.9268,0.2803,5.79,-2.93,2.87
356,286774516,0.3623,0.9204,0.2798,5.91,-3.23,3.11
357,286779516,0.3633,0.9209,0.2788,6.22,-3.41,3.05
358,286784516,0.3647,0.9214,0.2803,6.52,-3.48,3.23
359,286789515,0.3628,0.9194,0.2754,6.77,-3.60,3.48
360,286794516,0.3618,0.9170,0.2803,7.26,-3.60,3.54
361,286799516,0.3613,0.9189,0.2764,7.56,-4.02,3.66
362,286804516,0.3613,0.9185,0.2817,7.74,-4.02,3.84
363,286809984,0.3594,0.9194,0.2720,8.17,-4.21,4.15
364,286814517,0.3608,0.9160,0.2749,8.54,-4.45,4.15
365,286819517,0.3623,0.9175,0.2681,8.78,-4.70,4.21
366,286824517,0.3604,0.9180,0.2666,8.72,-4.94,4.27
367,286829516,0.3647,0.9180,0.2661,8.66,-5.18,4.27
368,286834514,0.3701,0.9180,0.2676,8.54,-5.49,4.45
369,286839515,0.3687,0.9185,0.2642,8.17,-5.91,4.39
370,286844516,0.3657,0.9214,0.2681,7.93,-6.34,4.33
371,286849515,0.3643,0.9199,0.2705,7.56,-6.71,4.27
372,286854517,0.3652,0.9194,0.2695,7.32,-7.13,4.27
373,286859515,0.3662,0.9194,0.2773,7.01,-7.44,4.15
374,286864516,0.3647,0.9185,0.2734,6.71,-7.93,4.15
375,286869516,0.3706,0.9189,0.2744,6.65,-8.48,4.09
376,286874516,0.3667,0.9194,0.2764,6.46,-8.78,4.09
377,286879515,0.3662,0.9199,0.2764,6.59,-9.33,4.02
378,286884516,0.3623,0.9219,0.2778,6.89,-9.63,4.15
379,286889516,0.3604,0.9194,0.2715,7.20,-10.24,4.21
380,286894516,0.3574,0.9214,0.2715,7.87,-10.43,4.27
381,286899515,0.3594,0.9214,0.2700,8.54,-10.67,4.27
382,286904516,0.3564,0.9185,0.2739,9.45,-11.10,4.51
383,286909516,0.3584,0.9170,0.2729,10.37,-11.59,4.63
384,286914516,0.3574,0.9199,0.2686,11.34,-11.83,4.76
385,286919515,0.3589,0.9214,0.2676,12.38,-12.26,5.06
386,286924516,0.3594,0.9229,0.2656,13.41,-12.50,5.30
387,286929517,0.3545,0.9253,0.2656,14.33,-12.80,5.43
388,286934516,0.3550,0.9253,0.2671,15.30,-13.05,5.55
389,286939515,0.3506,0.9253,0.2612,16.28,-13.41,5.91
390,286944516,0.3496,0.9209,0.2607,17.07,-13.41,6.16
391,286949516,0.3477,0.9185,0.2583,17.93,-13.66,6.40
392,286954519,0.3516,0.9214,0.2563,18.54,-13.90,6.52
393,286959516,0.3506,0.9204,0.2515,19.15,-13.96,6.77
394,286964515,0.3511,0.9185,0.2476,19.63,-14.15,7.01
395,286969515,0.3506,0.9233,0.2441,20.06,-14.33,7.32
396,286974516,0.3457,0.9194,0.2476,20.43,-14.45,7.56
397,286979517,0.3442,0.9189,0.2437,20.79,-14.45,7.68
398,286984517,0.3555,0.9185,0.2495,21.22,-14.45,7.87
399,286989882,0.3491,0.9146,0.2407,21.46,-14.45,8.11
400,286994517,0.3511,0.9199,0.2290,21.89,-14.33,8.29
401,286999516,0.3530,0.9194,0.2349,21.95,-14.21,8.41
402,287004516,0.3506,0.9209,0.2275,22.13,-14.39,8.54
403,287009515,0.3569,0.9175,0.2227,22.32,-14.21,8.66
404,287014516,0.3545,0.9165,0.2271,22.32,-14.09,8.78
405,287019516,0.3574,0.9131,0.2168,22.38,-13.96,8.78
406,287024516,0.3599,0.9102,0.2207,22.32,-13.90,8.84
407,287029515,0.3623,0.9062,0.2139,22.26,-13.72,8.90
408,287034516,0.3613,0.9058,0.2080,22.26,-13.48,8.96
409,287039586,0.3638,0.9048,0.2061,22.01,-13.41,9.02
410,287044517,0.3628,0.9043,0.2070,21.89,-13.29,8.96
411,287049516,0.3638,0.9155,0.2061,22.01,-13.05,9.09
412,287054516,0.3628,0.9106,0.1963,21.95,-12.99,8.96
413,287059518,0.3638,0.9131,0.2036,21.89,-12.80,9.02
414,287064515,0.3613,0.9097,0.1978,21.89,-12.44,8.96
415,287069578,0.3633,0.9111,0.1934,21.77,-12.20,8.84
416,287074515,0.3623,0.9146,0.1860,21.59,-11.95,8.90
417,287079518,0.3623,0.9116,0.1802,21.40,-11.65,8.96
418,287084515,0.3628,0.9102,0.1846,21.22,-11.34,8.84
419,287089519,0.3569,0.9033,0.1909,21.10,-11.10,8.84
420,287094515,0.3579,0.9067,0.1729,20.85,-10.79,8.84
421,287099785,0.3594,0.9072,0.1753,20.73,-10.67,8.72
422,287104516,0.3618,0.9121,0.1787,20.55,-10.24,8.66
423,287109517,0.3604,0.9092,0.1772,20.30,-9.88,8.60
424,287114516,0.3638,0.9141,0.1646,20.43,-9.76,8.60
425,287119516,0.3662,0.9155,0.1733,20.30,-9.57,8.54
426,287124514,0.3682,0.9150,0.1724,20.37,-9.45,8.23
427,287129517,0.3706,0.9170,0.1680,20.37,-9.09,8.05
428,287134515,0.3672,0.9253,0.1636,20.43,-8.84,7.80
429,287139514,0.3721,0.9282,0.1621,20.49,-8.78,7.38
430,287144516,0.3726,0.9375,0.1689,20.61,-8.41,6.89
431,287149516,0.3760,0.9375,0.1709,20.24,-8.17,6.52
432,287154515,0.3779,0.9336,0.1646,20.06,-8.11,6.16
433,287159516,0.3804,0.9287,0.1611,19.57,-7.93,5.73
434,287164515,0.3794,0.9268,0.1680,18.96,-7.87,5.30
435,287169517,0.3818,0.9302,0.1631,18.11,-7.62,4.82
436,287174515,0.3838,0.9282,0.1562,17.20,-7.68,4.39
437,287179518,0.3867,0.9360,0.1621,16.28,-7.62,3.90
438,287184515,0.3833,0.9302,0.1587,15.12,-7.50,3.35
439,287189517,0.3833,0.9307,0.1621,13.96,-7.50,2.80
440,287194519,0.3833,0.9297,0.1572,12.99,-7.56,2.32
441,287199516,0.3818,0.9243,0.1587,12.01,-7.38,1.71
442,287204515,0.3794,0.9243,0.1675,11.10,-7.32,1.22
443,287209666,0.3784,0.9312,0.1592,10.43,-7.20,0.61
444,287214516,0.3804,0.9307,0.1597,9.63,-7.26,0.06
445,287219516,0.3838,0.9326,0.1699,9.21,-7.01,-0.61
446,287224516,0.3804,0.9326,0.1616,8.72,-6.95,-1.04
447,287229515,0.3823,0.9292,0.1567,8.35,-6.95,-1.65
448,287234516,0.3789,0.9243,0.1660,8.17,-6.77,-2.07
449,287239517,0.3770,0.9180,0.1621,7.80,-6.77,-2.44
450,287244516,0.3765,0.9209,0.1616,7.74,-6.77,-2.87
451,287249518,0.3784,0.9209,0.1538,7.68,-6.77,-3.35
452,287254515,0.3770,0.9194,0.1606,7.62,-6.65,-3.84
453,287259516,0.3740,0.9238,0.1621,7.87,-6.71,-4.21
454,287264515,0.3755,0.9272,0.1636,8.05,-6.89,-4.57
455,287269516,0.3721,0.9302,0.1597,8.41,-6.77,-5.06
456,287274515,0.3706,0.9277,0.1631,8.78,-6.71,-5.30
457,287279516,0.3691,0.9243,0.1650,9.21,-6.65,-5.73
458,287284515,0.3726,0.9253,0.1606,9.63,-6.65,-6.10
459,287289518,0.3691,0.9277,0.1641,9.82,-6.65,-6.46
460,287294515,0.3677,0.9307,0.1592,10.18,-6.59,-6.77
461,287299516,0.3687,0.9263,0.1626,10.06,-6.59,-7.13
462,287304515,0.3647,0.9224,0.1641,10.00,-6.71,-7.50
463,287309516,0.3682,0.9199,0.1611,9.70,-6.65,-7.74
464,287314515,0.3652,0.9224,0.1626,9.02,-6.89,-8.11
465,287319516,0.3652,0.9165,0.1689,8.29,-6.89,-8.48
466,287324515,0.3643,0.9185,0.1504,7.56,-7.07,-8.72
467,287329516,0.3604,0.9233,0.1538,6.83,-7.26,-9.09
468,287334515,0.3594,0.9219,0.1553,5.98,-7.32,-9.33
469,287339516,0.3594,0.9185,0.1558,5.30,-7.44,-9.57
470,287344515,0.3618,0.9224,0.1577,4.76,-7.62,-10.06
471,287349516,0.3618,0.9253,0.1587,4.21,-7.93,-10.49
472,287354515,0.3579,0.9277,0.1562,3.96,-8.05,-10.85
473,287359516,0.3560,0.9302,0.1538,3.78,-8.23,-11.22
474,287364515,0.3613,0.9321,0.1577,3.90,-8.60,-11.65
475,287369516,0.3579,0.9292,0.1626,4.02,-8.41,-11.77
476,287374796,0.3545,0.9326,0.1587,4.33,-8.66,-12.01
477,287379517,0.3521,0.9307,0.1533,4.63,-8.84,-12.32
478,287384517,0.3521,0.9307,0.1621,4.94,-8.96,-12.50
479,287389516,0.3521,0.9302,0.1631,5.18,-8.96,-12.62
480,287394516,0.3496,0.9297,0.1616,5.49,-9.09,-12.80
481,287399525,0.3481,0.9272,0.1519,5.61,-9.27,-12.87
482,287404516,0.3462,0.9272,0.1582,5.85,-9.27,-12.99
483,287409516,0.3423,0.9253,0.1562,5.91,-9.45,-13.05
484,287414516,0.3472,0.9253,0.1528,5.91,-9.63,-13.11
485,287419517,0.3491,0.9297,0.1479,6.04,-10.00,-13.11
486,287424516,0.3521,0.9312,0.1509,6.22,-10.24,-13.29
487,287429516,0.3486,0.9346,0.1479,6.34,-10.43,-13.41
488,287434516,0.3501,0.9409,0.1475,6.77,-10.49,-13.54
489,287439517,0.3516,0.9409,0.1528,7.26,-10.79,-13.72
490,287444516,0.3472,0.9468,0.1406,7.80,-10.85,-13.78
491,287449515,0.3452,0.9512,0.1450,8.41,-11.04,-13.84
492,287454517,0.3433,0.9536,0.1519,9.15,-11.04,-13.90
493,287459516,0.3433,0.9512,0.1445,9.82,-11.04,-14.02
494,287464515,0.3408,0.9580,0.1411,10.30,-11.10,-14.09
495,287469518,0.3413,0.9551,0.1406,10.91,-10.98,-14.21
496,287474515,0.3403,0.9556,0.1431,11.22,-10.91,-14.09
497,287479515,0.3389,0.9556,0.1377,11.46,-10.85,-14.02
498,287484926,0.3394,0.9556,0.1372,11.59,-11.04,-14.09
499,287489517,0.3389,0.9551,0.1313,11.59,-10.85,-14.02
500,287494515,0.3345,0.9546,0.1318,11.34,-10.98,-13.90
501,287499516,0.3320,0.9546,0.1318,11.28,-10.91,-13.90
502,287504515,0.3335,0.9604,0.1250,11.10,-11.04,-13.84
503,287509761,0.3364,0.9614,0.1216,11.10,-10.98,-13.78
504,287514516,0.3364,0.9712,0.1191,10.98,-10.85,-13.66
505,287519517,0.3369,0.9756,0.1182,11.04,-10.73,-13.60
506,287524516,0.3330,0.9746,0.1138,11.16,-10.79,-13.48
507,287529517,0.3286,0.9790,0.1118,11.34,-10.67,-13.35
508,287534516,0.3301,0.9800,0.1104,11.34,-10.55,-13.11
509,287539516,0.3247,0.9863,0.1084,11.22,-10.30,-12.87
510,287544516,0.3247,0.9824,0.1025,11.22,-10.12,-12.68
511,287549514,0.3242,0.9854,0.1074,10.85,-9.94,-12.26
512,287554515,0.3247,0.9897,0.1016,10.55,-9.88,-11.95
513,287559516,0.3228,0.9902,0.1055,10.06,-9.51,-11.65
514,287564515,0.3213,0.9927,0.0981,9.63,-9.39,-11.22
515,287569516,0.3198,0.9917,0.0996,9.09,-9.15,-10.91
516,287574515,0.3242,0.9937,0.0933,8.72,-9.15,-10.43
517,287579517,0.3257,0.9966,0.0884,8.35,-8.72,-10.06
518,287584515,0.3218,0.9937,0.0986,8.17,-8.60,-9.70
519,287589518,0.3232,0.9971,0.0933,7.99,-8.48,-9.21
520,287594515,0.3174,0.9961,0.0947,8.11,-8.23,-8.66
521,287599514,0.3184,0.9985,0.0879,8.05,-8.05,-8.23
522,287604514,0.3179,0.9995,0.0957,8.41,-7.68,-7.68
523,287609518,0.3188,0.9980,0.0894,8.84,-7.44,-7.13
524,287614515,0.3188,0.9961,0.0835,9.27,-7.13,-6.59
525,287619516,0.3208,1.0029,0.0850,9.76,-6.89,-5.98
526,287624515,0.3208,1.0029,0.0884,10.37,-6.46,-5.49
527,287629516,0.3213,1.0034,0.0815,10.73,-6.28,-5.06
528,287634515,0.3271,0.9990,0.0811,11.10,-6.10,-4.45
529,287639516,0.3252,1.0015,0.0850,11.34,-5.91,-4.02
530,287644515,0.3271,1.0024,0.0830,11.52,-5.61,-3.66
531,287649516,0.3296,0.9976,0.0786,11.59,-5.37,-3.17
532,287654515,0.3306,0.9966,0.0811,11.52,-5.18,-2.74
533,287659518,0.3301,0.9980,0.0815,11.34,-5.12,-2.38
534,287664515,0.3320,0.9946,0.0791,11.10,-5.00,-1.95
535,287669516,0.3301,0.9927,0.0820,10.85,-4.76,-1.59
536,287674515,0.3306,0.9902,0.0771,10.43,-4.51,-1.10
537,287679666,0.3281,0.9912,0.0796,10.06,-4.45,-0.79
538,287684516,0.3306,0.9897,0.0811,9.70,-4.15,-0.49
539,287689516,0.3301,0.9844,0.0815,9.57,-4.09,-0.12
540,287694516,0.3291,0.9810,0.0732,9.51,-4.15,0.24
541,287699517,0.3281,0.9800,0.0825,9.39,-3.96,0.55
542,287704516,0.3306,0.9785,0.0786,9.33,-3.78,0.85
543,287709516,0.3315,0.9780,0.0752,9.51,-3.60,1.04
544,287714515,0.3315,0.9819,0.0747,9.63,-3.48,1.34
545,287719516,0.3296,0.9756,0.0767,9.82,-3.48,1.65
546,287724515,0.3252,0.9712,0.0835,10.12,-3.41,1.89
547,287729514,0.3286,0.9712,0.0806,10.37,-3.35,2.20
548,287734516,0.3311,0.9658,0.0776,10.49,-3.05,2.50
549,287739517,0.3262,0.9678,0.0776,10.85,-3.17,2.62
550,287744516,0.3306,0.9697,0.0825,10.98,-2.93,2.93
551,287749515,0.3291,0.9658,0.0781,11.16,-2.87,3.05
552,287754516,0.3311,0.9634,0.0796,11.28,-2.74,3.23
553,287759517,0.3286,0.9683,0.0718,11.28,-2.74,3.48
554,287764516,0.3291,0.9634,0.0728,11.10,-2.80,3.54
555,287769515,0.3296,0.9639,0.0815,10.91,-2.74,3.60
556,287774516,0.3296,0.9604,0.0801,10.91,-2.80,3.72
557,287779516,0.3262,0.9600,0.0845,10.49,-2.74,3.78
558,287784516,0.3296,0.9604,0.0835,10.12,-2.80,3.72
559,287789728,0.3286,0.9614,0.0806,9.82,-2.80,3.66
560,287794516,0.3276,0.9526,0.0830,9.27,-2.87,3.66
561,287799516,0.3242,0.9551,0.0830,8.84,-2.93,3.54
562,287804516,0.3252,0.9595,0.0854,8.29,-2.93,3.41
563,287809515,0.3247,0.9517,0.0859,7.74,-2.93,3.29
564,287814516,0.3228,0.9541,0.0874,7.07,-2.93,3.11
565,287819516,0.3223,0.9526,0.0840,6.52,-2.93,2.93
566,287824516,0.3208,0.9565,0.0854,5.91,-2.99,2.74
567,287829515,0.3193,0.9580,0.0845,5.30,-3.11,2.44
568,287834516,0.3149,0.9556,0.0845,4.70,-2.99,2.20
569,287839516,0.3164,0.9575,0.0928,4.15,-2.93,1.89
570,287844516,0.3179,0.9512,0.0859,3.54,-3.11,1.52
571,287849514,0.3159,0.9541,0.0845,2.80,-3.11,1.28
572,287854518,0.3149,0.9521,0.0879,2.26,-3.35,0.98
573,287859515,0.3174,0.9492,0.0952,1.59,-3.48,0.67
574,287864516,0.3125,0.9478,0.0835,1.10,-3.41,0.43
575,287869517,0.3149,0.9497,0.0898,0.67,-3.66,0.06
576,287874516,0.3125,0.9478,0.0918,0.30,-3.66,-0.18
577,287879515,0.3154,0.9463,0.0874,0.24,-3.78,-0.49
578,287884516,0.3130,0.9497,0.0884,0.12,-3.90,-0.61
579,287889516,0.3086,0.9453,0.0918,0.06,-4.21,-1.04
580,287894516,0.3086,0.9512,0.0850,0.37,-4.21,-1.10
581,287899517,0.3057,0.9526,0.0938,0.73,-4.39,-1.40
582,287904516,0.3032,0.9482,0.0859,1.10,-4.51,-1.71
583,287909515,0.3018,0.9468,0.0850,1.46,-4.76,-1.65
584,287914516,0.3042,0.9517,0.0854,1.89,-5.00,-1.89
585,287919515,0.2998,0.9531,0.0815,2.44,-5.12,-1.95
586,287924516,0.2993,0.9570,0.0874,2.93,-5.24,-2.26
587,287929515,0.2939,0.9536,0.0864,3.23,-5.55,-2.26
588,287934516,0.2954,0.9531,0.0835,3.48,-5.67,-2.44
589,287939515,0.2949,0.9546,0.0874,3.66,-5.79,-2.50
590,287944514,0.2896,0.9556,0.0859,3.72,-6.04,-2.56
591,287949514,0.2915,0.9512,0.0757,3.60,-6.34,-2.44
592,287954517,0.2891,0.9497,0.0796,3.48,-6.40,-2.56
593,287959515,0.2852,0.9546,0.0820,3.29,-6.59,-2.56
594,287964517,0.2861,0.9497,0.0811,3.29,-6.71,-2.50
595,287969516,0.2876,0.9546,0.0796,3.35,-6.83,-2.56
596,287974515,0.2866,0.9561,0.0845,3.23,-7.07,-2.44
597,287979516,0.2847,0.9561,0.0825,3.41,-7.13,-2.44
598,287984515,0.2861,0.9546,0.0840,3.48,-7.13,-2.38
599,287989517,0.2856,0.9565,0.0801,3.66,-7.32,-2.44
600,287994515,0.2817,0.9614,0.0737,3.90,-7.26,-2.38
601,287999518,0.2881,0.9585,0.0776,4.39,-7.44,-2.50
602,288004516,0.2856,0.9565,0.0781,4.51,-7.56,-2.56
603,288009516,0.2866,0.9595,0.0747,5.00,-7.56,-2.56
604,288014515,0.2876,0.9580,0.0815,5.00,-7.62,-2.68
605,288019516,0.2881,0.9595,0.0767,5.30,-7.68,-2.74
606,288024515,0.2886,0.9546,0.0747,5.30,-7.74,-2.74
607,288029516,0.2915,0.9561,0.0771,5.37,-7.74,-2.74
608,288034515,0.2905,0.9551,0.0767,5.30,-7.87,-2.80
609,288039516,0.2910,0.9585,0.0708,5.18,-8.05,-2.87
610,288044515,0.2930,0.9614,0.0693,5.24,-8.05,-3.05
611,288049577,0.2915,0.9639,0.0693,5.00,-8.17,-3.23
612,288054518,0.2944,0.9609,0.0698,4.82,-8.17,-3.23
613,288059515,0.2920,0.9570,0.0669,4.57,-8.35,-3.29
614,288064516,0.2925,0.9614,0.0732,4.15,-8.35,-3.23
615,288069517,0.2949,0.9600,0.0688,3.90,-8.29,-3.35
616,288074516,0.2886,0.9648,0.0659,3.48,-8.23,-3.29
617,288079516,0.2930,0.9609,0.0654,3.05,-8.23,-3.41
618,288084516,0.2900,0.9648,0.0708,2.56,-8.23,-3.41
619,288089515,0.2905,0.9663,0.0664,2.26,-8.29,-3.48
620,288094516,0.2939,0.9712,0.0669,1.77,-8.11,-3.60
621,288099517,0.2969,0.9668,0.0640,1.65,-7.99,-3.60
622,288104516,0.2944,0.9722,0.0679,1.52,-8.05,-3.54
623,288109515,0.2920,0.9688,0.0654,1.34,-7.99,-3.66
624,288114516,0.2925,0.9692,0.0610,1.22,-7.80,-3.66
625,288119518,0.2900,0.9678,0.0625,1.16,-7.62,-3.66
626,288124515,0.2891,0.9727,0.0601,1.10,-7.68,-3.54
627,288129642,0.2910,0.9688,0.0586,1.10,-7.68,-3.60
628,288134516,0.2896,0.9727,0.0576,1.10,-7.50,-3.60
629,288139515,0.2910,0.9746,0.0605,1.10,-7.56,-3.41
630,288144536,0.2881,0.9756,0.0615,1.04,-7.38,-3.35
631,288149518,0.2900,0.9785,0.0601,1.22,-7.50,-3.29
632,288154515,0.2900,0.9795,0.0522,1.22,-7.20,-3.17
633,288159516,0.2920,0.9800,0.0562,1.28,-7.32,-2.99
634,288164515,0.2871,0.9814,0.0513,1.46,-7.13,-2.93
635,288169516,0.2896,0.9834,0.0537,1.34,-7.13,-2.74
636,288174515,0.2876,0.9829,0.0532,1.34,-7.07,-2.62
637,288179518,0.2842,0.9829,0.0527,1.16,-6.95,-2.44
638,288184515,0.2856,0.9854,0.0547,1.16,-6.77,-2.26
639,288189516,0.2861,0.9839,0.0469,1.16,-6.71,-2.07
640,288194518,0.2861,0.9810,0.0488,1.28,-6.65,-1.95
641,288199516,0.2842,0.9868,0.0532,1.16,-6.52,-1.77
642,288204515,0.2827,0.9863,0.0557,1.34,-6.46,-1.65
643,288209518,0.2871,0.9839,0.0488,1.34,-6.40,-1.40
644,288214518,0.2861,0.9878,0.0444,1.52,-6.22,-1.22
645,288219516,0.2861,0.9868,0.0503,1.65,-6.28,-1.04
646,288224515,0.2866,0.9849,0.0503,1.83,-6.16,-0.85
647,288229516,0.2861,0.9814,0.0571,1.89,-6.04,-0.67
648,288234515,0.2876,0.9805,0.0513,2.01,-5.85,-0.55
649,288239516,0.2881,0.9849,0.0552,2.07,-5.98,-0.30
650,288244515,0.2886,0.9834,0.0537,2.13,-6.04,-0.18
651,288249514,0.2837,0.9814,0.0503,2.26,-5.91,0.00
652,288254516,0.2856,0.9819,0.0518,2.32,-5.79,0.12
653,288259515,0.2866,0.9814,0.0430,2.32,-5.73,0.24
654,288264517,0.2856,0.9829,0.0425,2.38,-5.67,0.37
655,288269515,0.2852,0.9834,0.0459,2.20,-5.55,0.49
656,288274516,0.2852,0.9805,0.0454,2.01,-5.43,0.67
657,288279515,0.2837,0.9814,0.0513,1.95,-5.37,0.67
658,288284517,0.2808,0.9819,0.0425,1.89,-5.24,0.79
659,288289516,0.2812,0.9810,0.0532,1.71,-5.18,0.91
660,288294515,0.2812,0.9795,0.0488,1.34,-4.88,1.28
661,288299516,0.2778,0.9775,0.0454,1.22,-4.76,1.28
662,288304515,0.2773,0.9785,0.0464,1.10,-4.57,1.34
663,288309518,0.2783,0.9766,0.0469,0.91,-4.45,1.46
664,288314515,0.2778,0.9775,0.0527,0.91,-4.33,1.59
665,288319514,0.2822,0.9717,0.0557,0.79,-4.09,1.71
666,288324516,0.2798,0.9707,0.0532,0.85,-3.96,1.89
667,288329515,0.2783,0.9722,0.0493,0.91,-3.84,1.89
668,288334516,0.2812,0.9678,0.0508,1.04,-3.72,2.01
669,288339517,0.2793,0.9678,0.0527,1.16,-3.60,2.07
670,288344516,0.2783,0.9673,0.0527,1.46,-3.48,2.01
671,288349620,0.2798,0.9663,0.0498,1.65,-3.35,2.13
672,288354517,0.2837,0.9634,0.0527,1.89,-3.11,2.01
673,288359516,0.2817,0.9653,0.0527,2.01,-3.11,1.95
674,288364517,0.2827,0.9644,0.0576,2.13,-3.11,1.95
675,288369515,0.2808,0.9644,0.0542,2.32,-2.87,1.89
676,288374515,0.2812,0.9639,0.0557,2.50,-2.87,1.83
677,288379663,0.2764,0.9644,0.0498,2.62,-2.80,1.77
678,288384516,0.2783,0.9609,0.0649,2.74,-2.80,1.59
679,288389516,0.2773,0.9629,0.0576,2.80,-2.62,1.52
680,288394516,0.2734,0.9634,0.0610,2.80,-2.50,1.40
681,288399515,0.2749,0.9614,0.0469,2.74,-2.50,1.28
682,288404516,0.2759,0.9624,0.0557,2.68,-2.32,1.28
683,288409518,0.2720,0.9619,0.0591,2.62,-2.26,1.16
684,288414516,0.2686,0.9619,0.0527,2.44,-2.13,1.04
685,288419516,0.2686,0.9614,0.0562,2.13,-1.95,1.04
686,288424516,0.2666,0.9570,0.0552,2.07,-2.01,0.85
687,288429516,0.2656,0.9575,0.0542,1.89,-1.71,0.67
688,288434516,0.2690,0.9561,0.0552,1.59,-1.77,0.49
689,288439516,0.2637,0.9609,0.0581,1.40,-1.77,0.43
690,288444516,0.2661,0.9614,0.0586,1.22,-1.77,0.18
691,288449516,0.2666,0.9609,0.0576,1.04,-1.65,0.12
692,288454516,0.2695,0.9634,0.0542,0.98,-1.71,-0.06
693,288459516,0.2666,0.9624,0.0610,0.85,-1.59,-0.43
694,288464516,0.2671,0.9600,0.0610,1.04,-1.65,-0.37
695,288469516,0.2656,0.9624,0.0605,0.91,-1.46,-0.55
696,288474516,0.2651,0.9609,0.0586,1.10,-1.40,-0.61
697,288479516,0.2666,0.9614,0.0605,0.98,-1.28,-0.85
698,288484516,0.2651,0.9614,0.0610,1.22,-1.40,-0.98
699,288489516,0.2627,0.9619,0.0645,1.04,-1.16,-1.04
700,288494516,0.2612,0.9614,0.0610,1.10,-1.04,-1.22
701,288499516,0.2607,0.9604,0.0659,0.98,-1.10,-1.22
702,288504516,0.2637,0.9580,0.0596,0.85,-0.91,-1.22
703,288509517,0.2632,0.9624,0.0615,0.73,-0.73,-1.40
704,288514516,0.2627,0.9629,0.0645,0.73,-0.67,-1.34
705,288519514,0.2627,0.9648,0.0625,0.55,-0.67,-1.46
706,288524514,0.2642,0.9639,0.0649,0.61,-0.61,-1.59
707,288529518,0.2676,0.9609,0.0605,0.67,-0.67,-1.59
708,288534515,0.2617,0.9653,0.0640,0.55,-0.55,-1.59
709,288539516,0.2651,0.9658,0.0645,0.49,-0.49,-1.71
710,288544517,0.2642,0.9634,0.0635,0.67,-0.67,-1.89
711,288549517,0.2656,0.9639,0.0659,0.79,-0.55,-1.83
712,288554516,0.2661,0.9658,0.0645,1.04,-0.67,-1.89
713,288559516,0.2651,0.9653,0.0674,1.10,-0.55,-2.01
714,288564516,0.2656,0.9678,0.0664,1.22,-0.61,-2.01
715,288569516,0.2651,0.9678,0.0659,1.28,-0.61,-2.01
716,288574516,0.2686,0.9648,0.0659,1.46,-0.79,-2.01
717,288579516,0.2642,0.9702,0.0718,1.52,-0.67,-1.95
718,288584516,0.2617,0.9688,0.0630,1.59,-0.67,-2.07
719,288589517,0.2651,0.9658,0.0679,1.59,-0.67,-2.13
720,288594516,0.2632,0.9668,0.0615,1.71,-0.67,-2.01
721,288599518,0.2632,0.9722,0.0640,1.65,-0.73,-1.83
722,288604516,0.2632,0.9678,0.0703,1.71,-0.61,-1.83
723,288609516,0.2646,0.9697,0.0679,1.52,-0.55,-1.95
724,288614515,0.2690,0.9692,0.0752,1.52,-0.49,-1.77
725,288619518,0.2671,0.9722,0.0732,1.52,-0.67,-1.77
726,288624515,0.2676,0.9697,0.0713,1.52,-0.61,-1.71
727,288629518,0.2671,0.9673,0.0762,1.28,-0.61,-1.65
728,288634515,0.2676,0.9697,0.0767,1.34,-0.61,-1.59
729,288639516,0.2637,0.9727,0.0776,1.10,-0.49,-1.52
730,288644515,0.2690,0.9692,0.0771,0.98,-0.79,-1.59
731,288649516,0.2651,0.9692,0.0781,0.91,-0.85,-1.52
732,288654515,0.2739,0.9702,0.0737,0.91,-0.91,-1.46
733,288659516,0.2749,0.9707,0.0718,0.98,-1.04,-1.46
734,288664515,0.2769,0.9668,0.0713,0.98,-0.98,-1.46
735,288669516,0.2749,0.9717,0.0747,0.98,-1.22,-1.46
736,288674515,0.2705,0.9736,0.0786,1.22,-1.16,-1.40
737,288679514,0.2725,0.9761,0.0732,1.40,-1.28,-1.46
738,288684518,0.2681,0.9761,0.0771,1.59,-1.40,-1.46
739,288689516,0.2676,0.9785,0.0776,1.83,-1.28,-1.34
740,288694515,0.2661,0.9751,0.0786,2.01,-1.22,-1.28
741,288699516,0.2671,0.9741,0.0776,2.13,-1.40,-1.28
742,288704515,0.2632,0.9746,0.0830,2.44,-1.28,-1.22
743,288709516,0.2700,0.9736,0.0791,2.26,-1.40,-1.16
744,288714518,0.2710,0.9756,0.0791,2.38,-1.28,-1.04
745,288719518,0.2661,0.9771,0.0786,2.38,-1.34,-1.10
746,288724515,0.2656,0.9780,0.0732,2.38,-1.52,-0.91
747,288729516,0.2690,0.9795,0.0820,2.32,-1.52,-0.79
748,288734515,0.2671,0.9756,0.0791,2.32,-1.59,-0.67
749,288739516,0.2705,0.9731,0.0723,2.20,-1.59,-0.67
750,288744515,0.2671,0.9746,0.0776,2.13,-1.59,-0.55
751,288749514,0.2676,0.9814,0.0820,1.71,-1.77,-0.43
752,288754517,0.2627,0.9761,0.0806,1.71,-1.83,-0.37
753,288759516,0.2656,0.9736,0.0806,1.46,-1.83,-0.30
754,288764516,0.2612,0.9780,0.0767,1.40,-1.83,-0.24
755,288769515,0.2651,0.9795,0.0747,1.34,-2.01,-0.24
756,288774516,0.2617,0.9756,0.0732,1.34,-2.07,-0.06
757,288779515,0.2607,0.9766,0.0781,1.34,-1.89,-0.12
758,288784515,0.2617,0.9727,0.0830,1.34,-1.95,0.00
759,288789516,0.2554,0.9756,0.0781,1.28,-1.89,0.06
760,288794515,0.2642,0.9771,0.0854,1.16,-2.07,0.12
761,288799516,0.2607,0.9736,0.0830,1.22,-1.95,0.18
762,288804515,0.2607,0.9780,0.0742,1.16,-2.01,0.18
763,288809517,0.2559,0.9746,0.0771,1.22,-2.20,0.24
764,288814515,0.2598,0.9746,0.0811,1.22,-2.38,0.24
765,288819518,0.2612,0.9761,0.0815,1.28,-2.38,0.37
766,288824515,0.2593,0.9731,0.0801,1.22,-2.44,0.37
767,288829516,0.2554,0.9712,0.0806,1.22,-2.38,0.30
768,288834515,0.2510,0.9697,0.0806,1.34,-2.62,0.30
769,288839518,0.2539,0.9683,0.0757,1.40,-2.68,0.30
770,288844515,0.2520,0.9697,0.0859,1.46,-2.74,0.24
771,288849516,0.2534,0.9707,0.0835,1.65,-2.87,0.37
772,288854515,0.2529,0.9678,0.0815,1.71,-2.87,0.24
773,288859516,0.2510,0.9653,0.0815,1.83,-3.05,0.30
774,288864515,0.2520,0.9653,0.0776,1.95,-3.23,0.12
775,288869514,0.2529,0.9644,0.0708,2.26,-3.29,0.06
776,288874517,0.2500,0.9639,0.0752,2.50,-3.41,-0.06
777,288879516,0.2515,0.9639,0.0757,2.56,-3.60,-0.12
778,288884516,0.2485,0.9668,0.0752,2.87,-3.41,-0.24
779,288889515,0.2480,0.9629,0.0791,2.99,-3.54,-0.43
780,288894516,0.2476,0.9653,0.0796,3.23,-3.54,-0.43
781,288899516,0.2466,0.9644,0.0723,3.41,-3.66,-0.55
782,288904516,0.2476,0.9624,0.0791,3.60,-3.54,-0.61
783,288909515,0.2451,0.9604,0.0791,3.54,-3.54,-0.79
784,288914516,0.2446,0.9604,0.0786,3.60,-3.66,-0.79
785,288919517,0.2480,0.9614,0.0737,3.54,-3.54,-0.91
786,288924516,0.2441,0.9629,0.0698,3.54,-3.54,-1.22
787,288929515,0.2476,0.9604,0.0737,3.54,-3.78,-1.34
788,288934516,0.2441,0.9668,0.0674,3.41,-3.66,-1.65
789,288939516,0.2476,0.9639,0.0713,3.29,-3.60,-1.71
790,288944516,0.2432,0.9648,0.0771,3.11,-3.66,-1.83
791,288949515,0.2476,0.9639,0.0732,2.99,-3.72,-2.01
792,288954516,0.2441,0.9707,0.0698,2.99,-3.78,-2.26
793,288959516,0.2471,0.9731,0.0679,2.93,-3.66,-2.32
794,288964516,0.2456,0.9731,0.0732,2.74,-3.60,-2.62
795,288969517,0.2451,0.9707,0.0728,2.68,-3.66,-2.68
796,288974516,0.2441,0.9727,0.0728,2.56,-3.60,-2.87
797,288979515,0.2490,0.9746,0.0684,2.56,-3.66,-2.87
798,288984515,0.2471,0.9697,0.0698,2.62,-3.66,-2.99
799,288989517,0.2476,0.9717,0.0718,2.62,-3.66,-3.17
800,288994515,0.2446,0.9741,0.0679,2.56,-3.54,-3.17
801,288999516,0.2446,0.9785,0.0586,2.56,-3.35,-3.17
802,289004516,0.2500,0.9722,0.0679,2.38,-3.35,-3.11
803,289009518,0.2529,0.9756,0.0659,2.20,-3.35,-3.05
804,289014515,0.2476,0.9775,0.0649,2.01,-3.29,-2.99
805,289019516,0.2524,0.9751,0.0640,1.95,-3.29,-2.93
806,289024515,0.2554,0.9771,0.0659,1.77,-3.35,-2.87
807,289029518,0.2529,0.9785,0.0664,1.71,-3.29,-2.74
808,289034515,0.2534,0.9810,0.0659,1.71,-3.23,-2.68
809,289039516,0.2568,0.9790,0.0615,1.83,-3.23,-2.62
810,289044515,0.2559,0.9800,0.0605,2.07,-3.35,-2.44
811,289049516,0.2539,0.9824,0.0654,2.38,-3.23,-2.32
812,289054515,0.2534,0.9868,0.0679,2.68,-3.29,-2.13
813,289059514,0.2539,0.9863,0.0674,3.11,-3.17,-2.07
814,289064518,0.2549,0.9883,0.0649,3.54,-3.17,-2.01
815,289069515,0.2539,0.9873,0.0659,3.90,-3.17,-1.77
816,289074518,0.2515,0.9902,0.0684,4.27,-3.11,-1.52
817,289079516,0.2539,0.9897,0.0645,4.76,-2.99,-1.40
818,289084516,0.2524,0.9893,0.0630,5.00,-2.93,-1.28
819,289089514,0.2515,0.9922,0.0635,5.18,-2.93,-1.10
820,289094518,0.2466,0.9878,0.0674,5.12,-2.80,-0.98
821,289099516,0.2520,0.9883,0.0640,4.94,-2.80,-0.85
822,289104515,0.2495,0.9888,0.0645,4.51,-2.68,-0.49
823,289109518,0.2480,0.9907,0.0615,4.21,-2.68,-0.43
824,289114515,0.2510,0.9878,0.0674,3.66,-2.68,-0.24
825,289119516,0.2480,0.9878,0.0669,3.41,-2.56,-0.06
826,289124514,0.2480,0.9902,0.0649,3.05,-2.56,-0.06
827,289129518,0.2490,0.9902,0.0693,2.80,-2.62,0.18
828,289134515,0.2471,0.9917,0.0630,2.50,-2.44,0.12
829,289139514,0.2505,0.9868,0.0659,2.13,-2.50,0.24
830,289144516,0.2451,0.9907,0.0669,2.20,-2.62,0.30
831,289149515,0.2466,0.9868,0.0640,2.13,-2.56,0.43
832,289154516,0.2446,0.9878,0.0615,2.13,-2.56,0.55
833,289159515,0.2441,0.9873,0.0659,2.32,-2.62,0.67
834,289164516,0.2422,0.9854,0.0698,2.44,-2.68,0.79
835,289169517,0.2397,0.9868,0.0640,2.62,-2.74,0.98
836,289174516,0.2417,0.9858,0.0693,2.87,-2.74,1.04
837,289179515,0.2427,0.9907,0.0610,3.11,-2.80,1.16
838,289184516,0.2397,0.9868,0.0693,3.35,-2.80,1.22
839,289189514,0.2349,0.9883,0.0669,3.72,-2.80,1.40
840,289194519,0.2354,0.9897,0.0728,3.96,-2.80,1.40
841,289199516,0.2378,0.9897,0.0698,4.09,-2.87,1.52
842,289204515,0.2383,0.9878,0.0684,4.39,-2.68,1.65
843,289209516,0.2388,0.9863,0.0688,4.39,-2.74,1.83
844,289214515,0.2363,0.9858,0.0703,4.39,-2.74,1.89
845,289219517,0.2388,0.9868,0.0708,4.27,-2.74,1.95
846,289224515,0.2368,0.9800,0.0659,4.33,-2.80,2.07
847,289229518,0.2344,0.9795,0.0781,4.09,-2.93,2.07
848,289234515,0.2349,0.9780,0.0713,3.90,-2.93,2.07
849,289239514,0.2363,0.9746,0.0742,3.84,-2.93,2.01
850,289244516,0.2402,0.9785,0.0703,3.66,-3.17,2.13
851,289249516,0.2402,0.9814,0.0688,3.48,-3.23,2.07
852,289254516,0.2402,0.9814,0.0767,3.48,-3.23,2.01
853,289259515,0.2393,0.9800,0.0713,3.11,-3.35,1.95
854,289264516,0.2383,0.9780,0.0718,3.05,-3.48,1.95
855,289269516,0.2373,0.9775,0.0757,2.93,-3.54,1.89
856,289274516,0.2368,0.9766,0.0732,2.80,-3.41,1.89
857,289279515,0.2363,0.9751,0.0737,2.74,-3.54,1.89
858,289284516,0.2334,0.9780,0.0713,2.74,-3.66,1.83
859,289289515,0.2393,0.9780,0.0718,2.74,-3.66,1.83
860,289294520,0.2393,0.9766,0.0747,2.68,-3.60,1.65
861,289299516,0.2368,0.9761,0.0723,2.74,-3.54,1.77
862,289304515,0.2402,0.9741,0.0664,2.87,-3.78,1.65
863,289309516,0.2363,0.9751,0.0693,2.93,-3.60,1.65
864,289314515,0.2349,0.9717,0.0645,2.99,-3.66,1.65
865,289319517,0.2319,0.9722,0.0649,2.93,-3.84,1.65
866,289324515,0.2358,0.9717,0.0718,3.05,-3.84,1.83
867,289329518,0.2363,0.9746,0.0713,3.05,-3.90,1.46
868,289334515,0.2319,0.9761,0.0698,3.05,-3.96,1.59
869,289339516,0.2324,0.9717,0.0640,3.05,-3.90,1.40
870,289344515,0.2363,0.9692,0.0693,3.17,-3.96,1.46
871,289349516,0.2344,0.9702,0.0669,3.35,-4.15,1.46
872,289354515,0.2378,0.9731,0.0679,3.41,-4.02,1.40
873,289359516,0.2314,0.9731,0.0698,3.54,-4.21,1.34
874,289364515,0.2373,0.9717,0.0674,3.60,-4.02,1.28
875,289369516,0.2363,0.9707,0.0615,3.78,-4.09,1.22
876,289374515,0.2363,0.9736,0.0669,3.78,-4.09,1.22
877,289379518,0.2344,0.9683,0.0591,3.84,-4.15,1.16
878,289384515,0.2373,0.9707,0.0605,3.66,-4.15,1.04
879,289389516,0.2363,0.9717,0.0596,3.60,-4.15,1.04
880,289394515,0.2339,0.9717,0.0586,3.54,-4.09,0.91
881,289399516,0.2358,0.9731,0.0562,3.35,-4.21,0.73
882,289404515,0.2354,0.9712,0.0576,3.11,-4.09,0.73
883,289409969,0.2354,0.9727,0.0630,2.80,-4.15,0.67
884,289414516,0.2329,0.9746,0.0562,2.62,-4.15,0.49
885,289419517,0.2349,0.9697,0.0596,2.38,-4.02,0.43
886,289424516,0.2310,0.9668,0.0625,2.38,-4.09,0.37
887,289429515,0.2344,0.9722,0.0562,2.20,-4.15,0.18
888,289434516,0.2324,0.9717,0.0610,2.32,-3.96,0.18
889,289439517,0.2329,0.9731,0.0576,2.26,-4.15,0.12
890,289444516,0.2344,0.9731,0.0596,2.13,-4.15,0.06
891,289449515,0.2339,0.9727,0.0610,2.20,-4.15,-0.06
892,289454516,0.2349,0.9731,0.0562,2.20,-4.21,0.00
893,289459517,0.2349,0.9712,0.0552,2.26,-4.21,-0.12
894,289464516,0.2344,0.9741,0.0571,2.50,-4.27,-0.12
895,289469517,0.2373,0.9727,0.0537,2.62,-4.21,-0.12
896,289474516,0.2314,0.9756,0.0522,2.87,-4.15,-0.12
897,289479913,0.2339,0.9731,0.0518,2.99,-4.02,-0.18
898,289484517,0.2275,0.9741,0.0552,3.05,-4.09,-0.24
899,289489516,0.2266,0.9756,0.0571,3.17,-4.09,-0.30
900,289494516,0.2319,0.9722,0.0571,3.29,-4.21,-0.30
901,289499517,0.2285,0.9775,0.0498,3.29,-4.15,-0.37
902,289504516,0.2324,0.9746,0.0557,3.35,-3.96,-0.49
903,289509516,0.2300,0.9771,0.0518,3.35,-3.90,-0.37
904,289514516,0.2290,0.9771,0.0503,3.35,-3.96,-0.43
905,289519515,0.2290,0.9756,0.0503,3.23,-3.84,-0.55
906,289524516,0.2290,0.9751,0.0483,3.23,-3.72,-0.61
907,289529597,0.2300,0.9746,0.0513,3.17,-3.84,-0.61
908,289534516,0.2329,0.9780,0.0518,3.17,-3.72,-0.49
909,289539517,0.2305,0.9785,0.0522,3.11,-3.66,-0.61
910,289544516,0.2295,0.9766,0.0552,3.05,-3.60,-0.73
911,289549515,0.2305,0.9712,0.0513,2.99,-3.60,-0.67
912,289554516,0.2271,0.9771,0.0483,2.93,-3.54,-0.67
913,289559516,0.2251,0.9785,0.0532,2.93,-3.66,-0.73
914,289564516,0.2271,0.9771,0.0562,2.87,-3.41,-0.79
915,289569515,0.2275,0.9785,0.0522,2.93,-3.48,-0.79
916,289574516,0.2275,0.9780,0.0503,2.93,-3.23,-0.85
917,289579516,0.2236,0.9829,0.0488,3.05,-3.29,-0.85
918,289584516,0.2261,0.9824,0.0503,3.11,-3.23,-0.91
919,289589515,0.2266,0.9844,0.0474,3.29,-3.23,-0.91
920,289594516,0.2236,0.9868,0.0552,3.29,-3.23,-0.91
921,289599515,0.2227,0.9873,0.0459,3.41,-3.11,-0.85
922,289604517,0.2241,0.9878,0.0522,3.41,-2.93,-0.91
923,289609516,0.2251,0.9873,0.0562,3.41,-2.87,-0.73
924,289614515,0.2241,0.9863,0.0444,3.29,-2.74,-0.67
925,289619514,0.2241,0.9868,0.0488,3.11,-2.80,-0.61
926,289624516,0.2285,0.9883,0.0547,3.11,-2.80,-0.55
927,289629516,0.2266,0.9863,0.0537,2.80,-2.68,-0.49
928,289634515,0.2246,0.9854,0.0547,2.68,-2.56,-0.49
929,289639518,0.2295,0.9883,0.0591,2.44,-2.50,-0.30
930,289644515,0.2314,0.9849,0.0566,2.32,-2.62,-0.37
931,289649516,0.2280,0.9858,0.0488,2.07,-2.62,-0.30
932,289654515,0.2329,0.9834,0.0542,1.95,-2.56,-0.24
933,289659516,0.2329,0.9863,0.0547,1.71,-2.62,-0.30
934,289664515,0.2300,0.9829,0.0537,1.65,-2.50,-0.30
935,289669516,0.2319,0.9824,0.0508,1.71,-2.56,-0.37
936,289674515,0.2314,0.9824,0.0518,1.71,-2.62,-0.24
937,289679516,0.2285,0.9805,0.0464,1.83,-2.44,-0.24
938,289684515,0.2314,0.9868,0.0522,2.01,-2.44,-0.12
939,289689516,0.2300,0.9854,0.0479,2.13,-2.44,-0.12
940,289694515,0.2290,0.9854,0.0483,2.26,-2.44,-0.06
941,289699514,0.2280,0.9878,0.0508,2.56,-2.20,0.12
942,289704516,0.2314,0.9849,0.0498,2.68,-2.26,0.18
943,289709530,0.2339,0.9873,0.0518,2.87,-1.95,0.30
944,289714515,0.2256,0.9810,0.0508,2.93,-1.95,0.43
945,289719516,0.2261,0.9844,0.0518,3.11,-1.83,0.49
946,289724518,0.2266,0.9829,0.0503,3.23,-1.65,0.67
947,289729688,0.2300,0.9771,0.0527,3.17,-1.59,0.61
948,289734516,0.2310,0.9839,0.0522,3.17,-1.40,0.67
949,289739517,0.2305,0.9829,0.0576,3.17,-1.46,0.55
950,289744516,0.2246,0.9824,0.0527,3.23,-1.46,0.67
951,289749515,0.2241,0.9868,0.0566,3.23,-1.34,0.67
952,289754516,0.2256,0.9844,0.0493,3.23,-1.28,0.61
953,289759516,0.2217,0.9844,0.0493,3.11,-1.22,0.55
954,289764516,0.2227,0.9824,0.0498,3.29,-1.16,0.61
955,289769769,0.2217,0.9829,0.0527,3.29,-1.28,0.67
956,289774516,0.2197,0.9839,0.0532,3.48,-1.10,0.67
957,289779517,0.2202,0.9854,0.0483,3.54,-1.16,0.67
958,289784516,0.2231,0.9834,0.0581,3.48,-1.16,0.79
959,289789514,0.2217,0.9819,0.0527,3.60,-1.16,0.79
960,289794516,0.2188,0.9863,0.0469,3.72,-1.10,0.85
961,289799517,0.2241,0.9854,0.0503,3.72,-1.04,0.91
962,289804516,0.2217,0.9819,0.0503,3.78,-1.16,0.85
963,289809517,0.2178,0.9829,0.0518,3.48,-1.16,0.98
964,289814516,0.2188,0.9849,0.0503,3.48,-1.16,0.79
965,289819516,0.2178,0.9868,0.0483,3.48,-1.10,1.04
966,289824516,0.2212,0.9824,0.0581,3.29,-1.04,0.91
967,289829515,0.2197,0.9810,0.0557,3.29,-1.04,0.91
968,289834587,0.2192,0.9863,0.0527,3.11,-0.91,0.85
969,289839517,0.2173,0.9878,0.0518,3.11,-0.91,0.85
970,289844516,0.2192,0.9839,0.0464,2.99,-0.73,0.85
971,289849515,0.2192,0.9819,0.0493,3.05,-0.79,0.85
972,289854516,0.2192,0.9878,0.0479,3.05,-0.61,0.91
973,289859515,0.2212,0.9854,0.0518,3.11,-0.67,0.98
974,289864543,0.2183,0.9863,0.0459,3.11,-0.55,0.98
975,289869517,0.2163,0.9883,0.0513,3.11,-0.49,1.04
976,289874516,0.2207,0.9927,0.0532,3.05,-0.37,1.04
977,289879517,0.2202,0.9883,0.0532,3.17,-0.37,1.04
978,289884516,0.2197,0.9878,0.0566,3.11,-0.37,1.16
979,289889543,0.2192,0.9927,0.0503,3.05,-0.43,1.22
980,289894517,0.2212,0.9917,0.0518,3.11,-0.37,1.28
981,289899516,0.2222,0.9922,0.0513,3.05,-0.43,1.34
982,289904516,0.2227,0.9883,0.0513,3.11,-0.30,1.46
983,289909515,0.2197,0.9893,0.0542,3.17,-0.49,1.59
984,289914516,0.2222,0.9893,0.0474,3.05,-0.49,1.65
985,289919515,0.2197,0.9873,0.0503,3.05,-0.30,1.71
986,289924516,0.2217,0.9917,0.0522,3.11,-0.37,1.71
987,289929517,0.2222,0.9902,0.0557,2.99,-0.43,1.77
988,289934516,0.2217,0.9907,0.0571,3.11,-0.43,1.89
989,289939517,0.2227,0.9917,0.0566,3.05,-0.43,1.95
990,289944516,0.2222,0.9951,0.0552,3.11,-0.43,1.95
991,289949515,0.2173,0.9941,0.0581,2.93,-0.43,2.13
992,289954516,0.2168,0.9932,0.0591,3.11,-0.55,2.20
993,289959515,0.2158,0.9946,0.0547,3.05,-0.49,2.32
994,289964516,0.2173,0.9932,0.0576,2.93,-0.61,2.44
995,289969516,0.2192,0.9907,0.0562,2.93,-0.55,2.44
996,289974516,0.2202,0.9897,0.0586,2.87,-0.61,2.50
997,289979515,0.2178,0.9888,0.0640,2.80,-0.61,2.68
998,289984516,0.2183,0.9941,0.0557,2.87,-0.61,2.80
999,289989517,0.2212,0.9897,0.0601,2.68,-0.67,2.80
1000,289994516,0.2231,0.9893,0.0596,2.62,-0.67,2.93
1001,289999515,0.2212,0.9858,0.0610,2.38,-0.79,2.99
1002,290004516,0.2197,0.9858,0.0649,2.50,-0.79,3.05
1003,290009515,0.2168,0.9839,0.0591,2.38,-0.79,3.17
1004,290014516,0.2251,0.9878,0.0659,2.38,-0.98,3.23
1005,290019516,0.2231,0.9863,0.0649,2.44,-0.98,3.23
1006,290024516,0.2256,0.9888,0.0654,2.44,-1.10,3.35
1007,290029515,0.2212,0.9819,0.0630,2.44,-1.16,3.29
1008,290034516,0.2183,0.9854,0.0576,2.50,-1.16,3.35
1009,290039516,0.2246,0.9858,0.0640,2.56,-1.28,3.29
1010,290044516,0.2217,0.9868,0.0625,2.50,-1.28,3.35
1011,290049517,0.2266,0.9854,0.0640,2.50,-1.40,3.48
1012,290054516,0.2227,0.9839,0.0698,2.62,-1.46,3.41
1013,290059516,0.2212,0.9800,0.0659,2.50,-1.59,3.41
1014,290064516,0.2217,0.9790,0.0630,2.50,-1.71,3.48
1015,290069515,0.2261,0.9800,0.0649,2.62,-1.77,3.41
1016,290074516,0.2241,0.9805,0.0684,2.56,-1.83,3.48
1017,290079516,0.2295,0.9800,0.0615,2.56,-1.83,3.54
1018,290084516,0.2271,0.9814,0.0649,2.74,-1.95,3.66
1019,290089515,0.2251,0.9805,0.0625,2.62,-2.01,3.60
1020,290094516,0.2295,0.9810,0.0640,2.68,-2.07,3.48
1021,290099516,0.2285,0.9819,0.0669,2.50,-2.20,3.48
1022,290104517,0.2241,0.9771,0.0718,2.62,-2.26,3.35
1023,290109514,0.2266,0.9780,0.0698,2.44,-2.38,3.48
1024,290114517,0.2261,0.9819,0.0645,2.26,-2.44,3.35
1025,290119518,0.2261,0.9780,0.0664,2.26,-2.44,3.35
1026,290124515,0.2246,0.9756,0.0640,2.20,-2.62,3.29
1027,290129516,0.2251,0.9756,0.0674,2.13,-2.80,3.35
1028,290134515,0.2251,0.9751,0.0659,2.20,-2.80,3.23
1029,290140002,0.2256,0.9727,0.0674,2.20,-2.93,3.23
1030,290144516,0.2271,0.9712,0.0674,2.13,-3.17,3.17
1031,290149517,0.2271,0.9761,0.0664,2.20,-3.17,3.29
1032,290154516,0.2271,0.9780,0.0684,2.26,-3.35,3.23
1033,290159516,0.2266,0.9785,0.0659,2.20,-3.48,3.29
1034,290164516,0.2261,0.9771,0.0659,2.26,-3.54,3.23
1035,290169517,0.2275,0.9785,0.0649,2.32,-3.66,3.17
1036,290174516,0.2266,0.9775,0.0649,2.32,-3.66,3.11
1037,290179516,0.2314,0.9756,0.0713,2.38,-3.84,3.17
1038,290184516,0.2314,0.9785,0.0645,2.44,-3.96,3.11
1039,290189515,0.2261,0.9785,0.0669,2.50,-4.02,3.05
1040,290194518,0.2231,0.9771,0.0649,2.50,-3.96,3.11
1041,290199516,0.2256,0.9775,0.0635,2.44,-4.15,3.05
1042,290204516,0.2285,0.9780,0.0630,2.26,-4.15,2.99
1043,290209516,0.2275,0.9795,0.0640,2.13,-4.45,2.93
1044,290214516,0.2275,0.9766,0.0684,1.95,-4.21,2.99
1045,290219516,0.2256,0.9756,0.0674,1.89,-4.45,2.87
1046,290224516,0.2285,0.9771,0.0615,1.77,-4.51,2.87
1047,290229516,0.2271,0.9756,0.0610,1.59,-4.57,2.87
1048,290234516,0.2236,0.9785,0.0669,1.59,-4.57,2.87
1049,290239516,0.2305,0.9780,0.0654,1.52,-4.63,2.80
1050,290244516,0.2314,0.9771,0.0596,1.46,-4.76,2.74
1051,290249517,0.2314,0.9810,0.0625,1.71,-4.70,2.68
1052,290254516,0.2290,0.9766,0.0625,1.65,-4.82,2.68
1053,290259516,0.2285,0.9741,0.0562,1.71,-4.82,2.80
1054,290264516,0.2314,0.9761,0.0620,1.77,-4.94,2.74
1055,290269516,0.2324,0.9775,0.0610,1.89,-5.00,2.74
1056,290274516,0.2324,0.9780,0.0615,1.95,-4.94,2.74
1057,290279517,0.2324,0.9756,0.0654,2.01,-4.88,2.68
1058,290284516,0.2349,0.9761,0.0591,2.07,-4.88,2.68
1059,290289516,0.2344,0.9736,0.0488,2.13,-5.06,2.56
1060,290294516,0.2363,0.9746,0.0532,2.07,-5.18,2.62
1061,290299516,0.2314,0.9741,0.0596,2.07,-5.06,2.50
1062,290304516,0.2354,0.9731,0.0586,2.07,-5.06,2.56
1063,290309516,0.2354,0.9741,0.0566,2.13,-5.00,2.44
1064,290314516,0.2324,0.9751,0.0581,2.26,-4.94,2.56
1065,290319516,0.2349,0.9727,0.0532,2.32,-4.88,2.50
1066,290324516,0.2378,0.9692,0.0552,2.38,-4.82,2.50
1067,290329516,0.2349,0.9697,0.0576,2.26,-4.70,2.38
1068,290334516,0.2354,0.9688,0.0508,2.44,-4.76,2.44
1069,290339514,0.2383,0.9731,0.0552,2.26,-4.70,2.38
1070,290344517,0.2354,0.9678,0.0542,2.38,-4.76,2.38
1071,290349549,0.2314,0.9678,0.0513,2.38,-4.57,2.44
1072,290354515,0.2329,0.9692,0.0518,2.44,-4.51,2.32
1073,290359518,0.2339,0.9727,0.0566,2.44,-4.57,2.26
1074,290364515,0.2300,0.9678,0.0527,2.38,-4.45,2.13
1075,290369516,0.2300,0.9653,0.0552,2.38,-4.39,2.13
1076,290374515,0.2319,0.9678,0.0444,2.38,-4.33,1.89
1077,290379514,0.2295,0.9692,0.0474,2.50,-4.45,1.77
1078,290384516,0.2295,0.9707,0.0469,2.44,-4.33,1.71
1079,290389517,0.2305,0.9712,0.0488,2.56,-4.21,1.59
1080,290394516,0.2314,0.9717,0.0444,2.68,-4.39,1.52
1081,290399516,0.2251,0.9707,0.0508,2.87,-4.09,1.52
1082,290404516,0.2217,0.9692,0.0391,3.05,-4.15,1.28
1083,290409514,0.2222,0.9731,0.0449,3.11,-4.02,1.40
1084,290414517,0.2222,0.9746,0.0430,3.23,-3.96,1.16
1085,290419515,0.2271,0.9780,0.0381,3.05,-3.78,1.16
1086,290424514,0.2256,0.9746,0.0464,3.05,-3.72,1.16
1087,290429517,0.2295,0.9731,0.0522,2.99,-3.72,1.10
1088,290434516,0.2305,0.9751,0.0488,2.87,-3.78,1.16
1089,290439516,0.2280,0.9741,0.0454,2.93,-3.48,1.10
1090,290444516,0.2280,0.9741,0.0488,2.87,-3.41,0.98
1091,290449516,0.2305,0.9712,0.0454,2.87,-3.41,0.91
1092,290454516,0.2339,0.9712,0.0435,2.68,-3.41,0.85
1093,290459517,0.2310,0.9741,0.0474,2.74,-3.29,0.85
1094,290464516,0.2344,0.9741,0.0415,2.80,-3.23,0.79
1095,290469516,0.2319,0.9717,0.0469,2.74,-3.05,0.67
1096,290474516,0.2349,0.9727,0.0503,2.87,-3.05,0.61
1097,290479517,0.2305,0.9771,0.0449,2.87,-2.93,0.55
1098,290484516,0.2319,0.9736,0.0435,2.99,-2.80,0.61
1099,290489932,0.2261,0.9746,0.0444,2.99,-2.80,0.61
1100,290494517,0.2344,0.9731,0.0479,3.11,-2.62,0.55
1101,290499516,0.2329,0.9766,0.0474,3.23,-2.32,0.43
1102,290504516,0.2295,0.9751,0.0415,3.17,-2.20,0.37
1103,290509517,0.2339,0.9741,0.0425,3.23,-2.20,0.24
1104,290514516,0.2310,0.9736,0.0420,3.29,-2.07,0.24
1105,290519514,0.2314,0.9751,0.0405,3.35,-2.07,0.24
1106,290524516,0.2334,0.9736,0.0439,3.35,-2.01,0.24
1107,290529518,0.2266,0.9805,0.0420,3.29,-1.89,0.18
1108,290534515,0.2300,0.9805,0.0459,3.29,-1.71,0.06
1109,290539516,0.2295,0.9795,0.0474,3.23,-1.77,0.12
1110,290544516,0.2266,0.9790,0.0483,3.29,-1.65,-0.06
1111,290549517,0.2207,0.9810,0.0405,3.11,-1.52,0.12
1112,290554516,0.2236,0.9785,0.0474,2.99,-1.52,0.12
1113,290559517,0.2261,0.9790,0.0464,2.99,-1.28,0.00
1114,290564516,0.2251,0.9775,0.0498,2.93,-1.46,0.12
1115,290569514,0.2285,0.9790,0.0474,2.87,-1.16,0.12
1116,290574516,0.2236,0.9810,0.0483,2.80,-1.22,0.12
1117,290579517,0.2261,0.9849,0.0493,2.80,-1.28,0.12
1118,290584516,0.2261,0.9814,0.0454,2.74,-1.28,0.12
1119,290589516,0.2241,0.9756,0.0508,2.87,-1.04,0.12
1120,290594516,0.2256,0.9810,0.0439,2.80,-1.10,0.12
1121,290599517,0.2246,0.9814,0.0479,2.87,-0.91,0.18
1122,290604516,0.2246,0.9849,0.0454,2.80,-1.04,0.12
1123,290609516,0.2241,0.9829,0.0464,2.80,-1.10,0.00
1124,290614516,0.2222,0.9819,0.0503,2.87,-1.04,0.06
1125,290619516,0.2251,0.9829,0.0518,2.93,-0.98,0.12
1126,290624516,0.2236,0.9839,0.0459,3.05,-0.73,0.18
1127,290629516,0.2227,0.9849,0.0532,2.87,-0.91,0.18
1128,290634516,0.2231,0.9878,0.0479,3.11,-0.73,0.30
1129,290639516,0.2256,0.9839,0.0493,3.11,-0.85,0.24
1130,290644516,0.2212,0.9863,0.0444,2.99,-0.85,0.30
1131,290649516,0.2256,0.9873,0.0464,2.99,-0.73,0.30
1132,290654516,0.2222,0.9868,0.0498,2.99,-0.79,0.55
1133,290659517,0.2222,0.9868,0.0493,2.99,-0.85,0.61
1134,290664516,0.2261,0.9873,0.0552,3.05,-0.73,0.49
1135,290669516,0.2246,0.9883,0.0493,2.99,-0.85,0.67
1136,290674516,0.2280,0.9878,0.0498,2.93,-0.67,0.67
1137,290679516,0.2271,0.9868,0.0513,2.80,-0.79,0.79
1138,290684516,0.2231,0.9795,0.0498,2.74,-0.61,0.85
1139,290689517,0.2241,0.9858,0.0537,2.68,-0.79,0.91
1140,290694516,0.2251,0.9844,0.0493,2.74,-0.67,0.98
1141,290699904,0.2271,0.9829,0.0488,2.74,-0.73,0.98
1142,290704516,0.2241,0.9834,0.0479,2.68,-0.73,0.91
1143,290709516,0.2236,0.9844,0.0557,2.74,-0.67,0.98
1144,290714516,0.2227,0.9844,0.0532,2.74,-0.79,1.10
1145,290719516,0.2217,0.9834,0.0566,2.80,-0.85,1.16
1146,290724516,0.2217,0.9814,0.0605,2.99,-0.79,1.16
1147,290729516,0.2236,0.9810,0.0537,2.99,-0.91,1.22
1148,290734516,0.2236,0.9839,0.0532,3.11,-0.98,1.28
1149,290739516,0.2207,0.9805,0.0518,3.17,-0.98,1.40
1150,290744516,0.2236,0.9790,0.0552,3.11,-0.98,1.22
1151,290749516,0.2241,0.9790,0.0591,3.05,-1.10,1.28
1152,290754516,0.2231,0.9810,0.0581,3.05,-1.10,1.28
1153,290759516,0.2192,0.9780,0.0591,3.11,-1.16,1.22
1154,290764516,0.2192,0.9775,0.0542,3.05,-1.16,1.28
1155,290769517,0.2212,0.9790,0.0552,2.99,-1.28,1.22
1156,290774516,0.2217,0.9839,0.0537,2.93,-1.34,1.04
1157,290779516,0.2178,0.9800,0.0547,2.99,-1.46,1.22
1158,290784516,0.2207,0.9824,0.0566,2.87,-1.46,1.04
1159,290789516,0.2207,0.9819,0.0552,2.74,-1.65,1.10
1160,290794516,0.2173,0.9790,0.0581,2.68,-1.71,1.04
1161,290799516,0.2188,0.9839,0.0557,2.68,-1.65,0.98
1162,290804516,0.2163,0.9795,0.0552,2.74,-1.71,1.04
1163,290809517,0.2148,0.9795,0.0601,2.80,-1.77,1.04
1164,290814516,0.2148,0.9834,0.0601,2.87,-1.83,1.10
1165,290819516,0.2134,0.9771,0.0581,2.87,-1.89,1.04
1166,290824516,0.2158,0.9824,0.0547,2.99,-2.07,1.04
1167,290829514,0.2168,0.9810,0.0591,3.11,-1.95,0.98
1168,290834516,0.2178,0.9834,0.0576,3.11,-2.01,0.98
1169,290839517,0.2188,0.9839,0.0542,3.23,-2.01,1.04
1170,290844516,0.2163,0.9824,0.0571,3.29,-2.01,0.98
1171,290849516,0.2183,0.9800,0.0576,3.41,-2.07,1.04
1172,290854516,0.2144,0.9829,0.0576,3.48,-2.13,1.04
1173,290859516,0.2158,0.9795,0.0557,3.60,-2.26,1.10
1174,290864516,0.2163,0.9814,0.0537,3.48,-2.26,1.04
1175,290869517,0.2139,0.9790,0.0508,3.60,-2.26,1.10
1176,290874516,0.2192,0.9810,0.0571,3.48,-2.44,1.10
1177,290879516,0.2178,0.9829,0.0518,3.48,-2.32,1.04
1178,290884516,0.2153,0.9844,0.0518,3.41,-2.32,1.10
1179,290889517,0.2153,0.9814,0.0498,3.41,-2.32,1.10
1180,290894516,0.2183,0.9858,0.0557,3.35,-2.20,1.04
1181,290899516,0.2168,0.9834,0.0503,3.41,-2.32,1.10
1182,290904516,0.2168,0.9824,0.0454,3.54,-2.32,1.10
1183,290909516,0.2212,0.9863,0.0518,3.48,-2.38,1.04
1184,290914516,0.2173,0.9893,0.0547,3.54,-2.20,0.98
1185,290919517,0.2197,0.9868,0.0552,3.54,-2.50,1.04
1186,290924516,0.2192,0.9888,0.0474,3.54,-2.38,1.16
1187,290929514,0.2183,0.9868,0.0479,3.60,-2.44,1.16
1188,290934517,0.2222,0.9839,0.0508,3.48,-2.13,1.22
1189,290939516,0.2183,0.9868,0.0518,3.35,-2.50,1.40
1190,290944515,0.2188,0.9849,0.0547,3.35,-2.44,1.52
1191,290949516,0.2158,0.9854,0.0498,3.17,-2.38,1.46
1192,290954515,0.2222,0.9849,0.0444,3.17,-2.38,1.46
1193,290959517,0.2178,0.9800,0.0479,3.11,-2.32,1.59
1194,290964515,0.2192,0.9805,0.0508,2.99,-2.38,1.77
1195,290969514,0.2197,0.9790,0.0435,2.87,-2.38,1.77
1196,290974514,0.2163,0.9844,0.0454,2.93,-2.44,1.83
1197,290979518,0.2212,0.9785,0.0527,2.99,-2.32,1.89
1198,290984515,0.2183,0.9805,0.0439,2.99,-2.50,1.89
1199,290989518,0.2183,0.9834,0.0488,3.17,-2.38,1.77
1200,290994515,0.2188,0.9810,0.0464,3.35,-2.26,1.83
1201,290999516,0.2192,0.9795,0.0425,3.23,-2.13,1.83
1202,291004517,0.2188,0.9805,0.0503,3.35,-2.26,1.65
1203,291009517,0.2192,0.9746,0.0469,3.23,-2.20,1.71
1204,291014516,0.2217,0.9810,0.0435,3.41,-2.20,1.71
1205,291020324,0.2163,0.9780,0.0430,3.48,-2.20,1.65
1206,291024516,0.2158,0.9790,0.0483,3.29,-2.26,1.65
1207,291029518,0.2168,0.9751,0.0488,3.17,-2.20,1.52
1208,291034516,0.2124,0.9756,0.0430,3.05,-2.32,1.46
1209,291039516,0.2109,0.9766,0.0488,3.05,-2.32,1.52
1210,291044515,0.2163,0.9741,0.0430,2.87,-2.32,1.40
1211,291049795,0.2163,0.9756,0.0469,2.80,-2.38,1.28
1212,291054516,0.2129,0.9727,0.0483,2.74,-2.50,1.22
1213,291059516,0.2148,0.9736,0.0454,2.74,-2.38,1.16
1214,291064516,0.2168,0.9722,0.0435,2.74,-2.44,1.10
1215,291069517,0.2114,0.9702,0.0498,2.93,-2.44,0.91
1216,291074516,0.2178,0.9702,0.0488,2.87,-2.62,0.79
1217,291079516,0.2168,0.9707,0.0464,3.05,-2.56,0.79
1218,291084516,0.2183,0.9756,0.0415,3.05,-2.44,0.67
1219,291089515,0.2158,0.9702,0.0488,3.17,-2.56,0.55
1220,291094516,0.2158,0.9727,0.0498,3.35,-2.56,0.49
1221,291099517,0.2124,0.9722,0.0454,3.41,-2.56,0.30
1222,291104516,0.2129,0.9727,0.0435,3.48,-2.68,0.24
1223,291109516,0.2109,0.9741,0.0459,3.48,-2.50,0.18
1224,291114516,0.2178,0.9702,0.0493,3.48,-2.68,0.18
1225,291119516,0.2139,0.9746,0.0479,3.60,-2.50,0.12
1226,291124517,0.2114,0.9731,0.0415,3.72,-2.44,0.12
1227,291129517,0.2148,0.9727,0.0474,3.66,-2.44,-0.06
1228,291134514,0.2134,0.9717,0.0386,3.60,-2.32,-0.12
1229,291139517,0.2139,0.9717,0.0464,3.72,-2.38,-0.18
1230,291144516,0.2124,0.9683,0.0459,3.54,-2.44,-0.18
1231,291149518,0.2148,0.9678,0.0396,3.60,-2.32,-0.37
1232,291154515,0.2144,0.9717,0.0464,3.66,-2.32,-0.43
1233,291159516,0.2163,0.9673,0.0410,3.84,-2.26,-0.49
1234,291164515,0.2158,0.9722,0.0444,3.78,-2.20,-0.61
1235,291169514,0.2104,0.9722,0.0381,3.96,-2.32,-0.61
1236,291174516,0.2129,0.9712,0.0425,4.21,-2.13,-0.73
1237,291179713,0.2114,0.9653,0.0386,4.51,-2.07,-0.91
1238,291184516,0.2124,0.9741,0.0405,4.82,-2.13,-0.85
1239,291189515,0.2119,0.9722,0.0435,5.43,-2.01,-0.98
1240,291194519,0.2114,0.9731,0.0347,5.98,-1.95,-0.91
1241,291199516,0.2119,0.9814,0.0386,6.65,-1.95,-0.98
1242,291204518,0.2075,0.9766,0.0356,7.32,-1.89,-0.98
1243,291209516,0.2100,0.9775,0.0425,8.05,-1.77,-0.85
1244,291214528,0.2075,0.9810,0.0430,8.90,-1.77,-0.73
1245,291219514,0.2095,0.9819,0.0376,9.33,-1.65,-0.61
1246,291224647,0.2090,0.9810,0.0391,9.82,-1.59,-0.55
1247,291229516,0.2114,0.9771,0.0356,10.30,-1.65,-0.43
1248,291234518,0.2114,0.9810,0.0312,10.55,-1.46,-0.43
1249,291239515,0.2090,0.9839,0.0356,10.79,-1.46,-0.43
1250,291244518,0.2153,0.9834,0.0400,10.79,-1.22,-0.49
1251,291249516,0.2173,0.9834,0.0288,10.61,-1.40,-0.43
1252,291254515,0.2153,0.9868,0.0322,10.30,-1.22,-0.49
1253,291259516,0.2148,0.9854,0.0283,9.76,-1.16,-0.55
1254,291264515,0.2144,0.9893,0.0337,9.09,-1.10,-0.61
1255,291269516,0.2144,0.9893,0.0317,8.41,-1.04,-0.73
1256,291274515,0.2163,0.9897,0.0220,7.44,-1.10,-0.85
1257,291279518,0.2148,0.9946,0.0293,6.52,-0.98,-0.91
1258,291284515,0.2148,0.9922,0.0352,5.49,-0.79,-0.91
1259,291289514,0.2144,0.9863,0.0317,4.51,-0.85,-1.04
1260,291294516,0.2188,0.9849,0.0312,3.66,-0.79,-1.04
1261,291299518,0.2109,0.9883,0.0322,3.05,-0.79,-0.98
1262,291304515,0.2129,0.9849,0.0337,2.32,-0.73,-1.04
1263,291309516,0.2153,0.9902,0.0327,1.83,-0.79,-1.16
1264,291314515,0.2134,0.9863,0.0352,1.52,-0.73,-1.04
1265,291319516,0.2114,0.9854,0.0303,1.52,-0.67,-0.91
1266,291324515,0.2134,0.9849,0.0327,1.46,-0.61,-0.98
1267,291329514,0.2134,0.9863,0.0322,1.71,-0.73,-0.79
1268,291334516,0.2139,0.9844,0.0425,1.89,-0.67,-0.79
1269,291339515,0.2109,0.9883,0.0391,2.20,-0.91,-0.79
1270,291344518,0.2085,0.9868,0.0396,2.50,-0.67,-0.73
1271,291349516,0.2095,0.9883,0.0308,2.74,-0.61,-0.67
1272,291354515,0.2041,0.9888,0.0439,2.87,-0.73,-0.61
1273,291359516,0.2090,0.9878,0.0410,3.05,-0.73,-0.61
1274,291364515,0.2051,0.9883,0.0371,2.87,-0.73,-0.55
1275,291369518,0.2051,0.9858,0.0430,2.93,-0.85,-0.61
1276,291374515,0.2012,0.9858,0.0381,2.56,-0.67,-0.49
1277,291379518,0.2012,0.9873,0.0376,2.44,-0.85,-0.61
1278,291384515,0.2012,0.9819,0.0439,2.13,-0.79,-0.61
1279,291389516,0.2007,0.9844,0.0415,1.89,-1.04,-0.67
1280,291394515,0.2046,0.9824,0.0400,1.71,-0.85,-0.67
1281,291399516,0.2031,0.9829,0.0430,1.59,-0.98,-0.67
1282,291404515,0.2031,0.9814,0.0430,1.52,-1.16,-0.61
1283,291409516,0.2007,0.9814,0.0420,1.52,-1.28,-0.67
1284,291414515,0.2002,0.9805,0.0425,1.52,-1.22,-0.61
1285,291419516,0.2051,0.9819,0.0371,1.77,-1.34,-0.73
1286,291424515,0.2002,0.9854,0.0356,1.77,-1.34,-0.67
1287,291429518,0.1982,0.9785,0.0439,1.77,-1.46,-0.67
1288,291434515,0.2056,0.9810,0.0381,1.95,-1.46,-0.55
1289,291439514,0.1973,0.9819,0.0449,2.01,-1.46,-0.37
1290,291444799,0.2026,0.9854,0.0371,2.01,-1.46,-0.37
1291,291449516,0.2046,0.9849,0.0391,2.07,-1.59,-0.43
1292,291454515,0.2031,0.9893,0.0400,2.13,-1.71,-0.49
1293,291459516,0.2002,0.9888,0.0435,2.13,-1.65,-0.49
1294,291464515,0.2036,0.9824,0.0391,2.26,-1.71,-0.55
1295,291469515,0.2031,0.9849,0.0371,2.38,-1.89,-0.43
1296,291474518,0.2017,0.9873,0.0376,2.26,-1.89,-0.49
1297,291479516,0.2026,0.9893,0.0376,2.32,-1.77,-0.49
1298,291484515,0.2046,0.9834,0.0381,2.32,-1.77,-0.43
1299,291489516,0.2041,0.9858,0.0425,2.13,-1.83,-0.37
1300,291494515,0.2056,0.9888,0.0366,2.26,-1.83,-0.24
1301,291499565,0.2017,0.9863,0.0449,2.20,-1.89,-0.18
1302,291504518,0.2041,0.9863,0.0396,2.26,-2.07,-0.12
1303,291509515,0.2061,0.9888,0.0405,2.13,-1.83,-0.12
1304,291514518,0.2007,0.9863,0.0376,2.26,-2.01,-0.06
1305,291519514,0.2061,0.9868,0.0391,2.38,-2.13,-0.06
1306,291524514,0.2031,0.9878,0.0396,2.38,-2.13,0.00
1307,291529514,0.2070,0.9902,0.0396,2.38,-2.13,0.12
1308,291534515,0.2036,0.9883,0.0405,2.56,-2.13,0.06
1309,291539518,0.2007,0.9937,0.0298,2.56,-2.01,0.06
1310,291544515,0.2002,0.9917,0.0322,2.62,-2.07,0.18
1311,291549516,0.1992,0.9927,0.0312,2.74,-2.07,0.30
1312,291554515,0.1982,0.9878,0.0381,2.68,-2.07,0.24
1313,291559518,0.1982,0.9858,0.0386,2.74,-1.95,0.30
1314,291564515,0.1992,0.9829,0.0410,2.80,-1.95,0.43
1315,291569516,0.2021,0.9854,0.0400,2.74,-1.83,0.49
1316,291574515,0.1992,0.9819,0.0386,2.62,-1.95,0.37
1317,291579516,0.2017,0.9810,0.0352,2.56,-1.95,0.49
1318,291584515,0.1997,0.9771,0.0337,2.56,-1.95,0.55
1319,291589518,0.1973,0.9810,0.0308,2.50,-1.65,0.49
1320,291594515,0.1982,0.9766,0.0356,2.62,-1.77,0.49
1321,291599516,0.2007,0.9761,0.0327,2.62,-1.65,0.30
1322,291604515,0.1973,0.9775,0.0293,2.74,-1.65,0.30
1323,291609516,0.1982,0.9775,0.0303,2.99,-1.71,0.18
1324,291614515,0.2002,0.9790,0.0283,3.17,-1.59,0.06
1325,291619516,0.2017,0.9800,0.0356,3.41,-1.65,0.06
1326,291624515,0.1997,0.9756,0.0347,3.54,-1.52,0.00
1327,291629516,0.1987,0.9814,0.0278,3.66,-1.40,0.00
1328,291634515,0.1948,0.9795,0.0327,3.78,-1.46,-0.18
1329,291639518,0.1909,0.9795,0.0322,3.72,-1.46,-0.12
1330,291644515,0.1924,0.9785,0.0303,3.78,-1.22,-0.37
1331,291649724,0.1943,0.9761,0.0283,3.66,-1.22,-0.37
1332,291654516,0.1968,0.9785,0.0288,3.54,-1.10,-0.43
1333,291659516,0.1973,0.9761,0.0308,3.23,-1.10,-0.43
1334,291664516,0.1968,0.9741,0.0322,2.87,-1.10,-0.55
1335,291669515,0.1992,0.9736,0.0361,2.62,-1.04,-0.55
1336,291674516,0.2021,0.9751,0.0317,2.38,-1.16,-0.73
1337,291679533,0.1992,0.9697,0.0303,2.26,-0.91,-0.91
1338,291684516,0.1973,0.9736,0.0312,2.07,-0.85,-1.16
1339,291689517,0.1992,0.9746,0.0288,2.07,-0.85,-1.16
1340,291694516,0.1929,0.9722,0.0298,2.07,-0.85,-1.28
1341,291699516,0.1982,0.9756,0.0366,2.26,-0.73,-1.40
1342,291704516,0.1978,0.9766,0.0347,2.38,-0.73,-1.52
1343,291709515,0.1943,0.9771,0.0308,2.32,-0.79,-1.65
1344,291714516,0.1963,0.9785,0.0337,2.56,-0.49,-1.77
1345,291719516,0.1924,0.9771,0.0312,2.56,-0.67,-1.83
1346,291724516,0.1929,0.9746,0.0308,2.62,-0.67,-1.95
1347,291729514,0.1904,0.9780,0.0283,2.62,-0.55,-2.01
1348,291734516,0.1885,0.9829,0.0361,2.56,-0.43,-2.07
1349,291739517,0.1870,0.9805,0.0352,2.56,-0.49,-2.20
1350,291744516,0.1899,0.9790,0.0269,2.38,-0.43,-2.13
1351,291749514,0.1924,0.9790,0.0283,2.20,-0.24,-2.13
1352,291754516,0.1885,0.9883,0.0376,2.13,-0.18,-2.20
1353,291759518,0.1846,1.4209,-0.0146,6.65,0.61,3.60
1354,291764515,0.2290,1.0396,0.0703,6.95,0.73,4.82
1355,291769516,0.2251,0.9800,0.0552,5.55,0.67,4.09
1356,291774515,0.2026,0.9404,0.0522,3.96,0.43,3.23
1357,291779517,0.1904,0.9355,0.0645,2.38,0.18,2.38
1358,291784515,0.1968,0.9399,0.0571,0.73,0.06,1.71
1359,291789518,0.2007,0.9521,0.0508,-0.61,0.06,1.04
1360,291794515,0.1895,0.9565,0.0464,-1.71,-0.12,0.55
1361,291799516,0.1904,0.9624,0.0400,-2.07,-0.37,0.24
1362,291804515,0.1831,0.9604,0.0459,-2.26,-0.61,-0.24
1363,291809516,0.1763,0.9590,0.0454,-2.07,-0.43,-0.55
1364,291814515,0.1685,1.2905,0.0024,1.59,0.37,1.52
1365,291819516,0.2046,0.9600,0.0342,3.66,0.43,2.87
1366,291824515,0.2002,0.9341,0.0312,3.23,-0.12,2.38
1367,291829516,0.1846,0.9346,0.0562,2.80,-0.43,1.89
1368,291834515,0.1753,0.9434,0.0586,2.07,-0.30,1.40
1369,291839516,0.1792,0.9502,0.0469,1.59,-0.55,0.73
1370,291844515,0.1797,1.1479,-0.0239,1.40,-0.73,0.73
1371,291849514,0.1943,0.9414,0.0259,3.54,-0.43,2.50
1372,291854517,0.1973,0.9399,0.0601,2.80,-0.49,2.01
1373,291859518,0.1836,1.0093,0.0518,2.07,-0.43,1.28
1374,291864515,0.1831,0.9736,0.0386,3.35,-0.37,2.32
1375,291869516,0.1890,0.9526,0.0659,2.50,-0.55,1.83
1376,291874515,0.1875,1.0742,0.0273,2.32,-0.55,1.65
1377,291879517,0.1948,0.9487,0.0435,2.44,-0.61,1.83
1378,291884581,0.1973,1.0078,0.0415,2.74,-0.79,2.20
1379,291889518,0.1987,0.9985,0.0405,2.50,-0.73,1.95
1380,291894515,0.1982,0.9443,0.0464,2.50,-0.85,2.01
1381,291899516,0.1904,1.0000,0.0396,2.44,-0.91,2.01
1382,291904515,0.1924,1.0054,0.0278,2.32,-0.91,1.83
1383,291909516,0.1914,0.9751,0.0308,2.50,-0.91,2.01
1384,291914515,0.1909,0.9951,0.0376,2.80,-0.79,2.13
1385,291919516,0.1943,0.9849,0.0425,2.74,-0.85,2.01
1386,291924515,0.1953,0.9790,0.0371,2.62,-0.79,1.95
1387,291929514,0.1880,0.9775,0.0386,2.56,-0.85,2.01
1388,291934516,0.1816,0.9907,0.0376,2.62,-0.98,1.77
1389,291939517,0.1909,0.9834,0.0352,2.80,-0.61,1.95
1390,291944516,0.1899,0.9824,0.0298,2.87,-0.73,2.20
1391,291949515,0.1914,0.9790,0.0400,2.99,-0.73,2.07
1392,291954516,0.1851,0.9829,0.0371,2.93,-0.73,2.13
1393,291959516,0.1880,0.9849,0.0332,2.80,-0.61,2.07
1394,291964516,0.1909,0.9810,0.0303,2.50,-0.55,1.95
1395,291969515,0.1934,0.9834,0.0312,2.38,-0.49,2.13
1396,291974516,0.1934,0.9912,0.0308,2.13,-0.30,2.20
1397,291979516,0.1963,0.9795,0.0327,1.77,-0.55,2.13
1398,291984516,0.1929,0.9800,0.0332,1.40,-0.18,2.13
1399,291989517,0.1958,0.9863,0.0298,1.10,-0.18,2.07
1400,291994516,0.1968,0.9849,0.0317,0.85,-0.06,2.07
1401,291999516,0.1973,0.9839,0.0288,0.49,0.00,2.01
1402,292004516,0.1953,0.9863,0.0293,0.37,0.06,2.01
1403,292009515,0.1997,0.9849,0.0303,-0.06,0.18,2.07
1404,292014516,0.1958,0.9854,0.0293,-0.37,0.43,2.01
1405,292019516,0.1953,0.9844,0.0288,-0.73,0.55,1.89
1406,292024516,0.1948,0.9810,0.0347,-1.04,0.49,1.83
1407,292029515,0.1968,0.9888,0.0298,-1.59,0.67,1.83
1408,292034516,0.1953,0.9805,0.0220,-1.71,0.85,1.77
1409,292039515,0.1987,0.9780,0.0278,-1.83,1.04,1.83
1410,292045858,0.1978,0.9839,0.0244,-2.13,1.16,1.77
1411,292049516,0.1997,0.9814,0.0259,-2.44,1.28,1.77
1412,292054515,0.1963,0.9834,0.0269,-2.44,1.40,1.71
1413,292059845,0.1987,0.9775,0.0239,-2.44,1.46,1.83
1414,292064516,0.1997,0.9717,0.0322,-2.68,1.71,1.83
1415,292069516,0.1973,0.9810,0.0327,-2.93,1.89,1.77
1416,292074516,0.1914,0.9834,0.0283,-3.23,2.01,1.83
1417,292079515,0.1914,0.9810,0.0303,-3.78,2.32,1.83
1418,292084516,0.1914,0.9790,0.0317,-4.33,2.38,1.95
1419,292089516,0.1885,0.9810,0.0347,-4.88,2.62,1.89
1420,292094516,0.1885,0.9771,0.0342,-5.30,2.99,1.89
1421,292099517,0.1885,0.9731,0.0303,-5.67,3.41,1.83
1422,292104516,0.1865,0.9746,0.0322,-5.85,3.54,1.83
1423,292109516,0.1831,0.9839,0.0366,-6.16,3.78,1.71
1424,292114516,0.1855,0.9824,0.0259,-6.40,4.02,1.89
1425,292119517,0.1841,0.9731,0.0425,-6.71,4.39,1.83
1426,292124516,0.1846,0.9702,0.0483,-7.01,4.82,1.89
1427,292129516,0.1807,0.9712,0.0459,-7.13,5.12,1.89
1428,292134519,0.1787,0.9741,0.0425,-7.50,5.30,1.89
1429,292139795,0.1807,0.9741,0.0488,-7.50,5.73,2.01
1430,292144515,0.1743,0.9814,0.0493,-7.74,5.91,1.95
1431,292149517,0.1753,0.9839,0.0391,-8.05,6.10,1.89
1432,292154515,0.1714,0.9868,0.0381,-8.29,6.34,1.95
1433,292159514,0.1719,0.9834,0.0508,-8.41,6.65,1.83
1434,292164517,0.1704,0.9761,0.0562,-8.66,6.65,1.83
1435,292169516,0.1714,0.9893,0.0537,-8.78,6.89,1.95
1436,292174515,0.1738,0.9897,0.0596,-9.33,6.83,2.01
1437,292179515,0.1758,0.9907,0.0625,-9.63,6.83,2.13
1438,292184516,0.1782,0.9790,0.0703,-9.45,6.65,2.07
1439,292189515,0.1836,0.9771,0.0645,-9.15,6.83,2.13
1440,292194517,0.1860,0.9819,0.0669,-8.78,6.59,2.26
1441,292199517,0.1841,0.9712,0.0605,-8.05,6.65,2.44
1442,292204517,0.1846,0.9888,0.0610,-7.56,6.46,2.50
1443,292209517,0.1875,0.9771,0.0518,-6.77,6.22,2.44
1444,292214516,0.1841,0.9897,0.0645,-6.40,6.10,2.68
1445,292219516,0.1816,0.9917,0.0708,-6.59,6.04,2.80
1446,292224516,0.1865,0.9854,0.0645,-6.71,5.79,2.80
1447,292229516,0.1953,0.9834,0.0640,-6.65,5.55,2.87
1448,292234515,0.1938,0.9873,0.0718,-6.59,5.30,2.93
1449,292239516,0.1904,0.9946,0.0664,-6.59,5.37,2.93
1450,292244515,0.1846,0.9917,0.0625,-6.52,5.30,2.93
1451,292249516,0.1890,0.9775,0.0737,-6.71,5.37,2.99
1452,292254515,0.1895,0.9888,0.0762,-6.59,5.43,2.93
1453,292259514,0.1958,1.0122,0.0762,-6.95,5.30,2.80
1454,292264516,0.1934,0.9912,0.0684,-7.38,5.24,2.74
1455,292269516,0.1948,0.9858,0.0698,-7.26,5.30,2.62
1456,292274515,0.1914,0.9814,0.0693,-7.20,5.43,2.50
1457,292279516,0.1904,0.9751,0.0723,-6.89,5.61,2.56
1458,292284515,0.1914,0.9868,0.0747,-6.77,5.73,2.44
1459,292289517,0.1895,0.9878,0.0688,-6.34,5.79,2.56
1460,292294515,0.1880,0.9746,0.0713,-5.79,5.91,2.38
1461,292299516,0.1895,0.9751,0.0664,-5.00,6.04,2.44
1462,292304516,0.1831,0.9717,0.0791,-4.27,6.16,2.44
1463,292309516,0.1909,0.9795,0.0874,-3.78,6.34,2.38
1464,292314515,0.1821,0.9956,0.0776,-3.05,6.34,2.50
1465,292319516,0.1855,0.9746,0.0811,-1.89,6.52,2.38
1466,292324515,0.1841,0.9473,0.0913,-0.91,6.65,2.50
1467,292329998,0.1899,0.9653,0.0762,0.06,6.77,2.56
1468,292334517,0.1895,0.9834,0.0693,1.28,6.65,2.44
1469,292339516,0.1929,0.9556,0.0864,2.56,6.83,2.74
1470,292344516,0.1938,1.0127,0.0850,3.66,6.89,2.62
1471,292349517,0.1992,0.9580,0.0884,4.82,6.83,2.44
1472,292354516,0.1963,0.9438,0.0840,6.46,6.95,2.74
1473,292359515,0.1948,0.9844,0.0820,7.74,6.89,2.80
1474,292364514,0.2021,0.9697,0.0786,9.09,6.77,2.44
1475,292369515,0.2046,0.9619,0.0811,10.79,6.89,2.74
1476,292374516,0.1963,0.9951,0.0747,12.20,7.01,2.62
1477,292379514,0.1963,0.9429,0.0850,13.72,7.01,2.56
1478,292384515,0.1982,0.9355,0.0669,15.49,7.07,2.56
1479,292389516,0.1948,0.9141,0.0669,17.44,7.13,2.68
1480,292394516,0.2031,0.9863,0.0625,19.09,7.13,2.38
1481,292399516,0.2026,1.0571,0.0532,21.34,7.32,2.38
1482,292404517,0.1938,0.9956,0.0649,22.99,7.32,1.95
1483,292409516,0.1987,0.8765,0.0786,24.88,7.56,2.13
1484,292414516,0.1963,0.9194,0.0737,27.07,7.74,2.32
1485,292419516,0.2002,1.0547,0.0430,28.35,7.74,1.65
1486,292424514,0.1978,0.9575,0.0503,29.70,7.62,1.40
1487,292429517,0.2031,0.9189,0.0693,31.52,7.68,1.40
1488,292434516,0.2061,0.9146,0.0635,32.68,7.74,1.10
1489,292439515,0.2036,1.0366,0.0308,34.45,7.87,0.98
1490,292444514,0.2046,1.1040,0.0234,35.24,7.74,0.30
1491,292449514,0.2070,1.0049,0.0337,35.85,7.80,-0.24
1492,292454516,0.2100,0.8062,0.0649,36.46,8.23,0.00
1493,292459515,0.2085,0.8550,0.0474,36.71,8.23,-0.18
1494,292464514,0.2065,0.9814,0.0269,36.83,8.35,-0.67
1495,292469672,0.2051,1.1582,0.0078,36.89,8.60,-0.98
1496,292474516,0.2026,1.1729,0.0088,36.04,8.60,-2.01
1497,292479516,0.1978,0.9448,0.0298,34.94,8.90,-2.38
1498,292484514,0.2026,0.7705,0.0693,34.33,9.21,-1.95
1499,292489517,0.2031,0.9395,0.0156,33.72,9.57,-1.83
1500,292494517,0.1919,1.2119,-0.0347,31.71,9.57,-3.17
1501,292499524,0.1934,1.1270,-0.0132,29.51,9.70,-3.90
1502,292504516,0.1924,1.0200,-0.0049,27.32,10.06,-4.27
1503,292509516,0.1997,0.9189,0.0234,24.21,10.43,-4.63
1504,292514516,0.1943,1.0400,0.0034,20.85,10.67,-4.82
1505,292519515,0.1885,1.1240,0.0083,15.06,10.85,-5.79
1506,292524516,0.1821,1.1318,-0.0327,8.72,11.16,-6.34
1507,292529515,0.1787,1.0205,-0.0244,2.44,11.52,-6.83
1508,292534516,0.1792,0.9521,-0.0156,-4.02,12.07,-6.83
1509,292539515,0.1743,1.0645,-0.0508,-10.91,12.56,-7.20
1510,292544516,0.1743,1.1021,-0.0283,-17.32,13.05,-7.44
1511,292549515,0.1763,1.0537,-0.0083,-24.33,13.41,-7.80
1512,292554516,0.1665,1.0044,0.0176,-30.30,14.02,-7.87
1513,292559515,0.1597,1.0400,0.0122,-36.10,14.45,-8.11
1514,292564514,0.1602,1.0317,0.0229,-40.85,14.82,-8.41
1515,292569516,0.1558,1.0552,0.0469,-44.63,15.43,-8.54
1516,292574516,0.1592,1.0308,0.0605,-48.17,15.67,-8.66
1517,292579515,0.1592,0.9858,0.0664,-50.79,15.98,-8.90
1518,292584516,0.1567,0.9907,0.0723,-52.38,16.22,-8.72
1519,292589515,0.1636,1.0190,0.0781,-53.48,16.04,-8.84
1520,292594517,0.1729,1.0488,0.0884,-54.02,15.98,-8.90
1521,292599667,0.1719,1.0249,0.0981,-54.27,15.67,-9.15
1522,292604516,0.1748,0.9819,0.1011,-53.72,15.49,-9.09
1523,292609516,0.1660,0.9761,0.1089,-52.74,15.00,-9.02
1524,292614516,0.1602,1.0044,0.1265,-51.16,14.70,-9.09
1525,292619515,0.1553,0.9985,0.1455,-49.57,14.39,-8.90
1526,292624516,0.1509,0.9731,0.1562,-47.74,13.96,-8.66
1527,292629515,0.1538,0.9556,0.1641,-45.49,13.60,-8.29
1528,292634516,0.1475,0.9512,0.1733,-42.68,12.99,-7.80
1529,292639515,0.1562,0.9556,0.1753,-39.70,12.50,-7.20
1530,292644516,0.1611,0.9663,0.1821,-36.34,11.71,-6.83
1531,292649515,0.1665,0.9634,0.1851,-32.38,11.10,-6.34
1532,292654516,0.1685,0.9800,0.1875,-28.05,10.43,-5.67
1533,292659515,0.1802,0.9780,0.1934,-23.90,9.51,-5.30
1534,292664516,0.1812,0.9404,0.2046,-19.57,8.66,-4.82
1535,292669515,0.1782,0.9482,0.2026,-15.06,7.93,-4.21
1536,292674514,0.1782,0.9946,0.1997,-9.45,7.01,-3.72
1537,292679516,0.1826,0.9648,0.2163,-6.04,6.40,-3.48
1538,292684516,0.1855,0.9692,0.2090,-1.52,5.49,-2.99
1539,292689516,0.1865,0.9824,0.2090,2.38,4.63,-2.38
1540,292694515,0.1807,0.9922,0.2065,6.04,3.72,-2.26
1541,292699516,0.1797,0.9702,0.2183,9.45,3.05,-1.65
1542,292704516,0.1748,1.0425,0.1968,11.71,2.32,-1.34
1543,292709516,0.1699,1.0093,0.2090,13.54,1.46,-0.98
1544,292714517,0.1709,0.9575,0.2178,14.88,0.91,-0.37
1545,292719516,0.1709,1.0430,0.2036,15.85,0.43,0.37
1546,292724516,0.1670,1.0815,0.2036,15.49,-0.43,0.49
1547,292729516,0.1709,1.0386,0.2139,15.00,-0.91,1.04
1548,292734515,0.1743,1.0229,0.2104,14.21,-1.46,1.71
1549,292739516,0.1733,1.0469,0.1865,13.05,-2.07,2.13
1550,292744516,0.1787,1.0713,0.1909,11.65,-2.56,2.56
1551,292749516,0.1836,1.0454,0.1851,10.06,-3.05,2.87
1552,292754515,0.1714,1.0171,0.1714,10.30,-3.35,3.05
1553,292759516,0.1680,1.0195,0.1621,10.61,-3.66,3.11
1554,292764516,0.1714,1.0234,0.1572,10.79,-3.90,3.29
1555,292769516,0.1733,1.0435,0.1611,10.61,-4.33,3.29
1556,292774514,0.1650,1.0425,0.1631,9.94,-4.63,3.48
1557,292779517,0.1562,1.0405,0.1719,8.66,-5.18,3.72
1558,292784516,0.1533,1.0449,0.1694,7.20,-5.49,4.09
1559,292789515,0.1489,1.0513,0.1724,5.55,-6.04,4.33
1560,292794516,0.1445,1.0850,0.1504,3.23,-6.89,4.63
1561,292799515,0.1450,1.0386,0.1831,0.91,-7.32,4.94
1562,292804517,0.1416,1.0205,0.1782,-1.16,-7.87,5.43
1563,292809515,0.1489,1.0278,0.2021,-3.48,-8.54,5.73
1564,292814518,0.1465,1.0718,0.1929,-5.37,-9.02,6.10
1565,292819515,0.1426,1.1050,0.1841,-8.35,-9.76,6.16
1566,292824516,0.1440,1.0801,0.1528,-10.43,-10.55,6.46
1567,292829515,0.1509,0.9800,0.2178,-12.38,-10.91,6.77
1568,292834514,0.1523,1.0469,0.2607,-12.56,-11.28,7.68
1569,292839516,0.1416,1.1938,0.2324,-15.73,-12.26,7.13
1570,292844516,0.1519,1.0601,0.2422,-17.13,-12.99,7.38
1571,292849515,0.1616,0.9897,0.2002,-18.17,-13.84,7.93
1572,292854516,0.1680,0.9375,0.2241,-19.39,-14.63,8.29
1573,292859515,0.1680,1.0249,0.2148,-20.12,-15.43,8.66
1574,292864516,0.1646,1.0942,0.1675,-21.83,-16.46,8.35
1575,292869515,0.1704,0.9902,0.1992,-23.23,-17.50,8.60
1576,292874578,0.1782,0.9272,0.1675,-23.48,-18.41,9.15
1577,292879518,0.1699,1.0303,0.1860,-24.76,-19.33,9.15
1578,292884515,0.1685,1.0332,0.1895,-26.59,-20.24,9.02
1579,292889516,0.1763,0.9541,0.2529,-26.83,-20.91,9.51
1580,292894705,0.1719,1.0151,0.2725,-28.41,-22.07,9.39
1581,292899516,0.1709,1.0771,0.2920,-28.60,-22.74,9.57
1582,292904515,0.1748,1.1504,0.2446,-30.24,-23.66,8.90
1583,292909516,0.1694,1.0117,0.2656,-30.67,-24.70,8.90
1584,292914516,0.1733,0.8945,0.3286,-29.82,-25.61,9.76
1585,292919517,0.1597,1.0151,0.3374,-29.94,-26.46,9.63
1586,292924515,0.1665,0.9995,0.3130,-29.88,-27.50,9.39
1587,292929516,0.1792,1.0088,0.2036,-28.54,-28.48,9.51
1588,292934516,0.1777,0.9722,0.2422,-27.68,-29.70,9.27
1589,292939516,0.1733,0.9634,0.2319,-26.16,-30.61,9.33
1590,292944515,0.1714,0.9229,0.2686,-23.60,-31.10,9.45
1591,292949516,0.1743,1.0068,0.2202,-21.40,-31.95,9.51
1592,292954516,0.1729,0.9482,0.2300,-19.45,-32.74,9.21
1593,292959516,0.1738,0.8442,0.2524,-15.91,-33.60,9.70
1594,292964515,0.1694,0.9917,0.2607,-13.11,-33.96,9.63
1595,292969516,0.1792,1.0200,0.2007,-10.43,-34.57,9.21
1596,292974515,0.1860,0.9385,0.1621,-7.26,-35.49,9.21
1597,292979514,0.1748,0.8999,0.2656,-3.54,-35.91,9.45
1598,292984517,0.1738,0.9233,0.2837,-0.06,-36.22,9.70
1599,292989516,0.1792,0.9824,0.2231,2.56,-36.46,9.51
1600,292994516,0.1870,0.9399,0.1504,5.91,-37.13,9.88
1601,292999517,0.1812,0.9546,0.2036,9.15,-37.26,10.18
1602,293004515,0.1836,0.9678,0.2090,10.91,-37.56,9.94
1603,293009516,0.1851,0.8828,0.2007,12.80,-37.62,10.00
1604,293014517,0.1831,0.9692,0.2080,15.12,-37.80,10.43
1605,293019516,0.1899,0.9814,0.1836,15.24,-37.87,9.94
1606,293024515,0.1831,0.8950,0.1816,16.46,-37.99,10.06
1607,293029516,0.1846,0.9697,0.2002,16.71,-37.68,9.94
1608,293034516,0.1934,0.9941,0.1558,16.10,-37.68,9.70
1609,293039516,0.1982,0.9565,0.1060,16.10,-37.87,9.82
1610,293044517,0.1943,0.9482,0.1323,14.94,-37.80,9.39
1611,293049516,0.1958,0.9692,0.1714,14.09,-37.38,9.27
1612,293054515,0.1978,1.0396,0.1079,12.44,-36.77,8.66
1613,293059516,0.2021,0.9917,0.0576,10.98,-36.83,8.41
1614,293064515,0.1982,1.0005,0.0957,9.02,-36.65,7.99
1615,293069516,0.1899,0.9819,0.1528,7.87,-36.10,7.93
1616,293074516,0.1997,1.0122,0.1099,5.55,-35.37,7.44
1617,293079515,0.2051,0.9688,0.0581,3.66,-35.06,7.20
1618,293084514,0.2061,0.9937,0.0728,2.01,-34.76,6.89
1619,293089517,0.2002,0.9937,0.1143,0.73,-34.15,6.65
1620,293094516,0.2002,0.9619,0.1152,-1.34,-33.48,5.91
1621,293099516,0.2036,0.9805,0.1064,-2.07,-33.05,6.16
1622,293104515,0.2026,1.0215,0.0884,-4.39,-32.56,5.49
1623,293109516,0.2041,0.9585,0.0771,-5.55,-32.20,5.00
1624,293114516,0.2173,1.0288,0.0771,-6.52,-31.40,4.63
1625,293119517,0.2109,0.9658,0.0952,-7.44,-30.91,4.27
1626,293124517,0.1982,0.9180,0.0986,-7.50,-30.06,4.27
1627,293129516,0.2100,0.9399,0.0825,-7.87,-29.51,3.84
1628,293134516,0.2212,1.0205,0.0513,-8.29,-29.09,3.60
1629,293139516,0.2075,1.0083,0.0732,-8.17,-28.23,3.41
1630,293144516,0.2153,1.0771,0.0884,-8.11,-27.56,3.35
1631,293149940,0.2095,0.9883,0.0859,-8.41,-26.71,2.93
1632,293154532,0.1880,0.8359,0.1489,-8.17,-25.73,3.23
1633,293159515,0.2100,0.8730,0.0981,-7.93,-25.12,3.17
1634,293164518,0.2324,0.9531,0.0239,-7.68,-24.39,3.11
1635,293169515,0.2207,1.0044,0.0200,-6.95,-23.90,3.05
1636,293174516,0.2075,1.0806,0.0693,-5.55,-23.05,2.68
1637,293179515,0.1982,0.9565,0.1494,-4.27,-21.77,2.80
1638,293184540,0.2119,0.8638,0.1221,-3.60,-20.91,2.87
1639,293189516,0.2446,0.9136,0.0093,-2.74,-20.37,3.29
1640,293194520,0.2393,0.9766,-0.0068,-1.71,-19.76,3.35
1641,293199516,0.2124,0.9531,0.0684,-0.61,-18.96,3.23
1642,293204515,0.2139,0.9707,0.1089,0.30,-17.99,3.05
1643,293209516,0.2119,0.9941,0.0708,0.91,-17.26,2.93
1644,293214516,0.2051,0.9546,0.0747,1.46,-16.77,2.74
1645,293219516,0.2129,0.9175,0.0913,1.89,-15.98,2.87
1646,293224517,0.2280,0.9087,0.0908,1.71,-15.18,2.80
1647,293229516,0.2080,0.8779,0.0679,1.77,-14.51,2.99
1648,293234516,0.2231,0.9810,0.0557,1.59,-13.84,2.80
1649,293239516,0.2275,0.9883,0.0723,1.40,-13.05,2.74
1650,293244515,0.2222,0.9897,0.0684,1.16,-12.26,2.56
1651,293249593,0.2183,1.0215,0.0684,0.79,-11.65,2.32
1652,293254516,0.2163,0.9971,0.0767,0.85,-10.73,2.56
1653,293259516,0.2212,1.0142,0.0625,0.91,-10.06,2.38
1654,293264514,0.2114,0.9976,0.0742,2.32,-9.09,2.56
1655,293269514,0.2031,0.9097,0.1025,4.82,-8.29,2.93
1656,293275084,0.2280,0.9731,0.0913,6.28,-7.62,3.05
1657,293279517,0.2104,0.9395,0.0547,7.80,-7.01,3.11
1658,293284515,0.2095,0.9756,0.0850,8.90,-6.77,3.11
1659,293289552,0.2153,0.9961,0.1123,9.51,-6.04,3.11
1660,293294516,0.2090,0.9824,0.0806,10.30,-5.43,3.17
1661,293299515,0.2080,0.9819,0.0698,11.16,-5.00,3.29
1662,293304516,0.2153,0.9941,0.0923,11.71,-4.63,3.41
1663,293309515,0.2114,0.9873,0.1074,11.89,-3.90,3.41
1664,293314517,0.2124,0.9854,0.1006,11.46,-3.60,3.29
1665,293319515,0.2129,0.9883,0.1025,10.61,-3.29,3.29
1666,293324518,0.2188,0.9946,0.1152,9.70,-3.05,3.17
1667,293329515,0.2100,0.9922,0.1147,8.48,-2.62,2.99
1668,293334516,0.2085,0.9951,0.1162,7.56,-2.44,2.93
1669,293339515,0.2095,0.9946,0.1099,6.46,-2.07,2.50
1670,293344518,0.2104,0.9907,0.1138,5.49,-1.83,2.38
1671,293349515,0.2090,0.9897,0.1206,4.57,-1.52,2.32
1672,293354516,0.2119,0.9912,0.1182,3.72,-1.16,2.07
1673,293359515,0.2134,0.9883,0.1245,3.11,-0.98,1.95
1674,293364516,0.2173,0.9863,0.1177,2.32,-0.79,2.01
1675,293369516,0.2124,0.9863,0.1216,1.71,-0.49,1.95
1676,293374514,0.2104,0.9819,0.1240,1.16,-0.43,1.89
1677,293379516,0.2114,0.9839,0.1323,0.55,-0.12,1.83
1678,293384516,0.2144,0.9829,0.1284,0.18,-0.18,1.77
1679,293389516,0.2139,0.9800,0.1304,-0.30,0.00,1.71
1680,293394517,0.2153,0.9810,0.1304,-0.61,0.12,1.71
1681,293399516,0.2119,0.9824,0.1318,-1.10,0.24,1.77
1682,293404516,0.2090,0.9878,0.1304,-1.34,0.37,1.71
1683,293409516,0.2153,0.9888,0.1372,-1.59,0.49,1.71
1684,293414515,0.2183,0.9863,0.1387,-1.83,0.55,1.77
1685,293419516,0.2119,0.9854,0.1382,-2.01,0.73,1.83
1686,293424516,0.2168,0.9888,0.1431,-2.13,0.79,1.77
1687,293429517,0.2158,0.9844,0.1440,-2.26,0.85,1.71
1688,293434515,0.2207,0.9854,0.1401,-2.50,0.85,1.77
1689,293439516,0.2173,0.9873,0.1411,-2.50,0.73,1.65
1690,293444516,0.2095,0.9829,0.1377,-2.68,0.55,1.71
1691,293449516,0.2124,0.9849,0.1455,-2.80,0.73,1.59
1692,293454517,0.2119,0.9819,0.1523,-2.80,0.85,1.59
1693,293459516,0.2119,0.9795,0.1509,-2.80,0.73,1.65
1694,293464515,0.2134,0.9878,0.1523,-2.68,0.79,1.71
1695,293469516,0.2104,0.9834,0.1538,-2.56,0.73,1.77
1696,293474519,0.2080,0.9854,0.1528,-2.44,0.67,1.77
1697,293479517,0.2095,0.9854,0.1548,-2.26,0.61,1.77
1698,293484516,0.2139,0.9829,0.1558,-2.20,0.61,2.01
1699,293489516,0.2090,0.9814,0.1602,-1.83,0.61,1.83
1700,293494515,0.2139,0.9844,0.1553,-1.59,0.49,1.95
1701,293499517,0.2100,0.9878,0.1606,-1.40,0.37,2.01
1702,293504516,0.2095,0.9868,0.1611,-1.04,0.30,1.95
1703,293509516,0.2109,0.9907,0.1631,-0.73,0.06,2.07
1704,293514515,0.2051,0.9907,0.1660,-0.30,-0.12,2.01
1705,293519516,0.2070,0.9941,0.1709,-0.06,-0.30,2.01
1706,293524516,0.2041,0.9912,0.1704,0.24,-0.37,1.95
1707,293529517,0.2065,0.9946,0.1694,0.61,-0.61,1.95
1708,293534515,0.2056,0.9893,0.1689,1.10,-0.79,1.89
1709,293539516,0.1997,0.9854,0.1709,1.65,-0.85,2.01
1710,293544516,0.2007,0.9868,0.1729,2.01,-1.16,2.01
1711,293549516,0.2021,0.9854,0.1748,2.44,-1.28,2.01
1712,293554515,0.2046,0.9888,0.1772,2.99,-1.34,1.95
1713,293559516,0.2061,0.9868,0.1797,3.41,-1.52,2.01
1714,293564516,0.2075,0.9819,0.1768,3.90,-1.77,2.20
1715,293569516,0.2104,0.9829,0.1807,4.45,-1.77,2.26
1716,293574515,0.2119,0.9819,0.1797,5.00,-1.95,2.32
1717,293579516,0.2095,0.9839,0.1821,5.55,-2.20,2.38
1718,293584696,0.2124,0.9834,0.1763,6.04,-2.38,2.44
1719,293589516,0.2134,0.9834,0.1685,6.52,-2.50,2.44
1720,293594514,0.2119,0.9849,0.1704,7.01,-2.74,2.62
1721,293599516,0.2090,0.9849,0.1675,7.50,-2.93,2.56
1722,293604516,0.2153,0.9863,0.1641,7.93,-2.87,2.68
1723,293609516,0.2144,0.9863,0.1689,8.48,-3.17,2.62
1724,293614515,0.2129,0.9849,0.1631,8.84,-3.29,2.68
1725,293619516,0.2168,0.9819,0.1631,9.15,-3.41,2.68
1726,293624516,0.2148,0.9824,0.1670,9.63,-3.60,2.74
1727,293629516,0.2139,0.9834,0.1587,9.88,-3.78,2.68
1728,293634517,0.2129,0.9819,0.1572,10.24,-3.72,2.74
1729,293639516,0.2158,0.9829,0.1611,10.61,-3.90,2.74
1730,293644516,0.2124,0.9834,0.1606,10.85,-3.96,2.74
1731,293649516,0.2104,0.9814,0.1572,10.91,-3.96,2.80
1732,293654515,0.2075,0.9810,0.1553,11.28,-4.21,2.80
1733,293659517,0.2051,0.9863,0.1519,11.40,-4.02,2.99
1734,293664516,0.2031,0.9829,0.1499,11.59,-4.15,3.05
1735,293669516,0.2017,0.9819,0.1489,11.83,-4.09,3.11
1736,293674514,0.2012,0.9873,0.1470,12.26,-4.02,3.11
1737,293679516,0.2061,0.9912,0.1475,12.32,-4.21,3.05
1738,293684517,0.2031,0.9863,0.1460,12.74,-4.21,3.11
1739,293689516,0.2056,0.9819,0.1499,12.80,-4.33,3.11
1740,293694515,0.2114,0.9941,0.1489,12.80,-4.33,3.23
1741,293699516,0.2153,0.9917,0.1455,12.80,-4.39,3.23
1742,293704517,0.2109,0.9829,0.1357,12.68,-4.39,3.41
1743,293709516,0.2104,0.9868,0.1328,12.44,-4.33,3.35
1744,293714515,0.2144,0.9834,0.1260,12.26,-4.27,3.41
1745,293719516,0.2188,0.9849,0.1343,11.95,-4.21,3.41
1746,293724516,0.2266,0.9824,0.1348,11.77,-4.09,3.35
1747,293729516,0.2197,0.9824,0.1313,11.46,-3.96,3.48
1748,293735016,0.2246,0.9785,0.1304,11.28,-3.90,3.35
1749,293739516,0.2280,0.9775,0.1348,11.16,-3.60,3.48
1750,293744516,0.2271,0.9814,0.1299,10.79,-3.72,3.48
1751,293749516,0.2212,0.9756,0.1270,10.73,-3.35,3.54
1752,293754515,0.2188,0.9761,0.1240,10.55,-3.41,3.60
1753,293759516,0.2114,0.9810,0.1274,10.37,-3.29,3.66
1754,293765003,0.2100,0.9741,0.1328,10.12,-3.23,3.78
1755,293769516,0.2119,0.9790,0.1255,10.06,-3.05,3.96
1756,293774516,0.2104,0.9785,0.1240,9.94,-3.05,4.09
1757,293779516,0.2119,0.9795,0.1265,9.94,-3.05,4.33
1758,293784514,0.2124,0.9785,0.1255,9.88,-2.99,4.39
1759,293789517,0.2129,0.9766,0.1265,9.82,-2.93,4.57
1760,293794516,0.2148,0.9761,0.1245,9.88,-2.99,4.70
1761,293799516,0.2168,0.9800,0.1250,9.76,-2.93,4.70
1762,293804517,0.2109,0.9800,0.1289,9.88,-2.93,4.82
1763,293809516,0.2227,0.9839,0.1313,10.00,-2.99,4.88
1764,293814517,0.2212,0.9839,0.1309,10.12,-3.11,4.94
1765,293819516,0.2207,0.9878,0.1299,10.18,-3.05,4.94
1766,293824515,0.2217,0.9883,0.1255,10.49,-3.05,4.88
1767,293829516,0.2227,0.9868,0.1250,10.55,-3.17,4.76
1768,293834516,0.2217,0.9849,0.1201,10.79,-3.35,4.88
1769,293839517,0.2202,0.9849,0.1226,10.98,-3.35,4.76
1770,293844515,0.2178,0.9839,0.1201,11.10,-3.41,4.88
1771,293849516,0.2114,0.9932,0.1147,11.34,-3.60,4.82
1772,293854516,0.2153,0.9932,0.1221,11.40,-3.78,4.82
1773,293859516,0.2129,0.9893,0.1201,11.46,-3.90,4.63
1774,293864516,0.2119,0.9917,0.1211,11.65,-3.96,4.57
1775,293869516,0.2109,0.9946,0.1143,11.65,-4.15,4.51
1776,293874517,0.2061,0.9883,0.1162,11.59,-4.15,4.27
1777,293879516,0.2026,0.9927,0.1172,11.52,-4.21,4.15
1778,293884515,0.2085,0.9966,0.1191,11.77,-4.33,4.02
1779,293889516,0.2095,0.9917,0.1128,11.77,-4.33,3.90
1780,293894516,0.2109,0.9917,0.1094,11.71,-4.33,3.78
1781,293899516,0.2109,0.9932,0.1079,11.77,-4.45,3.84
1782,293904515,0.2085,0.9946,0.1128,11.83,-4.57,3.78
1783,293909517,0.2139,0.9854,0.1113,11.65,-4.63,3.72
1784,293914516,0.2168,0.9795,0.1069,11.65,-4.57,3.60
1785,293919516,0.2173,0.9863,0.1099,11.65,-4.51,3.48
1786,293924515,0.2139,0.9893,0.1050,11.34,-4.45,3.48
1787,293929517,0.2222,0.9893,0.1001,11.22,-4.70,3.35
1788,293934516,0.2222,0.9907,0.1055,10.91,-4.76,3.29
1789,293939516,0.2202,0.9912,0.1035,10.67,-4.45,3.11
1790,293944515,0.2173,0.9922,0.1001,10.49,-4.57,3.05
1791,293949516,0.2222,0.9907,0.0938,10.24,-4.45,2.99
1792,293954516,0.2266,0.9873,0.0967,10.12,-4.63,2.87
1793,293959516,0.2280,0.9844,0.0859,10.37,-4.51,2.93
1794,293964515,0.2266,0.9834,0.0879,10.67,-4.33,2.80
1795,293969516,0.2275,0.9839,0.0977,10.43,-4.39,2.62
1796,293974516,0.2261,0.9878,0.0898,9.94,-4.39,2.68
1797,293979516,0.2285,0.9863,0.0898,9.57,-4.39,2.56
1798,293984514,0.2285,0.9834,0.0928,9.21,-4.39,2.56
1799,293989515,0.2407,0.9775,0.0854,8.96,-4.21,2.50
1800,293994518,0.2383,0.9751,0.0757,8.78,-4.21,2.56
1801,293999515,0.2329,0.9878,0.0737,8.48,-4.21,2.44
1802,294004516,0.2363,0.9819,0.0879,8.23,-4.02,2.38
1803,294009515,0.2378,0.9790,0.0825,7.87,-4.02,2.32
1804,294014518,0.2417,0.9771,0.0801,7.99,-3.78,2.32
1805,294019515,0.2358,0.9819,0.0747,7.99,-3.72,2.32
1806,294024516,0.2295,0.9819,0.0830,7.93,-3.60,2.38
1807,294029515,0.2285,0.9810,0.0840,7.80,-3.60,2.38
1808,294034516,0.2363,0.9766,0.0835,7.68,-3.23,2.26
1809,294039515,0.2329,0.9849,0.0859,7.62,-3.23,2.38
1810,294044518,0.2256,0.9888,0.0786,7.32,-3.23,2.38
1811,294049515,0.2236,0.9834,0.0757,6.95,-3.17,2.32
1812,294054516,0.2227,0.9780,0.0752,6.46,-3.17,2.26
1813,294059515,0.2261,0.9790,0.0771,5.98,-3.17,2.32
1814,294064516,0.2241,0.9780,0.0786,5.67,-3.05,2.32
1815,294069516,0.2256,0.9800,0.0723,5.00,-2.99,2.26
1816,294074516,0.2271,0.9805,0.0786,4.76,-2.87,2.32
1817,294079515,0.2222,0.9839,0.0742,4.51,-2.68,2.20
1818,294084514,0.2266,0.9805,0.0742,4.02,-2.68,2.20
1819,294089575,0.2271,0.9790,0.0767,3.72,-2.50,2.20
1820,294095091,0.2280,0.9785,0.0801,3.54,-2.32,2.13
1821,294099518,0.2280,0.9829,0.0786,3.29,-2.20,2.20
1822,294104514,0.2295,0.9814,0.0801,3.11,-2.13,2.07
1823,294109516,0.2275,0.9834,0.0840,2.99,-1.95,2.07
1824,294114516,0.2324,0.9790,0.0850,2.68,-1.95,2.01
1825,294119516,0.2319,0.9775,0.0757,2.56,-1.77,2.07
1826,294124518,0.2344,0.9800,0.0776,2.56,-1.83,2.01
1827,294129515,0.2310,0.9800,0.0728,2.50,-1.65,2.13
1828,294134515,0.2241,0.9736,0.0874,2.50,-1.71,2.26
1829,294139516,0.2290,0.9751,0.0830,2.44,-1.65,2.26
1830,294144519,0.2324,0.9771,0.0869,2.50,-1.83,2.38
1831,294149515,0.2290,0.9751,0.0879,2.62,-1.77,2.44
1832,294154516,0.2300,0.9800,0.0874,2.99,-1.71,2.38
1833,294159515,0.2349,0.9814,0.0859,2.99,-1.77,2.50
1834,294164516,0.2363,0.9800,0.0884,3.17,-1.83,2.56
1835,294169515,0.2441,0.9712,0.0913,3.54,-1.89,2.68
1836,294174594,0.2402,0.9722,0.0801,3.90,-2.07,2.80
1837,294179516,0.2373,0.9741,0.0913,4.21,-2.20,2.93
1838,294184516,0.2261,0.9712,0.0854,4.33,-2.44,3.05
1839,294189515,0.2222,0.9746,0.0918,4.45,-2.32,3.11
1840,294194912,0.2231,0.9712,0.0840,4.63,-2.38,3.11
1841,294199516,0.2222,0.9771,0.0933,4.94,-2.56,3.41
1842,294204515,0.2236,0.9805,0.0884,5.00,-2.56,3.54
1843,294209515,0.2222,0.9775,0.0933,5.18,-2.68,3.72
1844,294214516,0.2236,0.9775,0.0908,5.43,-2.62,3.72
1845,294219515,0.2280,0.9814,0.0884,5.61,-2.80,3.72
1846,294224516,0.2266,0.9771,0.0947,5.85,-2.87,3.90
1847,294229515,0.2246,0.9863,0.0903,6.22,-2.99,3.90
1848,294234517,0.2246,0.9800,0.0874,6.40,-2.93,3.90
1849,294239515,0.2236,0.9766,0.0874,6.77,-3.11,3.96
1850,294244516,0.2256,0.9761,0.0811,6.95,-3.17,4.02
1851,294249516,0.2256,0.9736,0.0791,7.13,-3.23,4.15
1852,294254516,0.2241,0.9736,0.0815,7.26,-3.60,4.27
1853,294259515,0.2236,0.9741,0.0732,7.50,-3.60,4.51
1854,294264516,0.2241,0.9756,0.0791,7.56,-3.78,4.63
1855,294269515,0.2261,0.9727,0.0840,7.68,-3.90,4.70
1856,294274516,0.2285,0.9775,0.0796,7.74,-4.09,4.76
1857,294279515,0.2305,0.9785,0.0767,7.93,-4.15,4.76
1858,294284708,0.2310,0.9824,0.0791,7.93,-4.02,4.88
1859,294289517,0.2334,0.9858,0.0825,8.05,-4.02,4.76
1860,294294515,0.2383,0.9863,0.0796,8.23,-4.27,4.63
1861,294299516,0.2344,0.9854,0.0854,8.29,-4.21,4.63
1862,294304516,0.2378,0.9849,0.0786,8.35,-4.33,4.51
1863,294309515,0.2344,0.9873,0.0728,8.35,-4.21,4.33
1864,294314516,0.2319,0.9839,0.0762,8.35,-4.15,4.39
1865,294319515,0.2305,0.9829,0.0732,8.41,-4.27,4.39
1866,294324516,0.2329,0.9785,0.0708,8.54,-4.27,4.39
1867,294329515,0.2300,0.9771,0.0752,8.48,-4.27,4.39
1868,294334516,0.2290,0.9736,0.0762,8.48,-4.27,4.33
1869,294339515,0.2290,0.9736,0.0752,8.48,-4.09,4.45
1870,294344516,0.2310,0.9746,0.0752,8.35,-4.33,4.57
1871,294349516,0.2300,0.9771,0.0757,8.48,-4.27,4.63
1872,294354516,0.2329,0.9756,0.0708,8.60,-4.21,4.76
1873,294359515,0.2354,0.9814,0.0742,8.66,-4.27,4.57
1874,294364516,0.2388,0.9863,0.0762,8.78,-4.21,4.63
1875,294369515,0.2373,0.9824,0.0718,8.90,-4.27,4.57
1876,294374516,0.2358,0.9844,0.0703,9.09,-4.51,4.39
1877,294379515,0.2373,0.9824,0.0669,9.27,-4.51,4.39
1878,294384516,0.2373,0.9834,0.0679,9.45,-4.51,4.39
1879,294389515,0.2368,0.9785,0.0620,9.45,-4.63,4.39
1880,294394514,0.2329,0.9775,0.0659,9.39,-4.76,4.39
1881,294399518,0.2349,0.9810,0.0615,9.51,-4.63,4.33
1882,294404516,0.2373,0.9810,0.0645,9.63,-4.82,4.39
1883,294409515,0.2339,0.9824,0.0630,9.51,-4.76,4.45
1884,294414518,0.2339,0.9761,0.0669,9.39,-4.88,4.45
1885,294419515,0.2378,0.9771,0.0640,9.57,-4.82,4.33
1886,294424516,0.2324,0.9790,0.0571,9.33,-4.76,4.45
1887,294429515,0.2358,0.9775,0.0654,9.45,-4.76,4.51
1888,294434516,0.2378,0.9795,0.0610,9.39,-4.57,4.51
1889,294439515,0.2349,0.9775,0.0581,9.33,-4.63,4.45
1890,294444516,0.2358,0.9795,0.0522,9.27,-4.63,4.45
1891,294449515,0.2383,0.9810,0.0552,9.15,-4.63,4.39
1892,294454518,0.2407,0.9780,0.0542,9.21,-4.70,4.33
1893,294459515,0.2393,0.9834,0.0552,8.90,-4.57,4.39
1894,294464516,0.2407,0.9810,0.0571,8.78,-4.57,4.21
1895,294469515,0.2407,0.9761,0.0566,8.66,-4.45,4.15
1896,294474516,0.2402,0.9785,0.0498,8.54,-4.39,4.15
1897,294479515,0.2383,0.9751,0.0571,8.48,-4.27,4.02
1898,294484516,0.2383,0.9761,0.0522,8.35,-4.27,4.09
1899,294489515,0.2397,0.9761,0.0488,8.05,-4.09,4.09
1900,294494518,0.2358,0.9771,0.0483,7.93,-4.09,4.02
1901,294499515,0.2388,0.9741,0.0488,7.74,-3.96,4.02
1902,294504516,0.2397,0.9761,0.0454,7.50,-3.78,3.96
1903,294509515,0.2378,0.9775,0.0410,7.26,-3.84,4.02
1904,294514514,0.2363,0.9810,0.0420,7.13,-3.72,4.15
1905,294519518,0.2397,0.9761,0.0400,6.77,-3.66,3.96
1906,294524516,0.2461,0.9761,0.0366,6.40,-3.54,4.09
1907,294529515,0.2427,0.9771,0.0386,5.98,-3.48,3.96
1908,294534516,0.2427,0.9756,0.0312,5.61,-3.48,3.96
1909,294539515,0.2427,0.9751,0.0322,5.24,-3.48,3.84
1910,294544517,0.2456,0.9810,0.0396,4.88,-3.29,3.78
1911,294549515,0.2466,0.9780,0.0396,4.51,-3.23,3.78
1912,294554518,0.2471,0.9819,0.0405,4.09,-3.17,3.54
1913,294559515,0.2461,0.9839,0.0396,3.72,-2.87,3.29
1914,294564516,0.2437,0.9800,0.0483,3.29,-2.80,3.17
1915,294569515,0.2500,0.9863,0.0435,3.05,-2.56,3.05
1916,294574573,0.2471,0.9883,0.0508,2.80,-2.44,2.80
1917,294579515,0.2466,0.9897,0.0415,2.50,-2.20,2.74
1918,294584516,0.2456,0.9839,0.0391,2.26,-1.95,2.50
1919,294589515,0.2437,0.9839,0.0488,2.13,-1.89,2.32
1920,294594514,0.2480,0.9795,0.0444,1.89,-1.95,2.13
1921,294599518,0.2417,0.9751,0.0513,1.71,-1.77,2.07
1922,294604516,0.2437,0.9790,0.0503,1.77,-1.95,1.95
1923,294609516,0.2441,0.9780,0.0488,1.65,-1.83,1.77
1924,294614514,0.2397,0.9736,0.0513,1.59,-1.83,1.89
1925,294619514,0.2363,0.9766,0.0508,1.65,-1.77,1.83
1926,294624518,0.2383,0.9756,0.0532,1.52,-1.71,1.77
1927,294629515,0.2388,0.9756,0.0547,1.59,-1.77,1.89
1928,294634516,0.2388,0.9736,0.0576,1.77,-1.77,1.95
1929,294639515,0.2358,0.9751,0.0576,1.89,-1.71,2.01
1930,294644515,0.2378,0.9780,0.0552,1.95,-1.83,2.13
1931,294649514,0.2393,0.9727,0.0586,2.13,-1.77,2.13
1932,294654518,0.2383,0.9736,0.0571,2.13,-1.89,2.26
1933,294659515,0.2383,0.9717,0.0601,2.44,-1.83,2.26
1934,294664575,0.2437,0.9741,0.0527,2.62,-1.89,2.32
1935,294669516,0.2622,0.9692,0.0542,2.80,-2.01,2.50
1936,294674516,0.2651,0.9731,0.0532,2.87,-2.26,2.44
1937,294679517,0.2549,0.9751,0.0483,3.05,-2.44,2.50
1938,294684515,0.2588,0.9780,0.0444,3.17,-2.32,2.50
1939,294689516,0.2603,0.9736,0.0444,3.05,-2.50,2.32
1940,294694515,0.2529,0.9702,0.0356,2.99,-2.50,2.38
1941,294699517,0.2524,0.9717,0.0405,2.74,-2.50,2.44
1942,294704515,0.2520,0.9780,0.0430,2.50,-2.50,2.38
1943,294709516,0.2578,0.9780,0.0464,2.26,-2.44,2.32
1944,294714515,0.2593,0.9756,0.0488,1.71,-2.44,2.20
1945,294719516,0.2568,0.9761,0.0381,1.65,-2.26,2.26
1946,294724515,0.2534,0.9775,0.0400,1.52,-2.01,2.07
1947,294729516,0.2476,0.9736,0.0439,1.10,-2.01,2.01
1948,294734516,0.2476,0.9736,0.0439,0.61,-2.01,2.07
1949,294739517,0.2456,0.9727,0.0459,0.43,-1.83,2.07
1950,294744515,0.2534,0.9707,0.0420,0.30,-1.77,2.01
1951,294749516,0.2510,0.9736,0.0513,0.06,-1.59,2.13
1952,294754516,0.2441,0.9722,0.0483,-0.06,-1.59,2.13
1953,294759517,0.2480,0.9766,0.0439,-0.30,-1.59,2.20
1954,294764515,0.2466,0.9722,0.0400,-0.55,-1.65,2.20
1955,294769527,0.2412,0.9775,0.0449,-0.67,-1.40,2.20
1956,294774517,0.2373,0.9795,0.0410,-0.79,-1.52,2.07
1957,294779516,0.2319,0.9795,0.0381,-0.91,-1.28,2.07
1958,294784515,0.2329,0.9834,0.0405,-1.16,-1.34,2.13
1959,294789516,0.2310,0.9790,0.0439,-1.34,-1.22,2.01
1960,294794516,0.2300,0.9775,0.0449,-1.16,-1.04,2.13
1961,294799516,0.2290,0.9780,0.0527,-1.46,-1.04,2.13
1962,294804523,0.2290,0.9800,0.0522,-1.83,-0.91,2.01
1963,294809517,0.2329,0.9780,0.0527,-1.89,-0.67,1.95
1964,294814516,0.2305,0.9780,0.0576,-2.01,-0.73,2.01
1965,294819516,0.2334,0.9780,0.0547,-2.07,-0.73,2.01
1966,294824751,0.2368,0.9771,0.0566,-2.07,-0.55,1.95
1967,294829517,0.2344,0.9751,0.0542,-2.07,-0.49,1.95
1968,294834516,0.2344,0.9775,0.0557,-2.13,-0.61,1.89
1969,294839516,0.2354,0.9785,0.0645,-2.13,-0.49,1.95
1970,294844515,0.2378,0.9727,0.0620,-2.13,-0.67,2.01
1971,294849516,0.2383,0.9785,0.0562,-2.07,-0.55,2.01
1972,294854515,0.2358,0.9775,0.0625,-1.83,-0.73,2.01
1973,294859517,0.2349,0.9790,0.0527,-1.77,-0.73,2.07
1974,294864516,0.2334,0.9800,0.0537,-1.71,-0.85,2.01
1975,294869516,0.2334,0.9819,0.0532,-1.65,-0.73,2.20
1976,294874515,0.2368,0.9805,0.0566,-1.52,-0.73,2.01
1977,294879516,0.2358,0.9800,0.0581,-1.40,-0.67,2.01
1978,294884516,0.2334,0.9800,0.0635,-1.40,-0.67,2.01
1979,294889516,0.2305,0.9814,0.0610,-1.28,-0.67,1.95
1980,294894515,0.2378,0.9800,0.0728,-1.22,-0.55,1.95
1981,294899516,0.2422,0.9761,0.0698,-1.04,-0.55,1.89
1982,294904517,0.2417,0.9780,0.0664,-0.79,-0.55,1.89
1983,294909516,0.2437,0.9756,0.0703,-0.61,-0.55,1.83
1984,294914515,0.2446,0.9771,0.0684,-0.37,-0.55,1.77
1985,294919516,0.2485,0.9712,0.0654,-0.12,-0.61,1.95
1986,294924515,0.2549,0.9722,0.0742,0.18,-0.67,1.83
1987,294929515,0.2500,0.9790,0.0669,0.37,-0.79,2.01
1988,294934516,0.2529,0.9771,0.0762,0.55,-0.73,2.01
1989,294939515,0.2505,0.9780,0.0703,0.85,-0.98,1.95
1990,294944516,0.2559,0.9731,0.0693,1.04,-0.91,2.01
1991,294949515,0.2466,0.9746,0.0669,1.28,-1.04,2.07
1992,294954516,0.2402,0.9785,0.0645,1.40,-1.16,2.01
1993,294959516,0.2500,0.9746,0.0645,1.52,-1.10,2.07
1994,294964516,0.2529,0.9775,0.0620,1.71,-1.16,1.95
1995,294969515,0.2485,0.9751,0.0586,1.59,-1.28,1.95
1996,294974516,0.2476,0.9756,0.0659,1.71,-1.22,1.95
1997,294979515,0.2476,0.9717,0.0630,1.59,-1.28,1.95
1998,294984516,0.2461,0.9780,0.0659,1.46,-1.10,1.83
1999,294989515,0.2466,0.9751,0.0625,1.40,-1.04,1.89
2000,294994516,0.2524,0.9775,0.0615,1.34,-0.91,1.89
2001,294999515,0.2471,0.9795,0.0596,1.22,-0.79,1.77
2002,295004516,0.2471,0.9785,0.0640,1.28,-0.73,1.71
2003,295009516,0.2485,0.9727,0.0669,1.28,-0.67,1.71
2004,295014518,0.2495,0.9727,0.0688,1.10,-0.61,1.77
2005,295019515,0.2412,0.9678,0.0649,1.10,-0.55,1.77
2006,295024514,0.2515,0.9756,0.0615,1.04,-0.43,1.71
2007,295029516,0.2495,0.9731,0.0576,0.91,-0.43,1.83
2008,295034516,0.2480,0.9707,0.0605,1.04,-0.37,1.95
2009,295039516,0.2432,0.9741,0.0630,1.16,-0.49,1.83
2010,295044515,0.2441,0.9668,0.0625,0.85,-0.43,2.07
2011,295049516,0.2432,0.9717,0.0596,0.55,-0.49,1.89
2012,295054516,0.2397,0.9741,0.0645,0.49,-0.55,2.01
2013,295059516,0.2432,0.9785,0.0674,0.24,-0.61,1.95
2014,295064515,0.2471,0.9814,0.0674,0.12,-0.67,2.01
2015,295069517,0.2480,0.9795,0.0601,0.18,-0.49,1.89
2016,295074516,0.2441,0.9839,0.0635,0.43,-0.49,1.95
2017,295079516,0.2422,0.9800,0.0659,0.18,-0.61,1.89
2018,295084515,0.2407,0.9761,0.0742,0.06,-0.43,1.83
2019,295089516,0.2451,0.9688,0.0767,-0.06,-0.49,1.83
2020,295094516,0.2417,0.9751,0.0713,-0.18,-0.30,1.83
2021,295099516,0.2402,0.9707,0.0723,-0.18,-0.30,1.83
2022,295104515,0.2520,0.9771,0.0708,0.18,-0.18,1.95
2023,295109516,0.2285,0.9761,0.0879,0.00,-0.12,1.77
2024,295114516,0.2368,0.9668,0.0601,0.00,-0.30,1.89
2025,295120983,0.2407,0.9819,0.0601,0.12,-0.37,1.95
2026,295124517,0.2480,0.9761,0.0684,0.06,-0.37,2.07
2027,295129514,0.2441,0.9702,0.0664,0.06,-0.37,2.13
2028,295134516,0.2422,0.9736,0.0620,0.37,-0.55,2.13
2029,295139515,0.2461,0.9800,0.0674,0.24,-0.55,2.07
2030,295144514,0.2373,0.9878,0.0693,0.24,-0.49,2.01
2031,295149514,0.2290,0.9883,0.0693,0.30,-0.37,2.07
2032,295154516,0.2339,0.9810,0.0688,0.24,-0.43,1.95
2033,295159515,0.2329,0.9780,0.0630,0.24,-0.37,2.01
2034,295164516,0.2368,0.9731,0.0684,0.30,-0.24,1.83
2035,295169516,0.2383,0.9741,0.0654,0.06,-0.37,1.77
2036,295174516,0.2358,0.9810,0.0703,0.00,-0.18,1.83
2037,295179515,0.2339,0.9814,0.0659,0.24,-0.37,1.83
2038,295184517,0.2466,0.9756,0.0752,0.24,-0.30,1.89
2039,295189514,0.2480,0.9756,0.0742,0.18,-0.37,1.95
2040,295194519,0.2476,0.9775,0.0723,0.24,-0.37,1.95
2041,295199515,0.2354,0.9741,0.0684,0.49,-0.30,2.01
2042,295204514,0.2388,0.9707,0.0601,0.18,-0.49,2.01
2043,295209517,0.2427,0.9727,0.0654,0.18,-0.49,2.13
2044,295214515,0.2451,0.9775,0.0688,0.18,-0.55,2.07
2045,295219516,0.2520,0.9805,0.0708,0.00,-0.55,2.13
2046,295224517,0.2446,0.9854,0.0645,0.00,-0.55,2.13
2047,295229516,0.2388,0.9829,0.0654,0.06,-0.61,1.89
2048,295234515,0.2476,0.9810,0.0752,0.18,-0.61,1.83
2049,295239516,0.2505,0.9795,0.0737,0.06,-0.67,1.83
2050,295244516,0.2524,0.9775,0.0703,0.00,-0.67,1.83
2051,295249516,0.2500,0.9707,0.0767,0.06,-0.61,1.77
2052,295254912,0.2471,0.9741,0.0762,0.24,-0.79,1.71
2053,295259517,0.2466,0.9756,0.0737,0.30,-0.67,1.83
2054,295264518,0.2500,0.9756,0.0786,0.18,-0.61,1.77
2055,295269516,0.2485,0.9800,0.0791,0.06,-0.79,1.71
2056,295274517,0.2495,0.9785,0.0723,0.18,-0.67,1.71
2057,295279516,0.2529,0.9761,0.0708,0.18,-0.55,1.71
2058,295284516,0.2495,0.9756,0.0762,0.18,-0.55,1.71
2059,295289516,0.2417,0.9756,0.0674,0.24,-0.61,1.65
2060,295294515,0.2524,0.9741,0.0698,0.67,-0.79,1.83
2061,295299516,0.2583,0.9756,0.0732,1.04,-0.79,1.89
2062,295304516,0.2520,0.9722,0.0742,1.10,-0.91,1.95
2063,295309516,0.2500,0.9771,0.0757,1.28,-0.91,1.89
2064,295314515,0.2510,0.9702,0.0762,1.40,-0.98,2.01
2065,295319918,0.2441,0.9785,0.0752,1.52,-1.10,2.01
2066,295324518,0.2432,0.9805,0.0776,1.52,-1.28,1.95
2067,295329516,0.2441,0.9785,0.0757,1.77,-1.28,1.89
2068,295334516,0.2446,0.9780,0.0850,1.77,-1.40,1.95
2069,295339517,0.2417,0.9756,0.0781,1.65,-1.52,1.89
2070,295344515,0.2349,0.9824,0.0747,1.65,-1.52,1.95
2071,295349517,0.2378,0.9805,0.0796,1.59,-1.71,1.89
2072,295354956,0.2388,0.9790,0.0815,1.71,-1.77,1.83
2073,295359517,0.2358,0.9810,0.0815,1.71,-1.77,1.83
2074,295364516,0.2310,0.9819,0.0801,1.71,-1.71,1.95
2075,295369515,0.2349,0.9839,0.0791,1.71,-2.01,1.95
2076,295374516,0.2427,0.9683,0.0796,1.89,-1.89,2.01
2077,295379515,0.2383,0.9639,0.0889,1.83,-1.89,2.01
2078,295384516,0.2393,0.9756,0.0835,1.71,-1.89,2.01
2079,295389515,0.2324,0.9824,0.0776,1.83,-2.01,1.95
2080,295394516,0.2397,0.9795,0.0767,1.95,-1.89,2.07
2081,295399518,0.2441,0.9756,0.0776,1.95,-2.01,2.07
2082,295404516,0.2427,0.9771,0.0767,1.95,-2.07,2.07
2083,295409515,0.2397,0.9746,0.0815,1.89,-1.89,1.95
2084,295414516,0.2344,0.9829,0.0801,1.65,-2.01,1.89
2085,295419515,0.2378,0.9746,0.0747,1.40,-2.07,2.01
2086,295424518,0.2383,0.9746,0.0771,1.28,-2.20,2.07
2087,295429515,0.2344,0.9805,0.0762,1.40,-2.13,2.01
2088,295435041,0.2349,0.9785,0.0708,1.28,-2.07,2.01
2089,295439517,0.2344,0.9810,0.0688,1.22,-2.01,2.01
2090,295444516,0.2354,0.9810,0.0815,1.04,-2.01,2.01
2091,295449516,0.2412,0.9756,0.0786,1.10,-1.89,1.95
2092,295454515,0.2368,0.9771,0.0752,1.10,-1.83,1.95
2093,295459516,0.2280,0.9819,0.0815,0.91,-1.95,1.89
2094,295464516,0.2417,0.9766,0.0820,0.98,-1.77,1.95
2095,295469516,0.2456,0.9697,0.0732,0.79,-1.71,2.01
2096,295474515,0.2549,0.9712,0.0757,0.79,-1.65,1.95
2097,295479516,0.2441,0.9727,0.0732,0.67,-1.59,1.95
2098,295484517,0.2388,0.9756,0.0747,0.55,-1.46,2.01
2099,295489516,0.2407,0.9785,0.0776,0.55,-1.34,2.01
2100,295494515,0.2485,0.9785,0.0806,0.49,-1.40,2.01
2101,295499516,0.2476,0.9761,0.0801,0.24,-1.28,2.01
2102,295504516,0.2456,0.9775,0.0747,0.12,-1.22,2.07
2103,295509516,0.2476,0.9785,0.0728,0.00,-1.10,2.01
2104,295514515,0.2495,0.9810,0.0835,-0.24,-1.10,2.07
2105,295519517,0.2456,0.9849,0.0732,-0.18,-0.98,2.07
2106,295524516,0.2471,0.9849,0.0757,-0.06,-1.04,1.95
2107,295529516,0.2510,0.9824,0.0806,-0.30,-0.98,2.01
2108,295534515,0.2520,0.9795,0.0811,-0.43,-1.04,1.83
2109,295539517,0.2476,0.9854,0.0796,-0.61,-1.04,1.71
2110,295544516,0.2441,0.9800,0.0747,-0.91,-0.85,1.71
2111,295549516,0.2529,0.9814,0.0801,-0.85,-0.85,1.71
2112,295554515,0.2461,0.9790,0.0859,-0.98,-0.73,1.65
2113,295559516,0.2412,0.9771,0.0854,-1.34,-0.67,1.59
2114,295564516,0.2383,0.9722,0.0840,-1.34,-0.73,1.52
2115,295569516,0.2393,0.9766,0.0815,-1.77,-0.67,1.52
2116,295574529,0.2402,0.9761,0.0796,-1.65,-0.67,1.71
2117,295579516,0.2393,0.9771,0.0879,-1.65,-0.55,1.65
2118,295584516,0.2378,0.9756,0.0835,-1.77,-0.49,1.71
2119,295589517,0.2393,0.9736,0.0796,-1.77,-0.61,1.65
2120,295594515,0.2368,0.9756,0.0840,-1.83,-0.67,1.77
2121,295599517,0.2388,0.9780,0.0923,-1.71,-0.67,1.77
2122,295604516,0.2368,0.9766,0.0928,-1.77,-0.79,1.83
2123,295609516,0.2363,0.9810,0.0923,-1.83,-0.67,1.83
2124,295614515,0.2373,0.9814,0.0879,-1.89,-0.67,1.71
2125,295619516,0.2334,0.9785,0.0811,-1.77,-0.67,1.65
2126,295624516,0.2427,0.9775,0.0879,-1.46,-0.79,1.65
2127,295629516,0.2427,0.9751,0.0894,-1.46,-0.61,1.59
2128,295634515,0.2471,0.9800,0.0928,-1.34,-0.73,1.71
2129,295639517,0.2451,0.9878,0.0864,-1.71,-0.67,1.71
2130,295644516,0.2397,0.9790,0.0933,-1.89,-0.61,1.52
2131,295649516,0.2432,0.9775,0.0928,-1.71,-0.61,1.59
2132,295654515,0.2441,0.9741,0.0913,-1.77,-0.67,1.59
2133,295659516,0.2451,0.9785,0.0850,-1.89,-0.61,1.52
2134,295664516,0.2407,0.9702,0.0918,-1.83,-0.61,1.46
2135,295669516,0.2427,0.9673,0.0972,-1.83,-0.67,1.52
2136,295674597,0.2427,0.9736,0.0947,-1.89,-0.49,1.59
2137,295679516,0.2466,0.9727,0.0840,-1.95,-0.55,1.65
2138,295684516,0.2402,0.9766,0.0918,-1.95,-0.49,1.65
2139,295689516,0.2432,0.9766,0.0933,-2.07,-0.55,1.71
2140,295694515,0.2412,0.9780,0.0879,-2.01,-0.67,1.71
2141,295699516,0.2378,0.9761,0.0918,-1.89,-0.79,1.71
2142,295704516,0.2378,0.9790,0.0898,-2.26,-0.61,1.83
2143,295709516,0.2310,0.9834,0.0923,-2.44,-0.55,1.77
2144,295714515,0.2344,0.9834,0.0854,-2.20,-0.73,1.71
2145,295719517,0.2383,0.9810,0.0933,-2.32,-0.73,1.71
2146,295724516,0.2383,0.9868,0.0918,-2.56,-0.73,1.65
2147,295729516,0.2339,0.9805,0.0918,-2.74,-0.73,1.59
2148,295734515,0.2383,0.9824,0.0947,-2.87,-0.67,1.52
2149,295739516,0.2368,0.9751,0.0942,-2.74,-0.49,1.59
2150,295744515,0.2358,0.9839,0.0908,-3.05,-0.61,1.46
2151,295749516,0.2407,0.9761,0.0962,-3.05,-0.55,1.46
2152,295754516,0.2422,0.9790,0.0981,-3.17,-0.55,1.28
2153,295759516,0.2373,0.9810,0.0938,-3.23,-0.55,1.28
2154,295764515,0.2383,0.9785,0.0996,-3.48,-0.43,1.46
2155,295769516,0.2383,0.9800,0.1021,-3.29,-0.49,1.34
2156,295774552,0.2402,0.9761,0.0986,-3.48,-0.30,1.34
2157,295779516,0.2412,0.9761,0.1050,-3.48,-0.24,1.22
2158,295784515,0.2368,0.9873,0.1040,-3.60,-0.30,1.22
2159,295789516,0.2349,0.9829,0.1040,-3.54,-0.12,1.22
2160,295794516,0.2363,0.9795,0.1050,-3.54,-0.06,1.16
2161,295799516,0.2354,0.9795,0.1040,-3.54,-0.18,1.16
2162,295804517,0.2319,0.9800,0.1055,-3.54,0.00,1.28
2163,295809516,0.2368,0.9751,0.1045,-3.54,-0.06,1.22
2164,295814516,0.2402,0.9756,0.1016,-3.48,-0.12,1.22
2165,295819516,0.2329,0.9800,0.1060,-3.35,-0.12,1.34
2166,295824515,0.2266,0.9780,0.1079,-3.41,-0.18,1.40
2167,295829516,0.2349,0.9761,0.1108,-3.23,-0.12,1.40
2168,295834517,0.2373,0.9756,0.1089,-2.93,-0.24,1.40
2169,295839516,0.2363,0.9785,0.1084,-2.87,-0.30,1.46
2170,295844515,0.2378,0.9824,0.1133,-2.93,-0.30,1.40
2171,295849516,0.2368,0.9819,0.1143,-2.62,-0.37,1.52
2172,295854516,0.2397,0.9795,0.1162,-2.56,-0.30,1.52
2173,295859516,0.2466,0.9814,0.1162,-2.50,-0.43,1.52
2174,295864515,0.2441,0.9834,0.1167,-2.56,-0.30,1.52
2175,295869516,0.2402,0.9771,0.1138,-2.44,-0.37,1.52
2176,295874516,0.2437,0.9805,0.1167,-2.26,-0.55,1.59
2177,295879516,0.2397,0.9800,0.1123,-2.13,-0.55,1.52
2178,295884515,0.2461,0.9771,0.1118,-1.95,-0.61,1.34
2179,295889516,0.2354,0.9790,0.1157,-1.71,-0.49,1.40
2180,295894516,0.2417,0.9839,0.1196,-1.71,-0.61,1.40
2181,295899516,0.2417,0.9795,0.1226,-1.65,-0.55,1.46
2182,295904516,0.2412,0.9766,0.1265,-1.52,-0.49,1.46
2183,295909518,0.2397,0.9775,0.1235,-1.40,-0.43,1.52
2184,295914516,0.2334,0.9780,0.1260,-1.10,-0.49,1.40
2185,295919516,0.2383,0.9790,0.1318,-0.98,-0.67,1.46
2186,295924515,0.2344,0.9795,0.1260,-0.73,-0.61,1.46
2187,295929516,0.2354,0.9814,0.1274,-0.49,-0.49,1.46
2188,295934516,0.2363,0.9810,0.1240,-0.24,-0.49,1.65
2189,295939516,0.2388,0.9790,0.1260,0.00,-0.67,1.59
2190,295944514,0.2373,0.9780,0.1270,0.06,-0.55,1.65
2191,295949516,0.2349,0.9780,0.1250,0.30,-0.67,1.65
2192,295954516,0.2349,0.9761,0.1230,0.67,-0.73,1.59
2193,295959515,0.2397,0.9766,0.1250,0.98,-0.73,1.65
2194,295964516,0.2397,0.9795,0.1245,1.10,-0.91,1.77
2195,295969515,0.2378,0.9766,0.1270,1.28,-1.04,1.71
2196,295974517,0.2368,0.9780,0.1157,1.52,-0.91,1.83
2197,295979515,0.2344,0.9810,0.1230,1.77,-1.04,1.83
2198,295984514,0.2349,0.9854,0.1187,1.95,-1.04,1.77
2199,295989516,0.2285,0.9814,0.1172,2.07,-0.91,1.83
2200,295994516,0.2402,0.9824,0.1187,2.13,-0.98,1.83
2201,295999517,0.2397,0.9849,0.1182,2.20,-0.91,1.71
2202,296004593,0.2354,0.9824,0.1235,2.13,-0.85,1.71
2203,296009517,0.2407,0.9766,0.1147,2.32,-0.91,1.77
2204,296014516,0.2471,0.9814,0.1211,2.13,-0.79,1.59
2205,296019516,0.2427,0.9805,0.1128,2.07,-0.67,1.71
2206,296024674,0.2417,0.9785,0.1152,1.89,-0.67,1.59
2207,296029516,0.2412,0.9810,0.1152,1.65,-0.61,1.65
2208,296034517,0.2407,0.9785,0.1162,1.52,-0.43,1.59
2209,296039516,0.2417,0.9795,0.1162,1.59,-0.24,1.59
2210,296044515,0.2402,0.9756,0.1084,1.34,-0.18,1.46
2211,296049517,0.2388,0.9800,0.1138,1.28,-0.24,1.65
2212,296054516,0.2427,0.9790,0.1133,1.16,-0.18,1.52
2213,296059515,0.2388,0.9766,0.1143,0.98,-0.06,1.65
2214,296064516,0.2427,0.9795,0.1162,0.85,-0.06,1.46
2215,296069515,0.2373,0.9790,0.1191,0.79,-0.06,1.52
2216,296074516,0.2417,0.9814,0.1128,0.79,-0.12,1.52
2217,296079515,0.2432,0.9800,0.1216,0.55,-0.12,1.34
2218,296084516,0.2402,0.9834,0.1187,0.55,-0.12,1.40
2219,296089515,0.2427,0.9790,0.1245,0.49,0.00,1.46
2220,296094516,0.2402,0.9805,0.1216,0.30,0.00,1.46
2221,296099515,0.2393,0.9805,0.1221,0.37,0.00,1.40
2222,296104516,0.2441,0.9785,0.1177,0.18,-0.06,1.40
2223,296109517,0.2397,0.9775,0.1211,0.24,0.06,1.34
2224,296114516,0.2388,0.9800,0.1265,0.18,0.06,1.34
2225,296119517,0.2388,0.9805,0.1221,0.18,0.00,1.34
2226,296124516,0.2358,0.9800,0.1201,0.24,0.00,1.28
2227,296129516,0.2383,0.9805,0.1255,0.18,0.06,1.40
2228,296134516,0.2397,0.9795,0.1216,0.30,0.00,1.40
2229,296139518,0.2441,0.9780,0.1211,0.30,-0.12,1.46
2230,296144515,0.2407,0.9790,0.1226,0.43,0.00,1.40
2231,296149519,0.2349,0.9746,0.1279,0.61,0.00,1.34
2232,296154516,0.2393,0.9790,0.1226,0.73,-0.12,1.59
2233,296159517,0.2393,0.9805,0.1196,0.79,-0.30,1.52
2234,296164516,0.2373,0.9780,0.1255,0.91,-0.12,1.71
2235,296169516,0.2393,0.9795,0.1221,0.98,-0.37,1.52
2236,296174515,0.2402,0.9814,0.1230,1.22,-0.24,1.59
2237,296179516,0.2417,0.9771,0.1313,1.22,-0.49,1.65
2238,296184515,0.2393,0.9771,0.1309,1.34,-0.37,1.59
2239,296189516,0.2388,0.9780,0.1255,1.46,-0.43,1.59
2240,296194519,0.2393,0.9775,0.1274,1.59,-0.55,1.59
2241,296199517,0.2378,0.9824,0.1260,1.52,-0.55,1.52
2242,296204517,0.2383,0.9795,0.1294,1.83,-0.61,1.59
2243,296209516,0.2412,0.9810,0.1294,1.95,-0.73,1.65
2244,296214517,0.2427,0.9814,0.1279,2.07,-0.67,1.65
2245,296219517,0.2422,0.9790,0.1235,2.26,-0.73,1.77
2246,296224517,0.2368,0.9795,0.1226,2.20,-0.85,1.71
2247,296229516,0.2373,0.9790,0.1245,2.44,-0.85,1.65
2248,296234517,0.2373,0.9785,0.1279,2.62,-0.91,1.71
2249,296239516,0.2437,0.9785,0.1274,2.80,-1.10,1.83
2250,296244515,0.2412,0.9790,0.1294,2.99,-1.10,1.77
2251,296249516,0.2412,0.9771,0.1333,3.05,-1.10,1.95
2252,296254515,0.2397,0.9771,0.1226,3.17,-1.16,1.89
2253,296259518,0.2397,0.9810,0.1279,3.29,-1.22,1.89
2254,296264516,0.2334,0.9800,0.1240,3.41,-1.40,1.83
2255,296269516,0.2329,0.9839,0.1309,3.66,-1.40,1.95
2256,296274515,0.2295,0.9834,0.1299,3.66,-1.40,1.83
2257,296279516,0.2305,0.9800,0.1318,3.78,-1.40,1.83
2258,296284516,0.2300,0.9810,0.1294,3.96,-1.52,1.89
2259,296289516,0.2271,0.9824,0.1284,3.84,-1.52,1.83
2260,296294515,0.2344,0.9800,0.1289,4.02,-1.52,1.95
2261,296299516,0.2368,0.9785,0.1270,4.09,-1.46,1.77
2262,296304516,0.2334,0.9790,0.1279,4.15,-1.59,1.89
2263,296309516,0.2319,0.9751,0.1260,4.27,-1.71,1.83
2264,296314516,0.2378,0.9805,0.1260,4.39,-1.83,1.89
2265,296319515,0.2349,0.9814,0.1260,4.45,-1.83,1.89
2266,296324516,0.2354,0.9824,0.1299,4.51,-1.89,1.95
2267,296329515,0.2358,0.9790,0.1245,4.63,-1.95,1.95
2268,296334516,0.2368,0.9731,0.1245,4.82,-1.89,2.07
2269,296339516,0.2437,0.9800,0.1240,4.82,-2.07,2.01
2270,296344516,0.2402,0.9810,0.1270,4.94,-2.01,2.07
2271,296349515,0.2388,0.9844,0.1196,5.12,-2.07,2.07
2272,296354516,0.2373,0.9810,0.1182,5.24,-2.13,2.01
2273,296359516,0.2412,0.9790,0.1206,5.18,-2.20,1.95
2274,296364516,0.2500,0.9756,0.1270,5.43,-2.26,2.01
2275,296369515,0.2466,0.9775,0.1221,5.61,-2.26,2.07
2276,296374516,0.2437,0.9775,0.1230,5.85,-2.13,2.07
2277,296379515,0.2393,0.9785,0.1226,5.85,-2.32,2.13
2278,296384517,0.2437,0.9761,0.1274,5.91,-2.44,2.13
2279,296389515,0.2437,0.9771,0.1211,6.16,-2.26,2.13
2280,296394516,0.2427,0.9746,0.1226,6.04,-2.32,2.20
2281,296399515,0.2437,0.9761,0.1201,6.16,-2.32,2.26
2282,296404516,0.2451,0.9746,0.1206,6.10,-2.20,2.26
2283,296409515,0.2451,0.9790,0.1167,6.04,-2.32,2.20
2284,296414518,0.2388,0.9775,0.1128,5.98,-2.13,2.20
2285,296419515,0.2324,0.9795,0.1128,5.79,-2.26,2.26
2286,296424514,0.2358,0.9800,0.1128,5.85,-2.13,2.32
2287,296429516,0.2373,0.9819,0.1143,5.67,-2.07,2.13
2288,296434516,0.2393,0.9805,0.1162,5.55,-1.95,2.26
2289,296439516,0.2422,0.9839,0.1152,5.37,-1.89,2.26
2290,296444515,0.2393,0.9795,0.1138,5.30,-2.13,2.20
2291,296449517,0.2402,0.9795,0.1108,5.18,-1.89,2.13
2292,296454516,0.2417,0.9829,0.1133,5.18,-1.77,2.13
2293,296459517,0.2451,0.9780,0.1108,5.00,-1.77,2.13
2294,296464515,0.2432,0.9775,0.1201,5.00,-1.83,2.13
2295,296469516,0.2471,0.9761,0.1128,4.94,-1.89,2.13
2296,296474516,0.2461,0.9800,0.1094,4.82,-1.71,2.26
2297,296479516,0.2446,0.9805,0.1167,4.82,-1.59,2.13
2298,296484515,0.2407,0.9790,0.1162,4.70,-1.59,2.13
