# skilleye imu stream v1
# device=xiao_esp32c6 imu=mpu6050 addr=0x68
# rate_hz=200 accel_range_g=16 gyro_range_dps=2000 dlpf_hz=94
# units: accel in g, gyro in deg/s, t_us in microseconds since boot (monotonic)
# no shared clock with the camera -- tap the racket once before each take
# so both recordings share a spike to align on
seq,t_us,ax,ay,az,gx,gy,gz
0,381251984,-0.7031,-0.6494,-0.0840,-28.96,-28.48,-10.91
1,381256989,-0.7056,-0.6519,-0.0820,-28.54,-28.17,-10.61
2,381261984,-0.7031,-0.6504,-0.0859,-28.17,-27.68,-10.18
3,381266983,-0.6987,-0.6504,-0.0845,-27.68,-27.38,-9.76
4,381271984,-0.7002,-0.6479,-0.0835,-27.20,-26.89,-9.45
5,381276983,-0.6895,-0.6484,-0.0859,-26.46,-26.65,-9.09
6,381281984,-0.6914,-0.6465,-0.0830,-25.91,-26.34,-8.60
7,381286984,-0.6885,-0.6460,-0.0806,-24.94,-26.04,-8.05
8,381291986,-0.6875,-0.6479,-0.0830,-24.21,-25.67,-7.56
9,381296984,-0.6831,-0.6479,-0.0854,-23.29,-25.37,-6.89
10,381301984,-0.6846,-0.6455,-0.0864,-22.44,-25.24,-6.34
11,381306984,-0.6855,-0.6499,-0.0903,-21.46,-25.00,-5.67
12,381311984,-0.6802,-0.6479,-0.0845,-20.43,-24.70,-5.00
13,381316984,-0.6792,-0.6484,-0.0845,-19.39,-24.45,-4.33
14,381321984,-0.6772,-0.6470,-0.0923,-18.23,-24.33,-3.66
15,381326984,-0.6753,-0.6484,-0.0894,-17.07,-24.15,-2.99
16,381331984,-0.6787,-0.6475,-0.0933,-15.91,-23.90,-2.32
17,381336984,-0.6851,-0.6440,-0.0884,-14.76,-23.72,-1.46
18,381341984,-0.6816,-0.6470,-0.0869,-13.60,-23.35,-0.91
19,381347476,-0.6802,-0.6514,-0.0898,-12.38,-23.29,-0.12
20,381351984,-0.6821,-0.6460,-0.0894,-11.34,-22.99,0.55
21,381356984,-0.6860,-0.6465,-0.0898,-10.06,-22.80,1.34
22,381361984,-0.6836,-0.6475,-0.0962,-9.02,-22.56,2.07
23,381366986,-0.6802,-0.6421,-0.0928,-8.05,-22.32,2.74
24,381371984,-0.6797,-0.6450,-0.0972,-7.07,-22.26,3.60
25,381376984,-0.6841,-0.6514,-0.0923,-6.16,-21.77,4.21
26,381381984,-0.6831,-0.6465,-0.0850,-5.30,-21.59,5.06
27,381386984,-0.6782,-0.6499,-0.0898,-4.57,-21.40,5.67
28,381391984,-0.6772,-0.6436,-0.0913,-3.84,-21.04,6.46
29,381396986,-0.6792,-0.6450,-0.0908,-3.23,-20.85,7.07
30,381401984,-0.6787,-0.6460,-0.0923,-2.50,-20.61,7.62
31,381406984,-0.6777,-0.6499,-0.0923,-1.95,-20.37,8.29
32,381411984,-0.6772,-0.6489,-0.0913,-1.46,-20.06,8.96
33,381416983,-0.6792,-0.6475,-0.0903,-1.10,-19.76,9.57
34,381421984,-0.6816,-0.6479,-0.0903,-0.61,-19.39,10.12
35,381426984,-0.6758,-0.6484,-0.0967,-0.30,-19.21,10.61
36,381431983,-0.6738,-0.6509,-0.0898,0.24,-18.96,11.10
37,381436986,-0.6768,-0.6475,-0.0898,0.43,-18.54,11.59
38,381441984,-0.6772,-0.6494,-0.0977,0.67,-18.23,12.01
39,381446984,-0.6807,-0.6470,-0.0962,0.98,-17.74,12.32
40,381451984,-0.6812,-0.6460,-0.0967,1.10,-17.50,12.68
41,381456984,-0.6787,-0.6533,-0.0972,1.40,-17.01,12.99
42,381461984,-0.6812,-0.6494,-0.0947,1.28,-16.46,13.17
43,381466984,-0.6875,-0.6523,-0.0957,1.40,-15.98,13.41
44,381471984,-0.6875,-0.6572,-0.0938,1.34,-15.43,13.60
45,381476984,-0.6870,-0.6538,-0.0957,1.34,-14.88,13.78
46,381481984,-0.6982,-0.6616,-0.0908,1.04,-14.33,13.84
47,381486984,-0.6992,-0.6587,-0.0947,0.98,-13.60,13.96
48,381491983,-0.7007,-0.6646,-0.0903,0.73,-12.99,14.09
49,381496982,-0.6973,-0.6611,-0.0913,0.55,-12.44,14.09
50,381501982,-0.7017,-0.6685,-0.0869,0.18,-11.59,14.21
51,381506982,-0.7061,-0.6655,-0.0913,0.00,-10.98,14.09
52,381512253,-0.7056,-0.6680,-0.0894,-0.12,-10.24,14.15
53,381516983,-0.7012,-0.6719,-0.0874,-0.24,-9.57,14.02
54,381521984,-0.7002,-0.6704,-0.0889,-0.18,-9.02,13.90
55,381526982,-0.6992,-0.6724,-0.0864,0.00,-8.48,13.78
56,381531986,-0.7017,-0.6724,-0.0859,0.06,-7.93,13.60
57,381536988,-0.6997,-0.6719,-0.0806,0.43,-7.26,13.29
58,381541984,-0.6948,-0.6709,-0.0811,0.61,-6.95,13.11
59,381546984,-0.6943,-0.6743,-0.0835,0.91,-6.40,12.87
60,381551984,-0.6938,-0.6758,-0.0776,0.98,-5.91,12.50
61,381556984,-0.6968,-0.6782,-0.0801,1.10,-5.18,12.13
62,381561984,-0.6929,-0.6729,-0.0776,1.22,-4.82,11.95
63,381566984,-0.6997,-0.6733,-0.0771,1.22,-4.45,11.71
64,381571984,-0.7031,-0.6743,-0.0757,1.28,-4.21,11.40
65,381576984,-0.7021,-0.6768,-0.0742,1.28,-3.72,11.04
66,381581984,-0.7085,-0.6777,-0.0693,1.16,-3.23,10.73
67,381586984,-0.7061,-0.6782,-0.0698,0.98,-3.05,10.37
68,381591987,-0.7061,-0.6802,-0.0664,0.67,-2.74,10.12
69,381596983,-0.7100,-0.6821,-0.0693,0.37,-2.38,9.94
70,381601984,-0.7104,-0.6855,-0.0684,0.06,-2.01,9.63
71,381606986,-0.7095,-0.6831,-0.0625,-0.37,-1.77,9.45
72,381611983,-0.7134,-0.6860,-0.0703,-0.73,-1.46,9.15
73,381616984,-0.7153,-0.6836,-0.0649,-1.16,-1.10,9.02
74,381621982,-0.7192,-0.6836,-0.0640,-1.40,-0.98,8.72
75,381626984,-0.7197,-0.6816,-0.0620,-1.77,-0.49,8.48
76,381631986,-0.7173,-0.6831,-0.0605,-2.13,-0.37,8.17
77,381636983,-0.7197,-0.6816,-0.0605,-2.44,-0.06,7.99
78,381642302,-0.7183,-0.6841,-0.0566,-2.74,0.12,7.62
79,381646984,-0.7202,-0.6787,-0.0610,-2.74,0.24,7.32
80,381651988,-0.7212,-0.6831,-0.0645,-2.87,0.55,6.95
81,381656984,-0.7227,-0.6812,-0.0664,-2.74,0.73,6.71
82,381662251,-0.7227,-0.6802,-0.0625,-2.87,0.85,6.46
83,381666984,-0.7241,-0.6841,-0.0630,-2.93,1.16,6.22
84,381671983,-0.7290,-0.6841,-0.0615,-2.93,1.40,5.91
85,381677170,-0.7314,-0.6826,-0.0615,-2.87,1.40,5.55
86,381681984,-0.7300,-0.6821,-0.0630,-2.80,1.52,5.37
87,381686985,-0.7344,-0.6821,-0.0566,-2.62,1.77,5.06
88,381692511,-0.7314,-0.6841,-0.0571,-2.56,1.89,4.63
89,381696985,-0.7295,-0.6836,-0.0557,-2.50,1.95,4.45
90,381701984,-0.7310,-0.6831,-0.0522,-2.50,2.20,4.21
91,381706984,-0.7305,-0.6846,-0.0532,-2.38,2.38,4.02
92,381711984,-0.7271,-0.6860,-0.0557,-2.32,2.44,3.60
93,381716984,-0.7300,-0.6831,-0.0522,-2.20,2.38,3.17
94,381721984,-0.7280,-0.6826,-0.0547,-2.07,2.50,2.99
95,381726984,-0.7349,-0.6807,-0.0566,-1.95,2.62,2.80
96,381731992,-0.7285,-0.6826,-0.0532,-1.89,2.62,2.68
97,381736984,-0.7271,-0.6816,-0.0469,-1.65,2.62,2.26
98,381741984,-0.7241,-0.6855,-0.0376,-1.52,2.50,1.95
99,381746984,-0.7266,-0.6851,-0.0474,-1.59,2.50,1.71
100,381751984,-0.7163,-0.6812,-0.0449,-1.34,2.50,1.52
101,381756984,-0.7212,-0.6826,-0.0537,-1.46,2.56,1.28
102,381761984,-0.7212,-0.6836,-0.0493,-1.04,2.44,0.98
103,381767445,-0.7197,-0.6812,-0.0391,-0.85,2.38,0.73
104,381771984,-0.7261,-0.6797,-0.0405,-0.67,2.26,0.61
105,381776984,-0.7241,-0.6777,-0.0366,-0.49,2.26,0.37
106,381781984,-0.7202,-0.6816,-0.0405,-0.43,2.07,0.18
107,381786984,-0.7217,-0.6816,-0.0400,-0.18,2.01,0.00
108,381791983,-0.7231,-0.6772,-0.0459,-0.06,1.95,-0.06
109,381796982,-0.7212,-0.6763,-0.0474,0.06,1.95,-0.24
110,381801984,-0.7246,-0.6763,-0.0449,0.12,1.89,-0.43
111,381806984,-0.7251,-0.6768,-0.0420,0.37,1.71,-0.67
112,381811982,-0.7197,-0.6772,-0.0386,0.43,1.65,-0.85
113,381816984,-0.7236,-0.6787,-0.0444,0.49,1.59,-0.79
114,381821984,-0.7168,-0.6758,-0.0391,0.49,1.65,-0.98
115,381826983,-0.7197,-0.6792,-0.0439,0.43,1.46,-1.04
116,381831986,-0.7197,-0.6763,-0.0391,0.49,1.40,-1.10
117,381836984,-0.7212,-0.6733,-0.0415,0.37,1.46,-1.22
118,381841984,-0.7168,-0.6777,-0.0366,0.30,1.22,-1.28
119,381846984,-0.7217,-0.6753,-0.0444,0.30,1.22,-1.40
120,381851984,-0.7222,-0.6768,-0.0430,0.06,1.22,-1.28
121,381856984,-0.7202,-0.6812,-0.0508,0.06,1.16,-1.34
122,381862331,-0.7227,-0.6826,-0.0391,-0.06,1.16,-1.34
123,381867485,-0.7217,-0.6836,-0.0415,-0.12,1.10,-1.46
124,381872412,-0.7222,-0.6782,-0.0435,-0.12,1.16,-1.34
125,381876984,-0.7241,-0.6821,-0.0400,-0.24,1.16,-1.46
126,381881984,-0.7251,-0.6792,-0.0479,-0.30,1.16,-1.52
127,381886984,-0.7266,-0.6821,-0.0420,-0.30,1.40,-1.40
128,381891985,-0.7266,-0.6836,-0.0396,-0.37,1.40,-1.40
129,381896984,-0.7256,-0.6870,-0.0420,-0.24,1.52,-1.40
130,381901984,-0.7334,-0.6836,-0.0503,-0.24,1.65,-1.46
131,381906986,-0.7295,-0.6836,-0.0415,-0.12,1.77,-1.59
132,381911984,-0.7329,-0.6841,-0.0469,0.06,2.13,-1.46
133,381916984,-0.7344,-0.6851,-0.0503,0.24,2.13,-1.40
134,381922269,-0.7373,-0.6904,-0.0420,0.49,2.38,-1.40
135,381926984,-0.7378,-0.6880,-0.0430,0.85,2.56,-1.46
136,381931983,-0.7344,-0.6860,-0.0488,1.10,2.56,-1.46
137,381936984,-0.7344,-0.6880,-0.0425,1.40,2.80,-1.65
138,381941985,-0.7383,-0.6855,-0.0396,1.77,2.80,-1.65
139,381946984,-0.7368,-0.6870,-0.0444,2.26,3.05,-1.52
140,381951984,-0.7354,-0.6865,-0.0488,2.56,3.11,-1.77
141,381956984,-0.7363,-0.6904,-0.0449,3.17,3.17,-1.77
142,381961984,-0.7354,-0.6880,-0.0391,3.54,3.17,-1.83
143,381966984,-0.7334,-0.6885,-0.0386,3.78,3.17,-1.89
144,381971984,-0.7319,-0.6885,-0.0410,4.15,3.29,-1.95
145,381976984,-0.7280,-0.6846,-0.0420,4.57,3.35,-2.07
146,381981984,-0.7319,-0.6821,-0.0376,4.70,3.35,-2.20
147,381986984,-0.7256,-0.6846,-0.0410,5.06,3.17,-2.26
148,381991984,-0.7261,-0.6846,-0.0386,5.43,3.41,-2.44
149,381996983,-0.7266,-0.6855,-0.0400,5.55,3.35,-2.62
150,382001984,-0.7319,-0.6846,-0.0439,5.91,3.29,-2.74
151,382006986,-0.7305,-0.6831,-0.0420,6.22,3.29,-2.93
152,382011984,-0.7329,-0.6841,-0.0400,6.52,3.11,-3.05
153,382016984,-0.7339,-0.6865,-0.0439,6.65,3.11,-3.29
154,382021984,-0.7358,-0.6890,-0.0449,7.01,3.23,-3.54
155,382026984,-0.7363,-0.6846,-0.0420,7.13,3.23,-3.72
156,382031983,-0.7319,-0.6890,-0.0464,7.20,3.35,-4.02
157,382036984,-0.7354,-0.6875,-0.0376,7.38,3.35,-4.15
158,382041986,-0.7339,-0.6890,-0.0396,7.32,3.41,-4.33
159,382046983,-0.7383,-0.6899,-0.0352,7.38,3.54,-4.63
160,382051984,-0.7344,-0.6880,-0.0420,7.32,3.48,-4.88
161,382057310,-0.7339,-0.6899,-0.0449,7.32,3.60,-5.06
162,382062431,-0.7354,-0.6904,-0.0439,7.20,3.60,-5.30
163,382066984,-0.7319,-0.6870,-0.0435,7.01,3.54,-5.43
164,382071984,-0.7349,-0.6885,-0.0410,6.95,3.60,-5.61
165,382076983,-0.7290,-0.6899,-0.0400,6.95,3.72,-5.67
166,382081986,-0.7314,-0.6870,-0.0396,6.89,3.66,-6.04
167,382086984,-0.7305,-0.6860,-0.0435,6.95,3.54,-6.10
168,382091983,-0.7246,-0.6865,-0.0396,6.83,3.48,-6.34
169,382096983,-0.7153,-0.6846,-0.0430,7.01,3.48,-6.65
170,382101984,-0.7153,-0.6821,-0.0430,7.07,3.29,-6.89
171,382106984,-0.7231,-0.6792,-0.0391,7.13,3.29,-7.01
172,382111984,-0.7148,-0.6802,-0.0376,7.13,3.11,-7.26
173,382116986,-0.7168,-0.6763,-0.0371,7.20,2.93,-7.68
174,382121984,-0.7119,-0.6802,-0.0381,7.26,2.80,-7.80
175,382126984,-0.7114,-0.6738,-0.0366,7.20,2.62,-8.23
176,382131984,-0.7070,-0.6753,-0.0376,6.95,2.50,-8.60
177,382136983,-0.7095,-0.6743,-0.0361,6.77,2.26,-8.72
178,382141982,-0.7090,-0.6719,-0.0347,6.46,2.26,-9.02
179,382146986,-0.7051,-0.6714,-0.0312,6.10,2.13,-9.51
180,382151984,-0.7056,-0.6694,-0.0322,5.67,1.95,-9.76
181,382156984,-0.7065,-0.6704,-0.0352,5.00,1.89,-10.12
182,382161984,-0.7095,-0.6675,-0.0347,4.21,1.83,-10.37
183,382166984,-0.7119,-0.6699,-0.0352,3.60,1.83,-10.73
184,382171985,-0.7090,-0.6719,-0.0396,2.68,1.71,-11.04
185,382176984,-0.7114,-0.6758,-0.0332,1.83,1.71,-11.34
186,382181984,-0.7061,-0.6724,-0.0303,0.79,1.59,-11.52
187,382186985,-0.7085,-0.6733,-0.0283,-0.30,1.65,-11.59
188,382191984,-0.7061,-0.6694,-0.0347,-1.22,1.71,-11.95
189,382196987,-0.7114,-0.6724,-0.0332,-2.07,1.65,-12.07
190,382201984,-0.7051,-0.6694,-0.0361,-2.93,1.77,-12.20
191,382206984,-0.7026,-0.6680,-0.0317,-3.48,1.89,-12.32
192,382211986,-0.7017,-0.6729,-0.0312,-4.21,1.83,-12.32
193,382216984,-0.7065,-0.6704,-0.0264,-4.70,1.95,-12.38
194,382221983,-0.7026,-0.6743,-0.0347,-5.06,1.89,-12.32
195,382226984,-0.7046,-0.6782,-0.0298,-5.37,1.95,-12.32
196,382231984,-0.7095,-0.6772,-0.0283,-5.49,2.07,-12.32
197,382236984,-0.7031,-0.6758,-0.0303,-5.37,1.95,-12.26
198,382241984,-0.7046,-0.6821,-0.0327,-5.06,2.13,-12.07
199,382246984,-0.7026,-0.6802,-0.0342,-4.51,2.07,-11.95
200,382251983,-0.7031,-0.6777,-0.0259,-3.90,2.07,-11.77
201,382256986,-0.6997,-0.6792,-0.0254,-3.23,2.01,-11.46
202,382261984,-0.6982,-0.6821,-0.0361,-2.32,2.13,-11.34
203,382266984,-0.6978,-0.6787,-0.0366,-1.46,1.95,-10.98
204,382271983,-0.6992,-0.6841,-0.0322,-0.18,1.95,-10.79
205,382276982,-0.6938,-0.6792,-0.0283,0.85,2.01,-10.37
206,382281984,-0.6938,-0.6768,-0.0308,2.20,1.89,-10.06
207,382287098,-0.6963,-0.6777,-0.0322,3.41,1.83,-9.63
208,382291984,-0.6948,-0.6792,-0.0239,4.76,1.89,-9.27
209,382296984,-0.6895,-0.6787,-0.0283,6.10,1.65,-8.72
210,382301985,-0.6841,-0.6797,-0.0312,7.38,1.52,-8.29
211,382306984,-0.6870,-0.6826,-0.0283,8.66,1.22,-7.99
212,382311983,-0.6846,-0.6807,-0.0322,9.88,0.98,-7.50
213,382316984,-0.6816,-0.6772,-0.0293,11.16,0.91,-7.01
214,382321985,-0.6787,-0.6719,-0.0327,12.26,0.61,-6.59
215,382326984,-0.6758,-0.6782,-0.0312,13.11,0.43,-6.10
216,382331984,-0.6729,-0.6753,-0.0244,14.21,0.06,-5.79
217,382336984,-0.6670,-0.6748,-0.0249,14.88,0.00,-5.18
218,382341983,-0.6660,-0.6763,-0.0239,15.79,-0.49,-4.70
219,382346984,-0.6650,-0.6714,-0.0278,16.22,-0.79,-4.27
220,382351982,-0.6631,-0.6714,-0.0288,16.71,-1.04,-3.96
221,382356984,-0.6626,-0.6699,-0.0229,17.01,-1.28,-3.54
222,382361984,-0.6655,-0.6729,-0.0239,17.32,-1.52,-3.11
223,382366984,-0.6685,-0.6709,-0.0342,17.32,-2.01,-2.56
224,382372467,-0.6606,-0.6675,-0.0303,17.20,-2.01,-2.20
225,382376984,-0.6616,-0.6719,-0.0293,17.20,-2.56,-1.83
226,382381984,-0.6606,-0.6709,-0.0293,16.95,-2.56,-1.52
227,382386984,-0.6636,-0.6748,-0.0259,16.59,-2.93,-1.04
228,382391983,-0.6616,-0.6694,-0.0288,16.16,-2.99,-0.73
229,382397222,-0.6641,-0.6694,-0.0254,15.67,-3.17,-0.43
230,382401983,-0.6631,-0.6660,-0.0278,15.06,-3.29,-0.30
231,382406982,-0.6636,-0.6724,-0.0288,14.57,-3.35,0.00
232,382411982,-0.6626,-0.6724,-0.0317,14.15,-3.29,0.18
233,382417690,-0.6582,-0.6709,-0.0308,13.54,-3.41,0.43
234,382421986,-0.6558,-0.6724,-0.0220,13.11,-3.41,0.55
235,382426983,-0.6611,-0.6753,-0.0269,12.74,-3.23,0.85
236,382431984,-0.6597,-0.6758,-0.0273,12.01,-3.23,0.79
237,382436984,-0.6631,-0.6772,-0.0317,11.83,-3.17,0.98
238,382441982,-0.6636,-0.6738,-0.0288,11.34,-3.05,0.98
239,382446984,-0.6602,-0.6729,-0.0342,11.16,-2.99,1.10
240,382452236,-0.6655,-0.6733,-0.0303,10.73,-2.87,1.04
241,382456984,-0.6616,-0.6743,-0.0298,10.55,-2.68,1.16
242,382461984,-0.6631,-0.6772,-0.0288,10.24,-2.44,1.10
243,382466984,-0.6606,-0.6748,-0.0269,10.12,-2.32,1.10
244,382471984,-0.6621,-0.6758,-0.0283,10.12,-2.20,1.10
245,382476984,-0.6592,-0.6772,-0.0259,10.06,-2.01,1.16
246,382481984,-0.6670,-0.6763,-0.0264,9.82,-1.89,1.10
247,382486984,-0.6685,-0.6807,-0.0283,9.82,-1.59,1.10
248,382491984,-0.6675,-0.6772,-0.0381,9.70,-1.40,1.04
249,382496984,-0.6680,-0.6807,-0.0337,9.63,-1.34,1.04
250,382501984,-0.6680,-0.6821,-0.0342,9.45,-1.04,1.16
251,382506984,-0.6675,-0.6821,-0.0312,9.45,-0.98,1.10
252,382511984,-0.6709,-0.6836,-0.0376,9.27,-0.67,1.10
253,382516984,-0.6689,-0.6812,-0.0308,9.21,-0.49,1.10
254,382521986,-0.6680,-0.6841,-0.0254,9.15,-0.30,1.10
255,382526984,-0.6694,-0.6851,-0.0308,8.96,-0.24,1.04
256,382531984,-0.6621,-0.6816,-0.0298,8.90,0.06,1.16
257,382536984,-0.6611,-0.6782,-0.0210,8.84,0.12,1.22
258,382541984,-0.6597,-0.6855,-0.0293,8.78,0.24,1.10
259,382546984,-0.6558,-0.6826,-0.0249,8.54,0.43,1.22
260,382551984,-0.6611,-0.6841,-0.0205,8.41,0.30,1.34
261,382557197,-0.6558,-0.6821,-0.0254,8.17,0.55,1.40
262,382561983,-0.6528,-0.6812,-0.0220,7.93,0.55,1.52
263,382566984,-0.6499,-0.6812,-0.0176,7.68,0.61,1.71
264,382571984,-0.6519,-0.6797,-0.0200,7.56,0.55,1.77
265,382576984,-0.6460,-0.6816,-0.0234,7.20,0.37,2.01
266,382581984,-0.6460,-0.6807,-0.0190,6.95,0.24,2.20
267,382586984,-0.6392,-0.6772,-0.0137,6.65,0.37,2.50
268,382591984,-0.6387,-0.6812,-0.0225,6.28,0.12,2.62
269,382597471,-0.6387,-0.6895,-0.0195,5.98,-0.24,2.87
270,382601984,-0.6392,-0.6831,-0.0127,5.61,-0.24,3.11
271,382607211,-0.6372,-0.6826,-0.0146,5.24,-0.30,3.29
272,382611984,-0.6421,-0.6836,-0.0142,5.00,-0.37,3.48
273,382616984,-0.6343,-0.6821,-0.0093,4.63,-0.55,3.66
274,382621984,-0.6396,-0.6797,-0.0117,4.33,-0.67,3.84
275,382626984,-0.6401,-0.6821,-0.0156,4.15,-0.85,4.15
276,382631988,-0.6426,-0.6831,-0.0112,3.90,-0.79,4.27
277,382636984,-0.6455,-0.6909,-0.0098,3.72,-0.98,4.39
278,382641984,-0.6484,-0.6851,-0.0146,3.54,-1.10,4.63
279,382646983,-0.6538,-0.6899,-0.0166,3.29,-1.04,4.76
280,382651984,-0.6543,-0.6904,-0.0161,3.11,-0.98,4.88
281,382656984,-0.6567,-0.6924,-0.0181,3.05,-1.16,5.00
282,382661984,-0.6567,-0.6904,-0.0171,2.87,-1.16,5.12
283,382666984,-0.6655,-0.6914,-0.0171,2.99,-1.04,5.18
284,382671984,-0.6650,-0.6934,-0.0195,2.80,-1.04,5.18
285,382677030,-0.6650,-0.6929,-0.0215,2.80,-0.98,5.30
286,382682021,-0.6685,-0.6934,-0.0151,2.80,-0.79,5.49
287,382686985,-0.6704,-0.6987,-0.0205,2.80,-0.85,5.49
288,382691983,-0.6699,-0.6963,-0.0181,2.62,-0.55,5.61
289,382697547,-0.6704,-0.6968,-0.0190,2.50,-0.43,5.61
290,382701986,-0.6689,-0.6978,-0.0205,2.44,-0.24,5.55
291,382706982,-0.6743,-0.6982,-0.0132,2.38,-0.12,5.55
292,382711984,-0.6768,-0.6963,-0.0112,2.44,0.00,5.67
293,382716983,-0.6753,-0.6987,-0.0137,2.20,0.12,5.61
294,382721986,-0.6694,-0.6948,-0.0122,2.20,0.24,5.73
295,382726984,-0.6738,-0.6987,-0.0186,2.07,0.43,5.79
296,382731983,-0.6763,-0.6987,-0.0190,2.13,0.67,5.79
297,382736984,-0.6709,-0.6963,-0.0132,2.26,0.61,5.67
298,382742439,-0.6724,-0.6982,-0.0103,2.38,0.73,5.67
299,382746984,-0.6694,-0.6953,-0.0190,2.32,0.79,5.73
300,382751984,-0.6694,-0.6987,-0.0200,2.38,0.85,5.61
301,382756983,-0.6709,-0.6953,-0.0146,2.44,0.85,5.67
302,382761984,-0.6665,-0.6987,-0.0098,2.32,0.73,5.73
303,382767347,-0.6665,-0.7012,-0.0059,2.44,0.98,5.55
304,382771984,-0.6689,-0.6982,-0.0078,2.44,0.79,5.67
305,382776984,-0.6636,-0.6973,-0.0137,2.50,0.79,5.61
306,382781984,-0.6680,-0.7012,-0.0137,2.56,0.73,5.61
307,382786988,-0.6699,-0.6978,-0.0044,2.56,0.79,5.61
308,382791984,-0.6724,-0.7002,-0.0098,2.50,0.67,5.73
309,382796984,-0.6763,-0.7031,-0.0132,2.50,0.55,5.73
310,382801986,-0.6733,-0.6943,-0.0122,2.56,0.37,5.79
311,382807156,-0.6729,-0.7026,-0.0068,2.38,0.30,5.85
312,382811984,-0.6704,-0.7017,-0.0039,2.38,0.24,5.79
313,382816984,-0.6709,-0.7002,-0.0010,2.44,0.12,5.85
314,382821984,-0.6738,-0.7021,-0.0029,2.32,0.18,5.98
315,382827042,-0.6714,-0.7026,-0.0054,2.20,-0.18,6.10
316,382831984,-0.6763,-0.6992,-0.0010,2.20,-0.30,6.04
317,382836984,-0.6724,-0.6978,-0.0015,2.13,-0.43,6.16
318,382841983,-0.6748,-0.7012,-0.0073,2.07,-0.61,6.34
319,382846984,-0.6748,-0.7002,-0.0049,2.07,-0.55,6.22
320,382851982,-0.6777,-0.7026,-0.0063,1.95,-0.79,6.34
321,382857262,-0.6748,-0.7031,-0.0137,1.83,-1.10,6.46
322,382861984,-0.6777,-0.7051,-0.0054,1.83,-1.28,6.46
323,382866984,-0.6787,-0.7017,-0.0132,1.89,-1.52,6.59
324,382871984,-0.6807,-0.7031,-0.0112,1.89,-1.71,6.59
325,382876984,-0.6821,-0.7061,-0.0112,2.01,-1.83,6.71
326,382881984,-0.6768,-0.7036,-0.0098,2.20,-2.01,6.83
327,382886984,-0.6768,-0.7056,-0.0107,2.38,-2.44,6.77
328,382892311,-0.6782,-0.7095,-0.0078,2.56,-2.74,6.89
329,382896984,-0.6758,-0.7075,-0.0059,2.80,-2.87,7.01
330,382901983,-0.6758,-0.7051,-0.0015,2.80,-2.99,7.01
331,382906982,-0.6777,-0.7061,-0.0024,3.11,-3.23,7.01
332,382911986,-0.6802,-0.7095,-0.0039,3.29,-3.41,7.01
333,382916983,-0.6821,-0.7061,-0.0088,3.54,-3.78,7.01
334,382921982,-0.6787,-0.7075,0.0005,3.78,-3.90,7.07
335,382926983,-0.6768,-0.7061,-0.0088,3.90,-4.15,7.13
336,382931986,-0.6743,-0.7065,-0.0024,4.02,-4.39,7.07
337,382936983,-0.6777,-0.7036,-0.0049,4.09,-4.57,7.07
338,382941984,-0.6812,-0.7080,-0.0029,4.33,-4.82,7.07
339,382947468,-0.6816,-0.7031,-0.0015,4.57,-5.12,7.01
340,382951984,-0.6802,-0.7056,-0.0029,4.51,-5.37,7.01
341,382957098,-0.6836,-0.7075,-0.0020,4.63,-5.43,7.07
342,382961983,-0.6836,-0.7051,-0.0034,4.76,-5.67,7.01
343,382966986,-0.6870,-0.7046,-0.0117,4.94,-5.91,6.89
344,382971984,-0.6870,-0.7026,-0.0093,5.06,-6.10,6.83
345,382976984,-0.6836,-0.7026,-0.0024,5.18,-6.40,6.71
346,382981984,-0.6860,-0.7080,-0.0020,5.43,-6.71,6.71
347,382986983,-0.6875,-0.7065,-0.0059,5.55,-7.01,6.46
348,382991984,-0.6885,-0.7070,-0.0049,5.55,-7.13,6.46
349,382996984,-0.6875,-0.7041,-0.0142,5.73,-7.32,6.40
350,383002469,-0.6899,-0.7056,-0.0068,5.91,-7.62,6.22
351,383006984,-0.6899,-0.7051,-0.0151,6.10,-7.87,6.16
352,383011983,-0.6938,-0.7041,-0.0156,6.04,-8.05,6.04
353,383016983,-0.6963,-0.7036,-0.0200,6.04,-8.35,5.98
354,383021982,-0.6968,-0.7100,-0.0122,6.04,-8.48,5.79
355,383026982,-0.6973,-0.7070,-0.0151,5.91,-8.72,5.73
356,383031982,-0.6982,-0.7080,-0.0151,5.79,-8.90,5.73
357,383036982,-0.6987,-0.7090,-0.0137,5.61,-9.02,5.67
358,383041984,-0.7007,-0.7085,-0.0142,5.37,-9.21,5.55
359,383046985,-0.6982,-0.7065,-0.0190,5.12,-9.39,5.43
360,383051984,-0.7021,-0.7144,-0.0093,4.82,-9.45,5.49
361,383056984,-0.6958,-0.7119,-0.0176,4.33,-9.45,5.37
362,383062026,-0.6992,-0.7090,-0.0200,3.96,-9.33,5.55
363,383066984,-0.6982,-0.7085,-0.0137,3.72,-9.51,5.55
364,383071984,-0.6973,-0.7095,-0.0186,3.48,-9.45,5.55
365,383076983,-0.6943,-0.7119,-0.0161,3.11,-9.57,5.55
366,383081985,-0.6929,-0.7129,-0.0122,2.93,-9.57,5.61
367,383086983,-0.6914,-0.7100,-0.0195,2.74,-9.45,5.67
368,383091984,-0.6885,-0.7139,-0.0142,2.56,-9.51,5.61
369,383096983,-0.6895,-0.7104,-0.0142,2.50,-9.33,5.79
370,383101984,-0.6826,-0.7148,-0.0137,2.38,-9.39,5.73
371,383106984,-0.6816,-0.7124,-0.0166,2.13,-9.33,5.85
372,383111984,-0.6826,-0.7148,-0.0142,2.13,-9.15,5.79
373,383116987,-0.6792,-0.7144,-0.0176,2.07,-9.02,5.91
374,383121984,-0.6812,-0.7144,-0.0176,2.01,-8.96,5.91
375,383126984,-0.6821,-0.7168,-0.0181,1.95,-8.96,5.91
376,383131983,-0.6797,-0.7188,-0.0166,2.07,-8.60,5.91
377,383136986,-0.6812,-0.7163,-0.0186,2.01,-8.54,5.91
378,383141982,-0.6812,-0.7168,-0.0142,2.07,-8.35,6.10
379,383146986,-0.6782,-0.7158,-0.0137,2.20,-8.23,6.04
380,383151984,-0.6743,-0.7158,-0.0103,2.44,-8.05,6.10
381,383156984,-0.6748,-0.7178,-0.0132,2.62,-7.80,6.28
382,383161984,-0.6738,-0.7192,-0.0142,3.05,-7.68,6.22
383,383166984,-0.6768,-0.7153,-0.0151,3.54,-7.32,6.16
384,383171988,-0.6782,-0.7134,-0.0190,4.21,-7.07,6.04
385,383176984,-0.6792,-0.7163,-0.0161,4.51,-6.83,6.04
386,383181984,-0.6797,-0.7158,-0.0151,5.37,-6.52,5.79
387,383186986,-0.6802,-0.7173,-0.0205,5.91,-6.40,5.73
388,383191984,-0.6841,-0.7158,-0.0137,6.83,-6.22,5.61
389,383196987,-0.6816,-0.7144,-0.0146,7.50,-5.85,5.30
390,383201984,-0.6860,-0.7168,-0.0103,8.23,-5.73,5.24
391,383206984,-0.6885,-0.7144,-0.0161,8.66,-5.43,5.00
392,383211984,-0.6797,-0.7134,-0.0127,9.39,-5.12,4.82
393,383216983,-0.6836,-0.7148,-0.0137,10.00,-4.94,4.57
394,383221985,-0.6836,-0.7100,-0.0151,10.49,-4.88,4.21
395,383226984,-0.6855,-0.7085,-0.0107,11.04,-4.39,3.90
396,383231984,-0.6875,-0.7085,-0.0098,11.40,-4.21,3.66
397,383236984,-0.6846,-0.7031,-0.0181,11.71,-4.09,3.29
398,383241984,-0.6909,-0.7017,-0.0210,11.89,-4.09,2.93
399,383246984,-0.6890,-0.7051,-0.0132,12.13,-3.90,2.62
400,383251983,-0.6899,-0.6997,-0.0103,12.07,-3.84,2.20
401,383256986,-0.6870,-0.7017,-0.0161,11.83,-3.72,1.89
402,383261983,-0.6880,-0.6953,-0.0151,11.52,-3.66,1.40
403,383266984,-0.6846,-0.6968,-0.0117,10.98,-3.41,1.10
404,383271984,-0.6846,-0.6948,-0.0171,10.06,-3.23,0.67
405,383276984,-0.6836,-0.6895,-0.0156,9.33,-3.23,0.43
406,383281984,-0.6831,-0.6899,-0.0127,8.17,-3.17,-0.12
407,383286984,-0.6782,-0.6880,-0.0186,7.07,-3.11,-0.49
408,383291984,-0.6802,-0.6885,-0.0093,5.79,-2.99,-0.85
409,383296985,-0.6807,-0.6875,-0.0088,4.45,-2.80,-1.22
410,383301984,-0.6851,-0.6909,-0.0112,3.05,-2.74,-1.52
411,383306983,-0.6841,-0.6841,-0.0146,1.71,-2.56,-1.77
412,383311982,-0.6865,-0.6851,-0.0098,0.43,-2.44,-2.13
413,383316984,-0.6880,-0.6846,-0.0142,-0.91,-2.32,-2.56
414,383321984,-0.6899,-0.6851,-0.0132,-2.13,-2.20,-2.68
415,383326984,-0.6904,-0.6860,-0.0063,-3.35,-2.01,-2.80
416,383331984,-0.6914,-0.6846,-0.0112,-4.39,-1.83,-2.99
417,383336985,-0.6885,-0.6846,-0.0063,-5.24,-1.77,-3.11
418,383341984,-0.6885,-0.6899,-0.0063,-6.10,-1.59,-3.23
419,383346984,-0.6885,-0.6860,-0.0122,-6.52,-1.46,-3.35
420,383351984,-0.6909,-0.6890,-0.0107,-7.07,-1.34,-3.41
421,383356984,-0.6909,-0.6870,-0.0161,-7.26,-1.04,-3.29
422,383361984,-0.6875,-0.6895,-0.0098,-7.26,-1.10,-3.54
423,383366984,-0.6880,-0.6821,-0.0156,-7.38,-0.85,-3.41
424,383371984,-0.6875,-0.6855,-0.0122,-7.20,-0.73,-3.48
425,383376984,-0.6909,-0.6851,-0.0107,-6.95,-0.67,-3.35
426,383381984,-0.6855,-0.6870,-0.0151,-6.40,-0.73,-3.29
427,383386984,-0.6875,-0.6836,-0.0171,-5.98,-0.61,-3.23
428,383391984,-0.6890,-0.6860,-0.0127,-5.37,-0.55,-3.11
429,383396984,-0.6904,-0.6846,-0.0083,-4.63,-0.43,-2.99
430,383401984,-0.6846,-0.6870,-0.0132,-4.02,-0.43,-2.93
431,383406984,-0.6826,-0.6836,-0.0103,-3.29,-0.55,-2.68
432,383411984,-0.6816,-0.6841,-0.0127,-2.56,-0.61,-2.50
433,383416984,-0.6836,-0.6841,-0.0156,-1.83,-0.55,-2.32
434,383421984,-0.6899,-0.6821,-0.0205,-1.10,-0.67,-2.13
435,383426984,-0.6875,-0.6797,-0.0107,-0.67,-0.67,-1.77
436,383431984,-0.6890,-0.6802,-0.0078,0.18,-0.49,-1.65
437,383436984,-0.6880,-0.6812,-0.0122,0.55,-0.67,-1.40
438,383441986,-0.6885,-0.6768,-0.0073,1.22,-0.49,-1.04
439,383446983,-0.6831,-0.6792,-0.0039,1.71,-0.55,-0.91
440,383451984,-0.6855,-0.6802,-0.0107,2.13,-0.61,-0.55
441,383456984,-0.6870,-0.6777,-0.0122,2.44,-0.43,-0.30
442,383461984,-0.6865,-0.6738,-0.0093,2.87,-0.49,-0.12
443,383466984,-0.6836,-0.6758,-0.0117,3.05,-0.67,0.12
444,383471983,-0.6870,-0.6807,-0.0146,3.05,-0.55,0.43
445,383476984,-0.6860,-0.6782,-0.0146,3.11,-0.49,0.73
446,383481984,-0.6812,-0.6772,-0.0107,3.05,-0.49,0.91
447,383486983,-0.6841,-0.6753,-0.0083,2.99,-0.49,1.22
448,383491986,-0.6826,-0.6763,-0.0112,2.93,-0.49,1.40
449,383497265,-0.6846,-0.6748,-0.0176,2.68,-0.43,1.71
450,383501984,-0.6826,-0.6724,-0.0098,2.50,-0.55,1.95
451,383506984,-0.6802,-0.6719,-0.0122,2.50,-0.55,2.26
452,383511984,-0.6802,-0.6758,-0.0146,2.32,-0.37,2.44
453,383516983,-0.6836,-0.6743,-0.0156,2.26,-0.24,2.62
454,383521984,-0.6836,-0.6753,-0.0117,2.13,-0.30,2.87
455,383526984,-0.6826,-0.6777,-0.0093,1.95,-0.18,3.11
456,383531985,-0.6851,-0.6768,-0.0103,1.89,-0.24,3.29
457,383536984,-0.6841,-0.6758,-0.0098,1.83,-0.06,3.41
458,383541986,-0.6797,-0.6787,-0.0063,1.83,0.00,3.60
459,383546984,-0.6836,-0.6743,-0.0098,1.83,0.18,3.84
460,383551983,-0.6865,-0.6748,-0.0083,2.07,0.37,3.96
461,383556982,-0.6855,-0.6821,-0.0088,2.13,0.61,4.15
462,383561984,-0.6885,-0.6777,-0.0171,2.13,0.55,4.15
463,383566982,-0.6870,-0.6792,-0.0181,2.38,0.67,4.39
464,383571983,-0.6880,-0.6792,-0.0088,2.44,0.98,4.51
465,383577001,-0.6870,-0.6807,-0.0093,2.62,1.04,4.63
466,383581982,-0.6904,-0.6826,-0.0107,2.80,1.22,4.70
467,383586984,-0.6890,-0.6812,-0.0063,3.11,1.40,4.82
468,383591984,-0.6924,-0.6826,-0.0107,3.29,1.65,4.88
469,383596984,-0.6934,-0.6802,-0.0132,3.41,1.65,4.88
470,383601983,-0.6890,-0.6846,-0.0137,3.60,1.95,4.88
471,383606984,-0.6875,-0.6831,-0.0093,3.66,2.13,4.94
472,383611982,-0.6880,-0.6841,-0.0093,3.84,2.20,5.00
473,383616982,-0.6899,-0.6860,-0.0117,3.78,2.44,5.06
474,383621982,-0.6875,-0.6841,-0.0088,3.90,2.50,5.12
475,383626982,-0.6909,-0.6826,-0.0059,3.96,2.74,5.12
476,383631983,-0.6860,-0.6816,-0.0088,3.90,2.80,5.12
477,383636984,-0.6938,-0.6860,0.0020,3.90,2.99,5.18
478,383642218,-0.6909,-0.6865,-0.0098,3.90,3.05,5.18
479,383646985,-0.6899,-0.6855,-0.0015,3.84,3.17,5.12
480,383651984,-0.6929,-0.6851,-0.0088,3.96,3.29,5.24
481,383657299,-0.6904,-0.6870,-0.0068,4.02,3.35,5.12
482,383661984,-0.6890,-0.6851,-0.0088,4.02,3.29,5.18
483,383666984,-0.6914,-0.6846,-0.0044,4.09,3.54,5.12
484,383671983,-0.6899,-0.6831,-0.0024,4.09,3.54,5.06
485,383677408,-0.6919,-0.6821,-0.0005,4.15,3.60,4.94
486,383681984,-0.6929,-0.6831,-0.0020,4.02,3.60,4.94
487,383686984,-0.6968,-0.6826,-0.0005,3.96,3.66,4.88
488,383691984,-0.7007,-0.6846,0.0000,3.78,3.78,4.88
489,383696984,-0.6982,-0.6846,-0.0005,3.66,3.78,4.82
490,383701984,-0.6978,-0.6821,0.0049,3.35,3.90,4.82
491,383706984,-0.6953,-0.6880,0.0005,3.17,3.90,4.63
492,383711983,-0.6968,-0.6851,0.0029,2.93,3.72,4.70
493,383716984,-0.6968,-0.6895,0.0034,2.74,3.66,4.63
494,383721984,-0.6929,-0.6841,-0.0010,2.44,3.66,4.70
495,383726983,-0.6953,-0.6890,0.0068,2.26,3.48,4.76
496,383731984,-0.6924,-0.6880,0.0010,2.07,3.60,4.76
497,383736983,-0.6924,-0.6865,0.0049,2.01,3.48,4.70
498,383741984,-0.6934,-0.6870,0.0063,1.83,3.35,4.63
499,383746984,-0.6943,-0.6895,0.0054,1.89,3.17,4.57
500,383751985,-0.6929,-0.6875,0.0049,2.07,3.11,4.63
501,383756984,-0.6934,-0.6880,0.0068,2.01,2.93,4.57
502,383761983,-0.6953,-0.6851,0.0068,2.26,2.87,4.63
503,383766984,-0.6948,-0.6885,0.0127,2.38,2.62,4.51
504,383771983,-0.6948,-0.6895,0.0078,2.44,2.56,4.45
505,383776984,-0.6934,-0.6909,0.0137,2.56,2.56,4.51
506,383781983,-0.6982,-0.6875,0.0083,2.62,2.26,4.33
507,383786986,-0.6973,-0.6895,0.0083,2.87,2.20,4.39
508,383791984,-0.6992,-0.6885,0.0044,2.74,2.07,4.39
509,383796984,-0.6982,-0.6885,0.0122,2.93,1.83,4.39
510,383801984,-0.6997,-0.6914,0.0049,2.80,1.71,4.33
511,383806984,-0.7007,-0.6919,0.0068,2.68,1.52,4.21
512,383812542,-0.7031,-0.6895,0.0068,2.62,1.40,4.21
513,383816985,-0.7056,-0.6934,0.0049,2.56,1.28,4.27
514,383821984,-0.7031,-0.6958,0.0039,2.50,1.10,4.33
515,383826984,-0.7002,-0.6909,0.0093,2.38,1.04,4.27
516,383831984,-0.7036,-0.6924,0.0112,2.38,0.73,4.27
517,383836984,-0.7026,-0.6885,0.0093,2.44,0.61,4.33
518,383841984,-0.6992,-0.6909,0.0029,2.56,0.43,4.27
519,383846984,-0.6953,-0.6880,0.0093,2.74,0.18,4.27
520,383851985,-0.6982,-0.6899,0.0049,2.87,0.06,4.21
521,383856984,-0.6987,-0.6875,0.0015,3.23,-0.24,4.21
522,383861984,-0.7017,-0.6890,0.0088,3.48,-0.55,4.21
523,383866984,-0.7021,-0.6855,0.0083,3.72,-0.79,4.09
524,383871983,-0.7031,-0.6895,-0.0010,3.90,-0.98,3.96
525,383876984,-0.7026,-0.6929,-0.0010,4.02,-1.10,3.84
526,383881985,-0.7036,-0.6924,0.0015,4.02,-1.34,3.90
527,383886984,-0.7021,-0.6934,0.0024,3.90,-1.40,3.84
528,383891984,-0.7075,-0.6934,0.0063,3.78,-1.46,3.78
529,383896983,-0.7080,-0.6938,0.0068,3.66,-1.65,3.72
530,383901984,-0.7065,-0.6890,0.0000,3.41,-1.59,3.54
531,383906985,-0.7153,-0.6909,0.0059,3.23,-1.52,3.48
532,383911982,-0.7095,-0.6890,-0.0034,2.80,-1.65,3.48
533,383916982,-0.7085,-0.6929,0.0083,2.44,-1.65,3.41
534,383921982,-0.7100,-0.6895,0.0020,2.07,-1.65,3.41
535,383926983,-0.7104,-0.6914,0.0044,1.59,-1.83,3.35
536,383931982,-0.7075,-0.6904,0.0088,1.22,-1.52,3.35
537,383936984,-0.7046,-0.6924,0.0059,0.91,-1.52,3.23
538,383941983,-0.7056,-0.6938,0.0000,0.43,-1.52,3.23
539,383946984,-0.7041,-0.6919,-0.0044,0.12,-1.52,3.11
540,383951984,-0.6987,-0.6938,0.0000,-0.30,-1.46,3.11
541,383956986,-0.6948,-0.6929,0.0000,-0.43,-1.52,3.23
542,383961984,-0.6958,-0.6948,0.0088,-0.67,-1.46,3.05
543,383967440,-0.6973,-0.6958,0.0063,-0.73,-1.46,3.05
544,383971984,-0.6978,-0.6953,0.0010,-0.85,-1.40,3.05
545,383976983,-0.6992,-0.6934,0.0034,-0.91,-1.46,2.93
546,383981984,-0.6992,-0.6943,0.0000,-0.73,-1.40,2.87
547,383986986,-0.6987,-0.6968,0.0088,-0.55,-1.34,2.87
548,383991984,-0.6982,-0.6948,0.0029,-0.37,-1.34,2.80
549,383996984,-0.6963,-0.6934,0.0010,-0.12,-1.34,2.74
550,384001984,-0.6997,-0.6978,0.0044,0.43,-1.16,2.68
551,384006984,-0.7002,-0.6963,0.0054,0.91,-1.10,2.68
552,384011984,-0.7031,-0.6982,0.0073,1.46,-1.04,2.56
553,384016983,-0.7041,-0.6992,0.0088,2.07,-0.98,2.44
554,384021984,-0.7061,-0.6968,0.0083,2.56,-1.04,2.38
555,384026984,-0.7026,-0.6948,0.0049,3.23,-0.85,2.26
556,384031984,-0.7056,-0.6978,0.0107,3.96,-1.04,2.20
557,384036985,-0.7090,-0.6958,0.0039,4.39,-1.04,2.07
558,384041985,-0.7070,-0.6929,-0.0034,5.06,-0.91,2.01
559,384046984,-0.7031,-0.6953,0.0049,5.49,-0.98,2.01
560,384051984,-0.7041,-0.6909,-0.0020,5.85,-1.28,2.01
561,384056985,-0.7075,-0.6929,0.0059,6.16,-1.34,1.83
562,384061984,-0.7026,-0.6938,0.0059,6.40,-1.34,1.77
563,384066983,-0.7031,-0.6943,0.0049,6.52,-1.59,1.71
564,384071984,-0.7065,-0.6885,-0.0015,6.59,-1.83,1.65
565,384076984,-0.7036,-0.6860,0.0034,6.34,-1.95,1.71
566,384081984,-0.7046,-0.6865,0.0039,6.10,-2.01,1.59
567,384086984,-0.7007,-0.6895,0.0039,5.79,-2.44,1.65
568,384091984,-0.6973,-0.6846,0.0034,5.30,-2.56,1.59
569,384096986,-0.6997,-0.6904,0.0024,4.76,-2.74,1.59
570,384101984,-0.7012,-0.6860,0.0039,4.21,-2.99,1.52
571,384106984,-0.7012,-0.6841,0.0010,3.72,-3.23,1.46
572,384111984,-0.6963,-0.6860,0.0034,3.05,-3.35,1.40
573,384116986,-0.6968,-0.6826,0.0044,2.68,-3.54,1.40
574,384121984,-0.6953,-0.6826,0.0000,2.20,-3.78,1.28
575,384126984,-0.6968,-0.6782,0.0083,1.71,-3.78,1.22
576,384131984,-0.6982,-0.6807,0.0005,1.28,-3.84,1.22
577,384136984,-0.6997,-0.6807,0.0000,0.98,-4.21,1.16
578,384141984,-0.6992,-0.6821,0.0024,0.67,-4.45,1.04
579,384146985,-0.6943,-0.6797,0.0054,0.24,-4.27,0.91
580,384151984,-0.7007,-0.6787,0.0010,0.06,-4.45,0.91
581,384156986,-0.6982,-0.6807,-0.0024,-0.12,-4.70,0.85
582,384161984,-0.6968,-0.6821,-0.0054,-0.18,-4.70,0.91
583,384166984,-0.6973,-0.6792,-0.0049,-0.49,-4.88,0.73
584,384171984,-0.6997,-0.6792,-0.0005,-0.49,-5.00,0.73
585,384176984,-0.6997,-0.6807,0.0000,-0.55,-5.06,0.79
586,384181983,-0.6968,-0.6772,0.0005,-0.67,-5.12,0.61
587,384186986,-0.6963,-0.6797,0.0029,-0.73,-5.12,0.61
588,384191982,-0.6963,-0.6812,-0.0034,-0.67,-5.12,0.55
589,384196987,-0.7007,-0.6802,-0.0039,-0.49,-5.12,0.61
590,384201984,-0.6992,-0.6821,-0.0010,-0.43,-5.06,0.67
591,384206984,-0.6987,-0.6816,-0.0098,-0.37,-5.18,0.55
592,384211983,-0.6982,-0.6797,-0.0073,-0.12,-5.00,0.55
593,384216982,-0.6963,-0.6772,-0.0059,0.00,-5.06,0.43
594,384221982,-0.6997,-0.6763,-0.0054,0.12,-5.18,0.43
595,384226986,-0.6997,-0.6763,-0.0098,0.37,-5.06,0.55
596,384231983,-0.6982,-0.6748,-0.0083,0.61,-4.94,0.49
597,384236983,-0.6978,-0.6772,-0.0068,0.73,-4.88,0.43
598,384241984,-0.7021,-0.6738,-0.0132,0.85,-4.70,0.43
599,384246984,-0.7041,-0.6763,-0.0034,0.98,-4.51,0.49
600,384252317,-0.6982,-0.6758,-0.0054,1.04,-4.33,0.49
601,384256985,-0.6958,-0.6748,-0.0049,1.04,-4.45,0.55
602,384261984,-0.6938,-0.6733,-0.0015,1.10,-4.33,0.49
603,384266984,-0.6958,-0.6738,-0.0103,1.04,-4.21,0.55
604,384271984,-0.6968,-0.6738,-0.0005,0.85,-4.15,0.61
605,384276984,-0.6953,-0.6738,-0.0088,0.79,-4.02,0.73
606,384281983,-0.6909,-0.6719,-0.0054,0.73,-3.96,0.85
607,384286984,-0.6890,-0.6704,-0.0083,0.49,-4.02,0.98
608,384291982,-0.6870,-0.6719,-0.0063,0.43,-4.02,1.16
609,384296984,-0.6904,-0.6738,-0.0059,0.24,-3.84,1.22
610,384301986,-0.6860,-0.6729,-0.0137,0.12,-3.84,1.22
611,384306984,-0.6895,-0.6704,-0.0122,0.24,-3.84,1.46
612,384311984,-0.6904,-0.6738,-0.0088,0.18,-3.78,1.59
613,384317043,-0.6934,-0.6738,-0.0107,0.06,-3.66,1.83
614,384322317,-0.6929,-0.6724,-0.0107,0.18,-3.72,1.89
615,384326986,-0.6890,-0.6694,-0.0093,0.18,-3.66,2.01
616,384331984,-0.6904,-0.6724,-0.0049,0.24,-3.60,2.26
617,384336984,-0.6885,-0.6689,-0.0078,0.43,-3.60,2.26
618,384341984,-0.6963,-0.6704,-0.0103,0.73,-3.60,2.56
619,384346984,-0.6938,-0.6680,-0.0176,1.04,-3.54,2.74
620,384351985,-0.6934,-0.6704,-0.0078,1.22,-3.54,2.80
621,384356984,-0.6968,-0.6719,-0.0171,1.52,-3.35,2.87
622,384361985,-0.6978,-0.6694,-0.0151,1.89,-3.41,3.11
623,384366984,-0.6982,-0.6680,-0.0098,2.38,-3.29,3.23
624,384371984,-0.6938,-0.6714,-0.0122,2.62,-3.41,3.35
625,384376984,-0.6958,-0.6694,-0.0166,2.93,-3.48,3.41
626,384381983,-0.6987,-0.6714,-0.0117,3.11,-3.41,3.54
627,384387598,-0.7002,-0.6675,-0.0215,3.41,-3.41,3.54
628,384391984,-0.7017,-0.6689,-0.0161,3.84,-3.41,3.66
629,384396984,-0.6943,-0.6709,-0.0190,4.09,-3.48,3.90
630,384402034,-0.6982,-0.6699,-0.0200,4.27,-3.48,3.72
631,384406983,-0.6997,-0.6626,-0.0210,4.57,-3.41,3.90
632,384411984,-0.6987,-0.6655,-0.0190,4.94,-3.35,3.90
633,384416984,-0.7056,-0.6641,-0.0244,5.18,-3.48,4.02
634,384421983,-0.7056,-0.6631,-0.0244,5.30,-3.54,3.72
635,384426984,-0.7104,-0.6582,-0.0229,5.43,-3.54,3.60
636,384431983,-0.7051,-0.6626,-0.0215,5.43,-3.60,3.48
637,384436984,-0.7104,-0.6592,-0.0308,5.49,-3.60,3.54
638,384441984,-0.7119,-0.6587,-0.0278,5.37,-3.48,3.35
639,384446984,-0.7100,-0.6636,-0.0273,5.06,-3.60,3.29
640,384451984,-0.7100,-0.6602,-0.0308,4.57,-3.48,3.17
641,384456983,-0.7026,-0.6621,-0.0327,3.84,-3.41,3.05
642,384461986,-0.7051,-0.6572,-0.0210,3.05,-3.41,2.87
643,384466984,-0.7070,-0.6572,-0.0210,2.20,-3.05,2.68
644,384471984,-0.7065,-0.6567,-0.0249,1.04,-2.80,2.32
645,384476984,-0.7041,-0.6582,-0.0225,-0.12,-2.50,2.32
646,384481988,-0.7046,-0.6606,-0.0264,-1.34,-2.20,2.20
647,384486984,-0.6987,-0.6621,-0.0195,-2.50,-1.77,2.01
648,384491984,-0.6997,-0.6597,-0.0195,-3.96,-1.28,1.89
649,384496984,-0.7002,-0.6616,-0.0156,-5.30,-0.79,1.83
650,384501985,-0.6978,-0.6606,-0.0161,-6.77,-0.18,1.59
651,384506984,-0.6953,-0.6602,-0.0166,-7.99,0.18,1.59
652,384511983,-0.6924,-0.6646,-0.0137,-9.33,0.79,1.46
653,384516982,-0.6948,-0.6685,-0.0127,-10.49,1.40,1.59
654,384521982,-0.6914,-0.6670,-0.0073,-11.52,1.89,1.65
655,384526982,-0.6924,-0.6709,-0.0068,-12.56,2.44,1.77
656,384531984,-0.6899,-0.6743,-0.0098,-13.23,2.93,1.83
657,384536983,-0.6846,-0.6768,-0.0103,-13.54,3.48,2.07
658,384541984,-0.6914,-0.6821,-0.0083,-13.72,4.02,2.44
659,384546984,-0.6890,-0.6826,-0.0039,-13.72,4.39,2.62
660,384551984,-0.6924,-0.6865,-0.0010,-13.29,4.82,3.05
661,384556984,-0.6904,-0.6855,-0.0029,-12.62,5.18,3.35
662,384561984,-0.6929,-0.6880,-0.0044,-11.71,5.37,3.72
663,384566986,-0.6934,-0.6870,-0.0034,-10.30,5.61,4.21
664,384571984,-0.6934,-0.6855,-0.0010,-8.54,5.73,4.63
665,384576984,-0.6958,-0.6895,-0.0044,-6.52,5.85,5.06
666,384581983,-0.6978,-0.6851,-0.0034,-4.27,5.79,5.49
667,384586982,-0.6978,-0.6895,-0.0005,-1.83,5.67,5.91
668,384592044,-0.6978,-0.6870,-0.0073,0.67,5.55,6.34
669,384596984,-0.7026,-0.6865,-0.0098,3.29,5.30,6.59
670,384601984,-0.6968,-0.6875,-0.0073,5.85,5.12,7.07
671,384606984,-0.6943,-0.6846,-0.0029,8.29,4.76,7.50
672,384611983,-0.6963,-0.6831,-0.0005,10.55,4.33,7.99
673,384616984,-0.6958,-0.6831,-0.0005,12.68,3.90,8.41
674,384621984,-0.6958,-0.6846,0.0029,14.45,3.54,8.78
675,384626984,-0.6968,-0.6812,0.0000,15.73,3.11,8.96
676,384631984,-0.6978,-0.6816,0.0000,17.13,2.62,9.33
677,384636984,-0.7031,-0.6816,-0.0024,17.87,1.95,9.57
678,384641984,-0.6968,-0.6802,-0.0024,18.54,1.46,9.94
679,384646984,-0.6997,-0.6797,-0.0029,18.78,1.10,10.18
680,384652229,-0.7026,-0.6787,-0.0063,18.90,0.43,10.37
681,384656984,-0.7002,-0.6792,0.0034,18.72,0.00,10.55
682,384662106,-0.7002,-0.6763,-0.0063,18.23,-0.61,10.79
683,384666985,-0.7031,-0.6758,-0.0044,17.56,-1.04,10.91
684,384671984,-0.7012,-0.6699,0.0020,16.77,-1.65,10.85
685,384676983,-0.6978,-0.6699,0.0000,15.85,-2.07,10.85
686,384681984,-0.7041,-0.6709,0.0029,14.94,-2.50,10.85
687,384686984,-0.7046,-0.6704,-0.0010,13.72,-2.87,10.85
688,384691984,-0.7075,-0.6665,-0.0034,12.56,-3.35,10.85
689,384696983,-0.7070,-0.6704,-0.0039,11.59,-3.60,10.67
690,384701986,-0.7065,-0.6680,-0.0039,10.24,-3.96,10.49
691,384706984,-0.7051,-0.6689,0.0000,9.15,-4.27,10.30
692,384711984,-0.7061,-0.6724,-0.0039,7.99,-4.51,10.18
693,384716984,-0.7114,-0.6704,-0.0044,6.89,-4.76,9.88
694,384721984,-0.7095,-0.6729,-0.0117,5.91,-5.12,9.51
695,384726986,-0.7139,-0.6689,-0.0073,5.12,-5.30,9.27
696,384731984,-0.7168,-0.6729,-0.0063,4.27,-5.43,8.90
697,384736984,-0.7168,-0.6724,-0.0146,3.60,-5.73,8.54
698,384741984,-0.7134,-0.6753,-0.0093,2.93,-5.79,8.23
699,384747064,-0.7153,-0.6719,-0.0059,2.44,-5.91,8.05
700,384751983,-0.7153,-0.6763,-0.0029,1.71,-5.85,7.62
701,384756984,-0.7114,-0.6772,-0.0029,1.28,-5.98,7.44
702,384761985,-0.7100,-0.6782,-0.0127,0.98,-6.16,6.95
703,384766984,-0.7104,-0.6768,-0.0156,0.55,-5.85,6.59
704,384771986,-0.7124,-0.6719,-0.0093,0.18,-5.85,6.28
705,384776984,-0.7090,-0.6733,-0.0098,-0.18,-6.04,5.91
706,384781984,-0.7139,-0.6753,-0.0132,-0.43,-5.85,5.67
707,384786984,-0.7065,-0.6753,-0.0146,-0.79,-5.79,5.30
708,384791984,-0.7095,-0.6748,-0.0122,-1.16,-5.61,5.06
709,384797319,-0.7153,-0.6733,-0.0146,-1.52,-5.43,4.63
710,384801984,-0.7104,-0.6792,-0.0176,-1.83,-5.30,4.39
711,384806984,-0.7114,-0.6821,-0.0151,-2.07,-5.18,4.15
712,384811983,-0.7109,-0.6777,-0.0176,-2.38,-4.94,3.96
713,384816982,-0.7114,-0.6816,-0.0225,-2.62,-4.63,3.78
714,384821982,-0.7085,-0.6753,-0.0176,-2.93,-4.45,3.60
715,384826982,-0.7153,-0.6797,-0.0181,-3.17,-4.27,3.48
716,384831982,-0.7188,-0.6812,-0.0146,-3.41,-4.21,3.35
717,384836982,-0.7163,-0.6836,-0.0195,-3.54,-3.84,3.23
718,384841984,-0.7163,-0.6816,-0.0210,-3.72,-3.48,3.29
719,384846982,-0.7168,-0.6855,-0.0225,-3.60,-3.23,3.17
720,384851982,-0.7158,-0.6807,-0.0181,-3.66,-2.99,3.17
721,384856984,-0.7178,-0.6860,-0.0220,-3.54,-2.68,3.29
722,384861984,-0.7197,-0.6865,-0.0239,-3.23,-2.38,3.11
723,384866984,-0.7178,-0.6841,-0.0249,-2.93,-2.01,3.05
724,384871982,-0.7222,-0.6836,-0.0190,-2.56,-1.59,3.11
725,384876984,-0.7222,-0.6855,-0.0220,-2.26,-1.59,3.05
726,384881984,-0.7222,-0.6875,-0.0181,-1.77,-0.98,3.05
727,384886984,-0.7241,-0.6885,-0.0210,-1.28,-0.85,3.17
728,384892361,-0.7246,-0.6875,-0.0181,-0.73,-0.43,3.23
729,384896984,-0.7231,-0.6870,-0.0264,-0.24,-0.24,3.41
730,384901983,-0.7256,-0.6914,-0.0220,0.18,-0.12,3.54
731,384906984,-0.7241,-0.6929,-0.0220,0.79,0.06,3.48
732,384911982,-0.7236,-0.6895,-0.0215,1.28,0.37,3.78
733,384916984,-0.7212,-0.6924,-0.0259,1.95,0.67,3.78
734,384921986,-0.7231,-0.6875,-0.0215,2.74,0.73,3.96
735,384927358,-0.7227,-0.6909,-0.0161,3.41,1.04,4.09
736,384931984,-0.7207,-0.6885,-0.0142,4.09,1.10,4.09
737,384936984,-0.7163,-0.6860,-0.0161,4.76,1.16,4.15
738,384941986,-0.7148,-0.6855,-0.0117,5.67,1.28,4.21
739,384946984,-0.7144,-0.6855,-0.0166,6.22,1.40,4.27
740,384951984,-0.7114,-0.6812,-0.0132,6.95,1.46,4.21
741,384957256,-0.7129,-0.6821,-0.0107,7.50,1.65,4.21
742,384961984,-0.7095,-0.6836,-0.0137,7.80,1.65,4.09
743,384966984,-0.7075,-0.6812,-0.0151,8.29,1.59,4.15
744,384971984,-0.7051,-0.6797,-0.0176,8.48,1.77,3.90
745,384976986,-0.7036,-0.6777,-0.0127,8.66,1.77,3.72
746,384981984,-0.7051,-0.6777,-0.0112,8.66,1.65,3.48
747,384986984,-0.7085,-0.6758,-0.0132,8.35,1.65,3.35
748,384991984,-0.7139,-0.6787,-0.0107,8.23,1.65,3.17
749,384996984,-0.7080,-0.6724,-0.0103,7.74,1.59,2.99
750,385001988,-0.7129,-0.6782,-0.0059,7.38,1.40,2.80
751,385007318,-0.7139,-0.6768,-0.0117,6.71,1.40,2.50
752,385011984,-0.7173,-0.6729,-0.0073,6.16,1.28,2.26
753,385016985,-0.7163,-0.6743,-0.0146,5.49,1.22,2.01
754,385022275,-0.7188,-0.6714,-0.0083,4.57,1.16,1.71
755,385026984,-0.7188,-0.6719,-0.0083,4.15,0.98,1.46
756,385031984,-0.7217,-0.6714,-0.0132,3.54,1.04,1.16
757,385036984,-0.7227,-0.6733,-0.0093,2.87,1.10,0.85
758,385041984,-0.7183,-0.6704,-0.0093,2.38,0.98,0.61
759,385046984,-0.7183,-0.6685,-0.0117,1.77,0.85,0.24
760,385051984,-0.7236,-0.6650,-0.0068,1.22,0.73,0.00
761,385056984,-0.7231,-0.6626,-0.0049,0.85,0.73,-0.30
762,385061984,-0.7207,-0.6655,-0.0044,0.37,0.67,-0.67
763,385066985,-0.7246,-0.6641,-0.0137,-0.12,0.43,-0.91
764,385071984,-0.7192,-0.6597,-0.0049,-0.43,0.30,-1.16
765,385076984,-0.7168,-0.6597,-0.0088,-0.85,0.37,-1.40
766,385081986,-0.7124,-0.6631,-0.0137,-1.16,0.24,-1.71
767,385086984,-0.7158,-0.6606,-0.0117,-1.65,0.00,-1.95
768,385091984,-0.7109,-0.6567,-0.0073,-2.01,-0.18,-2.07
769,385096984,-0.7119,-0.6592,-0.0054,-2.44,-0.24,-2.44
770,385101983,-0.7114,-0.6543,-0.0083,-2.80,-0.43,-2.50
771,385106984,-0.7134,-0.6572,-0.0049,-3.29,-0.67,-2.56
772,385111984,-0.7129,-0.6567,-0.0098,-3.60,-0.55,-2.68
773,385116986,-0.7114,-0.6572,-0.0132,-4.02,-0.73,-2.87
774,385121984,-0.7095,-0.6572,-0.0181,-4.27,-0.85,-2.93
775,385126983,-0.7134,-0.6553,-0.0073,-4.45,-0.98,-3.05
776,385131983,-0.7109,-0.6553,-0.0059,-4.76,-0.85,-3.05
777,385136984,-0.7129,-0.6543,-0.0083,-4.82,-1.04,-3.05
778,385141984,-0.7104,-0.6514,-0.0107,-4.88,-1.22,-3.05
779,385146984,-0.7080,-0.6543,-0.0151,-4.94,-1.16,-3.05
780,385151984,-0.7114,-0.6553,-0.0034,-5.00,-1.22,-2.99
781,385156984,-0.7144,-0.6499,-0.0146,-4.88,-1.34,-2.93
782,385161984,-0.7178,-0.6509,-0.0078,-4.82,-1.34,-2.87
783,385166984,-0.7188,-0.6489,-0.0161,-4.70,-1.46,-2.93
784,385171984,-0.7168,-0.6514,-0.0181,-4.63,-1.59,-2.68
785,385176984,-0.7178,-0.6548,-0.0142,-4.51,-1.71,-2.56
786,385181986,-0.7202,-0.6577,-0.0073,-4.39,-1.59,-2.38
787,385186984,-0.7231,-0.6558,-0.0156,-4.27,-1.65,-2.20
788,385191984,-0.7275,-0.6577,-0.0195,-4.09,-1.71,-1.95
789,385196987,-0.7236,-0.6558,-0.0166,-3.90,-1.71,-1.71
790,385201984,-0.7251,-0.6548,-0.0156,-3.78,-1.83,-1.46
791,385206983,-0.7236,-0.6562,-0.0186,-3.54,-1.71,-1.16
792,385211984,-0.7236,-0.6572,-0.0205,-3.35,-1.77,-0.85
793,385216984,-0.7217,-0.6567,-0.0176,-3.17,-1.65,-0.55
794,385222372,-0.7168,-0.6582,-0.0210,-2.74,-1.59,-0.18
795,385226984,-0.7153,-0.6582,-0.0166,-2.56,-1.59,0.18
796,385231984,-0.7148,-0.6577,-0.0122,-2.13,-1.52,0.49
797,385236984,-0.7124,-0.6548,-0.0176,-1.71,-1.59,0.98
798,385241984,-0.7090,-0.6577,-0.0127,-1.34,-1.46,1.40
799,385246984,-0.7036,-0.6543,-0.0146,-0.85,-1.46,1.77
800,385251984,-0.7041,-0.6562,-0.0142,-0.37,-1.40,2.20
801,385256984,-0.7012,-0.6616,-0.0195,-0.06,-1.22,2.62
802,385261984,-0.7061,-0.6606,-0.0176,0.37,-1.34,3.05
803,385266984,-0.7026,-0.6587,-0.0103,0.79,-1.40,3.41
804,385271985,-0.7026,-0.6592,-0.0151,1.28,-1.28,3.84
805,385276984,-0.7007,-0.6562,-0.0127,1.83,-1.34,4.15
806,385281984,-0.7021,-0.6606,-0.0107,2.20,-1.28,4.70
807,385286986,-0.6992,-0.6587,-0.0117,2.80,-1.40,5.00
808,385291984,-0.7017,-0.6597,-0.0112,3.48,-1.34,5.30
809,385296984,-0.7046,-0.6597,-0.0137,3.96,-1.40,5.61
810,385301984,-0.7021,-0.6611,-0.0161,4.51,-1.46,5.98
811,385306984,-0.7051,-0.6626,-0.0181,5.18,-1.46,6.22
812,385311984,-0.7080,-0.6602,-0.0161,5.73,-1.52,6.46
813,385316984,-0.7090,-0.6572,-0.0127,6.52,-1.46,6.71
814,385321984,-0.7090,-0.6592,-0.0117,6.95,-1.46,6.77
815,385326984,-0.7148,-0.6597,-0.0176,7.38,-1.34,6.77
816,385331984,-0.7109,-0.6562,-0.0166,7.99,-1.34,6.89
817,385336984,-0.7183,-0.6558,-0.0166,8.35,-1.28,6.89
818,385341986,-0.7158,-0.6567,-0.0156,8.78,-1.28,6.89
819,385346983,-0.7168,-0.6562,-0.0181,9.02,-1.28,6.95
820,385351984,-0.7188,-0.6587,-0.0210,9.21,-1.22,6.77
821,385356984,-0.7227,-0.6533,-0.0190,9.39,-1.28,6.59
822,385361984,-0.7227,-0.6523,-0.0151,9.45,-1.22,6.46
823,385366984,-0.7163,-0.6528,-0.0142,9.27,-1.16,6.34
824,385371984,-0.7144,-0.6528,-0.0122,9.09,-1.16,6.22
825,385376984,-0.7163,-0.6509,-0.0088,8.66,-1.28,6.10
826,385381984,-0.7119,-0.6519,-0.0137,8.29,-1.34,5.91
827,385386986,-0.7070,-0.6519,-0.0103,7.74,-1.28,5.55
828,385391984,-0.7090,-0.6465,-0.0093,7.07,-1.34,5.37
829,385396984,-0.7051,-0.6470,-0.0078,6.46,-1.40,5.06
830,385401984,-0.7041,-0.6470,-0.0078,5.61,-1.52,4.88
831,385406984,-0.7021,-0.6465,-0.0068,4.82,-1.46,4.51
832,385411983,-0.7031,-0.6450,-0.0073,3.72,-1.65,4.27
833,385416982,-0.7080,-0.6445,-0.0078,2.62,-1.77,4.02
834,385421982,-0.7070,-0.6416,-0.0078,1.71,-1.83,3.78
835,385426983,-0.7114,-0.6406,0.0005,0.61,-1.83,3.54
836,385431985,-0.7148,-0.6445,-0.0098,-0.43,-1.89,3.29
837,385436983,-0.7183,-0.6455,-0.0068,-1.52,-1.95,3.11
838,385441984,-0.7192,-0.6411,-0.0083,-2.44,-2.07,2.93
839,385446984,-0.7144,-0.6411,-0.0029,-3.35,-2.01,2.80
840,385451984,-0.7178,-0.6411,-0.0054,-4.27,-2.20,2.62
841,385456984,-0.7163,-0.6421,0.0000,-4.94,-2.20,2.38
842,385461984,-0.7153,-0.6431,-0.0068,-5.49,-2.13,2.38
843,385467342,-0.7109,-0.6406,-0.0068,-6.04,-2.20,2.20
844,385471984,-0.7104,-0.6421,-0.0034,-6.59,-2.38,2.26
845,385476985,-0.7026,-0.6396,0.0034,-7.01,-2.44,2.26
846,385481984,-0.7002,-0.6406,0.0068,-7.38,-2.50,2.38
847,385486983,-0.7026,-0.6406,0.0039,-7.74,-2.62,2.38
848,385491986,-0.7026,-0.6426,0.0000,-8.05,-2.74,2.56
849,385496984,-0.6934,-0.6416,0.0015,-8.29,-2.80,2.62
850,385501984,-0.6919,-0.6445,0.0103,-8.41,-2.99,2.87
851,385506984,-0.6938,-0.6479,0.0049,-8.41,-3.11,3.11
852,385511984,-0.6924,-0.6411,0.0034,-8.48,-3.48,3.41
853,385516984,-0.6958,-0.6465,0.0024,-8.48,-3.72,3.78
854,385522047,-0.6943,-0.6450,0.0054,-8.54,-4.02,4.15
855,385526984,-0.6904,-0.6470,0.0059,-8.48,-4.27,4.45
856,385532478,-0.6934,-0.6479,0.0029,-8.48,-4.63,4.88
857,385536984,-0.6987,-0.6514,-0.0015,-8.41,-4.76,5.43
858,385541984,-0.7021,-0.6504,-0.0010,-8.54,-5.12,5.98
859,385546984,-0.7085,-0.6572,-0.0010,-8.35,-5.49,6.28
860,385551984,-0.7119,-0.6582,-0.0039,-8.29,-5.73,6.83
861,385556984,-0.7104,-0.6562,-0.0039,-8.17,-6.10,7.20
862,385561984,-0.7144,-0.6650,-0.0098,-7.74,-6.04,7.80
863,385566984,-0.7231,-0.6636,-0.0049,-7.44,-6.34,8.29
864,385571984,-0.7300,-0.6660,-0.0083,-6.89,-6.46,8.72
865,385576985,-0.7334,-0.6689,-0.0107,-6.28,-6.71,9.33
866,385581984,-0.7422,-0.6704,-0.0151,-5.43,-6.59,9.76
867,385586984,-0.7451,-0.6719,-0.0112,-4.63,-6.83,10.24
868,385591986,-0.7534,-0.6782,-0.0181,-3.66,-7.01,10.67
869,385596984,-0.7534,-0.6816,-0.0190,-2.50,-7.07,11.22
870,385601984,-0.7563,-0.6855,-0.0176,-1.28,-7.01,11.59
871,385607351,-0.7656,-0.6870,-0.0171,0.06,-7.13,12.20
872,385611984,-0.7671,-0.6821,-0.0225,1.40,-6.95,12.56
873,385616983,-0.7656,-0.6860,-0.0205,2.99,-7.07,13.11
874,385621984,-0.7671,-0.6836,-0.0166,4.76,-7.20,13.35
875,385626984,-0.7603,-0.6890,-0.0225,6.46,-7.20,13.84
876,385632396,-0.7593,-0.6816,-0.0195,8.41,-7.38,14.02
877,385636984,-0.7510,-0.6768,-0.0195,10.18,-7.38,14.21
878,385641984,-0.7485,-0.6807,-0.0186,12.20,-7.74,14.51
879,385646984,-0.7432,-0.6787,-0.0186,13.96,-8.05,14.51
880,385651984,-0.7456,-0.6792,-0.0171,15.67,-8.29,14.57
881,385656984,-0.7432,-0.6724,-0.0195,17.26,-8.54,14.70
882,385661984,-0.7402,-0.6724,-0.0186,18.84,-9.02,14.70
883,385666984,-0.7397,-0.6714,-0.0229,20.18,-9.27,14.63
884,385671984,-0.7368,-0.6660,-0.0132,21.16,-9.57,14.51
885,385676984,-0.7363,-0.6631,-0.0234,21.95,-9.88,14.27
886,385681984,-0.7344,-0.6665,-0.0190,22.56,-10.24,14.15
887,385686984,-0.7349,-0.6670,-0.0205,22.87,-10.49,13.96
888,385691984,-0.7368,-0.6650,-0.0225,22.87,-10.85,13.66
889,385696986,-0.7354,-0.6611,-0.0205,22.62,-11.04,13.54
890,385701984,-0.7363,-0.6616,-0.0210,22.01,-11.34,13.11
891,385706984,-0.7432,-0.6602,-0.0205,21.10,-11.40,12.68
892,385711986,-0.7451,-0.6626,-0.0215,20.06,-11.40,12.32
893,385716982,-0.7480,-0.6641,-0.0273,18.78,-11.59,12.01
894,385721982,-0.7466,-0.6636,-0.0229,17.38,-11.59,11.59
895,385726982,-0.7495,-0.6636,-0.0225,15.85,-11.52,11.16
896,385731984,-0.7451,-0.6621,-0.0225,14.57,-11.46,10.55
897,385736984,-0.7480,-0.6606,-0.0264,12.68,-11.28,10.00
898,385741984,-0.7476,-0.6606,-0.0244,11.16,-11.04,9.45
899,385746984,-0.7520,-0.6558,-0.0259,9.57,-10.98,8.84
900,385751984,-0.7495,-0.6587,-0.0283,8.23,-10.85,8.17
901,385757273,-0.7427,-0.6567,-0.0249,6.95,-10.67,7.44
902,385761984,-0.7446,-0.6611,-0.0278,5.55,-10.37,6.77
903,385766984,-0.7466,-0.6577,-0.0298,4.33,-10.30,6.22
904,385771984,-0.7476,-0.6577,-0.0264,3.23,-9.88,5.61
905,385776984,-0.7485,-0.6611,-0.0391,2.07,-9.70,4.82
906,385781984,-0.7510,-0.6587,-0.0332,1.10,-9.51,4.15
907,385786984,-0.7534,-0.6611,-0.0352,0.12,-9.09,3.66
908,385791984,-0.7451,-0.6611,-0.0312,-0.73,-8.78,2.99
909,385796986,-0.7427,-0.6621,-0.0303,-1.71,-8.48,2.26
910,385801984,-0.7383,-0.6606,-0.0308,-2.62,-8.05,1.71
911,385806984,-0.7368,-0.6587,-0.0332,-3.54,-7.80,1.22
912,385811984,-0.7319,-0.6636,-0.0288,-4.33,-7.38,0.73
913,385816984,-0.7334,-0.6621,-0.0312,-5.30,-6.95,0.12
914,385821983,-0.7285,-0.6650,-0.0312,-6.10,-6.59,-0.24
915,385826984,-0.7266,-0.6675,-0.0239,-7.07,-6.04,-0.79
916,385831984,-0.7280,-0.6646,-0.0298,-7.87,-5.55,-1.28
917,385836984,-0.7241,-0.6675,-0.0332,-8.54,-5.00,-1.65
918,385841984,-0.7241,-0.6689,-0.0283,-9.15,-4.45,-2.13
919,385847468,-0.7271,-0.6660,-0.0273,-9.94,-3.90,-2.50
920,385851984,-0.7305,-0.6680,-0.0254,-10.30,-3.41,-2.80
921,385856984,-0.7383,-0.6719,-0.0298,-10.73,-2.87,-3.05
922,385862421,-0.7402,-0.6704,-0.0347,-11.10,-2.20,-3.35
923,385866984,-0.7437,-0.6724,-0.0244,-11.04,-1.83,-3.66
924,385871984,-0.7451,-0.6738,-0.0288,-11.16,-1.34,-3.90
925,385876984,-0.7456,-0.6738,-0.0254,-10.98,-0.67,-4.15
926,385881984,-0.7544,-0.6738,-0.0293,-10.91,-0.18,-4.33
927,385886985,-0.7549,-0.6772,-0.0278,-10.37,0.30,-4.51
928,385891984,-0.7607,-0.6797,-0.0264,-9.88,0.61,-4.76
929,385896984,-0.7603,-0.6802,-0.0303,-9.27,1.04,-4.94
930,385901986,-0.7646,-0.6768,-0.0293,-8.48,1.52,-5.06
931,385906984,-0.7710,-0.6797,-0.0308,-7.74,1.77,-5.18
932,385911984,-0.7695,-0.6787,-0.0327,-6.89,2.38,-5.24
933,385916984,-0.7715,-0.6807,-0.0327,-5.98,2.50,-5.30
934,385921984,-0.7749,-0.6836,-0.0366,-4.88,2.74,-5.49
935,385926984,-0.7783,-0.6802,-0.0308,-3.78,2.99,-5.49
936,385931984,-0.7764,-0.6807,-0.0273,-2.62,3.41,-5.55
937,385936984,-0.7754,-0.6802,-0.0273,-1.71,3.54,-5.61
938,385941984,-0.7783,-0.6787,-0.0361,-0.49,3.60,-5.67
939,385946984,-0.7734,-0.6792,-0.0303,0.49,3.66,-5.61
940,385951984,-0.7798,-0.6812,-0.0259,1.65,3.84,-5.67
941,385956984,-0.7783,-0.6846,-0.0342,2.68,3.96,-5.73
942,385961984,-0.7793,-0.6816,-0.0283,3.90,4.15,-5.73
943,385966984,-0.7778,-0.6836,-0.0308,4.82,4.02,-5.67
944,385971984,-0.7729,-0.6831,-0.0229,5.73,3.90,-5.67
945,385976984,-0.7788,-0.6826,-0.0259,6.77,4.15,-5.61
946,385981984,-0.7808,-0.6846,-0.0342,7.74,4.21,-5.55
947,385986985,-0.7793,-0.6860,-0.0278,8.84,4.09,-5.55
948,385991984,-0.7793,-0.6802,-0.0249,9.63,3.96,-5.43
949,385996984,-0.7744,-0.6816,-0.0225,10.79,3.60,-5.49
950,386001984,-0.7671,-0.6812,-0.0205,11.65,3.60,-5.43
951,386006982,-0.7681,-0.6787,-0.0195,12.62,3.48,-5.49
952,386012015,-0.7598,-0.6807,-0.0156,13.60,3.23,-5.55
953,386016982,-0.7568,-0.6758,-0.0225,14.39,2.87,-5.55
954,386021982,-0.7539,-0.6743,-0.0215,15.24,2.68,-5.55
955,386026982,-0.7505,-0.6714,-0.0195,15.91,2.44,-5.73
956,386031982,-0.7461,-0.6694,-0.0190,16.46,2.07,-5.85
957,386036985,-0.7412,-0.6675,-0.0229,16.89,1.83,-5.98
958,386041987,-0.7363,-0.6646,-0.0161,16.95,1.46,-6.22
959,386046984,-0.7324,-0.6611,-0.0161,17.07,1.10,-6.40
960,386051984,-0.7231,-0.6606,-0.0171,16.83,0.91,-6.59
961,386056984,-0.7212,-0.6606,-0.0210,16.46,0.61,-6.89
962,386062417,-0.7183,-0.6587,-0.0127,15.79,0.24,-7.07
963,386066984,-0.7139,-0.6553,-0.0137,15.06,0.24,-7.38
964,386071984,-0.7100,-0.6548,-0.0117,14.33,0.06,-7.74
965,386076984,-0.7056,-0.6504,-0.0142,13.23,-0.12,-8.11
966,386082064,-0.7090,-0.6519,-0.0137,12.01,-0.49,-8.48
967,386087482,-0.7100,-0.6523,-0.0098,10.30,-0.37,-8.90
968,386091985,-0.7090,-0.6499,-0.0161,9.21,-0.49,-9.15
969,386096984,-0.7051,-0.6504,-0.0156,7.56,-0.43,-9.63
970,386101984,-0.7031,-0.6494,-0.0156,5.91,-0.43,-10.06
971,386106985,-0.7070,-0.6494,-0.0127,4.15,-0.18,-10.49
972,386111983,-0.7036,-0.6499,-0.0117,2.56,0.00,-11.04
973,386116985,-0.7051,-0.6465,-0.0132,0.85,0.24,-11.46
974,386121984,-0.7056,-0.6431,-0.0137,-0.61,0.43,-12.01
975,386126982,-0.7090,-0.6421,-0.0059,-2.20,0.67,-12.38
976,386131984,-0.7085,-0.6460,-0.0117,-3.54,1.10,-12.93
977,386136985,-0.7129,-0.6392,-0.0132,-4.88,1.28,-13.48
978,386141984,-0.7134,-0.6475,-0.0166,-5.91,1.65,-13.96
979,386146984,-0.7168,-0.6445,-0.0215,-7.01,2.20,-14.51
980,386151984,-0.7168,-0.6455,-0.0166,-7.87,2.68,-14.88
981,386156984,-0.7207,-0.6392,-0.0200,-8.60,2.99,-15.30
982,386161984,-0.7158,-0.6445,-0.0220,-9.33,3.48,-15.79
983,386166984,-0.7148,-0.6416,-0.0117,-9.76,3.90,-16.04
984,386171984,-0.7207,-0.6445,-0.0200,-10.24,4.45,-16.40
985,386176983,-0.7202,-0.6431,-0.0171,-10.67,4.88,-16.59
986,386181984,-0.7197,-0.6440,-0.0195,-10.98,5.30,-16.77
987,386186984,-0.7173,-0.6494,-0.0171,-11.28,5.91,-17.07
988,386191983,-0.7144,-0.6489,-0.0181,-11.46,6.22,-17.07
989,386196984,-0.7178,-0.6470,-0.0122,-11.52,6.71,-17.01
990,386201984,-0.7168,-0.6431,-0.0098,-11.34,6.89,-17.07
991,386206985,-0.7124,-0.6465,-0.0078,-11.10,7.20,-17.01
992,386211984,-0.7095,-0.6479,-0.0122,-10.85,7.62,-16.95
993,386216984,-0.7119,-0.6455,-0.0112,-10.30,7.93,-16.71
994,386221984,-0.7134,-0.6440,-0.0122,-9.70,7.99,-16.59
995,386226984,-0.7100,-0.6460,-0.0142,-9.02,8.05,-16.40
996,386231984,-0.7129,-0.6406,-0.0171,-7.99,8.35,-16.10
997,386236985,-0.7109,-0.6392,-0.0171,-7.38,8.54,-15.98
998,386241984,-0.7109,-0.6421,-0.0107,-6.46,8.48,-15.55
999,386246984,-0.7095,-0.6426,-0.0117,-5.49,8.48,-15.24
1000,386251984,-0.7070,-0.6382,-0.0107,-4.57,8.35,-14.88
1001,386256984,-0.7104,-0.6392,-0.0107,-3.78,8.17,-14.45
1002,386262381,-0.7017,-0.6421,-0.0063,-2.87,7.93,-13.90
1003,386266984,-0.7041,-0.6367,-0.0093,-2.26,7.93,-13.48
1004,386271984,-0.7021,-0.6387,-0.0098,-1.65,7.74,-12.99
1005,386276984,-0.6997,-0.6372,-0.0137,-1.10,7.50,-12.44
1006,386281984,-0.7080,-0.6382,-0.0107,-0.67,7.13,-11.77
1007,386286984,-0.7017,-0.6392,-0.0078,-0.30,7.01,-11.22
1008,386291984,-0.7021,-0.6372,-0.0044,-0.12,6.65,-10.61
1009,386296984,-0.6963,-0.6377,-0.0068,0.12,6.34,-10.06
1010,386301984,-0.6953,-0.6367,-0.0093,0.43,6.16,-9.39
1011,386306986,-0.6978,-0.6396,-0.0034,0.55,5.91,-8.78
1012,386312373,-0.6963,-0.6362,-0.0098,0.85,5.43,-7.99
1013,386316984,-0.6968,-0.6338,-0.0068,0.85,5.12,-7.38
1014,386321982,-0.6978,-0.6333,-0.0063,1.16,4.94,-6.77
1015,386326982,-0.6943,-0.6357,-0.0049,1.34,4.57,-6.16
1016,386331983,-0.6948,-0.6338,-0.0059,1.46,4.15,-5.55
1017,386336984,-0.6929,-0.6338,-0.0039,1.46,3.96,-4.94
1018,386341985,-0.6997,-0.6377,-0.0020,1.59,3.48,-4.45
1019,386346984,-0.6987,-0.6377,-0.0054,1.77,3.23,-3.60
1020,386351984,-0.6978,-0.6387,-0.0020,1.83,2.99,-3.05
1021,386357232,-0.6958,-0.6357,-0.0049,2.07,2.68,-2.44
1022,386361984,-0.6919,-0.6396,-0.0029,2.38,2.44,-1.89
1023,386366984,-0.6929,-0.6367,-0.0044,2.68,2.07,-1.10
1024,386372344,-0.6948,-0.6382,-0.0024,3.05,1.95,-0.61
1025,386376984,-0.6909,-0.6357,-0.0010,3.35,1.77,-0.30
1026,386381984,-0.6885,-0.6372,-0.0020,3.84,1.52,0.30
1027,386387349,-0.6865,-0.6387,0.0073,4.21,1.28,0.98
1028,386391984,-0.6860,-0.6387,0.0029,4.63,1.22,1.28
1029,386397362,-0.6841,-0.6401,0.0049,5.06,0.79,1.95
1030,386401984,-0.6802,-0.6431,-0.0024,5.61,0.55,2.38
1031,386406984,-0.6797,-0.6455,0.0029,5.85,0.37,2.87
1032,386411984,-0.6758,-0.6436,0.0059,6.40,0.30,3.29
1033,386416984,-0.6743,-0.6421,0.0054,6.52,-0.06,3.72
1034,386421984,-0.6733,-0.6465,0.0068,6.89,-0.12,4.21
1035,386426984,-0.6719,-0.6445,0.0054,7.26,-0.49,4.57
1036,386431984,-0.6719,-0.6494,0.0049,7.44,-0.73,5.06
1037,386436984,-0.6694,-0.6514,0.0073,7.62,-0.98,5.37
1038,386441986,-0.6748,-0.6484,0.0015,7.74,-1.22,5.67
1039,386446983,-0.6699,-0.6499,0.0029,8.05,-1.40,6.16
1040,386451984,-0.6675,-0.6533,0.0078,8.05,-1.59,6.46
1041,386456984,-0.6724,-0.6533,0.0015,8.17,-1.77,6.83
1042,386461984,-0.6758,-0.6572,0.0054,8.29,-2.01,7.20
1043,386466985,-0.6743,-0.6523,0.0044,8.29,-2.26,7.44
1044,386471984,-0.6797,-0.6572,0.0044,8.23,-2.38,7.80
1045,386476984,-0.6787,-0.6597,0.0073,8.11,-2.44,7.99
1046,386481984,-0.6768,-0.6641,0.0059,7.99,-2.50,8.35
1047,386486984,-0.6753,-0.6655,0.0117,7.93,-2.68,8.54
1048,386491984,-0.6758,-0.6646,0.0059,7.56,-2.74,8.78
1049,386496984,-0.6753,-0.6631,0.0034,7.26,-2.68,8.96
1050,386501984,-0.6753,-0.6646,0.0063,6.77,-2.62,9.09
1051,386506984,-0.6748,-0.6650,0.0103,6.65,-2.68,9.39
1052,386511986,-0.6758,-0.6675,0.0059,6.34,-2.87,9.45
1053,386516984,-0.6748,-0.6694,0.0122,5.91,-2.93,9.51
1054,386521984,-0.6797,-0.6748,0.0117,5.61,-2.93,9.63
1055,386526984,-0.6792,-0.6733,0.0063,5.30,-2.80,9.88
1056,386531984,-0.6797,-0.6768,0.0083,4.94,-2.87,9.94
1057,386536984,-0.6807,-0.6763,0.0122,4.82,-2.99,10.06
1058,386541984,-0.6855,-0.6782,0.0073,4.45,-3.05,10.00
1059,386546984,-0.6841,-0.6807,0.0083,4.33,-2.93,10.12
1060,386551984,-0.6855,-0.6782,0.0112,4.21,-2.93,10.24
1061,386556984,-0.6821,-0.6797,0.0112,4.09,-2.93,10.12
1062,386562442,-0.6875,-0.6802,0.0078,4.21,-3.11,10.12
1063,386567482,-0.6899,-0.6821,0.0049,4.27,-3.05,10.12
1064,386571984,-0.6860,-0.6807,0.0098,4.33,-3.11,10.06
1065,386576984,-0.6880,-0.6812,0.0078,4.39,-3.29,10.06
1066,386581984,-0.6919,-0.6841,0.0024,4.57,-3.41,9.94
1067,386586984,-0.6919,-0.6890,0.0088,4.70,-3.54,9.94
1068,386591984,-0.6973,-0.6904,0.0112,4.88,-3.72,9.76
1069,386596984,-0.6978,-0.6875,0.0063,5.00,-3.96,9.76
1070,386601985,-0.7021,-0.6904,0.0078,5.18,-4.15,9.76
1071,386606984,-0.7017,-0.6895,0.0083,5.49,-4.39,9.82
1072,386611982,-0.7007,-0.6914,0.0068,5.61,-4.63,9.63
1073,386616982,-0.7056,-0.6924,0.0122,5.67,-5.00,9.57
1074,386621984,-0.7031,-0.6904,0.0088,5.85,-5.37,9.63
1075,386626985,-0.7031,-0.6934,0.0039,6.10,-5.67,9.51
1076,386631982,-0.7085,-0.6943,0.0088,6.10,-5.98,9.63
1077,386636982,-0.7124,-0.6934,0.0068,6.04,-6.59,9.51
1078,386641984,-0.7104,-0.6929,0.0068,6.10,-7.01,9.57
1079,386646984,-0.7100,-0.6958,0.0073,6.10,-7.32,9.57
1080,386651984,-0.7124,-0.7017,0.0073,5.91,-7.74,9.57
1081,386656984,-0.7090,-0.6992,0.0000,5.67,-8.29,9.63
1082,386661984,-0.7100,-0.6978,0.0063,5.43,-8.60,9.70
1083,386666984,-0.7065,-0.7026,0.0029,5.37,-9.09,9.76
1084,386671984,-0.7070,-0.6987,0.0044,5.06,-9.51,9.76
1085,386676984,-0.7056,-0.7017,0.0083,4.76,-9.94,9.76
1086,386681984,-0.7046,-0.7002,0.0073,4.51,-10.37,9.70
1087,386686984,-0.7031,-0.7012,0.0117,4.21,-10.79,9.76
1088,386691984,-0.7061,-0.7046,0.0103,3.96,-11.10,9.82
1089,386697453,-0.7021,-0.7041,0.0117,3.72,-11.59,9.94
1090,386702421,-0.6953,-0.7041,0.0098,3.41,-12.01,9.88
1091,386706984,-0.6953,-0.7031,0.0112,3.29,-12.26,9.88
1092,386711984,-0.6948,-0.7051,0.0044,3.11,-12.68,9.82
1093,386716986,-0.6943,-0.7090,0.0083,2.93,-12.93,9.76
1094,386721984,-0.6924,-0.7056,0.0127,2.99,-13.29,9.70
1095,386726984,-0.6895,-0.7026,0.0078,2.87,-13.66,9.63
1096,386731984,-0.6919,-0.7061,0.0112,2.99,-13.96,9.51
1097,386736984,-0.6909,-0.7061,0.0024,2.93,-14.27,9.39
1098,386741984,-0.6934,-0.7041,0.0054,2.93,-14.63,9.21
1099,386746984,-0.6958,-0.7046,0.0107,3.05,-14.63,9.02
1100,386752117,-0.6982,-0.7031,0.0059,3.05,-15.06,8.72
1101,386756984,-0.6997,-0.7031,0.0020,3.05,-15.18,8.60
1102,386761984,-0.7007,-0.7031,0.0010,2.99,-15.37,8.29
1103,386766984,-0.7031,-0.7075,0.0020,2.68,-15.43,8.23
1104,386771984,-0.6987,-0.7070,0.0010,2.50,-15.49,7.87
1105,386776984,-0.7036,-0.7070,-0.0010,2.13,-15.37,7.50
1106,386781984,-0.6978,-0.7075,-0.0044,1.77,-15.61,7.32
1107,386786985,-0.7007,-0.7056,0.0029,1.28,-15.55,6.95
1108,386791984,-0.7046,-0.7109,-0.0020,0.61,-15.43,6.65
1109,386796984,-0.7046,-0.7051,-0.0010,0.00,-15.37,6.40
1110,386801984,-0.7031,-0.7041,-0.0034,-0.61,-15.43,6.10
1111,386806984,-0.7017,-0.7090,-0.0005,-1.34,-15.30,6.04
1112,386811984,-0.7012,-0.7100,-0.0020,-1.95,-15.12,5.61
1113,386816984,-0.6982,-0.7046,-0.0054,-2.56,-15.06,5.37
1114,386821986,-0.7007,-0.7070,-0.0015,-3.23,-14.82,5.06
1115,386826984,-0.6973,-0.7085,0.0020,-3.84,-14.76,4.94
1116,386831984,-0.6997,-0.7104,-0.0024,-4.27,-14.63,4.57
1117,386836983,-0.6953,-0.7056,0.0020,-4.70,-14.33,4.33
1118,386841984,-0.6963,-0.7104,0.0005,-5.06,-14.02,3.96
1119,386846984,-0.6973,-0.7061,-0.0063,-5.30,-13.90,3.72
1120,386852019,-0.6938,-0.7085,-0.0005,-5.43,-13.66,3.60
1121,386856982,-0.6924,-0.7075,0.0044,-5.37,-13.54,3.29
1122,386861984,-0.6953,-0.7085,0.0000,-5.37,-13.35,3.05
1123,386866984,-0.6943,-0.7061,-0.0054,-5.24,-13.17,2.99
1124,386871984,-0.6938,-0.7080,0.0015,-4.94,-12.93,2.74
1125,386876984,-0.6948,-0.7061,-0.0044,-4.57,-12.80,2.50
1126,386881984,-0.6943,-0.7061,-0.0054,-4.21,-12.62,2.44
1127,386886984,-0.6929,-0.7021,-0.0049,-3.72,-12.50,2.20
1128,386891984,-0.6934,-0.7041,0.0020,-3.17,-12.38,2.07
1129,386897398,-0.6875,-0.7051,-0.0073,-2.32,-12.13,1.89
1130,386901984,-0.6914,-0.7012,-0.0063,-1.65,-11.95,1.71
1131,386906984,-0.6929,-0.7012,-0.0039,-0.85,-11.95,1.46
1132,386911983,-0.6895,-0.7017,-0.0068,-0.06,-11.77,1.40
1133,386916983,-0.6909,-0.6958,-0.0034,0.55,-11.52,1.22
1134,386922062,-0.6909,-0.6963,-0.0015,1.34,-11.52,1.04
1135,386926984,-0.6904,-0.6924,-0.0049,1.83,-11.40,0.85
1136,386931984,-0.6924,-0.6934,-0.0088,2.50,-11.34,0.73
1137,386936984,-0.6929,-0.6909,-0.0020,2.93,-11.28,0.55
1138,386941984,-0.6943,-0.6909,-0.0073,3.17,-11.16,0.30
1139,386946983,-0.6938,-0.6895,-0.0059,3.48,-11.16,0.30
1140,386951984,-0.6914,-0.6851,-0.0107,3.66,-11.10,0.18
1141,386957466,-0.6914,-0.6846,-0.0039,3.60,-11.16,0.00
1142,386961984,-0.6934,-0.6831,-0.0063,3.54,-11.16,-0.24
1143,386966984,-0.6885,-0.6777,-0.0093,3.23,-11.28,-0.30
1144,386971984,-0.6953,-0.6787,-0.0044,2.87,-11.22,-0.49
1145,386976984,-0.6953,-0.6763,-0.0078,2.50,-11.28,-0.55
1146,386981984,-0.6997,-0.6753,-0.0083,2.01,-11.22,-0.85
1147,386986984,-0.7002,-0.6748,-0.0083,1.46,-11.34,-0.91
1148,386992399,-0.6973,-0.6694,-0.0112,0.91,-11.46,-0.98
1149,386996984,-0.7017,-0.6704,-0.0117,0.43,-11.40,-1.16
1150,387001984,-0.7041,-0.6675,-0.0205,-0.24,-11.46,-1.34
1151,387006984,-0.7070,-0.6665,-0.0181,-0.79,-11.40,-1.52
1152,387011984,-0.7031,-0.6689,-0.0176,-1.28,-11.34,-1.65
1153,387016984,-0.7026,-0.6699,-0.0205,-1.83,-11.40,-1.77
1154,387021984,-0.7095,-0.6641,-0.0269,-2.44,-11.16,-2.01
1155,387027214,-0.7104,-0.6665,-0.0166,-3.11,-11.04,-2.01
1156,387031984,-0.7139,-0.6650,-0.0215,-3.60,-10.98,-2.13
1157,387036984,-0.7134,-0.6685,-0.0278,-4.15,-10.91,-2.32
1158,387041984,-0.7134,-0.6680,-0.0210,-4.82,-10.79,-2.32
1159,387046984,-0.7139,-0.6650,-0.0239,-5.37,-10.61,-2.26
1160,387051984,-0.7124,-0.6685,-0.0205,-5.98,-10.37,-2.38
1161,387057514,-0.7129,-0.6650,-0.0220,-6.65,-10.00,-2.32
1162,387061984,-0.7139,-0.6704,-0.0288,-7.07,-9.88,-2.32
1163,387066984,-0.7139,-0.6694,-0.0190,-7.56,-9.76,-2.32
1164,387071984,-0.7100,-0.6655,-0.0244,-7.87,-9.45,-2.13
1165,387076984,-0.7085,-0.6685,-0.0273,-8.29,-9.15,-2.20
1166,387081984,-0.7031,-0.6709,-0.0200,-8.72,-8.96,-2.07
1167,387086984,-0.7021,-0.6733,-0.0273,-8.84,-8.66,-1.95
1168,387091984,-0.6982,-0.6665,-0.0210,-8.96,-8.35,-1.71
1169,387096984,-0.6982,-0.6738,-0.0225,-8.90,-7.93,-1.65
1170,387101984,-0.6929,-0.6743,-0.0259,-8.90,-7.68,-1.34
1171,387106984,-0.6909,-0.6724,-0.0259,-8.72,-7.38,-1.16
1172,387111984,-0.6855,-0.6738,-0.0220,-8.41,-7.13,-0.98
1173,387116985,-0.6851,-0.6738,-0.0190,-8.11,-6.65,-0.67
1174,387121984,-0.6807,-0.6763,-0.0210,-7.50,-6.34,-0.49
1175,387126985,-0.6851,-0.6743,-0.0190,-7.01,-5.91,-0.12
1176,387131984,-0.6821,-0.6724,-0.0171,-6.34,-5.67,0.06
1177,387136984,-0.6826,-0.6748,-0.0229,-5.67,-5.24,0.30
1178,387141984,-0.6787,-0.6748,-0.0195,-4.82,-5.00,0.55
1179,387146984,-0.6797,-0.6807,-0.0225,-4.15,-4.70,0.85
1180,387151983,-0.6787,-0.6753,-0.0210,-3.54,-4.27,1.28
1181,387156984,-0.6792,-0.6777,-0.0161,-2.68,-3.90,1.52
1182,387161984,-0.6787,-0.6777,-0.0142,-1.89,-3.66,1.89
1183,387166984,-0.6772,-0.6821,-0.0166,-1.22,-3.35,2.13
1184,387171984,-0.6753,-0.6812,-0.0200,-0.37,-2.93,2.56
1185,387176984,-0.6758,-0.6792,-0.0146,0.49,-2.32,2.80
1186,387181984,-0.6748,-0.6831,-0.0166,1.10,-2.13,3.17
1187,387186985,-0.6758,-0.6836,-0.0117,1.71,-1.71,3.41
1188,387191983,-0.6753,-0.6816,-0.0176,2.38,-1.40,3.72
1189,387196987,-0.6748,-0.6787,-0.0146,2.74,-0.98,3.96
1190,387201984,-0.6738,-0.6782,-0.0088,3.29,-0.61,4.09
1191,387206984,-0.6787,-0.6792,-0.0107,3.60,-0.12,4.33
1192,387211983,-0.6787,-0.6807,-0.0098,3.78,0.18,4.45
1193,387216983,-0.6816,-0.6807,-0.0112,4.02,0.61,4.57
1194,387221984,-0.6802,-0.6826,-0.0107,4.02,0.85,4.76
1195,387226984,-0.6812,-0.6802,-0.0093,3.96,1.28,4.94
1196,387231984,-0.6797,-0.6865,-0.0054,3.84,1.77,5.00
1197,387236982,-0.6812,-0.6836,-0.0034,3.84,2.20,5.06
1198,387242641,-0.6797,-0.6846,-0.0068,3.72,2.50,5.24
1199,387246985,-0.6772,-0.6831,-0.0078,3.66,2.80,5.24
1200,387251984,-0.6851,-0.6826,-0.0039,3.66,3.17,5.24
1201,387256983,-0.6816,-0.6812,-0.0020,3.60,3.41,5.18
1202,387261984,-0.6826,-0.6802,0.0000,3.60,3.66,5.18
1203,387266984,-0.6831,-0.6782,0.0000,3.54,3.84,5.18
1204,387271984,-0.6865,-0.6816,0.0020,3.54,4.09,5.12
1205,387276984,-0.6895,-0.6777,0.0010,3.60,4.21,5.00
1206,387281984,-0.6885,-0.6836,0.0015,3.41,4.33,4.82
1207,387287488,-0.6938,-0.6860,0.0024,3.23,4.51,4.70
1208,387291984,-0.6963,-0.6841,0.0059,3.05,4.57,4.70
1209,387296984,-0.6904,-0.6782,0.0073,2.74,4.57,4.57
1210,387301984,-0.6890,-0.6826,0.0073,2.32,4.82,4.45
1211,387306983,-0.6899,-0.6807,0.0078,1.83,4.82,4.39
1212,387312132,-0.6914,-0.6831,0.0063,1.40,4.88,4.15
1213,387316984,-0.6934,-0.6816,0.0103,0.73,4.88,3.96
1214,387321984,-0.6924,-0.6812,0.0098,0.18,5.18,3.90
1215,387326984,-0.6914,-0.6812,0.0161,-0.55,5.06,3.78
1216,387331985,-0.6895,-0.6772,0.0146,-1.34,5.12,3.66
1217,387336984,-0.6880,-0.6807,0.0166,-2.13,5.00,3.48
1218,387341984,-0.6816,-0.6748,0.0195,-3.05,4.94,3.48
1219,387347346,-0.6821,-0.6802,0.0186,-3.96,4.88,3.29
1220,387351984,-0.6836,-0.6777,0.0176,-4.51,4.88,3.29
1221,387356983,-0.6831,-0.6782,0.0200,-5.49,4.88,3.11
1222,387361985,-0.6826,-0.6812,0.0239,-6.16,4.76,3.11
1223,387366984,-0.6855,-0.6797,0.0210,-6.59,4.76,3.05
1224,387371984,-0.6821,-0.6782,0.0234,-7.13,4.82,2.99
1225,387376984,-0.6797,-0.6782,0.0269,-7.50,4.76,2.87
1226,387381984,-0.6777,-0.6782,0.0259,-8.05,4.51,2.80
1227,387386984,-0.6802,-0.6768,0.0244,-7.99,4.57,2.80
1228,387391983,-0.6792,-0.6792,0.0269,-7.99,4.51,2.74
1229,387396983,-0.6802,-0.6743,0.0220,-7.99,4.33,2.68
1230,387401985,-0.6777,-0.6729,0.0181,-7.80,4.21,2.62
1231,387407150,-0.6787,-0.6743,0.0249,-7.44,4.02,2.62
1232,387411984,-0.6748,-0.6724,0.0278,-7.20,4.09,2.62
1233,387416984,-0.6772,-0.6665,0.0317,-6.71,3.84,2.56
1234,387421984,-0.6758,-0.6650,0.0239,-6.28,3.66,2.38
1235,387427384,-0.6772,-0.6660,0.0288,-5.98,3.35,2.56
1236,387431985,-0.6836,-0.6685,0.0303,-5.67,3.23,2.44
1237,387436984,-0.6855,-0.6641,0.0312,-5.37,3.05,2.50
1238,387441983,-0.6812,-0.6660,0.0327,-5.12,2.80,2.44
1239,387446984,-0.6865,-0.6650,0.0273,-4.94,2.68,2.56
1240,387451984,-0.6870,-0.6636,0.0244,-4.76,2.44,2.56
1241,387456984,-0.6895,-0.6611,0.0283,-4.39,2.32,2.62
1242,387461984,-0.6899,-0.6650,0.0234,-4.39,2.07,2.62
1243,387466984,-0.6899,-0.6592,0.0264,-4.27,1.83,2.87
1244,387471982,-0.6953,-0.6592,0.0161,-4.21,1.46,2.87
1245,387476984,-0.6978,-0.6523,0.0200,-4.02,1.16,2.93
1246,387481984,-0.7002,-0.6577,0.0171,-3.72,0.98,2.93
1247,387486984,-0.7026,-0.6543,0.0190,-3.48,0.73,3.17
1248,387491984,-0.7056,-0.6538,0.0171,-3.29,0.55,3.23
1249,387496984,-0.7061,-0.6489,0.0195,-3.17,0.18,3.41
1250,387501984,-0.7080,-0.6450,0.0234,-3.11,-0.12,3.41
1251,387506984,-0.7085,-0.6460,0.0122,-2.99,-0.55,3.66
1252,387511984,-0.7114,-0.6470,0.0195,-2.87,-0.85,3.78
1253,387516982,-0.7100,-0.6450,0.0146,-2.80,-1.10,3.96
1254,387521983,-0.7148,-0.6431,0.0142,-2.87,-1.40,4.15
1255,387526982,-0.7144,-0.6455,0.0239,-3.05,-1.71,4.45
1256,387531982,-0.7129,-0.6396,0.0112,-3.05,-2.07,4.70
1257,387536982,-0.7148,-0.6426,0.0107,-3.29,-2.44,4.82
1258,387541984,-0.7158,-0.6357,0.0190,-3.48,-2.74,5.18
1259,387546984,-0.7163,-0.6406,0.0171,-3.60,-3.11,5.49
1260,387551984,-0.7124,-0.6387,0.0229,-3.84,-3.35,5.79
1261,387556984,-0.7148,-0.6382,0.0220,-3.84,-3.72,6.10
1262,387561998,-0.7104,-0.6353,0.0146,-3.96,-3.96,6.46
1263,387566985,-0.7104,-0.6353,0.0171,-4.15,-4.45,6.83
1264,387571984,-0.7104,-0.6338,0.0156,-4.15,-4.63,7.26
1265,387576984,-0.7080,-0.6382,0.0117,-4.09,-5.06,7.56
1266,387581984,-0.6997,-0.6328,0.0161,-4.09,-5.49,8.05
1267,387587290,-0.7012,-0.6323,0.0161,-4.21,-5.91,8.48
1268,387591984,-0.6982,-0.6304,0.0186,-4.15,-6.40,8.78
1269,387596984,-0.6924,-0.6284,0.0176,-4.02,-6.77,9.27
1270,387601984,-0.6919,-0.6289,0.0190,-3.78,-7.20,9.76
1271,387606984,-0.6943,-0.6284,0.0205,-3.90,-7.62,10.24
1272,387612145,-0.6934,-0.6284,0.0190,-3.90,-8.05,10.79
1273,387616984,-0.6890,-0.6294,0.0186,-3.96,-8.29,11.22
1274,387621984,-0.6807,-0.6284,0.0186,-4.02,-8.72,11.52
1275,387626984,-0.6851,-0.6279,0.0156,-4.09,-9.02,12.01
1276,387631984,-0.6851,-0.6270,0.0151,-4.21,-9.21,12.32
1277,387636984,-0.6851,-0.6279,0.0195,-4.39,-9.51,12.80
1278,387641985,-0.6821,-0.6274,0.0210,-4.33,-9.82,13.29
1279,387646984,-0.6865,-0.6284,0.0151,-4.45,-10.00,13.66
1280,387651984,-0.6909,-0.6284,0.0127,-4.70,-10.37,13.96
1281,387657400,-0.6914,-0.6270,0.0112,-4.94,-10.30,14.33
1282,387661984,-0.6924,-0.6284,0.0127,-5.12,-10.49,14.82
1283,387666984,-0.6943,-0.6362,0.0171,-5.37,-10.61,15.06
1284,387671984,-0.6948,-0.6309,0.0132,-5.79,-10.49,15.37
1285,387676982,-0.6943,-0.6328,0.0156,-6.16,-10.43,15.61
1286,387681984,-0.6963,-0.6362,0.0161,-6.65,-10.43,16.04
1287,387686984,-0.7007,-0.6387,0.0078,-7.32,-10.37,16.28
1288,387692352,-0.6948,-0.6382,0.0171,-7.87,-10.12,16.59
1289,387696984,-0.6973,-0.6367,0.0161,-8.41,-10.06,16.95
1290,387701984,-0.6982,-0.6411,0.0181,-9.02,-9.88,17.32
1291,387706984,-0.6992,-0.6440,0.0098,-9.57,-9.76,17.56
1292,387711984,-0.6943,-0.6421,0.0195,-10.12,-9.63,17.87
1293,387716984,-0.6953,-0.6470,0.0156,-10.67,-9.39,18.17
1294,387721984,-0.6978,-0.6445,0.0151,-11.16,-9.15,18.41
1295,387726984,-0.6968,-0.6450,0.0142,-11.46,-8.90,18.90
1296,387731984,-0.6963,-0.6440,0.0210,-11.65,-8.60,18.96
1297,387736984,-0.6929,-0.6465,0.0088,-11.83,-8.35,19.27
1298,387742215,-0.6914,-0.6445,0.0146,-11.89,-8.05,19.45
1299,387746984,-0.6914,-0.6470,0.0117,-11.89,-7.74,19.63
1300,387751984,-0.6904,-0.6431,0.0244,-11.95,-7.32,19.76
1301,387756984,-0.6909,-0.6494,0.0225,-11.95,-7.07,19.94
1302,387761984,-0.6904,-0.6494,0.0239,-11.89,-6.52,20.00
1303,387766984,-0.6914,-0.6494,0.0225,-12.07,-6.16,20.12
1304,387771984,-0.6870,-0.6431,0.0190,-12.13,-5.67,20.12
1305,387776984,-0.6904,-0.6436,0.0210,-12.50,-5.43,20.30
1306,387781984,-0.6909,-0.6455,0.0288,-12.62,-4.88,20.24
1307,387786984,-0.6909,-0.6479,0.0273,-12.87,-4.57,20.30
1308,387791984,-0.6885,-0.6470,0.0215,-13.29,-4.21,20.30
1309,387796984,-0.6880,-0.6455,0.0254,-13.84,-3.84,20.24
1310,387801985,-0.6929,-0.6460,0.0259,-14.45,-3.48,20.06
1311,387806983,-0.6929,-0.6455,0.0273,-15.00,-3.23,20.06
1312,387811982,-0.6914,-0.6465,0.0332,-15.85,-2.99,20.00
1313,387816983,-0.6953,-0.6450,0.0249,-16.77,-2.62,19.88
1314,387821985,-0.6895,-0.6440,0.0342,-17.62,-2.50,19.70
1315,387826984,-0.6934,-0.6416,0.0308,-18.72,-2.20,19.45
1316,387831984,-0.6982,-0.6436,0.0322,-19.76,-2.01,19.45
1317,387837202,-0.7026,-0.6392,0.0366,-20.98,-1.83,19.21
1318,387841984,-0.6978,-0.6396,0.0352,-22.32,-1.71,19.02
1319,387846984,-0.7007,-0.6396,0.0361,-23.72,-1.34,18.84
1320,387851984,-0.7002,-0.6406,0.0376,-25.12,-1.34,18.54
1321,387856984,-0.7046,-0.6421,0.0386,-26.59,-1.04,18.23
1322,387861984,-0.7070,-0.6328,0.0420,-27.99,-0.98,17.99
1323,387866984,-0.7114,-0.6338,0.0444,-29.51,-0.79,17.56
1324,387871984,-0.7085,-0.6348,0.0391,-31.04,-0.49,17.20
1325,387876983,-0.7124,-0.6299,0.0391,-32.50,-0.43,16.83
1326,387881984,-0.7124,-0.6304,0.0425,-33.96,-0.49,16.40
1327,387886984,-0.7173,-0.6255,0.0493,-35.49,-0.18,15.91
1328,387891984,-0.7144,-0.6245,0.0459,-36.89,-0.12,15.49
1329,387896984,-0.7109,-0.6206,0.0454,-38.54,-0.30,15.00
1330,387901984,-0.7168,-0.6201,0.0469,-39.94,-0.24,14.45
1331,387906984,-0.7139,-0.6162,0.0508,-41.52,-0.24,13.96
1332,387911984,-0.7173,-0.6104,0.0532,-43.11,-0.30,13.35
1333,387916984,-0.7188,-0.6099,0.0518,-44.70,-0.67,12.93
1334,387921984,-0.7212,-0.6143,0.0542,-46.40,-0.67,12.32
1335,387926984,-0.7295,-0.6177,0.0542,-48.23,-0.85,12.01
1336,387931984,-0.7310,-0.6206,0.0557,-50.18,-1.22,11.52
1337,387936984,-0.7417,-0.6201,0.0542,-52.13,-1.71,11.28
1338,387941984,-0.7466,-0.6221,0.0488,-53.90,-2.13,11.04
1339,387946985,-0.7471,-0.6226,0.0566,-55.67,-2.44,10.91
1340,387951984,-0.7510,-0.6211,0.0513,-57.20,-3.05,10.67
1341,387956984,-0.7495,-0.6216,0.0547,-58.48,-3.48,10.49
1342,387961984,-0.7480,-0.6230,0.0605,-59.70,-4.21,10.30
1343,387966984,-0.7446,-0.6201,0.0630,-60.67,-4.76,10.18
1344,387971984,-0.7397,-0.6191,0.0649,-61.34,-5.55,10.06
1345,387976984,-0.7383,-0.6172,0.0645,-62.13,-6.34,10.00
1346,387981984,-0.7368,-0.6196,0.0640,-62.50,-7.26,9.88
1347,387986984,-0.7319,-0.6123,0.0605,-63.11,-8.41,9.76
1348,387991984,-0.7319,-0.6182,0.0552,-63.41,-9.39,9.88
1349,387997387,-0.7329,-0.6162,0.0591,-63.96,-10.73,9.76
1350,388001984,-0.7344,-0.6260,0.0547,-64.51,-12.01,9.88
1351,388006984,-0.7480,-0.6372,0.0508,-65.12,-13.48,10.00
1352,388011984,-0.7671,-0.6445,0.0303,-65.91,-15.18,10.24
1353,388016984,-0.8037,-0.6602,0.0137,-66.83,-16.95,10.73
1354,388021984,-0.8398,-0.6675,-0.0049,-67.56,-19.09,11.34
1355,388026984,-0.8774,-0.6816,-0.0234,-68.11,-21.34,11.89
1356,388031984,-0.9111,-0.6890,-0.0298,-68.60,-23.66,12.56
1357,388036984,-0.9370,-0.6968,-0.0498,-68.90,-26.28,13.23
1358,388041984,-0.9678,-0.7012,-0.0547,-69.09,-28.84,13.90
1359,388046983,-0.9927,-0.7026,-0.0649,-69.02,-31.10,14.63
1360,388051985,-1.0103,-0.7026,-0.0605,-68.66,-33.29,15.18
1361,388056984,-1.0264,-0.7012,-0.0654,-68.11,-35.30,15.43
1362,388061984,-1.0254,-0.6982,-0.0542,-67.32,-37.13,15.43
1363,388066984,-1.0254,-0.6968,-0.0542,-66.46,-38.60,15.37
1364,388071984,-1.0254,-0.6865,-0.0527,-65.55,-39.76,15.12
1365,388076984,-1.0171,-0.6782,-0.0459,-64.21,-40.73,14.51
1366,388081983,-1.0112,-0.6699,-0.0464,-62.74,-41.52,13.66
1367,388086984,-1.0068,-0.6587,-0.0381,-61.16,-42.13,12.50
1368,388091984,-1.0010,-0.6494,-0.0459,-59.21,-42.38,11.22
1369,388096984,-0.9917,-0.6392,-0.0356,-57.13,-42.68,9.63
1370,388101984,-0.9775,-0.6274,-0.0391,-54.94,-42.68,7.87
1371,388106984,-0.9688,-0.6182,-0.0356,-52.62,-42.80,5.91
1372,388111983,-0.9731,-0.6118,-0.0361,-50.30,-42.74,3.84
1373,388117717,-0.9790,-0.6025,-0.0439,-47.68,-42.50,1.22
1374,388121984,-0.9746,-0.5981,-0.0454,-45.85,-42.68,-0.55
1375,388126982,-0.9800,-0.5942,-0.0425,-43.72,-42.62,-2.93
1376,388131982,-0.9819,-0.5884,-0.0479,-41.83,-42.56,-5.24
1377,388136984,-0.9844,-0.5864,-0.0542,-40.24,-42.56,-7.56
1378,388141984,-0.9907,-0.5859,-0.0532,-39.02,-42.56,-9.94
1379,388146984,-0.9956,-0.5781,-0.0557,-37.99,-42.87,-12.13
1380,388151985,-0.9878,-0.5762,-0.0615,-37.44,-43.23,-14.39
1381,388156984,-1.0005,-0.5669,-0.0576,-37.13,-43.66,-16.71
1382,388161983,-1.0117,-0.5542,-0.0684,-37.07,-44.09,-18.90
1383,388167379,-1.0073,-0.5493,-0.0747,-37.01,-44.76,-21.16
1384,388171984,-1.0020,-0.5439,-0.0742,-37.26,-45.43,-23.17
1385,388176983,-0.9966,-0.5342,-0.0737,-37.93,-46.10,-25.37
1386,388181984,-0.9922,-0.5225,-0.0762,-38.66,-46.89,-27.32
1387,388186985,-0.9834,-0.5117,-0.0693,-39.70,-47.74,-29.45
1388,388191983,-0.9712,-0.5044,-0.0742,-40.55,-48.66,-31.46
1389,388196989,-0.9609,-0.4893,-0.0669,-41.59,-49.57,-33.66
1390,388201984,-0.9487,-0.4795,-0.0703,-42.87,-50.67,-35.61
1391,388206984,-0.9355,-0.4678,-0.0684,-44.15,-51.65,-37.68
1392,388212438,-0.9219,-0.4595,-0.0620,-45.98,-52.80,-40.00
1393,388217455,-0.9097,-0.4575,-0.0610,-47.87,-54.02,-41.95
1394,388221984,-0.8955,-0.4512,-0.0576,-49.88,-54.88,-43.60
1395,388226984,-0.8867,-0.4517,-0.0605,-51.59,-55.67,-44.94
1396,388231984,-0.8740,-0.4492,-0.0542,-54.09,-56.59,-46.28
1397,388236984,-0.8735,-0.4521,-0.0591,-56.77,-57.62,-47.56
1398,388241984,-0.8623,-0.4531,-0.0586,-59.70,-58.41,-48.78
1399,388246984,-0.8599,-0.4512,-0.0615,-63.17,-59.39,-50.00
1400,388251985,-0.8574,-0.4507,-0.0625,-66.22,-60.18,-50.79
1401,388256984,-0.8579,-0.4565,-0.0679,-68.54,-60.85,-51.40
1402,388261984,-0.8486,-0.4531,-0.0757,-71.46,-61.77,-52.13
1403,388266984,-0.8521,-0.4487,-0.0752,-74.27,-62.38,-52.80
1404,388271984,-0.8506,-0.4473,-0.0786,-76.83,-63.11,-53.23
1405,388276984,-0.8447,-0.4473,-0.0859,-79.27,-63.78,-53.66
1406,388281984,-0.8418,-0.4473,-0.0806,-81.52,-64.39,-53.96
1407,388286984,-0.8369,-0.4521,-0.0825,-83.66,-65.00,-54.27
1408,388291984,-0.8364,-0.4458,-0.0854,-85.49,-65.49,-54.63
1409,388296984,-0.8340,-0.4512,-0.0918,-87.56,-65.85,-54.94
1410,388301984,-0.8350,-0.4487,-0.0889,-88.60,-65.98,-55.06
1411,388306984,-0.8345,-0.4443,-0.0928,-89.82,-66.10,-55.37
1412,388311984,-0.8354,-0.4438,-0.0967,-90.67,-66.28,-55.49
1413,388316984,-0.8325,-0.4419,-0.0952,-91.16,-66.16,-55.73
1414,388322306,-0.8350,-0.4448,-0.0942,-91.28,-66.22,-55.73
1415,388326984,-0.8335,-0.4443,-0.0991,-91.16,-65.91,-55.85
1416,388331984,-0.8369,-0.4463,-0.1069,-90.61,-65.73,-55.98
1417,388336984,-0.8423,-0.4419,-0.1035,-89.76,-65.55,-56.04
1418,388341985,-0.8433,-0.4429,-0.1050,-88.60,-65.06,-55.98
1419,388346984,-0.8462,-0.4419,-0.1064,-87.20,-64.76,-56.10
1420,388351984,-0.8506,-0.4458,-0.1147,-85.49,-64.27,-56.04
1421,388356985,-0.8516,-0.4458,-0.1094,-83.48,-63.90,-55.91
1422,388361984,-0.8501,-0.4482,-0.1230,-81.16,-63.35,-55.67
1423,388366984,-0.8521,-0.4536,-0.1201,-78.96,-62.68,-55.43
1424,388371985,-0.8521,-0.4575,-0.1240,-76.22,-62.20,-55.06
1425,388376984,-0.8481,-0.4644,-0.1235,-73.35,-61.52,-54.51
1426,388381984,-0.8428,-0.4663,-0.1226,-70.55,-60.85,-53.90
1427,388386986,-0.8496,-0.4712,-0.1323,-67.56,-60.18,-53.23
1428,388391982,-0.8569,-0.4683,-0.1338,-64.45,-59.82,-52.44
1429,388396984,-0.8540,-0.4697,-0.1284,-61.10,-59.15,-51.65
1430,388401984,-0.8486,-0.4707,-0.1289,-57.38,-58.41,-50.61
1431,388406984,-0.8442,-0.4717,-0.1465,-53.60,-57.93,-49.70
1432,388411983,-0.8394,-0.4766,-0.1440,-49.82,-57.44,-48.72
1433,388416983,-0.8350,-0.4756,-0.1460,-45.73,-56.95,-47.68
1434,388421984,-0.8374,-0.4785,-0.1548,-41.40,-56.34,-46.46
1435,388426983,-0.8428,-0.4805,-0.1597,-36.95,-56.04,-45.37
1436,388431984,-0.8511,-0.4771,-0.1680,-32.20,-55.73,-44.27
1437,388436984,-0.8599,-0.4771,-0.1729,-27.38,-55.49,-42.99
1438,388441984,-0.8662,-0.4785,-0.1768,-22.32,-55.24,-41.71
1439,388446984,-0.8809,-0.4805,-0.1919,-17.44,-55.30,-40.55
1440,388451984,-0.9014,-0.4800,-0.1997,-12.44,-55.12,-39.33
1441,388456984,-0.9189,-0.4800,-0.2056,-7.74,-55.37,-38.05
1442,388461985,-0.9224,-0.4771,-0.2075,-2.93,-55.18,-36.89
1443,388466984,-0.9204,-0.4766,-0.2134,1.46,-55.18,-35.73
1444,388471984,-0.9106,-0.4775,-0.2012,5.49,-54.88,-34.51
1445,388476984,-0.9038,-0.4780,-0.2012,9.70,-54.57,-33.11
1446,388481984,-0.8989,-0.4780,-0.1982,12.32,-54.15,-32.20
1447,388486984,-0.8921,-0.4771,-0.1934,15.06,-53.72,-31.10
1448,388491984,-0.8779,-0.4780,-0.1938,17.13,-53.17,-29.82
1449,388496984,-0.8662,-0.4761,-0.1826,18.72,-52.32,-28.78
1450,388501984,-0.8477,-0.4731,-0.1797,19.94,-51.40,-27.68
1451,388506984,-0.8271,-0.4697,-0.1719,20.43,-50.37,-26.71
1452,388511985,-0.8052,-0.4668,-0.1582,20.49,-49.45,-25.73
1453,388516984,-0.7852,-0.4658,-0.1582,20.00,-48.23,-24.88
1454,388521984,-0.7627,-0.4614,-0.1543,19.21,-47.01,-23.90
1455,388526984,-0.7446,-0.4585,-0.1494,17.87,-45.55,-23.11
1456,388531984,-0.7153,-0.4590,-0.1460,15.55,-43.84,-22.01
1457,388536984,-0.7031,-0.4614,-0.1396,13.72,-42.62,-21.40
1458,388541984,-0.6782,-0.4663,-0.1387,10.98,-41.16,-20.49
1459,388546984,-0.6577,-0.4658,-0.1255,7.80,-39.94,-19.39
1460,388551984,-0.6401,-0.4688,-0.1294,4.21,-38.41,-18.41
1461,388556984,-0.6279,-0.4736,-0.1289,0.37,-37.07,-17.38
1462,388562355,-0.6191,-0.4805,-0.1353,-4.63,-35.55,-15.79
1463,388566984,-0.6084,-0.4805,-0.1294,-8.11,-34.51,-14.88
1464,388571984,-0.6011,-0.4888,-0.1299,-12.50,-33.23,-13.60
1465,388576984,-0.5928,-0.4966,-0.1348,-17.07,-32.07,-12.13
1466,388581984,-0.5957,-0.5010,-0.1348,-21.46,-30.98,-10.61
1467,388586984,-0.5962,-0.5039,-0.1401,-26.89,-29.70,-8.84
1468,388591984,-0.5986,-0.5107,-0.1377,-30.49,-28.66,-7.80
1469,388596984,-0.6084,-0.5107,-0.1372,-34.70,-27.56,-6.34
1470,388601984,-0.6108,-0.5142,-0.1416,-38.54,-26.71,-4.82
1471,388606984,-0.6221,-0.5205,-0.1455,-42.62,-25.49,-3.11
1472,388612477,-0.6299,-0.5225,-0.1562,-45.43,-24.63,-1.95
1473,388616984,-0.6396,-0.5229,-0.1631,-47.26,-24.02,-0.79
1474,388621984,-0.6567,-0.5239,-0.1729,-49.39,-22.93,0.43
1475,388626984,-0.6738,-0.5234,-0.1768,-50.49,-22.20,1.52
1476,388632309,-0.6865,-0.5303,-0.1733,-51.10,-21.40,2.50
1477,388636984,-0.6929,-0.5327,-0.1777,-51.28,-20.55,3.23
1478,388642455,-0.7114,-0.5410,-0.1934,-51.10,-19.70,4.33
1479,388646984,-0.7251,-0.5435,-0.1909,-50.49,-18.72,5.18
1480,388652422,-0.7305,-0.5503,-0.1953,-49.57,-17.93,5.91
1481,388656984,-0.7393,-0.5591,-0.1978,-48.48,-16.77,6.59
1482,388661989,-0.7476,-0.5610,-0.2002,-47.07,-15.91,7.38
1483,388666986,-0.7568,-0.5610,-0.2036,-45.37,-14.82,8.05
1484,388671983,-0.7710,-0.5620,-0.2104,-43.54,-13.66,8.66
1485,388676983,-0.7769,-0.5664,-0.2046,-41.46,-12.56,9.39
1486,388681984,-0.7808,-0.5732,-0.2153,-39.27,-11.34,9.88
1487,388686982,-0.7832,-0.5703,-0.2188,-36.83,-10.00,10.43
1488,388691984,-0.7837,-0.5708,-0.2129,-34.27,-8.66,10.91
1489,388696985,-0.7803,-0.5786,-0.2104,-31.59,-7.32,11.46
1490,388701984,-0.7710,-0.5757,-0.2085,-28.78,-5.85,11.83
1491,388706984,-0.7588,-0.5767,-0.2065,-26.04,-4.33,12.20
1492,388711982,-0.7529,-0.5796,-0.2065,-23.23,-2.74,12.62
1493,388716984,-0.7456,-0.5757,-0.2002,-20.61,-1.22,13.11
1494,388721984,-0.7461,-0.5781,-0.2007,-17.74,0.55,13.35
1495,388726984,-0.7451,-0.5747,-0.2002,-14.94,2.13,13.66
1496,388731982,-0.7344,-0.5732,-0.1948,-11.89,3.72,13.84
1497,388736984,-0.7192,-0.5674,-0.1899,-8.90,5.49,14.15
1498,388741984,-0.7080,-0.5684,-0.1895,-5.98,7.07,14.21
1499,388746984,-0.7036,-0.5679,-0.1870,-3.23,8.72,14.39
1500,388751985,-0.6997,-0.5654,-0.1851,-0.30,10.24,14.45
1501,388756984,-0.7002,-0.5625,-0.1836,2.44,11.83,14.51
1502,388761984,-0.7031,-0.5659,-0.1841,4.94,13.23,14.57
1503,388766984,-0.7065,-0.5649,-0.1899,7.26,14.63,14.57
1504,388772250,-0.7070,-0.5669,-0.1807,9.51,15.91,14.63
1505,388776984,-0.7139,-0.5708,-0.1885,11.34,17.20,14.63
1506,388781983,-0.7212,-0.5669,-0.1880,13.11,18.35,14.70
1507,388786984,-0.7354,-0.5703,-0.1841,14.70,19.45,14.76
1508,388792270,-0.7485,-0.5742,-0.1943,15.91,20.67,14.82
1509,388796984,-0.7627,-0.5728,-0.1973,17.26,21.71,14.94
1510,388802375,-0.7764,-0.5752,-0.2002,18.17,22.44,14.82
1511,388807373,-0.7920,-0.5835,-0.1997,18.96,23.54,14.94
1512,388811984,-0.8037,-0.5786,-0.2051,19.70,24.51,14.94
1513,388816984,-0.8145,-0.5801,-0.1992,20.18,25.30,15.00
1514,388821984,-0.8247,-0.5781,-0.2075,20.49,26.04,14.94
1515,388826984,-0.8384,-0.5806,-0.2046,20.67,26.89,15.00
1516,388831985,-0.8525,-0.5815,-0.2153,20.55,27.80,15.12
1517,388836984,-0.8628,-0.5825,-0.2100,20.55,28.78,15.12
1518,388841984,-0.8735,-0.5859,-0.2075,20.37,29.51,14.94
1519,388846984,-0.8843,-0.5864,-0.2065,20.00,30.43,15.12
1520,388851984,-0.8979,-0.5859,-0.2051,19.70,31.16,15.12
1521,388856984,-0.8994,-0.5889,-0.2046,19.33,32.20,15.12
1522,388861984,-0.8989,-0.5869,-0.2026,19.09,33.11,15.06
1523,388866985,-0.8960,-0.5874,-0.2036,18.60,34.02,15.06
1524,388871984,-0.8945,-0.5854,-0.2017,18.23,34.70,14.94
1525,388876984,-0.8945,-0.5825,-0.1924,17.74,35.73,14.88
1526,388881984,-0.8862,-0.5791,-0.1890,17.44,36.77,14.88
1527,388886984,-0.8813,-0.5776,-0.1890,17.01,37.56,14.82
1528,388891983,-0.8765,-0.5791,-0.1836,16.59,38.35,14.76
1529,388896984,-0.8662,-0.5737,-0.1909,16.22,38.96,14.82
1530,388901984,-0.8633,-0.5752,-0.1816,15.85,39.76,14.76
1531,388906984,-0.8618,-0.5703,-0.1821,15.49,40.37,14.82
1532,388911984,-0.8550,-0.5718,-0.1807,15.18,40.98,14.70
1533,388916984,-0.8550,-0.5752,-0.1816,14.88,41.28,14.82
1534,388921984,-0.8486,-0.5762,-0.1782,14.76,41.83,14.88
1535,388926984,-0.8447,-0.5767,-0.1787,14.51,42.26,14.94
1536,388931985,-0.8403,-0.5820,-0.1738,14.33,42.50,15.37
1537,388936984,-0.8369,-0.5845,-0.1777,14.21,42.74,15.61
1538,388941984,-0.8359,-0.5898,-0.1772,14.15,42.74,15.85
1539,388946984,-0.8340,-0.5938,-0.1719,14.27,42.87,16.22
1540,388951984,-0.8262,-0.5869,-0.1870,14.63,43.11,16.65
1541,388956984,-0.8218,-0.5874,-0.1753,15.18,42.99,16.83
1542,388961984,-0.8149,-0.5864,-0.1719,15.67,43.23,17.20
1543,388966999,-0.8184,-0.5845,-0.1709,16.40,43.05,17.44
1544,388971984,-0.8120,-0.5835,-0.1797,17.38,42.99,17.68
1545,388976984,-0.8125,-0.5820,-0.1714,18.48,42.93,18.05
1546,388981984,-0.8071,-0.5840,-0.1753,19.88,42.87,18.05
1547,388986984,-0.8081,-0.5811,-0.1733,21.46,42.99,18.11
1548,388991984,-0.8115,-0.5762,-0.1772,23.11,42.99,18.17
1549,388996984,-0.8076,-0.5728,-0.1670,24.88,42.93,18.05
1550,389001984,-0.8091,-0.5708,-0.1724,26.71,43.05,17.80
1551,389006984,-0.8140,-0.5688,-0.1812,28.54,43.23,17.68
1552,389011984,-0.8179,-0.5703,-0.1753,30.24,43.29,17.32
1553,389016984,-0.8174,-0.5693,-0.1724,32.07,43.54,16.95
1554,389021982,-0.8174,-0.5698,-0.1777,33.60,43.60,16.71
1555,389026982,-0.8193,-0.5732,-0.1772,34.76,43.90,16.22
1556,389031982,-0.8330,-0.5850,-0.1782,35.91,44.21,15.79
1557,389036983,-0.8433,-0.5894,-0.1792,36.65,44.45,15.43
1558,389041984,-0.8511,-0.5908,-0.1860,37.32,44.82,15.24
1559,389046984,-0.8633,-0.5967,-0.1870,37.80,45.30,14.82
1560,389051987,-0.8677,-0.5977,-0.1851,38.17,45.73,14.27
1561,389056984,-0.8774,-0.6016,-0.1924,38.41,46.22,13.96
1562,389061984,-0.8916,-0.6040,-0.1924,38.66,46.83,13.48
1563,389066984,-0.9116,-0.6030,-0.1987,38.90,47.32,12.93
1564,389071985,-0.9233,-0.5996,-0.2129,39.02,47.99,12.32
1565,389076984,-0.9424,-0.5972,-0.2051,39.15,48.60,11.59
1566,389081984,-0.9556,-0.5967,-0.2046,39.39,49.39,10.67
1567,389086984,-0.9658,-0.5889,-0.2080,39.45,50.30,9.88
1568,389091984,-0.9717,-0.5854,-0.1992,39.51,51.10,8.84
1569,389096984,-0.9688,-0.5767,-0.1997,39.39,51.95,7.68
1570,389101984,-0.9624,-0.5723,-0.1934,38.96,52.87,6.52
1571,389106984,-0.9482,-0.5737,-0.1826,38.41,54.02,5.30
1572,389111984,-0.9316,-0.5718,-0.1782,37.62,55.24,4.09
1573,389116985,-0.9146,-0.5601,-0.1675,36.40,56.34,2.80
1574,389121985,-0.8931,-0.5591,-0.1587,35.06,57.50,1.52
1575,389126984,-0.8726,-0.5518,-0.1533,33.17,58.78,0.18
1576,389131984,-0.8501,-0.5439,-0.1499,31.28,59.88,-0.98
1577,389136984,-0.8179,-0.5444,-0.1460,29.15,60.67,-2.07
1578,389141984,-0.7949,-0.5454,-0.1436,26.65,61.65,-3.11
1579,389146984,-0.7627,-0.5459,-0.1401,23.96,62.38,-3.84
1580,389151984,-0.7344,-0.5479,-0.1323,20.67,62.87,-4.63
1581,389157337,-0.7065,-0.5532,-0.1284,17.26,63.29,-5.12
1582,389161984,-0.6748,-0.5552,-0.1294,13.72,63.54,-5.49
1583,389166984,-0.6470,-0.5615,-0.1260,9.76,63.66,-5.67
1584,389171984,-0.6172,-0.5718,-0.1260,5.73,63.72,-5.55
1585,389176985,-0.5815,-0.5830,-0.1333,1.40,63.48,-5.18
1586,389181984,-0.5537,-0.5942,-0.1270,-3.23,63.05,-4.51
1587,389186984,-0.5327,-0.6079,-0.1382,-7.68,62.56,-3.66
1588,389191983,-0.5146,-0.6255,-0.1411,-12.26,61.77,-2.68
1589,389196986,-0.5024,-0.6353,-0.1538,-16.52,61.04,-1.34
1590,389201983,-0.5000,-0.6436,-0.1646,-20.55,60.18,-0.06
1591,389206984,-0.4912,-0.6533,-0.1699,-24.39,59.09,1.28
1592,389211982,-0.4927,-0.6641,-0.1841,-27.68,58.17,2.56
1593,389216984,-0.4985,-0.6689,-0.1934,-30.55,57.13,4.02
1594,389222139,-0.5122,-0.6733,-0.2021,-32.87,56.28,5.12
1595,389226985,-0.5264,-0.6821,-0.2114,-34.70,55.49,6.22
1596,389231984,-0.5439,-0.6919,-0.2241,-35.79,54.63,7.32
1597,389236984,-0.5635,-0.7085,-0.2334,-36.52,53.90,8.17
1598,389241984,-0.5815,-0.7202,-0.2476,-37.01,53.48,9.09
1599,389246984,-0.6001,-0.7324,-0.2534,-37.20,53.17,9.94
1600,389251984,-0.6235,-0.7451,-0.2622,-36.83,52.93,10.67
1601,389256984,-0.6484,-0.7544,-0.2749,-36.52,52.87,11.34
1602,389261984,-0.6694,-0.7642,-0.2778,-35.61,52.93,12.13
1603,389267666,-0.6880,-0.7793,-0.2886,-34.33,53.17,12.93
1604,389271984,-0.6943,-0.7808,-0.2915,-33.29,53.35,13.54
1605,389276984,-0.7017,-0.7930,-0.2896,-31.77,53.72,14.09
1606,389281985,-0.7075,-0.8022,-0.2920,-29.94,54.09,14.57
1607,389286984,-0.7124,-0.8096,-0.2993,-27.93,54.88,15.06
1608,389291984,-0.7163,-0.8052,-0.2930,-25.73,55.24,15.67
1609,389296984,-0.7246,-0.8125,-0.2891,-22.87,56.04,16.10
1610,389301984,-0.7114,-0.7891,-0.2910,-19.82,56.59,16.46
1611,389306984,-0.7104,-0.7969,-0.3008,-16.34,57.32,16.65
1612,389311982,-0.7051,-0.8022,-0.2900,-12.68,57.93,16.59
1613,389316982,-0.7026,-0.8008,-0.2876,-8.54,58.72,16.52
1614,389321984,-0.6895,-0.7935,-0.2827,-4.15,59.33,16.40
1615,389326984,-0.6807,-0.7891,-0.2812,0.73,60.06,16.04
1616,389331983,-0.6733,-0.7788,-0.2876,6.04,60.55,15.61
1617,389336983,-0.6636,-0.7744,-0.2773,11.52,61.10,15.12
1618,389341984,-0.6538,-0.7656,-0.2778,17.44,61.52,14.39
1619,389347343,-0.6514,-0.7676,-0.2695,23.41,61.95,13.84
1620,389351984,-0.6475,-0.7603,-0.2676,29.63,62.26,12.93
1621,389356984,-0.6470,-0.7559,-0.2642,35.85,62.50,12.07
1622,389361984,-0.6362,-0.7529,-0.2617,42.13,62.56,11.22
1623,389366984,-0.6328,-0.7471,-0.2578,48.35,62.68,10.30
1624,389371984,-0.6265,-0.7437,-0.2544,54.39,62.50,9.27
1625,389376984,-0.6221,-0.7354,-0.2500,60.18,62.44,8.23
1626,389381986,-0.6152,-0.7300,-0.2441,65.55,62.26,7.38
1627,389386984,-0.6128,-0.7266,-0.2393,70.37,61.83,6.40
1628,389391984,-0.6133,-0.7192,-0.2314,74.82,61.28,5.37
1629,389396984,-0.6021,-0.7134,-0.2280,78.41,60.79,4.45
1630,389401984,-0.5942,-0.7046,-0.2197,81.77,60.06,3.29
1631,389406983,-0.5898,-0.6958,-0.2158,84.21,59.39,2.44
1632,389411984,-0.5835,-0.6909,-0.2144,86.10,58.54,1.40
1633,389416982,-0.5801,-0.6821,-0.2070,87.13,57.68,0.43
1634,389421984,-0.5811,-0.6802,-0.2012,87.50,56.46,-0.43
1635,389426984,-0.5776,-0.6719,-0.1992,87.38,55.37,-1.34
1636,389431984,-0.5762,-0.6694,-0.1948,86.34,54.21,-2.13
1637,389436984,-0.5688,-0.6680,-0.1855,84.57,53.23,-3.05
1638,389441984,-0.5645,-0.6621,-0.1729,81.95,51.95,-3.66
1639,389447443,-0.5576,-0.6592,-0.1675,78.41,50.37,-4.45
1640,389451984,-0.5537,-0.6602,-0.1685,75.30,49.15,-4.94
1641,389456984,-0.5527,-0.6519,-0.1621,71.28,47.56,-5.49
1642,389461985,-0.5479,-0.6499,-0.1660,66.65,46.16,-6.04
1643,389466984,-0.5459,-0.6519,-0.1631,61.71,44.76,-6.46
1644,389471984,-0.5488,-0.6475,-0.1616,56.28,42.99,-7.01
1645,389476984,-0.5483,-0.6460,-0.1626,50.73,41.28,-7.44
1646,389481986,-0.5483,-0.6436,-0.1558,45.06,39.63,-7.74
1647,389486984,-0.5459,-0.6470,-0.1558,38.96,38.05,-8.11
1648,389491984,-0.5518,-0.6436,-0.1587,32.93,36.34,-8.29
1649,389496984,-0.5537,-0.6460,-0.1470,27.13,34.63,-8.60
1650,389501984,-0.5576,-0.6460,-0.1514,21.22,33.05,-8.78
1651,389506984,-0.5581,-0.6470,-0.1504,15.61,31.22,-8.96
1652,389511984,-0.5581,-0.6479,-0.1489,10.12,29.45,-9.21
1653,389516985,-0.5659,-0.6436,-0.1499,5.24,27.56,-9.39
1654,389522335,-0.5679,-0.6455,-0.1504,-0.37,25.61,-9.57
1655,389526984,-0.5732,-0.6426,-0.1484,-3.66,24.45,-9.82
1656,389532442,-0.5679,-0.6436,-0.1499,-7.87,22.26,-10.06
1657,389537482,-0.5737,-0.6421,-0.1587,-10.79,20.43,-10.43
1658,389541984,-0.5781,-0.6392,-0.1528,-13.17,18.72,-10.73
1659,389546984,-0.5801,-0.6411,-0.1577,-14.63,17.50,-10.98
1660,389551984,-0.5786,-0.6440,-0.1577,-16.16,15.98,-11.16
1661,389556984,-0.5815,-0.6475,-0.1592,-17.32,14.15,-11.59
1662,389561984,-0.5786,-0.6475,-0.1611,-18.05,12.38,-11.71
1663,389566984,-0.5767,-0.6519,-0.1641,-18.54,10.85,-11.95
1664,389571984,-0.5767,-0.6509,-0.1636,-18.84,9.15,-12.20
1665,389576984,-0.5747,-0.6523,-0.1665,-18.84,7.50,-12.13
1666,389581984,-0.5737,-0.6558,-0.1606,-18.60,5.91,-12.26
1667,389586986,-0.5674,-0.6592,-0.1719,-18.29,4.45,-12.38
1668,389591984,-0.5684,-0.6650,-0.1685,-17.80,2.56,-12.13
1669,389596984,-0.5664,-0.6641,-0.1719,-17.38,0.98,-12.07
1670,389601984,-0.5630,-0.6616,-0.1753,-16.65,-0.43,-11.95
1671,389606984,-0.5557,-0.6704,-0.1880,-15.91,-2.20,-11.71
1672,389611984,-0.5518,-0.6704,-0.1787,-15.18,-3.60,-11.16
1673,389616982,-0.5454,-0.6709,-0.1846,-14.39,-5.18,-11.10
1674,389621982,-0.5400,-0.6714,-0.1782,-13.35,-6.77,-10.55
1675,389626982,-0.5312,-0.6724,-0.1855,-12.50,-8.23,-10.18
1676,389631982,-0.5332,-0.6719,-0.1841,-11.52,-9.70,-9.82
1677,389636984,-0.5298,-0.6709,-0.1816,-10.43,-11.34,-9.33
1678,389641984,-0.5288,-0.6699,-0.1875,-9.57,-12.44,-8.96
1679,389646984,-0.5273,-0.6650,-0.1895,-8.41,-13.72,-8.54
1680,389651984,-0.5283,-0.6660,-0.1890,-7.32,-15.00,-8.23
1681,389656984,-0.5269,-0.6675,-0.1987,-6.34,-16.34,-7.80
1682,389661984,-0.5298,-0.6660,-0.2017,-5.24,-17.50,-7.50
1683,389666984,-0.5293,-0.6650,-0.2017,-4.27,-18.78,-7.13
1684,389671984,-0.5298,-0.6685,-0.2051,-3.23,-20.24,-6.65
1685,389676985,-0.5298,-0.6670,-0.2100,-2.62,-21.10,-6.34
1686,389681983,-0.5317,-0.6694,-0.2158,-1.95,-22.20,-6.10
1687,389686984,-0.5332,-0.6650,-0.2183,-1.40,-23.41,-5.73
1688,389691985,-0.5347,-0.6655,-0.2227,-1.10,-24.45,-5.43
1689,389696984,-0.5278,-0.6714,-0.2231,-0.91,-25.43,-5.06
1690,389701984,-0.5283,-0.6694,-0.2246,-0.85,-26.52,-4.76
1691,389706984,-0.5293,-0.6675,-0.2324,-0.91,-27.50,-4.57
1692,389711983,-0.5322,-0.6680,-0.2314,-1.10,-28.41,-4.39
1693,389716984,-0.5337,-0.6641,-0.2354,-1.46,-29.09,-4.21
1694,389721985,-0.5308,-0.6699,-0.2344,-1.77,-30.00,-4.15
1695,389726984,-0.5303,-0.6685,-0.2383,-2.44,-30.49,-4.15
1696,389731984,-0.5312,-0.6670,-0.2397,-2.99,-31.16,-4.09
1697,389736984,-0.5293,-0.6704,-0.2402,-3.78,-31.71,-4.09
1698,389741984,-0.5337,-0.6675,-0.2461,-4.39,-32.13,-4.21
1699,389746984,-0.5308,-0.6704,-0.2510,-5.18,-32.62,-4.27
1700,389751984,-0.5371,-0.6694,-0.2495,-5.79,-32.93,-4.45
1701,389756984,-0.5454,-0.6680,-0.2554,-6.59,-33.17,-4.76
1702,389761984,-0.5435,-0.6655,-0.2500,-7.26,-33.35,-4.94
1703,389766984,-0.5488,-0.6694,-0.2583,-7.87,-33.60,-5.24
1704,389771984,-0.5571,-0.6680,-0.2676,-8.48,-33.66,-5.61
1705,389776985,-0.5645,-0.6660,-0.2642,-8.78,-33.90,-5.85
1706,389782258,-0.5635,-0.6670,-0.2734,-9.33,-34.02,-6.40
1707,389786985,-0.5688,-0.6689,-0.2822,-9.63,-34.15,-6.77
1708,389791984,-0.5708,-0.6680,-0.2764,-10.00,-34.15,-7.32
1709,389796984,-0.5713,-0.6631,-0.2832,-10.24,-34.27,-7.68
1710,389801984,-0.5728,-0.6631,-0.2886,-10.61,-34.45,-8.17
1711,389806984,-0.5698,-0.6646,-0.2832,-10.91,-34.51,-8.54
1712,389811983,-0.5752,-0.6626,-0.2949,-11.28,-34.70,-8.96
1713,389816983,-0.5654,-0.6660,-0.2930,-11.59,-34.88,-9.39
1714,389821985,-0.5674,-0.6650,-0.3008,-12.07,-35.00,-9.76
1715,389826982,-0.5615,-0.6631,-0.2900,-12.56,-35.49,-10.12
1716,389831984,-0.5630,-0.6606,-0.3022,-13.05,-35.79,-10.49
1717,389836984,-0.5649,-0.6660,-0.3062,-13.66,-36.04,-10.67
1718,389841984,-0.5640,-0.6655,-0.3101,-14.27,-36.46,-10.98
1719,389846984,-0.5562,-0.6631,-0.3042,-14.82,-37.13,-11.10
1720,389851984,-0.5591,-0.6670,-0.3179,-15.37,-37.38,-11.34
1721,389856985,-0.5576,-0.6670,-0.3179,-16.16,-37.93,-11.71
1722,389861984,-0.5562,-0.6650,-0.3208,-16.71,-38.29,-11.77
1723,389866984,-0.5571,-0.6685,-0.3203,-17.32,-38.90,-11.95
1724,389871984,-0.5581,-0.6650,-0.3252,-17.80,-39.09,-12.07
1725,389876984,-0.5640,-0.6655,-0.3286,-18.23,-39.63,-12.32
1726,389881984,-0.5659,-0.6641,-0.3335,-18.60,-39.82,-12.50
1727,389886984,-0.5688,-0.6660,-0.3413,-18.96,-40.06,-12.74
1728,389891985,-0.5684,-0.6650,-0.3491,-19.33,-40.37,-12.99
1729,389896984,-0.5679,-0.6636,-0.3516,-19.51,-40.61,-13.23
1730,389901984,-0.5732,-0.6606,-0.3506,-19.76,-40.61,-13.35
1731,389906984,-0.5718,-0.6606,-0.3545,-19.82,-40.91,-13.60
1732,389911983,-0.5703,-0.6685,-0.3579,-20.00,-41.04,-13.72
1733,389917567,-0.5684,-0.6636,-0.3604,-19.88,-41.16,-13.84
1734,389921984,-0.5679,-0.6670,-0.3628,-19.94,-41.22,-13.96
1735,389927778,-0.5640,-0.6670,-0.3701,-19.76,-41.28,-14.09
1736,389931985,-0.5625,-0.6670,-0.3721,-19.70,-41.46,-14.15
1737,389936984,-0.5610,-0.6626,-0.3735,-19.45,-41.40,-14.21
1738,389941984,-0.5576,-0.6646,-0.3711,-19.21,-41.59,-14.15
1739,389946984,-0.5547,-0.6670,-0.3750,-18.84,-41.40,-14.15
1740,389951984,-0.5513,-0.6680,-0.3848,-18.48,-41.52,-14.09
1741,389956984,-0.5503,-0.6699,-0.3809,-18.17,-41.40,-14.02
1742,389961982,-0.5518,-0.6685,-0.3838,-17.68,-41.46,-13.90
1743,389967023,-0.5518,-0.6670,-0.3843,-17.20,-41.34,-13.84
1744,389971983,-0.5542,-0.6616,-0.3916,-16.59,-41.10,-13.66
1745,389976984,-0.5591,-0.6660,-0.3936,-16.10,-40.85,-13.72
1746,389981984,-0.5635,-0.6665,-0.3931,-15.61,-40.37,-13.54
1747,389987487,-0.5625,-0.6709,-0.4014,-15.00,-40.06,-13.41
1748,389991985,-0.5674,-0.6655,-0.4087,-14.51,-39.63,-13.35
1749,389996984,-0.5737,-0.6704,-0.4082,-14.02,-39.15,-13.41
1750,390001984,-0.5723,-0.6670,-0.4106,-13.72,-38.60,-13.41
1751,390006984,-0.5723,-0.6680,-0.4116,-13.41,-38.05,-13.41
1752,390011984,-0.5747,-0.6660,-0.4199,-13.23,-37.32,-13.41
1753,390016984,-0.5791,-0.6670,-0.4209,-13.23,-36.65,-13.41
1754,390021983,-0.5776,-0.6680,-0.4204,-13.05,-35.91,-13.54
1755,390026984,-0.5762,-0.6636,-0.4272,-12.93,-35.06,-13.60
1756,390031982,-0.5767,-0.6641,-0.4268,-12.74,-34.21,-13.60
1757,390036984,-0.5806,-0.6685,-0.4316,-12.56,-33.41,-13.54
1758,390041984,-0.5786,-0.6646,-0.4302,-12.38,-32.56,-13.54
1759,390046984,-0.5747,-0.6606,-0.4263,-12.26,-31.65,-13.66
1760,390051984,-0.5732,-0.6631,-0.4258,-12.13,-30.91,-13.72
1761,390056987,-0.5732,-0.6626,-0.4307,-12.07,-29.94,-13.60
1762,390061984,-0.5708,-0.6611,-0.4346,-11.95,-28.96,-13.54
1763,390066984,-0.5713,-0.6641,-0.4268,-11.95,-28.17,-13.48
1764,390071984,-0.5728,-0.6660,-0.4375,-12.01,-27.32,-13.35
1765,390076984,-0.5693,-0.6646,-0.4370,-12.13,-26.22,-13.29
1766,390081984,-0.5718,-0.6655,-0.4399,-12.20,-25.30,-13.17
1767,390086984,-0.5703,-0.6621,-0.4419,-12.20,-24.21,-13.05
1768,390091985,-0.5728,-0.6621,-0.4375,-12.20,-23.35,-12.93
1769,390096984,-0.5684,-0.6611,-0.4404,-12.26,-22.13,-12.80
1770,390101984,-0.5664,-0.6602,-0.4365,-12.50,-21.04,-12.50
1771,390106984,-0.5659,-0.6582,-0.4448,-12.50,-20.06,-12.44
1772,390111984,-0.5625,-0.6631,-0.4429,-12.56,-19.02,-12.20
1773,390116987,-0.5557,-0.6606,-0.4404,-12.56,-17.87,-11.95
1774,390122066,-0.5596,-0.6562,-0.4360,-12.62,-16.71,-11.65
1775,390127460,-0.5640,-0.6572,-0.4443,-12.50,-15.67,-11.40
1776,390131984,-0.5630,-0.6553,-0.4414,-12.38,-14.70,-11.22
1777,390136984,-0.5591,-0.6543,-0.4404,-12.07,-13.60,-10.85
1778,390141984,-0.5566,-0.6577,-0.4370,-11.65,-12.38,-10.43
1779,390146984,-0.5620,-0.6558,-0.4351,-11.22,-11.40,-10.18
1780,390151984,-0.5620,-0.6528,-0.4443,-10.73,-10.18,-9.82
1781,390157336,-0.5557,-0.6484,-0.4360,-10.18,-9.45,-9.39
1782,390161984,-0.5557,-0.6465,-0.4385,-9.45,-8.54,-9.09
1783,390166984,-0.5522,-0.6455,-0.4414,-8.48,-7.32,-8.72
1784,390171985,-0.5469,-0.6475,-0.4341,-7.56,-6.40,-8.41
1785,390176984,-0.5464,-0.6440,-0.4351,-6.71,-5.49,-8.05
1786,390181984,-0.5479,-0.6440,-0.4277,-5.79,-4.57,-7.62
1787,390186985,-0.5459,-0.6445,-0.4326,-4.76,-3.66,-7.20
1788,390191984,-0.5449,-0.6431,-0.4351,-3.78,-2.87,-6.89
1789,390196987,-0.5444,-0.6382,-0.4336,-2.80,-2.13,-6.46
1790,390201986,-0.5444,-0.6392,-0.4287,-1.77,-1.28,-6.10
1791,390206984,-0.5439,-0.6396,-0.4263,-0.79,-0.67,-5.67
1792,390211983,-0.5435,-0.6382,-0.4258,0.30,0.12,-5.12
1793,390216982,-0.5425,-0.6357,-0.4194,1.46,0.91,-4.82
1794,390221982,-0.5474,-0.6348,-0.4209,2.56,1.65,-4.39
1795,390226982,-0.5488,-0.6323,-0.4272,3.84,2.32,-4.02
1796,390231982,-0.5562,-0.6348,-0.4233,5.00,3.05,-3.48
1797,390236982,-0.5610,-0.6343,-0.4214,6.04,3.78,-3.11
1798,390241984,-0.5605,-0.6348,-0.4229,7.13,4.57,-2.74
1799,390246986,-0.5630,-0.6318,-0.4170,7.99,5.43,-2.32
1800,390251984,-0.5669,-0.6309,-0.4175,8.90,6.28,-2.07
1801,390256984,-0.5684,-0.6284,-0.4204,9.76,7.01,-1.59
1802,390261984,-0.5669,-0.6265,-0.4170,10.37,7.80,-1.28
1803,390266984,-0.5679,-0.6270,-0.4102,10.91,8.54,-0.85
1804,390271984,-0.5688,-0.6294,-0.4053,11.46,9.27,-0.61
1805,390277062,-0.5640,-0.6313,-0.4033,11.89,10.00,-0.24
1806,390281983,-0.5723,-0.6289,-0.4067,11.95,10.73,0.12
1807,390286986,-0.5659,-0.6299,-0.3994,12.07,11.52,0.49
1808,390291983,-0.5635,-0.6294,-0.3950,12.01,12.26,0.98
1809,390296984,-0.5630,-0.6284,-0.3979,11.83,12.80,1.34
1810,390301984,-0.5664,-0.6304,-0.3896,11.65,13.29,1.77
1811,390306984,-0.5664,-0.6318,-0.3926,11.40,14.09,2.26
1812,390311983,-0.5625,-0.6313,-0.3896,11.10,14.45,2.62
1813,390316984,-0.5625,-0.6372,-0.3818,10.85,15.00,3.17
1814,390321983,-0.5610,-0.6338,-0.3799,10.49,15.55,3.60
1815,390326984,-0.5635,-0.6328,-0.3813,10.12,15.91,4.21
1816,390331984,-0.5610,-0.6323,-0.3809,9.88,16.28,4.70
1817,390336984,-0.5620,-0.6313,-0.3813,9.57,16.59,5.18
1818,390341984,-0.5605,-0.6313,-0.3677,9.45,16.89,5.79
1819,390346984,-0.5518,-0.6328,-0.3647,9.39,17.26,6.28
1820,390351985,-0.5576,-0.6343,-0.3623,9.33,17.32,7.01
1821,390356984,-0.5557,-0.6362,-0.3633,9.45,17.44,7.50
1822,390361984,-0.5581,-0.6348,-0.3638,9.57,17.62,8.05
1823,390366984,-0.5615,-0.6333,-0.3643,9.76,17.93,8.72
1824,390371984,-0.5630,-0.6367,-0.3608,9.82,17.99,9.09
1825,390376984,-0.5615,-0.6353,-0.3516,10.06,17.99,9.45
1826,390381982,-0.5645,-0.6309,-0.3525,10.24,18.29,9.94
1827,390387447,-0.5664,-0.6372,-0.3438,10.43,18.23,10.43
1828,390391984,-0.5630,-0.6387,-0.3433,10.67,18.41,10.91
1829,390396984,-0.5654,-0.6357,-0.3457,10.91,18.60,11.40
1830,390401984,-0.5659,-0.6372,-0.3423,11.22,18.54,11.89
1831,390406986,-0.5654,-0.6387,-0.3364,11.52,18.66,12.26
1832,390411984,-0.5635,-0.6392,-0.3438,11.89,18.66,12.74
1833,390416984,-0.5635,-0.6406,-0.3384,12.07,18.54,13.23
1834,390422388,-0.5640,-0.6445,-0.3301,12.20,18.48,13.72
1835,390426984,-0.5615,-0.6436,-0.3257,12.56,18.35,14.15
1836,390431984,-0.5581,-0.6436,-0.3296,12.62,18.29,14.39
1837,390436983,-0.5615,-0.6406,-0.3286,12.93,18.17,14.88
1838,390442478,-0.5615,-0.6401,-0.3232,13.23,18.17,15.24
1839,390446984,-0.5576,-0.6436,-0.3262,13.60,18.29,15.49
1840,390451984,-0.5601,-0.6450,-0.3237,13.84,17.99,15.73
1841,390456984,-0.5576,-0.6445,-0.3271,14.27,17.87,15.98
1842,390461984,-0.5547,-0.6450,-0.3276,14.76,17.74,16.40
1843,390466984,-0.5562,-0.6465,-0.3208,15.30,17.68,16.52
1844,390471984,-0.5591,-0.6465,-0.3218,15.85,17.56,16.77
1845,390476984,-0.5605,-0.6533,-0.3193,16.34,17.38,16.83
1846,390481986,-0.5596,-0.6528,-0.3208,16.83,17.26,17.07
1847,390486984,-0.5601,-0.6543,-0.3188,17.38,17.13,17.26
1848,390491984,-0.5659,-0.6548,-0.3154,17.74,17.01,17.38
1849,390496984,-0.5562,-0.6553,-0.3110,18.23,16.95,17.56
1850,390502340,-0.5645,-0.6548,-0.3076,18.60,16.71,17.62
1851,390506985,-0.5635,-0.6553,-0.3130,18.90,16.65,17.80
1852,390511983,-0.5640,-0.6548,-0.3042,19.15,16.34,17.87
1853,390516982,-0.5664,-0.6548,-0.3076,19.27,16.34,17.99
1854,390521982,-0.5693,-0.6587,-0.3076,19.21,16.22,17.99
1855,390526982,-0.5737,-0.6611,-0.3008,19.15,15.91,18.11
1856,390531982,-0.5718,-0.6626,-0.2993,18.78,15.85,18.05
1857,390536982,-0.5732,-0.6626,-0.3018,18.72,15.67,18.17
1858,390542838,-0.5732,-0.6660,-0.3042,18.23,15.30,18.29
1859,390546986,-0.5723,-0.6670,-0.3037,18.05,15.37,18.17
1860,390551984,-0.5674,-0.6670,-0.2998,17.74,15.18,18.17
1861,390556984,-0.5718,-0.6650,-0.2949,17.32,15.12,18.17
1862,390561984,-0.5747,-0.6699,-0.2979,16.77,15.00,18.23
1863,390566984,-0.5703,-0.6685,-0.2891,16.34,14.82,18.05
1864,390571984,-0.5752,-0.6709,-0.2920,15.91,14.57,17.99
1865,390576984,-0.5713,-0.6699,-0.2920,15.55,14.45,17.99
1866,390581983,-0.5757,-0.6729,-0.2876,15.12,14.27,17.93
1867,390586986,-0.5737,-0.6729,-0.2910,14.70,14.09,17.74
1868,390591984,-0.5718,-0.6704,-0.2861,14.33,14.02,17.68
1869,390596984,-0.5698,-0.6738,-0.2881,13.96,13.72,17.50
1870,390601984,-0.5723,-0.6748,-0.2852,13.66,13.48,17.32
1871,390606982,-0.5713,-0.6777,-0.2852,13.23,13.23,17.32
1872,390611984,-0.5693,-0.6758,-0.2759,12.99,13.05,17.20
1873,390616986,-0.5698,-0.6816,-0.2915,12.74,12.68,16.95
1874,390621984,-0.5688,-0.6836,-0.2900,12.38,12.26,16.89
1875,390626984,-0.5742,-0.6797,-0.2871,12.26,12.20,16.83
1876,390631984,-0.5728,-0.6812,-0.2798,12.01,11.89,16.65
1877,390636984,-0.5713,-0.6846,-0.2822,11.89,11.52,16.52
1878,390641984,-0.5752,-0.6875,-0.2852,11.65,11.22,16.28
1879,390646984,-0.5757,-0.6885,-0.2847,11.77,10.98,16.16
1880,390652175,-0.5762,-0.6914,-0.2861,11.71,10.61,16.04
1881,390656984,-0.5747,-0.6880,-0.2812,11.71,10.30,15.79
1882,390661984,-0.5781,-0.6875,-0.2773,11.89,10.06,15.49
1883,390666984,-0.5791,-0.6914,-0.2793,11.95,9.63,15.37
1884,390671984,-0.5825,-0.6904,-0.2788,11.95,9.45,15.12
1885,390676984,-0.5845,-0.6924,-0.2808,12.07,9.15,14.82
1886,390681984,-0.5850,-0.6943,-0.2803,12.20,8.72,14.57
1887,390686984,-0.5859,-0.6948,-0.2861,12.38,8.48,14.27
1888,390692433,-0.5869,-0.6992,-0.2773,12.38,7.80,13.90
1889,390696984,-0.5869,-0.6938,-0.2837,12.38,7.68,13.78
1890,390701984,-0.5879,-0.6953,-0.2876,12.44,7.50,13.48
1891,390706984,-0.5869,-0.6948,-0.2754,12.32,7.01,13.05
1892,390711984,-0.5874,-0.6982,-0.2764,12.20,6.71,12.80
1893,390716984,-0.5835,-0.6938,-0.2822,11.89,6.34,12.62
1894,390721984,-0.5850,-0.6948,-0.2773,11.59,5.85,12.07
1895,390726984,-0.5830,-0.6982,-0.2783,11.34,5.73,11.83
1896,390731984,-0.5840,-0.6997,-0.2793,10.85,5.24,11.52
1897,390736985,-0.5820,-0.6992,-0.2812,10.49,4.88,11.16
1898,390741984,-0.5811,-0.7021,-0.2812,9.88,4.57,10.79
1899,390746984,-0.5757,-0.7017,-0.2778,9.33,4.09,10.37
1900,390751984,-0.5762,-0.6997,-0.2798,8.90,3.72,9.94
1901,390756983,-0.5781,-0.7017,-0.2778,8.35,3.17,9.70
1902,390761986,-0.5786,-0.7002,-0.2812,7.74,2.80,9.21
1903,390766984,-0.5757,-0.7021,-0.2832,7.07,2.26,8.96
1904,390772136,-0.5786,-0.6997,-0.2754,6.40,1.77,8.54
1905,390776986,-0.5786,-0.7007,-0.2817,5.73,1.10,8.17
1906,390781983,-0.5806,-0.6963,-0.2808,4.94,0.79,7.80
1907,390786984,-0.5786,-0.7021,-0.2842,4.21,0.24,7.26
1908,390791984,-0.5845,-0.7017,-0.2803,3.41,-0.12,6.95
1909,390796983,-0.5840,-0.7002,-0.2822,2.74,-0.55,6.52
1910,390801985,-0.5864,-0.7031,-0.2832,2.07,-0.85,6.10
1911,390806984,-0.5854,-0.7046,-0.2793,1.34,-1.28,5.67
1912,390811982,-0.5879,-0.7056,-0.2832,0.61,-1.71,5.18
1913,390816982,-0.5908,-0.7061,-0.2798,-0.12,-2.07,4.82
1914,390821982,-0.5869,-0.7070,-0.2871,-0.67,-2.44,4.27
1915,390826982,-0.5864,-0.7070,-0.2832,-1.34,-2.87,3.84
1916,390831982,-0.5869,-0.7095,-0.2881,-2.01,-3.17,3.48
1917,390836983,-0.5874,-0.7031,-0.2939,-2.44,-3.54,2.99
1918,390842028,-0.5864,-0.7056,-0.2915,-2.80,-3.78,2.62
1919,390846986,-0.5796,-0.6992,-0.2905,-3.17,-4.21,2.20
1920,390851984,-0.5889,-0.7002,-0.2881,-3.48,-4.51,1.65
1921,390856984,-0.5850,-0.6992,-0.2969,-3.78,-4.82,1.16
1922,390861984,-0.5806,-0.7007,-0.2910,-3.96,-5.12,0.73
1923,390866984,-0.5801,-0.7026,-0.2886,-4.02,-5.49,0.43
1924,390871984,-0.5845,-0.6997,-0.2935,-4.21,-5.98,0.00
1925,390876983,-0.5854,-0.7002,-0.3013,-4.57,-6.22,-0.43
1926,390881984,-0.5806,-0.7026,-0.2969,-4.70,-6.52,-0.85
1927,390886984,-0.5781,-0.7007,-0.2905,-4.94,-6.95,-1.28
1928,390891984,-0.5801,-0.6973,-0.2964,-5.00,-7.13,-1.46
1929,390896984,-0.5815,-0.6973,-0.3008,-5.24,-7.44,-1.83
1930,390901984,-0.5854,-0.6987,-0.2993,-5.37,-7.68,-2.13
1931,390906983,-0.5850,-0.6924,-0.3037,-5.67,-8.11,-2.50
1932,390911984,-0.5830,-0.6953,-0.3052,-5.73,-8.35,-2.80
1933,390916984,-0.5874,-0.6929,-0.2998,-6.10,-8.54,-3.11
1934,390921984,-0.5801,-0.6929,-0.3081,-6.40,-8.72,-3.41
1935,390926984,-0.5894,-0.6870,-0.3071,-6.83,-8.90,-3.78
1936,390931984,-0.5874,-0.6899,-0.3081,-7.13,-9.09,-3.96
1937,390936984,-0.5894,-0.6895,-0.3066,-7.56,-9.09,-4.21
1938,390941983,-0.5869,-0.6963,-0.3047,-7.99,-9.15,-4.45
1939,390946984,-0.5869,-0.6953,-0.3071,-8.48,-9.51,-4.70
1940,390951984,-0.5854,-0.6880,-0.3125,-8.90,-9.51,-4.94
1941,390956984,-0.5908,-0.6914,-0.3071,-9.33,-9.57,-5.06
1942,390961984,-0.5884,-0.6924,-0.3115,-9.70,-9.70,-5.43
1943,390966984,-0.5864,-0.6870,-0.3135,-10.00,-9.70,-5.61
1944,390971984,-0.5869,-0.6851,-0.3145,-10.30,-9.88,-5.85
1945,390976984,-0.5845,-0.6851,-0.3159,-10.49,-9.76,-5.98
1946,390981984,-0.5854,-0.6812,-0.3208,-10.67,-9.88,-6.28
1947,390986984,-0.5830,-0.6836,-0.3193,-10.85,-10.00,-6.46
1948,390991984,-0.5811,-0.6816,-0.3164,-10.91,-10.00,-6.52
1949,390996984,-0.5835,-0.6777,-0.3193,-10.85,-10.00,-6.77
1950,391001984,-0.5781,-0.6792,-0.3184,-10.98,-10.18,-6.95
1951,391007350,-0.5791,-0.6763,-0.3188,-10.79,-10.18,-7.13
1952,391011984,-0.5767,-0.6782,-0.3232,-10.79,-10.24,-7.26
1953,391016984,-0.5781,-0.6758,-0.3184,-10.73,-10.30,-7.44
1954,391021986,-0.5747,-0.6738,-0.3193,-10.67,-10.30,-7.68
1955,391026984,-0.5742,-0.6714,-0.3237,-10.43,-10.43,-7.80
1956,391031984,-0.5767,-0.6719,-0.3252,-10.37,-10.43,-7.99
1957,391036984,-0.5771,-0.6738,-0.3276,-10.30,-10.37,-8.05
1958,391041984,-0.5747,-0.6709,-0.3262,-10.12,-10.43,-8.11
1959,391046984,-0.5762,-0.6743,-0.3228,-10.24,-10.37,-8.17
1960,391052090,-0.5762,-0.6704,-0.3296,-10.18,-10.61,-8.29
1961,391056984,-0.5767,-0.6719,-0.3325,-10.12,-10.49,-8.17
1962,391062417,-0.5747,-0.6694,-0.3315,-10.18,-10.55,-8.23
1963,391066984,-0.5767,-0.6743,-0.3296,-10.24,-10.55,-8.29
1964,391071984,-0.5835,-0.6719,-0.3276,-10.24,-10.55,-8.11
1965,391076984,-0.5796,-0.6670,-0.3330,-10.06,-10.49,-8.05
1966,391081984,-0.5801,-0.6631,-0.3354,-10.06,-10.55,-8.05
1967,391086987,-0.5757,-0.6689,-0.3330,-9.88,-10.55,-7.93
1968,391091984,-0.5801,-0.6675,-0.3350,-9.63,-10.55,-7.93
1969,391096984,-0.5801,-0.6621,-0.3354,-9.39,-10.49,-7.93
1970,391101984,-0.5767,-0.6670,-0.3403,-8.96,-10.67,-7.87
1971,391106985,-0.5781,-0.6611,-0.3389,-8.78,-10.43,-7.68
1972,391111983,-0.5737,-0.6646,-0.3364,-8.60,-10.43,-7.74
1973,391116984,-0.5737,-0.6636,-0.3374,-8.29,-10.43,-7.74
1974,391121983,-0.5732,-0.6646,-0.3452,-8.05,-10.30,-7.62
1975,391126985,-0.5732,-0.6606,-0.3374,-7.74,-10.18,-7.38
1976,391131982,-0.5781,-0.6631,-0.3467,-7.50,-10.06,-7.26
1977,391136982,-0.5762,-0.6660,-0.3413,-7.32,-10.12,-7.26
1978,391141982,-0.5786,-0.6606,-0.3506,-7.01,-9.88,-7.13
1979,391146984,-0.5791,-0.6587,-0.3369,-6.71,-9.70,-6.95
1980,391151985,-0.5811,-0.6641,-0.3457,-6.40,-9.57,-6.95
1981,391156982,-0.5747,-0.6631,-0.3506,-6.04,-9.51,-6.65
1982,391161984,-0.5737,-0.6621,-0.3442,-5.73,-9.33,-6.71
1983,391166984,-0.5732,-0.6582,-0.3428,-5.43,-9.09,-6.52
1984,391171984,-0.5742,-0.6572,-0.3433,-5.06,-9.02,-6.40
1985,391176983,-0.5718,-0.6602,-0.3481,-4.63,-8.78,-6.28
1986,391182108,-0.5732,-0.6592,-0.3457,-4.09,-8.72,-6.16
1987,391186982,-0.5771,-0.6562,-0.3477,-3.72,-8.72,-6.16
1988,391191983,-0.5771,-0.6577,-0.3501,-3.29,-8.48,-5.91
1989,391196985,-0.5815,-0.6562,-0.3496,-2.80,-8.35,-6.04
1990,391201982,-0.5728,-0.6592,-0.3506,-2.56,-8.11,-5.79
1991,391206984,-0.5728,-0.6562,-0.3525,-2.20,-8.05,-5.73
1992,391211986,-0.5698,-0.6553,-0.3525,-1.89,-8.05,-5.67
1993,391216983,-0.5664,-0.6558,-0.3545,-1.59,-7.87,-5.55
1994,391221984,-0.5654,-0.6572,-0.3481,-1.28,-7.62,-5.49
1995,391226984,-0.5645,-0.6553,-0.3540,-1.16,-7.62,-5.37
1996,391231982,-0.5664,-0.6543,-0.3574,-1.22,-7.50,-5.24
1997,391236984,-0.5649,-0.6567,-0.3521,-1.10,-7.38,-5.12
1998,391241984,-0.5615,-0.6562,-0.3530,-0.98,-7.32,-5.06
1999,391246983,-0.5557,-0.6562,-0.3560,-0.98,-7.13,-4.94
2000,391251982,-0.5664,-0.6558,-0.3506,-0.98,-7.07,-4.76
2001,391256983,-0.5679,-0.6553,-0.3540,-1.16,-6.95,-4.57
2002,391261984,-0.5669,-0.6519,-0.3564,-1.16,-6.71,-4.51
2003,391266984,-0.5664,-0.6533,-0.3550,-1.16,-6.77,-4.39
2004,391271984,-0.5640,-0.6548,-0.3545,-1.10,-6.52,-4.15
2005,391276984,-0.5674,-0.6519,-0.3555,-1.22,-6.34,-4.02
2006,391281984,-0.5708,-0.6562,-0.3535,-1.16,-6.16,-4.02
2007,391286984,-0.5635,-0.6504,-0.3579,-1.22,-6.10,-3.90
2008,391292091,-0.5635,-0.6553,-0.3550,-1.40,-5.91,-3.60
2009,391296984,-0.5674,-0.6548,-0.3496,-1.46,-5.73,-3.66
2010,391301984,-0.5645,-0.6538,-0.3540,-1.40,-5.61,-3.48
2011,391306984,-0.5645,-0.6519,-0.3535,-1.59,-5.43,-3.35
2012,391311984,-0.5674,-0.6528,-0.3511,-1.65,-5.30,-3.17
2013,391316984,-0.5635,-0.6509,-0.3589,-1.77,-5.30,-3.05
2014,391321984,-0.5605,-0.6494,-0.3569,-1.65,-5.06,-2.99
2015,391327075,-0.5625,-0.6470,-0.3545,-1.71,-5.00,-2.80
2016,391331984,-0.5586,-0.6440,-0.3486,-1.52,-4.88,-2.74
2017,391336984,-0.5581,-0.6465,-0.3477,-1.40,-4.88,-2.68
2018,391341984,-0.5586,-0.6509,-0.3516,-1.22,-4.82,-2.44
2019,391346984,-0.5586,-0.6479,-0.3525,-0.98,-4.63,-2.50
2020,391351984,-0.5635,-0.6504,-0.3599,-0.79,-4.63,-2.26
2021,391356983,-0.5684,-0.6475,-0.3550,-0.67,-4.70,-2.13
2022,391361984,-0.5654,-0.6489,-0.3550,-0.37,-4.63,-1.95
2023,391366984,-0.5659,-0.6479,-0.3589,-0.18,-4.51,-1.83
2024,391371984,-0.5635,-0.6465,-0.3545,-0.06,-4.39,-1.71
2025,391376984,-0.5664,-0.6450,-0.3594,0.18,-4.39,-1.59
2026,391381984,-0.5630,-0.6494,-0.3569,0.30,-4.39,-1.46
2027,391386984,-0.5620,-0.6499,-0.3564,0.55,-4.15,-1.28
2028,391391984,-0.5596,-0.6475,-0.3560,0.55,-4.27,-1.22
2029,391396984,-0.5625,-0.6494,-0.3506,0.67,-4.02,-0.98
2030,391401984,-0.5645,-0.6484,-0.3511,0.73,-3.84,-0.98
2031,391406984,-0.5645,-0.6479,-0.3516,0.61,-3.90,-0.91
2032,391411984,-0.5635,-0.6475,-0.3550,0.73,-3.78,-0.61
2033,391416984,-0.5537,-0.6533,-0.3574,0.73,-3.60,-0.61
2034,391421984,-0.5591,-0.6479,-0.3550,0.61,-3.72,-0.43
2035,391426983,-0.5562,-0.6504,-0.3521,0.61,-3.48,-0.24
2036,391431985,-0.5610,-0.6514,-0.3525,0.37,-3.48,0.00
2037,391437093,-0.5640,-0.6484,-0.3564,0.24,-3.35,0.18
2038,391441985,-0.5645,-0.6479,-0.3525,0.12,-3.35,0.24
2039,391446983,-0.5625,-0.6465,-0.3579,0.06,-3.23,0.43
2040,391451983,-0.5640,-0.6509,-0.3550,0.12,-3.29,0.67
2041,391456984,-0.5625,-0.6553,-0.3530,-0.06,-3.17,0.85
2042,391461984,-0.5625,-0.6533,-0.3511,-0.18,-2.93,0.91
2043,391466984,-0.5620,-0.6567,-0.3486,-0.12,-2.99,1.16
2044,391471984,-0.5596,-0.6528,-0.3564,-0.18,-2.93,1.28
2045,391476984,-0.5601,-0.6499,-0.3604,-0.12,-2.87,1.28
2046,391481982,-0.5605,-0.6528,-0.3521,-0.06,-2.62,1.46
2047,391486984,-0.5562,-0.6504,-0.3481,0.18,-2.56,1.71
2048,391491984,-0.5571,-0.6558,-0.3540,0.30,-2.38,1.77
2049,391497244,-0.5576,-0.6538,-0.3438,0.49,-2.50,1.89
2050,391501986,-0.5562,-0.6558,-0.3540,0.73,-2.32,2.07
2051,391506982,-0.5552,-0.6572,-0.3511,0.85,-2.32,1.95
2052,391511982,-0.5542,-0.6553,-0.3491,0.91,-2.26,2.20
2053,391517129,-0.5547,-0.6548,-0.3467,1.04,-2.13,2.32
2054,391522493,-0.5571,-0.6553,-0.3511,1.04,-2.13,2.26
2055,391526985,-0.5605,-0.6567,-0.3481,1.10,-2.13,2.38
2056,391532535,-0.5591,-0.6587,-0.3540,1.34,-2.20,2.50
2057,391536984,-0.5610,-0.6562,-0.3540,1.40,-1.83,2.62
2058,391541984,-0.5645,-0.6577,-0.3545,1.52,-1.89,2.68
2059,391546984,-0.5620,-0.6631,-0.3535,1.65,-1.95,2.74
2060,391551984,-0.5610,-0.6611,-0.3511,1.65,-2.01,2.74
2061,391557067,-0.5645,-0.6602,-0.3501,2.07,-1.95,2.93
2062,391561984,-0.5630,-0.6597,-0.3540,2.13,-2.07,2.99
2063,391566984,-0.5620,-0.6631,-0.3496,2.38,-1.89,2.99
2064,391571984,-0.5610,-0.6631,-0.3511,2.50,-2.01,3.05
2065,391576984,-0.5601,-0.6631,-0.3506,2.74,-1.95,2.99
2066,391581984,-0.5596,-0.6606,-0.3457,2.80,-1.89,2.99
2067,391586984,-0.5596,-0.6631,-0.3540,2.74,-1.95,3.05
2068,391591984,-0.5591,-0.6646,-0.3457,2.93,-2.01,2.93
2069,391596984,-0.5586,-0.6631,-0.3442,2.68,-1.77,3.05
2070,391601984,-0.5576,-0.6655,-0.3496,2.62,-1.65,2.99
2071,391606984,-0.5557,-0.6655,-0.3491,2.50,-1.59,3.05
2072,391611984,-0.5615,-0.6641,-0.3481,2.50,-1.46,2.93
2073,391616984,-0.5620,-0.6670,-0.3423,2.26,-1.46,2.99
2074,391621984,-0.5591,-0.6680,-0.3423,2.01,-1.34,2.87
2075,391626984,-0.5630,-0.6685,-0.3491,1.83,-1.04,2.74
2076,391631985,-0.5615,-0.6685,-0.3481,1.71,-1.10,2.80
2077,391636984,-0.5605,-0.6670,-0.3516,1.71,-1.04,2.68
2078,391641984,-0.5581,-0.6699,-0.3521,1.65,-0.98,2.62
2079,391646984,-0.5610,-0.6675,-0.3530,1.52,-0.91,2.56
2080,391651984,-0.5610,-0.6689,-0.3467,1.83,-0.85,2.44
2081,391656984,-0.5522,-0.6670,-0.3496,1.89,-0.98,2.32
2082,391661984,-0.5552,-0.6675,-0.3467,2.01,-1.10,2.38
2083,391666984,-0.5518,-0.6650,-0.3481,2.07,-1.28,2.26
2084,391671984,-0.5493,-0.6611,-0.3506,2.32,-1.28,2.07
2085,391677235,-0.5527,-0.6631,-0.3496,2.50,-1.46,1.95
2086,391681984,-0.5518,-0.6631,-0.3457,2.68,-1.59,1.83
2087,391686984,-0.5522,-0.6636,-0.3481,2.74,-1.65,1.77
2088,391691984,-0.5518,-0.6621,-0.3501,2.80,-1.71,1.52
2089,391696983,-0.5508,-0.6621,-0.3418,2.68,-1.83,1.46
2090,391702397,-0.5542,-0.6606,-0.3462,2.56,-2.07,1.46
2091,391706984,-0.5552,-0.6611,-0.3452,2.32,-2.07,1.40
2092,391712365,-0.5566,-0.6631,-0.3477,2.13,-2.26,1.28
2093,391716984,-0.5591,-0.6592,-0.3462,1.77,-2.32,1.22
2094,391721984,-0.5537,-0.6611,-0.3501,1.40,-2.32,1.22
2095,391726984,-0.5542,-0.6602,-0.3398,1.10,-2.44,1.16
2096,391731985,-0.5571,-0.6587,-0.3462,0.79,-2.50,1.04
2097,391736984,-0.5601,-0.6606,-0.3403,0.30,-2.56,1.04
2098,391741984,-0.5620,-0.6558,-0.3408,0.00,-2.56,0.98
2099,391746984,-0.5605,-0.6543,-0.3496,-0.37,-2.38,0.85
2100,391751984,-0.5610,-0.6538,-0.3457,-0.49,-2.32,0.79
2101,391756984,-0.5620,-0.6523,-0.3433,-0.73,-2.38,0.79
2102,391761984,-0.5586,-0.6577,-0.3516,-1.04,-2.38,0.55
2103,391766984,-0.5576,-0.6533,-0.3477,-1.22,-2.38,0.55
2104,391771984,-0.5630,-0.6548,-0.3472,-1.28,-2.56,0.55
2105,391776984,-0.5630,-0.6519,-0.3428,-1.40,-2.38,0.49
2106,391781983,-0.5605,-0.6504,-0.3472,-1.59,-2.44,0.30
2107,391786982,-0.5601,-0.6499,-0.3506,-1.83,-2.20,0.30
2108,391792597,-0.5645,-0.6523,-0.3442,-2.20,-2.20,0.30
2109,391796984,-0.5674,-0.6519,-0.3462,-2.26,-2.13,0.30
2110,391801983,-0.5669,-0.6509,-0.3452,-2.38,-2.13,0.30
2111,391806983,-0.5659,-0.6538,-0.3394,-2.56,-2.20,0.43
2112,391811985,-0.5654,-0.6514,-0.3496,-2.38,-2.13,0.55
2113,391816984,-0.5659,-0.6548,-0.3413,-2.38,-2.13,0.67
2114,391821984,-0.5708,-0.6479,-0.3452,-2.20,-2.13,0.85
2115,391826984,-0.5703,-0.6484,-0.3438,-1.77,-2.20,0.98
2116,391831984,-0.5703,-0.6489,-0.3447,-1.46,-2.26,0.98
2117,391836985,-0.5693,-0.6489,-0.3467,-1.16,-2.07,1.22
2118,391841984,-0.5718,-0.6479,-0.3428,-0.73,-2.32,1.46
2119,391846984,-0.5708,-0.6494,-0.3467,-0.30,-2.38,1.52
2120,391851984,-0.5703,-0.6504,-0.3521,0.12,-2.56,1.71
2121,391856984,-0.5723,-0.6514,-0.3511,0.55,-2.74,1.89
2122,391861984,-0.5767,-0.6499,-0.3472,1.10,-2.87,2.13
2123,391866984,-0.5718,-0.6489,-0.3491,1.46,-3.05,2.32
2124,391871984,-0.5640,-0.6475,-0.3501,1.95,-3.23,2.56
2125,391876984,-0.5649,-0.6470,-0.3438,2.13,-3.35,2.68
2126,391881984,-0.5586,-0.6465,-0.3486,2.50,-3.60,2.93
2127,391886984,-0.5532,-0.6475,-0.3472,2.56,-3.72,3.17
2128,391891984,-0.5547,-0.6484,-0.3467,2.68,-4.02,3.29
2129,391896984,-0.5576,-0.6509,-0.3447,2.62,-4.27,3.54
2130,391902403,-0.5547,-0.6504,-0.3496,2.44,-4.27,3.90
2131,391906984,-0.5562,-0.6470,-0.3442,2.44,-4.39,4.02
2132,391912403,-0.5547,-0.6494,-0.3462,2.13,-4.45,4.15
2133,391916984,-0.5562,-0.6543,-0.3452,1.83,-4.57,4.15
2134,391922421,-0.5562,-0.6514,-0.3447,1.77,-4.63,4.51
2135,391926984,-0.5576,-0.6538,-0.3491,1.65,-4.57,4.63
2136,391931984,-0.5596,-0.6475,-0.3457,1.46,-4.57,4.70
2137,391936984,-0.5620,-0.6514,-0.3516,1.28,-4.39,4.82
2138,391941984,-0.5708,-0.6543,-0.3467,1.22,-4.39,4.88
2139,391946984,-0.5669,-0.6509,-0.3481,1.34,-4.33,4.76
2140,391951984,-0.5664,-0.6519,-0.3467,1.46,-4.02,4.82
2141,391956984,-0.5708,-0.6538,-0.3438,1.65,-4.02,4.76
2142,391961984,-0.5718,-0.6553,-0.3516,1.77,-3.90,4.76
2143,391966983,-0.5713,-0.6548,-0.3462,2.13,-3.72,4.88
2144,391971985,-0.5796,-0.6587,-0.3467,2.44,-3.41,4.76
2145,391976984,-0.5796,-0.6597,-0.3413,2.74,-3.35,4.70
2146,391981984,-0.5757,-0.6577,-0.3408,3.29,-3.23,4.63
2147,391986984,-0.5806,-0.6597,-0.3418,3.78,-3.05,4.70
