# skilleye imu stream v1
# device=xiao_esp32c6 imu=mpu6050 addr=0x68
# rate_hz=200 accel_range_g=16 gyro_range_dps=2000 dlpf_hz=94
# units: accel in g, gyro in deg/s, t_us in microseconds since boot (monotonic)
# no shared clock with the camera -- tap the racket once before each take
# so both recordings share a spike to align on
seq,t_us,ax,ay,az,gx,gy,gz
0,402821982,-0.6387,-0.6191,-0.1196,-12.07,-15.91,-7.99
1,402826986,-0.6416,-0.6221,-0.1265,-11.40,-14.88,-7.07
2,402831982,-0.6406,-0.6240,-0.1216,-10.91,-13.96,-5.98
3,402836984,-0.6338,-0.6221,-0.1299,-10.43,-13.11,-4.94
4,402841984,-0.6377,-0.6230,-0.1226,-9.76,-12.13,-3.90
5,402847470,-0.6372,-0.6226,-0.1304,-9.02,-11.16,-2.93
6,402851984,-0.6372,-0.6211,-0.1289,-8.17,-10.12,-1.89
7,402856984,-0.6348,-0.6206,-0.1221,-7.26,-9.15,-1.04
8,402861984,-0.6392,-0.6172,-0.1162,-6.28,-8.29,0.00
9,402866984,-0.6382,-0.6187,-0.1235,-5.43,-7.44,0.98
10,402871984,-0.6411,-0.6260,-0.1182,-4.39,-6.52,2.13
11,402876984,-0.6387,-0.6221,-0.1230,-3.41,-5.61,3.05
12,402882393,-0.6357,-0.6250,-0.1196,-2.56,-4.63,4.09
13,402886984,-0.6436,-0.6284,-0.1201,-1.71,-3.78,5.06
14,402891984,-0.6416,-0.6299,-0.1240,-0.67,-2.56,6.10
15,402896985,-0.6426,-0.6294,-0.1235,0.06,-1.77,7.13
16,402901984,-0.6416,-0.6328,-0.1206,0.98,-0.98,8.23
17,402906984,-0.6436,-0.6318,-0.1177,2.01,0.06,9.27
18,402911984,-0.6421,-0.6289,-0.1187,2.93,0.85,10.18
19,402916984,-0.6411,-0.6289,-0.1147,3.90,1.65,11.22
20,402922567,-0.6396,-0.6338,-0.1162,4.88,2.50,12.13
21,402926984,-0.6416,-0.6362,-0.1099,6.10,3.23,13.11
22,402931984,-0.6440,-0.6377,-0.1099,6.95,3.96,14.09
23,402936984,-0.6421,-0.6353,-0.1104,7.99,4.82,15.06
24,402941984,-0.6401,-0.6392,-0.1128,9.09,5.43,16.04
25,402946984,-0.6440,-0.6431,-0.1138,9.88,5.85,17.01
26,402951984,-0.6475,-0.6396,-0.1123,10.85,6.65,17.99
27,402956984,-0.6455,-0.6406,-0.1079,11.77,7.07,18.90
28,402961984,-0.6460,-0.6426,-0.1099,12.62,7.99,19.76
29,402966984,-0.6484,-0.6426,-0.1069,13.60,8.66,20.61
30,402971984,-0.6553,-0.6406,-0.1108,14.51,9.33,21.34
31,402976984,-0.6543,-0.6455,-0.1040,15.30,9.94,22.07
32,402981984,-0.6558,-0.6436,-0.1050,16.16,10.49,22.74
33,402986984,-0.6641,-0.6470,-0.0986,16.95,11.46,23.29
34,402991982,-0.6646,-0.6460,-0.0991,17.62,12.20,23.90
35,402996982,-0.6670,-0.6494,-0.0962,18.23,12.93,24.39
36,403001982,-0.6685,-0.6499,-0.0991,18.72,13.66,25.06
37,403006982,-0.6675,-0.6514,-0.0947,19.15,14.57,25.43
38,403011986,-0.6719,-0.6519,-0.0928,19.57,15.18,25.91
39,403016984,-0.6694,-0.6509,-0.0918,19.82,15.73,26.28
40,403021983,-0.6729,-0.6558,-0.0874,20.00,16.46,26.83
41,403026984,-0.6709,-0.6572,-0.0898,20.18,17.20,27.13
42,403031984,-0.6729,-0.6582,-0.0889,20.24,17.87,27.50
43,403036983,-0.6748,-0.6592,-0.0864,20.24,18.54,27.99
44,403041984,-0.6772,-0.6597,-0.0820,20.18,19.15,28.29
45,403047437,-0.6782,-0.6636,-0.0796,20.24,19.82,28.60
46,403051984,-0.6763,-0.6602,-0.0801,20.12,20.24,28.78
47,403056984,-0.6826,-0.6650,-0.0737,20.06,20.73,29.09
48,403061984,-0.6821,-0.6650,-0.0767,20.12,21.16,29.21
49,403066984,-0.6851,-0.6660,-0.0796,20.18,21.59,29.39
50,403071984,-0.6860,-0.6646,-0.0752,20.30,22.01,29.51
51,403076984,-0.6929,-0.6675,-0.0703,20.43,22.50,29.57
52,403081984,-0.6924,-0.6689,-0.0728,20.55,22.87,29.57
53,403086984,-0.6934,-0.6694,-0.0688,20.85,23.41,29.57
54,403091984,-0.6987,-0.6694,-0.0688,21.10,23.60,29.51
55,403096985,-0.7021,-0.6714,-0.0610,21.40,24.09,29.21
56,403101984,-0.7065,-0.6738,-0.0654,21.52,24.39,29.02
57,403106984,-0.7065,-0.6758,-0.0635,21.77,24.63,28.84
58,403111984,-0.7080,-0.6743,-0.0596,21.95,25.06,28.66
59,403116985,-0.7134,-0.6787,-0.0610,22.13,25.55,28.29
60,403121984,-0.7158,-0.6777,-0.0571,22.07,25.55,27.99
61,403127222,-0.7192,-0.6836,-0.0508,22.01,25.85,27.80
62,403131984,-0.7173,-0.6826,-0.0532,22.01,26.16,27.44
63,403136985,-0.7178,-0.6836,-0.0542,21.95,26.28,26.95
64,403141984,-0.7178,-0.6846,-0.0469,21.65,26.40,26.71
65,403147369,-0.7197,-0.6831,-0.0454,21.46,26.71,26.46
66,403151984,-0.7202,-0.6875,-0.0435,21.28,26.77,25.98
67,403156984,-0.7207,-0.6885,-0.0405,20.98,26.65,25.61
68,403161984,-0.7231,-0.6909,-0.0386,20.73,26.83,25.24
69,403166984,-0.7275,-0.6914,-0.0400,20.49,26.83,24.70
70,403171984,-0.7241,-0.6895,-0.0386,20.37,26.83,24.27
71,403176984,-0.7285,-0.6899,-0.0298,20.18,26.71,23.72
72,403181984,-0.7290,-0.6914,-0.0308,20.06,26.83,23.17
73,403186984,-0.7295,-0.6880,-0.0317,20.00,26.77,22.50
74,403191983,-0.7305,-0.6914,-0.0254,19.88,26.59,21.95
75,403196984,-0.7344,-0.6963,-0.0244,19.70,26.40,21.28
76,403201983,-0.7344,-0.6914,-0.0254,19.51,26.16,20.61
77,403207326,-0.7368,-0.6914,-0.0220,19.27,25.98,19.88
78,403211984,-0.7339,-0.6968,-0.0239,19.15,25.91,19.21
79,403216984,-0.7368,-0.6958,-0.0151,18.78,25.67,18.54
80,403221984,-0.7397,-0.6919,-0.0181,18.54,25.30,17.80
81,403226984,-0.7397,-0.6929,-0.0176,17.99,25.00,17.20
82,403231983,-0.7427,-0.7002,-0.0161,17.56,24.70,16.40
83,403236984,-0.7432,-0.7012,-0.0156,17.01,24.21,15.67
84,403241982,-0.7427,-0.7017,-0.0171,16.34,23.84,14.94
85,403246986,-0.7451,-0.7021,-0.0137,15.79,23.60,14.33
86,403251983,-0.7451,-0.7031,-0.0146,15.00,23.17,13.72
87,403256984,-0.7461,-0.7046,-0.0083,14.39,22.74,12.93
88,403261985,-0.7427,-0.7046,-0.0034,13.78,22.44,12.32
89,403267042,-0.7471,-0.7002,-0.0063,13.05,22.01,11.71
90,403271986,-0.7446,-0.7026,-0.0005,12.50,21.52,11.04
91,403276984,-0.7471,-0.7021,-0.0049,12.01,21.04,10.30
92,403281983,-0.7412,-0.6968,-0.0010,11.40,20.43,9.76
93,403286982,-0.7441,-0.6982,0.0020,11.10,19.94,9.02
94,403291986,-0.7441,-0.7012,-0.0024,10.67,19.39,8.35
95,403296982,-0.7417,-0.6958,-0.0010,10.49,18.84,7.74
96,403301982,-0.7451,-0.7017,0.0020,10.12,18.23,7.01
97,403306982,-0.7466,-0.7007,0.0005,9.88,17.68,6.34
98,403311986,-0.7471,-0.6978,-0.0015,9.63,16.95,5.73
99,403316984,-0.7495,-0.7007,0.0054,9.51,16.34,5.00
100,403321985,-0.7515,-0.6982,-0.0039,9.21,15.79,4.33
101,403326983,-0.7500,-0.6997,-0.0005,8.96,15.06,3.78
102,403332513,-0.7510,-0.7046,-0.0039,8.72,14.45,2.87
103,403336985,-0.7544,-0.7002,0.0029,8.29,14.09,2.38
104,403341984,-0.7524,-0.7021,0.0049,8.11,13.60,1.89
105,403346984,-0.7539,-0.7036,0.0073,7.74,12.93,1.22
106,403352050,-0.7510,-0.7051,-0.0010,7.32,12.32,0.61
107,403357046,-0.7534,-0.7070,0.0005,6.95,11.83,0.06
108,403361985,-0.7549,-0.7012,0.0073,6.59,11.22,-0.43
109,403366984,-0.7505,-0.7026,0.0073,6.28,10.61,-0.98
110,403371982,-0.7520,-0.7021,0.0024,6.04,10.06,-1.34
111,403376986,-0.7485,-0.6968,0.0029,5.85,9.45,-1.89
112,403381982,-0.7500,-0.6924,0.0044,5.91,8.78,-2.38
113,403386984,-0.7441,-0.6914,0.0044,5.61,8.23,-2.87
114,403391985,-0.7476,-0.6953,0.0063,5.30,7.62,-3.41
115,403396985,-0.7490,-0.6943,0.0020,5.30,7.01,-3.90
116,403402050,-0.7500,-0.6885,0.0000,5.24,6.46,-4.33
117,403406986,-0.7485,-0.6885,-0.0015,5.06,6.10,-4.88
118,403411984,-0.7476,-0.6899,-0.0029,5.06,5.55,-5.30
119,403416986,-0.7495,-0.6870,0.0015,4.82,5.12,-5.73
120,403421984,-0.7573,-0.6841,0.0015,4.57,4.70,-6.22
121,403426986,-0.7549,-0.6821,-0.0015,4.27,4.02,-6.65
122,403431983,-0.7554,-0.6821,-0.0010,3.90,3.66,-7.07
123,403436986,-0.7549,-0.6812,-0.0044,3.60,3.23,-7.56
124,403441984,-0.7568,-0.6841,-0.0034,3.17,2.80,-7.93
125,403446983,-0.7539,-0.6841,-0.0029,2.74,2.32,-8.23
126,403451984,-0.7534,-0.6855,-0.0034,2.26,2.07,-8.72
127,403456984,-0.7568,-0.6836,-0.0029,1.83,1.59,-9.02
128,403461985,-0.7573,-0.6826,-0.0034,1.22,1.34,-9.27
129,403466984,-0.7554,-0.6807,-0.0088,0.85,0.91,-9.57
130,403471984,-0.7568,-0.6787,-0.0107,0.49,0.49,-9.82
131,403476984,-0.7568,-0.6782,-0.0132,0.30,0.24,-9.94
132,403481984,-0.7534,-0.6777,-0.0127,0.12,-0.18,-10.18
133,403486984,-0.7500,-0.6729,-0.0127,0.12,-0.61,-10.30
134,403491984,-0.7505,-0.6719,-0.0132,0.30,-0.85,-10.61
135,403496984,-0.7515,-0.6670,-0.0112,0.67,-1.22,-10.85
136,403501984,-0.7461,-0.6670,-0.0103,1.04,-1.65,-10.85
137,403506984,-0.7432,-0.6670,-0.0078,1.34,-2.01,-11.16
138,403511985,-0.7461,-0.6606,-0.0151,1.71,-2.32,-11.34
139,403516984,-0.7446,-0.6562,-0.0176,2.20,-2.62,-11.34
140,403521984,-0.7417,-0.6567,-0.0161,2.68,-2.99,-11.59
141,403526984,-0.7378,-0.6538,-0.0127,2.99,-3.41,-11.71
142,403531984,-0.7422,-0.6533,-0.0132,3.41,-3.78,-11.71
143,403536984,-0.7412,-0.6519,-0.0181,3.48,-4.21,-11.89
144,403541984,-0.7407,-0.6479,-0.0195,3.41,-4.27,-11.89
145,403546984,-0.7393,-0.6528,-0.0249,3.48,-4.76,-11.95
146,403551984,-0.7407,-0.6504,-0.0195,3.29,-4.94,-12.01
147,403556984,-0.7432,-0.6465,-0.0225,3.05,-5.24,-12.07
148,403562479,-0.7422,-0.6445,-0.0239,2.56,-5.43,-12.13
149,403566984,-0.7432,-0.6426,-0.0210,2.26,-5.73,-12.07
150,403571984,-0.7407,-0.6455,-0.0234,1.65,-5.98,-12.01
151,403576984,-0.7388,-0.6450,-0.0254,1.16,-6.22,-12.07
152,403581983,-0.7437,-0.6489,-0.0283,0.61,-6.40,-11.83
153,403586982,-0.7402,-0.6465,-0.0205,0.18,-6.71,-11.71
154,403591982,-0.7388,-0.6406,-0.0273,-0.43,-6.89,-11.59
155,403596983,-0.7397,-0.6431,-0.0269,-0.98,-7.13,-11.46
156,403602613,-0.7354,-0.6382,-0.0225,-1.34,-7.32,-11.16
157,403606984,-0.7378,-0.6396,-0.0288,-1.52,-7.50,-11.10
158,403611984,-0.7334,-0.6353,-0.0308,-1.77,-7.68,-10.85
159,403616985,-0.7305,-0.6313,-0.0264,-1.77,-7.74,-10.79
160,403621984,-0.7280,-0.6299,-0.0312,-1.52,-7.99,-10.61
161,403626984,-0.7275,-0.6260,-0.0386,-1.46,-8.41,-10.49
162,403631984,-0.7212,-0.6279,-0.0347,-1.28,-8.41,-10.24
163,403636984,-0.7212,-0.6304,-0.0278,-0.98,-8.60,-10.12
164,403641983,-0.7212,-0.6245,-0.0293,-0.73,-8.78,-9.82
165,403646984,-0.7241,-0.6255,-0.0308,-0.55,-8.78,-9.63
166,403651985,-0.7212,-0.6187,-0.0366,-0.18,-8.96,-9.45
167,403656984,-0.7207,-0.6230,-0.0342,0.00,-9.02,-9.27
168,403661986,-0.7163,-0.6201,-0.0322,0.18,-9.15,-8.96
169,403666983,-0.7153,-0.6250,-0.0391,0.43,-9.33,-8.72
170,403671984,-0.7153,-0.6226,-0.0361,0.49,-9.57,-8.54
171,403676984,-0.7114,-0.6230,-0.0449,0.43,-9.70,-8.17
172,403681984,-0.7085,-0.6235,-0.0376,0.49,-9.82,-7.80
173,403686984,-0.7090,-0.6167,-0.0386,0.55,-9.94,-7.50
174,403691984,-0.7075,-0.6182,-0.0361,0.49,-10.06,-7.26
175,403696984,-0.7100,-0.6177,-0.0352,0.43,-10.12,-7.01
176,403701984,-0.7100,-0.6177,-0.0459,0.30,-10.30,-6.59
177,403706984,-0.7095,-0.6230,-0.0479,0.18,-10.24,-6.34
178,403711984,-0.7124,-0.6240,-0.0464,0.06,-10.55,-5.91
179,403716985,-0.7104,-0.6211,-0.0439,-0.12,-10.61,-5.67
180,403721984,-0.7065,-0.6216,-0.0396,-0.18,-10.85,-5.18
181,403726984,-0.7109,-0.6191,-0.0430,-0.37,-10.79,-5.00
182,403731984,-0.7104,-0.6177,-0.0479,-0.43,-10.85,-4.63
183,403736984,-0.7114,-0.6167,-0.0503,-0.55,-10.79,-4.45
184,403741984,-0.7109,-0.6152,-0.0518,-0.55,-10.79,-4.15
185,403746984,-0.7119,-0.6143,-0.0488,-0.67,-10.73,-3.90
186,403751984,-0.7124,-0.6191,-0.0493,-0.61,-10.67,-3.66
187,403756984,-0.7095,-0.6172,-0.0474,-0.73,-10.49,-3.23
188,403761983,-0.7134,-0.6138,-0.0532,-0.79,-10.43,-3.05
189,403766984,-0.7119,-0.6177,-0.0503,-0.85,-10.30,-2.80
190,403771984,-0.7109,-0.6167,-0.0493,-0.98,-10.18,-2.38
191,403776984,-0.7100,-0.6128,-0.0527,-1.10,-10.00,-2.20
192,403781984,-0.7085,-0.6113,-0.0488,-1.16,-10.06,-1.83
193,403786984,-0.7056,-0.6128,-0.0527,-1.34,-9.88,-1.65
194,403792347,-0.7056,-0.6167,-0.0518,-1.65,-9.88,-1.28
195,403796984,-0.6982,-0.6177,-0.0503,-1.83,-9.63,-1.04
196,403801984,-0.7017,-0.6172,-0.0542,-2.26,-9.57,-0.55
197,403807320,-0.7021,-0.6216,-0.0498,-2.50,-9.45,-0.12
198,403811984,-0.7007,-0.6211,-0.0527,-2.80,-9.39,0.06
199,403816986,-0.6997,-0.6265,-0.0532,-3.11,-9.33,0.61
200,403821984,-0.7051,-0.6279,-0.0518,-3.23,-9.15,1.10
201,403826983,-0.7046,-0.6250,-0.0547,-3.48,-9.02,1.46
202,403831984,-0.6978,-0.6255,-0.0542,-3.60,-8.90,1.95
203,403836984,-0.6963,-0.6279,-0.0532,-3.60,-8.90,2.38
204,403841983,-0.6958,-0.6309,-0.0571,-3.48,-8.66,2.62
205,403846984,-0.6987,-0.6289,-0.0552,-3.17,-8.54,3.17
206,403851984,-0.6929,-0.6299,-0.0615,-2.93,-8.41,3.72
207,403856983,-0.6973,-0.6309,-0.0620,-2.26,-8.35,4.27
208,403861984,-0.6987,-0.6284,-0.0532,-1.89,-8.23,4.57
209,403866983,-0.6938,-0.6274,-0.0571,-1.22,-8.17,5.06
210,403871984,-0.6948,-0.6313,-0.0522,-0.49,-7.87,5.55
211,403876983,-0.6943,-0.6323,-0.0581,0.18,-7.93,5.98
212,403881984,-0.6963,-0.6338,-0.0605,0.98,-7.62,6.34
213,403886984,-0.6963,-0.6323,-0.0547,1.71,-7.50,6.77
214,403891983,-0.6997,-0.6357,-0.0503,2.44,-7.50,7.26
215,403896982,-0.6987,-0.6348,-0.0586,2.99,-7.26,7.68
216,403901982,-0.6948,-0.6372,-0.0581,3.72,-7.07,8.11
217,403906983,-0.6992,-0.6377,-0.0557,3.96,-6.89,8.48
218,403911982,-0.7036,-0.6440,-0.0581,4.45,-6.77,8.90
219,403916982,-0.7002,-0.6406,-0.0596,4.76,-6.59,9.39
220,403921985,-0.7021,-0.6426,-0.0581,5.00,-6.34,9.82
221,403926984,-0.6997,-0.6479,-0.0576,5.24,-6.16,10.24
222,403931984,-0.7026,-0.6514,-0.0571,5.37,-5.85,10.49
223,403936984,-0.7021,-0.6494,-0.0601,5.55,-5.67,10.91
224,403941984,-0.7007,-0.6499,-0.0566,5.73,-5.49,11.16
225,403946983,-0.7017,-0.6484,-0.0513,5.91,-5.18,11.71
226,403951982,-0.6992,-0.6509,-0.0508,6.10,-4.88,12.01
227,403956986,-0.7021,-0.6489,-0.0557,6.34,-4.57,12.26
228,403961982,-0.7007,-0.6499,-0.0542,6.59,-4.27,12.62
229,403966982,-0.6978,-0.6514,-0.0552,6.77,-4.09,12.93
230,403971982,-0.6997,-0.6523,-0.0557,7.20,-4.09,12.99
231,403976982,-0.7021,-0.6538,-0.0532,7.38,-3.78,13.35
232,403981984,-0.7036,-0.6528,-0.0498,7.87,-3.72,13.60
233,403986983,-0.7085,-0.6519,-0.0537,8.05,-3.60,13.84
234,403991984,-0.7104,-0.6543,-0.0557,8.29,-3.23,14.02
235,403996984,-0.7090,-0.6582,-0.0483,8.48,-3.48,14.15
236,404001984,-0.7061,-0.6538,-0.0488,8.66,-3.23,14.33
237,404006984,-0.7085,-0.6577,-0.0449,8.84,-3.17,14.45
238,404011984,-0.7075,-0.6572,-0.0449,8.84,-3.05,14.57
239,404016984,-0.7070,-0.6606,-0.0483,9.02,-2.93,14.82
240,404021984,-0.7109,-0.6626,-0.0522,8.78,-2.99,14.88
241,404026984,-0.7104,-0.6650,-0.0410,8.96,-2.74,14.94
242,404031984,-0.7134,-0.6597,-0.0425,8.90,-2.80,15.00
243,404036983,-0.7070,-0.6636,-0.0391,8.96,-2.68,15.18
244,404041984,-0.7070,-0.6636,-0.0474,9.02,-2.68,15.12
245,404046982,-0.7031,-0.6675,-0.0435,9.09,-2.56,15.12
246,404051984,-0.7090,-0.6670,-0.0464,9.09,-2.50,15.06
247,404056983,-0.7065,-0.6611,-0.0425,9.15,-2.50,15.12
248,404061984,-0.7075,-0.6665,-0.0410,9.27,-2.50,15.12
249,404066984,-0.7070,-0.6680,-0.0342,9.33,-2.50,14.82
250,404071985,-0.7100,-0.6646,-0.0420,9.39,-2.56,14.82
251,404076984,-0.7061,-0.6680,-0.0356,9.39,-2.62,14.51
252,404081984,-0.7158,-0.6680,-0.0337,9.45,-2.68,14.33
253,404086984,-0.7134,-0.6694,-0.0361,9.39,-2.68,14.15
254,404091984,-0.7109,-0.6709,-0.0376,9.45,-2.68,13.96
255,404096984,-0.7085,-0.6685,-0.0352,9.45,-2.74,13.66
256,404101984,-0.7090,-0.6724,-0.0366,9.45,-2.93,13.35
257,404106984,-0.7134,-0.6675,-0.0269,9.39,-3.11,12.99
258,404111984,-0.7139,-0.6675,-0.0259,9.21,-3.23,12.68
259,404116985,-0.7085,-0.6680,-0.0303,8.96,-3.60,12.32
260,404121984,-0.7090,-0.6719,-0.0308,8.78,-3.60,11.77
261,404126985,-0.7100,-0.6714,-0.0298,8.23,-3.78,11.34
262,404131984,-0.7109,-0.6733,-0.0229,7.80,-3.78,10.85
263,404136984,-0.7104,-0.6733,-0.0239,7.07,-4.09,10.49
264,404141984,-0.7144,-0.6729,-0.0234,6.34,-4.33,9.94
265,404146984,-0.7168,-0.6738,-0.0220,5.49,-4.33,9.45
266,404151984,-0.7163,-0.6733,-0.0200,4.76,-4.63,8.90
267,404156984,-0.7124,-0.6694,-0.0234,3.78,-4.70,8.35
268,404161984,-0.7163,-0.6670,-0.0205,2.80,-4.76,7.80
269,404166984,-0.7153,-0.6670,-0.0205,1.77,-4.82,7.32
270,404172402,-0.7104,-0.6665,-0.0190,0.85,-5.00,6.52
271,404176983,-0.7080,-0.6616,-0.0161,-0.18,-5.18,6.04
272,404181984,-0.7090,-0.6616,-0.0112,-1.04,-5.43,5.37
273,404186984,-0.7075,-0.6602,-0.0161,-2.01,-5.43,4.76
274,404191983,-0.7046,-0.6587,-0.0117,-2.74,-5.55,4.15
275,404196986,-0.7012,-0.6543,-0.0171,-3.60,-5.85,3.41
276,404201984,-0.7007,-0.6548,-0.0195,-4.45,-6.10,2.80
277,404206984,-0.7036,-0.6499,-0.0132,-5.18,-6.34,2.07
278,404211984,-0.7021,-0.6455,-0.0176,-6.04,-6.52,1.46
279,404216984,-0.6987,-0.6411,-0.0190,-6.83,-6.83,0.67
280,404221984,-0.7007,-0.6436,-0.0205,-7.56,-7.13,0.00
281,404226984,-0.7046,-0.6431,-0.0259,-8.35,-7.38,-0.61
282,404231985,-0.7046,-0.6396,-0.0239,-9.09,-7.74,-1.22
283,404236984,-0.7080,-0.6353,-0.0298,-9.94,-8.05,-1.89
284,404241983,-0.7104,-0.6367,-0.0288,-10.85,-8.29,-2.56
285,404247430,-0.7095,-0.6348,-0.0322,-11.83,-8.60,-3.17
286,404251984,-0.7183,-0.6338,-0.0293,-13.05,-8.90,-3.78
287,404256983,-0.7202,-0.6387,-0.0298,-14.09,-8.90,-4.27
288,404261982,-0.7183,-0.6323,-0.0288,-15.24,-9.15,-4.76
289,404266982,-0.7197,-0.6333,-0.0386,-16.52,-9.33,-5.18
290,404271982,-0.7275,-0.6313,-0.0386,-17.68,-9.21,-5.73
291,404276982,-0.7207,-0.6338,-0.0381,-18.90,-9.39,-6.16
292,404281985,-0.7217,-0.6309,-0.0391,-20.00,-9.51,-6.52
293,404286984,-0.7236,-0.6313,-0.0400,-21.04,-9.63,-6.83
294,404291984,-0.7241,-0.6260,-0.0430,-21.83,-9.57,-7.01
295,404297479,-0.7188,-0.6221,-0.0425,-22.56,-9.51,-7.38
296,404301984,-0.7202,-0.6230,-0.0400,-23.35,-9.57,-7.62
297,404306984,-0.7163,-0.6187,-0.0488,-23.78,-9.63,-7.87
298,404311984,-0.7178,-0.6182,-0.0464,-24.15,-9.57,-7.99
299,404316984,-0.7144,-0.6123,-0.0557,-24.33,-9.57,-8.11
300,404321984,-0.7129,-0.6138,-0.0474,-24.45,-9.70,-8.23
301,404326984,-0.7129,-0.6084,-0.0488,-24.33,-9.82,-8.35
302,404331985,-0.7173,-0.6084,-0.0508,-24.27,-9.94,-8.35
303,404336984,-0.7168,-0.6064,-0.0601,-24.27,-10.06,-8.48
304,404341984,-0.7202,-0.6060,-0.0669,-23.90,-10.18,-8.54
305,404346984,-0.7266,-0.6025,-0.0571,-23.78,-10.37,-8.54
306,404351984,-0.7217,-0.6025,-0.0615,-23.72,-10.30,-8.35
307,404356984,-0.7280,-0.6016,-0.0571,-23.78,-10.55,-8.54
308,404361985,-0.7290,-0.6001,-0.0601,-23.78,-10.55,-8.41
309,404366984,-0.7295,-0.6016,-0.0649,-23.90,-10.67,-8.35
310,404371984,-0.7295,-0.6094,-0.0601,-24.39,-10.61,-8.17
311,404376984,-0.7319,-0.6123,-0.0537,-24.82,-10.79,-7.99
312,404381984,-0.7368,-0.6172,-0.0562,-25.30,-10.73,-7.50
313,404386984,-0.7358,-0.6162,-0.0630,-25.61,-10.73,-7.20
314,404391984,-0.7373,-0.6152,-0.0649,-25.98,-11.04,-6.71
315,404396984,-0.7251,-0.6123,-0.0620,-26.04,-11.22,-6.34
316,404401984,-0.7271,-0.6104,-0.0625,-25.79,-11.52,-5.98
317,404406984,-0.7236,-0.6089,-0.0605,-25.43,-11.71,-5.67
318,404411984,-0.7227,-0.6104,-0.0645,-24.94,-12.01,-5.37
319,404416984,-0.7251,-0.6089,-0.0640,-24.45,-12.32,-5.18
320,404421984,-0.7217,-0.6074,-0.0542,-24.09,-12.44,-4.88
321,404426984,-0.7207,-0.6104,-0.0581,-23.54,-12.74,-4.57
322,404431984,-0.7207,-0.6113,-0.0552,-23.23,-12.99,-4.27
323,404436985,-0.7207,-0.6143,-0.0605,-23.11,-13.11,-3.84
324,404441984,-0.7183,-0.6157,-0.0566,-22.93,-13.17,-3.41
325,404446984,-0.7173,-0.6187,-0.0635,-22.87,-13.35,-3.11
326,404451984,-0.7183,-0.6187,-0.0596,-23.11,-13.54,-2.56
327,404456984,-0.7202,-0.6255,-0.0625,-23.35,-13.60,-1.95
328,404461984,-0.7271,-0.6333,-0.0625,-23.54,-13.78,-1.52
329,404466983,-0.7251,-0.6367,-0.0645,-23.96,-13.72,-0.79
330,404471984,-0.7231,-0.6387,-0.0591,-24.39,-13.66,0.06
331,404476984,-0.7202,-0.6436,-0.0576,-24.51,-13.60,0.73
332,404481984,-0.7241,-0.6455,-0.0615,-24.57,-13.54,1.59
333,404486984,-0.7231,-0.6440,-0.0645,-24.39,-13.48,2.26
334,404491984,-0.7246,-0.6426,-0.0635,-24.02,-13.35,3.17
335,404497461,-0.7280,-0.6494,-0.0654,-23.48,-13.17,4.27
336,404501984,-0.7295,-0.6494,-0.0640,-22.62,-13.05,4.76
337,404506984,-0.7339,-0.6528,-0.0596,-21.83,-12.68,5.79
338,404511984,-0.7378,-0.6567,-0.0693,-20.73,-12.44,6.52
339,404516984,-0.7422,-0.6587,-0.0674,-19.33,-12.32,7.20
340,404521984,-0.7451,-0.6602,-0.0625,-17.99,-11.95,8.05
341,404526984,-0.7495,-0.6616,-0.0684,-16.28,-11.65,8.84
342,404531984,-0.7534,-0.6660,-0.0659,-14.70,-11.28,9.63
343,404536985,-0.7544,-0.6670,-0.0586,-12.74,-10.91,10.37
344,404541984,-0.7578,-0.6650,-0.0625,-10.85,-10.79,11.10
345,404546984,-0.7603,-0.6699,-0.0635,-8.78,-10.24,11.71
346,404551984,-0.7627,-0.6699,-0.0596,-6.83,-9.88,12.20
347,404556984,-0.7617,-0.6758,-0.0659,-4.82,-9.39,12.74
348,404561983,-0.7622,-0.6743,-0.0620,-2.93,-9.02,13.29
349,404567457,-0.7578,-0.6782,-0.0635,-0.91,-8.54,13.66
350,404571985,-0.7598,-0.6807,-0.0571,0.30,-8.35,14.15
351,404576983,-0.7583,-0.6860,-0.0562,1.71,-7.99,14.57
352,404581984,-0.7622,-0.6846,-0.0488,2.68,-7.80,15.00
353,404586984,-0.7612,-0.6880,-0.0493,3.72,-7.62,15.55
354,404591984,-0.7593,-0.6890,-0.0513,4.51,-7.32,16.04
355,404596984,-0.7578,-0.6958,-0.0464,5.06,-7.13,16.52
356,404601984,-0.7573,-0.6987,-0.0430,5.55,-7.26,17.07
357,404606984,-0.7593,-0.7056,-0.0410,5.85,-7.07,17.68
358,404611984,-0.7646,-0.7075,-0.0391,6.16,-7.32,18.17
359,404616984,-0.7656,-0.7129,-0.0283,6.52,-7.13,18.84
360,404621984,-0.7622,-0.7129,-0.0220,6.77,-7.32,19.63
361,404626984,-0.7651,-0.7207,-0.0137,7.07,-7.50,20.18
362,404631984,-0.7651,-0.7173,-0.0107,7.56,-7.56,20.73
363,404636984,-0.7661,-0.7144,-0.0068,7.99,-7.62,21.46
364,404641986,-0.7690,-0.7178,-0.0010,8.84,-7.87,21.95
365,404646984,-0.7725,-0.7168,-0.0005,9.70,-8.11,22.38
366,404651984,-0.7778,-0.7178,0.0103,10.85,-8.29,22.93
367,404657134,-0.7788,-0.7212,0.0117,12.01,-8.48,23.41
368,404661988,-0.7930,-0.7227,0.0269,13.48,-8.78,23.78
369,404666984,-0.7993,-0.7207,0.0347,15.06,-8.72,24.09
370,404671984,-0.7988,-0.7197,0.0439,17.07,-8.78,24.21
371,404676984,-0.7964,-0.7114,0.0522,19.27,-9.02,24.27
372,404681984,-0.7954,-0.7017,0.0513,21.77,-9.39,24.02
373,404686984,-0.7920,-0.6924,0.0557,24.76,-10.00,23.54
374,404691984,-0.7876,-0.6895,0.0684,27.74,-10.61,22.99
375,404696984,-0.7798,-0.6914,0.0825,31.10,-11.71,22.26
376,404701984,-0.7651,-0.6885,0.0942,34.21,-12.62,21.22
377,404706984,-0.7578,-0.6899,0.0947,36.95,-13.90,20.12
378,404711984,-0.7485,-0.6870,0.1016,39.63,-15.24,18.90
379,404716984,-0.7397,-0.6860,0.1084,41.83,-17.07,17.62
380,404721984,-0.7363,-0.6865,0.1182,43.54,-18.78,16.16
381,404726984,-0.7373,-0.6899,0.1226,45.00,-20.79,14.63
382,404732402,-0.7446,-0.6943,0.1279,45.79,-23.17,12.68
383,404736985,-0.7446,-0.6914,0.1392,45.61,-24.88,11.40
384,404741984,-0.7559,-0.6973,0.1460,44.88,-26.95,9.57
385,404747485,-0.7793,-0.7002,0.1616,42.93,-29.39,7.38
386,404751984,-0.7959,-0.7012,0.1626,41.04,-31.22,5.85
387,404756984,-0.8101,-0.7041,0.1685,37.87,-33.11,3.96
388,404761984,-0.8267,-0.7124,0.1816,34.27,-35.00,1.89
389,404766984,-0.8418,-0.7119,0.1919,30.12,-36.71,-0.06
390,404771982,-0.8608,-0.7148,0.2017,25.49,-38.48,-2.13
391,404776984,-0.8804,-0.7168,0.2104,20.73,-39.88,-4.33
392,404781983,-0.8950,-0.7261,0.2266,16.04,-41.71,-6.59
393,404786984,-0.9014,-0.7246,0.2275,11.34,-43.23,-8.96
394,404791984,-0.9111,-0.7241,0.2334,7.20,-44.82,-11.52
395,404796984,-0.9136,-0.7256,0.2407,3.35,-46.52,-14.09
396,404801984,-0.9180,-0.7275,0.2529,0.00,-48.54,-16.89
397,404807359,-0.9126,-0.7295,0.2563,-3.17,-50.79,-20.06
398,404811984,-0.9111,-0.7324,0.2681,-5.06,-52.38,-22.38
399,404816984,-0.9150,-0.7363,0.2681,-6.95,-54.51,-25.06
400,404821984,-0.9180,-0.7437,0.2778,-8.72,-56.59,-27.80
401,404826984,-0.9155,-0.7441,0.2822,-10.00,-58.78,-30.37
402,404831984,-0.9185,-0.7480,0.2910,-11.28,-61.10,-32.99
403,404836984,-0.9199,-0.7539,0.2964,-12.32,-63.48,-35.49
404,404841986,-0.9214,-0.7603,0.2993,-13.23,-65.91,-37.68
405,404846984,-0.9141,-0.7690,0.3008,-14.21,-68.29,-39.88
406,404851984,-0.9102,-0.7793,0.3101,-15.18,-70.67,-41.89
407,404856984,-0.9067,-0.7896,0.3140,-16.10,-73.17,-43.66
408,404861984,-0.9028,-0.7959,0.3135,-16.95,-75.79,-45.43
409,404866982,-0.8984,-0.8008,0.3179,-17.13,-78.35,-47.01
410,404871982,-0.8872,-0.8032,0.3267,-17.32,-81.04,-48.54
411,404876982,-0.8823,-0.8052,0.3257,-17.20,-83.90,-49.88
412,404881983,-0.8745,-0.8071,0.3320,-16.83,-86.40,-51.34
413,404886984,-0.8691,-0.8154,0.3398,-16.40,-89.15,-52.62
414,404891984,-0.8628,-0.8213,0.3398,-15.91,-91.89,-53.90
415,404896984,-0.8608,-0.8208,0.3374,-15.37,-94.33,-55.18
416,404901984,-0.8569,-0.8242,0.3418,-14.70,-97.01,-56.28
417,404906984,-0.8555,-0.8354,0.3442,-14.09,-99.76,-57.50
418,404911984,-0.8564,-0.8384,0.3486,-13.35,-102.20,-58.60
419,404916984,-0.8540,-0.8433,0.3467,-12.68,-104.39,-59.76
420,404921984,-0.8550,-0.8486,0.3428,-12.01,-107.13,-60.91
421,404926984,-0.8594,-0.8545,0.3433,-11.34,-109.45,-62.20
422,404931984,-0.8604,-0.8623,0.3369,-11.10,-111.65,-63.48
423,404937377,-0.8691,-0.8716,0.3447,-11.16,-114.27,-64.88
424,404941985,-0.8760,-0.8804,0.3423,-11.52,-115.79,-65.98
425,404946984,-0.8760,-0.8823,0.3369,-11.95,-117.74,-67.26
426,404951984,-0.8760,-0.8926,0.3369,-12.26,-119.39,-68.54
427,404957388,-0.8809,-0.8926,0.3433,-12.44,-121.59,-70.37
428,404961984,-0.8853,-0.8926,0.3428,-12.20,-122.74,-71.65
429,404966984,-0.8828,-0.8955,0.3477,-11.71,-124.27,-73.29
430,404972330,-0.8853,-0.9014,0.3477,-10.61,-125.85,-74.94
431,404976984,-0.8833,-0.9082,0.3438,-10.00,-126.89,-76.22
432,404981984,-0.8823,-0.9106,0.3462,-9.33,-128.41,-77.80
433,404986984,-0.8862,-0.9146,0.3511,-8.84,-129.45,-79.39
434,404991984,-0.8901,-0.9155,0.3525,-8.54,-130.55,-80.91
435,404996987,-0.8926,-0.9204,0.3486,-8.41,-131.77,-82.68
436,405001984,-0.8848,-0.9233,0.3477,-8.54,-132.80,-83.90
437,405007445,-0.8755,-0.9263,0.3486,-8.66,-134.09,-85.73
438,405011984,-0.8721,-0.9238,0.3530,-8.90,-134.94,-86.95
439,405016984,-0.8628,-0.9243,0.3452,-9.57,-136.10,-88.84
440,405021984,-0.8618,-0.9185,0.3530,-10.12,-136.83,-90.24
441,405026984,-0.8477,-0.9224,0.3506,-11.46,-137.68,-92.38
442,405032486,-0.8398,-0.9165,0.3481,-13.11,-138.35,-93.96
443,405036984,-0.8306,-0.9160,0.3550,-14.88,-138.84,-95.18
444,405041984,-0.8174,-0.9150,0.3447,-17.93,-139.39,-97.38
445,405046985,-0.8066,-0.9150,0.3428,-20.91,-139.82,-99.15
446,405051984,-0.7949,-0.9072,0.3428,-24.27,-140.24,-100.91
447,405056984,-0.7773,-0.9062,0.3408,-28.11,-140.43,-102.68
448,405061985,-0.7739,-0.9062,0.3398,-32.44,-140.55,-104.51
449,405066984,-0.7700,-0.9053,0.3369,-37.07,-140.61,-106.28
450,405071982,-0.7539,-0.9082,0.3296,-42.20,-140.55,-108.23
451,405076984,-0.7441,-0.9072,0.3330,-47.26,-140.37,-110.18
452,405081984,-0.7329,-0.9092,0.3286,-52.38,-140.06,-112.07
453,405086984,-0.7231,-0.9033,0.3223,-57.26,-139.88,-114.02
454,405091984,-0.7134,-0.9048,0.3247,-61.83,-139.45,-116.16
455,405096984,-0.7051,-0.9053,0.3301,-66.16,-139.15,-118.23
456,405101984,-0.6978,-0.9077,0.3242,-70.61,-138.48,-120.30
457,405106984,-0.6870,-0.9097,0.3105,-75.00,-137.87,-122.38
458,405111984,-0.6685,-0.9087,0.3071,-79.39,-137.20,-124.57
459,405116985,-0.6558,-0.9072,0.3057,-83.72,-136.52,-126.65
460,405121984,-0.6416,-0.9062,0.3032,-88.17,-135.79,-128.72
461,405126984,-0.6362,-0.9072,0.2935,-92.44,-134.88,-130.79
462,405131984,-0.6191,-0.9077,0.2925,-96.28,-134.09,-132.87
463,405136984,-0.6162,-0.9111,0.2891,-99.51,-132.87,-134.63
464,405142454,-0.6040,-0.9097,0.2871,-102.01,-131.89,-136.46
465,405146985,-0.5996,-0.9077,0.2759,-103.54,-130.85,-138.29
466,405151984,-0.5869,-0.9097,0.2690,-104.45,-129.76,-139.94
467,405156983,-0.5688,-0.9111,0.2632,-104.70,-128.90,-141.59
468,405161982,-0.5566,-0.9111,0.2617,-104.21,-128.05,-142.93
469,405166982,-0.5435,-0.9058,0.2520,-103.29,-127.26,-144.21
470,405171983,-0.5317,-0.9067,0.2466,-101.95,-126.28,-145.30
471,405176984,-0.5127,-0.9048,0.2397,-100.24,-125.37,-146.16
472,405181984,-0.4971,-0.8970,0.2319,-98.29,-124.33,-146.83
473,405186984,-0.4814,-0.8921,0.2246,-96.22,-123.23,-147.44
474,405191983,-0.4805,-0.8867,0.2222,-93.84,-122.20,-147.62
475,405196988,-0.4653,-0.8882,0.2090,-91.65,-121.04,-147.62
476,405201984,-0.4478,-0.8828,0.1978,-89.45,-119.82,-147.38
477,405206984,-0.4321,-0.8784,0.1978,-87.07,-118.54,-147.13
478,405211984,-0.4209,-0.8691,0.1953,-84.76,-117.01,-146.46
479,405216984,-0.4106,-0.8638,0.1890,-82.38,-115.43,-145.67
480,405221984,-0.3970,-0.8633,0.1855,-80.12,-113.90,-144.82
481,405226984,-0.3804,-0.8579,0.1733,-77.93,-112.13,-143.66
482,405231984,-0.3647,-0.8525,0.1626,-75.61,-110.30,-142.38
483,405236984,-0.3457,-0.8467,0.1567,-73.41,-108.66,-141.10
484,405241984,-0.3242,-0.8359,0.1455,-71.22,-106.83,-139.76
485,405246986,-0.3032,-0.8330,0.1421,-69.15,-105.00,-138.17
486,405251984,-0.2866,-0.8271,0.1318,-66.95,-103.05,-136.52
487,405256984,-0.2729,-0.8208,0.1226,-64.76,-101.10,-134.82
488,405261984,-0.2588,-0.8169,0.1089,-62.38,-99.39,-132.87
489,405266984,-0.2427,-0.8145,0.1074,-59.94,-97.20,-130.79
490,405271984,-0.2241,-0.8120,0.1040,-57.62,-95.18,-128.60
491,405276987,-0.2148,-0.8125,0.0957,-55.30,-92.87,-126.22
492,405281984,-0.1997,-0.8066,0.0864,-52.74,-90.85,-123.72
493,405286984,-0.1855,-0.8047,0.0732,-50.24,-88.72,-121.10
494,405291984,-0.1704,-0.7979,0.0557,-47.44,-86.59,-118.48
495,405296984,-0.1470,-0.7964,0.0566,-44.39,-84.33,-115.85
496,405301984,-0.1270,-0.7847,0.0503,-41.04,-82.20,-113.05
497,405306984,-0.1055,-0.7803,0.0396,-37.38,-80.30,-110.43
498,405311983,-0.0903,-0.7739,0.0298,-33.48,-78.41,-107.56
499,405316983,-0.0791,-0.7705,0.0259,-29.45,-76.46,-104.82
500,405321984,-0.0645,-0.7695,0.0200,-25.37,-74.70,-101.95
501,405327272,-0.0479,-0.7690,0.0098,-21.40,-72.93,-99.02
502,405332045,-0.0322,-0.7603,0.0151,-17.50,-71.34,-96.10
503,405336984,-0.0205,-0.7593,-0.0024,-13.72,-69.57,-93.41
504,405342224,-0.0068,-0.7568,-0.0083,-10.06,-67.93,-90.67
505,405346984,0.0005,-0.7544,-0.0132,-6.52,-66.28,-87.80
506,405351985,0.0171,-0.7466,-0.0176,-2.99,-64.82,-85.00
507,405356984,0.0308,-0.7476,-0.0254,0.24,-63.23,-82.44
508,405361984,0.0361,-0.7437,-0.0259,3.05,-61.65,-79.82
509,405366984,0.0459,-0.7461,-0.0229,6.04,-60.06,-77.13
510,405371984,0.0566,-0.7456,-0.0356,8.29,-58.54,-74.63
511,405376983,0.0669,-0.7505,-0.0332,10.67,-56.95,-72.13
512,405381984,0.0747,-0.7544,-0.0371,12.62,-55.43,-69.57
513,405386984,0.0737,-0.7559,-0.0420,14.39,-53.84,-67.13
514,405391983,0.0840,-0.7588,-0.0430,16.16,-52.13,-64.70
515,405396984,0.0854,-0.7593,-0.0469,17.80,-50.67,-62.38
516,405401984,0.0874,-0.7588,-0.0503,19.27,-49.02,-60.12
517,405406984,0.0947,-0.7554,-0.0488,20.79,-47.50,-57.93
518,405411986,0.1006,-0.7583,-0.0464,22.44,-45.98,-55.85
519,405416984,0.1143,-0.7603,-0.0415,23.72,-44.39,-53.90
520,405421984,0.1187,-0.7651,-0.0474,25.06,-42.87,-51.89
521,405426984,0.1201,-0.7715,-0.0474,26.22,-41.46,-49.82
522,405431984,0.1318,-0.7642,-0.0430,27.07,-40.00,-47.68
523,405436984,0.1401,-0.7676,-0.0347,28.05,-38.54,-45.67
524,405441984,0.1504,-0.7671,-0.0376,29.09,-37.38,-43.78
525,405446984,0.1582,-0.7627,-0.0288,30.12,-35.98,-41.89
526,405451986,0.1641,-0.7563,-0.0317,31.22,-34.82,-40.06
527,405456983,0.1714,-0.7563,-0.0288,32.26,-33.72,-38.29
528,405461982,0.1763,-0.7524,-0.0190,33.23,-32.74,-36.46
529,405466982,0.1831,-0.7505,-0.0132,34.15,-31.83,-34.82
530,405471983,0.1904,-0.7471,-0.0166,35.00,-30.79,-32.99
531,405476984,0.1987,-0.7456,-0.0103,35.98,-29.88,-31.28
532,405482517,0.2100,-0.7412,-0.0054,36.89,-29.33,-29.63
533,405486985,0.2251,-0.7368,0.0010,37.99,-28.84,-27.93
534,405491987,0.2383,-0.7373,-0.0020,39.15,-28.54,-26.46
535,405496984,0.2437,-0.7339,-0.0024,40.30,-28.17,-24.94
536,405501984,0.2534,-0.7339,0.0034,41.28,-27.99,-23.35
537,405506984,0.2549,-0.7354,0.0107,42.38,-28.05,-21.89
538,405511984,0.2603,-0.7305,0.0078,43.17,-27.93,-20.43
539,405516984,0.2695,-0.7310,0.0161,43.90,-27.99,-19.15
540,405521984,0.2749,-0.7368,0.0132,44.09,-27.99,-17.56
541,405526984,0.2759,-0.7407,0.0200,44.15,-27.99,-16.10
542,405531984,0.2778,-0.7466,0.0264,43.66,-27.93,-14.63
543,405536984,0.2744,-0.7471,0.0312,42.93,-27.87,-13.11
544,405541984,0.2754,-0.7559,0.0352,42.01,-27.80,-11.71
545,405546984,0.2764,-0.7559,0.0430,40.85,-27.68,-10.37
546,405551984,0.2769,-0.7632,0.0381,39.51,-27.80,-8.96
547,405556985,0.2764,-0.7593,0.0400,38.05,-27.87,-7.62
548,405561984,0.2778,-0.7725,0.0439,36.52,-27.74,-6.22
549,405566984,0.2729,-0.7764,0.0425,35.00,-27.68,-4.76
550,405571984,0.2681,-0.7798,0.0483,33.35,-27.80,-3.41
551,405576984,0.2725,-0.7832,0.0459,31.89,-27.62,-1.89
552,405581984,0.2656,-0.7852,0.0493,30.37,-27.50,-0.49
553,405586983,0.2607,-0.7876,0.0542,29.02,-27.32,0.91
554,405591984,0.2578,-0.7915,0.0547,27.68,-27.20,2.38
555,405596984,0.2588,-0.8022,0.0527,26.34,-26.89,3.78
556,405601984,0.2510,-0.8076,0.0557,25.00,-26.65,5.37
557,405606984,0.2451,-0.8115,0.0620,23.96,-26.40,6.77
558,405611984,0.2422,-0.8198,0.0557,22.99,-26.04,8.05
559,405616984,0.2329,-0.8184,0.0640,22.26,-25.85,9.33
560,405621984,0.2368,-0.8232,0.0654,21.77,-25.43,10.67
561,405626984,0.2280,-0.8286,0.0674,21.71,-24.94,11.77
562,405631984,0.2295,-0.8335,0.0688,21.83,-24.70,12.99
563,405636984,0.2275,-0.8345,0.0674,22.01,-24.21,14.09
564,405642298,0.2266,-0.8418,0.0635,22.56,-23.84,15.18
565,405646984,0.2251,-0.8457,0.0669,23.17,-23.29,16.10
566,405651984,0.2183,-0.8525,0.0596,23.96,-22.80,17.13
567,405656986,0.2148,-0.8535,0.0591,24.70,-22.20,17.93
568,405661984,0.2109,-0.8599,0.0610,25.61,-21.65,18.72
569,405666984,0.2158,-0.8545,0.0601,26.46,-21.10,19.39
570,405671984,0.2153,-0.8623,0.0620,27.56,-20.30,19.94
571,405676984,0.2173,-0.8633,0.0605,28.23,-19.94,20.49
572,405681984,0.2144,-0.8735,0.0640,29.09,-19.45,21.04
573,405687463,0.2202,-0.8750,0.0610,29.63,-18.84,21.34
574,405692618,0.2207,-0.8818,0.0664,29.94,-18.29,21.71
575,405696984,0.2222,-0.8794,0.0674,30.00,-17.80,21.89
576,405701984,0.2217,-0.8857,0.0723,29.88,-17.32,22.01
577,405706984,0.2261,-0.8857,0.0728,29.63,-16.77,22.13
578,405711985,0.2241,-0.8862,0.0679,29.21,-16.16,22.07
579,405716984,0.2246,-0.8877,0.0703,28.60,-15.61,22.07
580,405721984,0.2251,-0.8896,0.0806,27.80,-15.12,22.13
581,405726984,0.2251,-0.8887,0.0791,27.13,-14.45,21.89
582,405731984,0.2241,-0.8955,0.0801,26.40,-13.78,21.71
583,405736984,0.2280,-0.8940,0.0762,25.73,-13.35,21.46
584,405741984,0.2324,-0.8965,0.0762,24.94,-12.56,21.40
585,405746984,0.2354,-0.9019,0.0830,24.09,-12.20,21.04
586,405751984,0.2358,-0.9058,0.0864,22.99,-11.65,20.85
587,405756983,0.2334,-0.9150,0.0762,21.95,-11.16,20.73
588,405761984,0.2358,-0.9116,0.0884,20.79,-10.55,20.37
589,405766983,0.2393,-0.9097,0.0894,19.70,-10.12,19.94
590,405771982,0.2432,-0.9175,0.0913,18.48,-9.51,19.57
591,405776982,0.2451,-0.9180,0.0854,17.26,-8.84,19.21
592,405782195,0.2422,-0.9214,0.0918,15.79,-8.11,18.90
593,405786984,0.2441,-0.9219,0.0884,14.39,-7.68,18.41
594,405791985,0.2427,-0.9238,0.0962,12.74,-7.01,18.05
595,405797059,0.2471,-0.9214,0.0962,11.04,-6.28,17.50
596,405801982,0.2466,-0.9219,0.0957,9.57,-5.61,17.01
597,405806984,0.2520,-0.9233,0.1001,7.80,-5.00,16.46
598,405811984,0.2559,-0.9194,0.1040,6.10,-4.45,15.85
599,405816984,0.2559,-0.9199,0.1108,4.51,-3.96,15.12
600,405821984,0.2603,-0.9258,0.1113,2.62,-3.23,14.70
601,405826984,0.2617,-0.9248,0.1108,0.91,-2.68,14.15
602,405831984,0.2651,-0.9272,0.1162,-0.98,-1.95,13.66
603,405837341,0.2666,-0.9302,0.1177,-2.80,-1.28,13.11
604,405841984,0.2715,-0.9341,0.1230,-4.45,-0.61,12.80
605,405846984,0.2681,-0.9346,0.1191,-6.04,-0.06,12.56
606,405851984,0.2700,-0.9414,0.1279,-7.68,0.61,12.07
607,405856984,0.2710,-0.9395,0.1357,-9.21,1.16,11.83
608,405861986,0.2754,-0.9458,0.1348,-10.37,1.77,11.46
609,405866984,0.2764,-0.9497,0.1372,-11.34,2.26,11.28
610,405871984,0.2739,-0.9629,0.1416,-11.89,2.93,11.16
611,405876984,0.2710,-0.9248,0.1392,-11.89,3.78,10.98
612,405881984,0.2915,-0.9526,0.1250,-12.01,4.15,10.55
613,405886984,0.2974,-0.9805,0.1392,-12.13,4.51,10.55
614,405892023,0.2944,-0.9863,0.1440,-12.07,5.06,10.55
615,405896984,0.2847,-0.9795,0.1426,-11.71,5.73,10.61
616,405901984,0.2871,-0.9756,0.1567,-11.16,6.28,10.49
617,405906984,0.2930,-0.9795,0.1519,-10.30,6.71,10.67
618,405911987,0.2954,-0.9854,0.1484,-9.15,7.26,10.79
619,405916984,0.2974,-0.9858,0.1572,-8.54,7.62,10.61
620,405921984,0.2983,-0.9922,0.1523,-7.74,8.11,10.73
621,405926984,0.3032,-0.9976,0.1538,-6.77,8.60,10.91
622,405931984,0.2993,-1.0049,0.1592,-5.85,9.09,11.04
623,405937421,0.2974,-1.0073,0.1670,-4.70,9.63,11.22
624,405941984,0.2983,-1.0078,0.1597,-4.02,10.00,11.34
625,405947343,0.2974,-1.0137,0.1582,-3.11,10.67,11.46
626,405951984,0.2944,-1.0142,0.1621,-2.32,10.91,11.83
627,405956984,0.2944,-1.0176,0.1641,-1.40,11.59,11.95
628,405961984,0.2915,-1.0254,0.1665,-0.30,12.01,12.13
629,405966985,0.2910,-1.0283,0.1685,0.73,12.56,12.38
630,405971984,0.2910,-1.0322,0.1670,2.07,13.17,12.56
631,405976984,0.2856,-1.0352,0.1680,3.29,13.60,12.74
632,405981984,0.2812,-1.0366,0.1729,4.82,14.09,12.74
633,405986984,0.2788,-1.0342,0.1738,6.16,14.76,12.87
634,405991984,0.2700,-1.0366,0.1763,7.62,15.24,12.80
635,405996984,0.2695,-1.0327,0.1758,9.15,15.79,12.80
636,406001984,0.2686,-1.0381,0.1768,10.85,16.34,12.62
637,406006982,0.2666,-1.0371,0.1787,12.32,17.07,12.50
638,406011984,0.2583,-1.0366,0.1787,13.72,17.62,12.26
639,406016984,0.2549,-1.0332,0.1802,15.00,18.11,12.07
640,406021984,0.2549,-1.0308,0.1909,16.34,18.78,11.83
641,406026984,0.2554,-1.0317,0.1909,17.32,19.21,11.40
642,406031984,0.2480,-1.0278,0.1875,18.35,19.88,11.22
643,406036984,0.2451,-1.0312,0.1953,19.15,20.24,10.91
644,406041984,0.2441,-1.0327,0.1973,19.82,20.85,10.61
645,406046984,0.2329,-1.0352,0.1978,20.12,21.46,10.37
646,406051984,0.2310,-1.0303,0.2051,20.24,21.89,10.00
647,406056983,0.2324,-1.0298,0.2061,20.18,22.56,9.51
648,406061982,0.2305,-1.0278,0.2046,20.06,23.05,9.09
649,406067571,0.2222,-1.0234,0.2139,19.76,23.66,8.60
650,406071984,0.2256,-1.0273,0.2173,19.57,24.15,8.35
651,406076984,0.2197,-1.0234,0.2227,19.09,24.57,7.93
652,406081986,0.2192,-1.0137,0.2217,18.78,24.94,7.56
653,406086983,0.2144,-1.0122,0.2266,18.41,25.37,7.13
654,406091984,0.2144,-1.0029,0.2319,18.11,25.79,6.83
655,406097005,0.2139,-1.0044,0.2310,17.62,26.16,6.40
656,406101984,0.2100,-1.0068,0.2373,17.38,26.46,5.91
657,406106984,0.2080,-1.0029,0.2407,16.89,26.65,5.61
658,406112473,0.2012,-1.0000,0.2451,16.46,26.83,5.18
659,406116985,0.2021,-0.9985,0.2466,16.10,27.01,5.00
660,406121984,0.2031,-0.9937,0.2539,15.73,27.13,4.63
661,406126984,0.2026,-0.9878,0.2568,15.55,27.13,4.21
662,406131984,0.1978,-0.9873,0.2583,15.49,27.20,3.90
663,406136984,0.1987,-0.9868,0.2656,15.24,27.20,3.54
664,406141984,0.1973,-0.9849,0.2681,15.06,27.13,3.17
665,406146984,0.1914,-0.9824,0.2710,15.00,27.01,2.93
666,406151984,0.1880,-0.9800,0.2759,14.82,26.77,2.62
667,406156984,0.1885,-0.9775,0.2798,14.82,26.77,2.26
668,406161984,0.1924,-0.9697,0.2852,14.94,26.46,1.95
669,406166984,0.1934,-0.9692,0.2798,15.06,26.34,1.71
670,406172383,0.1885,-0.9673,0.2891,15.24,25.85,1.46
671,406176983,0.1870,-0.9673,0.2861,15.18,25.73,1.34
672,406181984,0.1846,-0.9683,0.2886,15.30,25.30,1.04
673,406186984,0.1782,-0.9697,0.2920,15.24,24.94,0.98
674,406191985,0.1816,-0.9692,0.3032,14.94,24.51,0.79
675,406196985,0.1758,-0.9683,0.3091,14.57,23.96,0.73
676,406201984,0.1753,-0.9604,0.3105,14.02,23.60,0.49
677,406206988,0.1738,-0.9575,0.3125,13.48,22.99,0.37
678,406211983,0.1758,-0.9521,0.3091,13.05,22.56,0.18
679,406216984,0.1729,-0.9536,0.3213,12.56,22.07,-0.06
680,406221984,0.1660,-0.9565,0.3159,11.77,21.52,-0.06
681,406226984,0.1646,-0.9556,0.3213,10.91,20.91,-0.18
682,406232413,0.1621,-0.9600,0.3203,9.63,20.24,-0.30
683,406236984,0.1641,-0.9561,0.3218,8.90,19.82,-0.24
684,406241984,0.1631,-0.9473,0.3271,7.80,19.21,-0.30
685,406246984,0.1646,-0.9487,0.3271,6.71,18.72,-0.37
686,406251984,0.1650,-0.9448,0.3306,5.85,17.93,-0.49
687,406256984,0.1606,-0.9536,0.3335,4.94,17.13,-0.43
688,406261984,0.1631,-0.9521,0.3257,3.96,16.40,-0.30
689,406266984,0.1611,-0.9595,0.3286,2.93,15.79,-0.30
690,406271985,0.1519,-0.9570,0.3306,1.95,14.94,-0.12
691,406276984,0.1572,-0.9600,0.3330,1.28,14.33,0.06
692,406281984,0.1528,-0.9575,0.3311,0.73,13.41,0.00
693,406286984,0.1572,-0.9595,0.3389,0.24,12.93,0.06
694,406291984,0.1528,-0.9634,0.3320,-0.06,12.32,0.12
695,406296984,0.1523,-0.9639,0.3306,-0.24,11.71,0.18
696,406301983,0.1519,-0.9653,0.3345,-0.37,11.16,0.30
697,406307006,0.1499,-0.9668,0.3369,-0.55,10.37,0.18
698,406311983,0.1504,-0.9648,0.3384,-0.55,9.94,0.12
699,406316984,0.1489,-0.9644,0.3267,-0.43,9.33,0.00
700,406321984,0.1494,-0.9663,0.3384,-0.43,8.66,0.00
701,406326984,0.1528,-0.9658,0.3276,-0.24,8.17,-0.12
702,406331984,0.1572,-0.9668,0.3369,0.00,7.62,-0.18
703,406336985,0.1543,-0.9688,0.3384,0.24,6.95,-0.30
704,406341984,0.1587,-0.9668,0.3350,0.30,6.22,-0.24
705,406346984,0.1577,-0.9624,0.3306,0.43,5.85,-0.37
706,406351984,0.1616,-0.9600,0.3374,0.43,5.00,-0.43
707,406356984,0.1636,-0.9575,0.3374,0.49,4.33,-0.30
708,406361984,0.1641,-0.9517,0.3354,0.55,3.78,-0.55
709,406366983,0.1670,-0.9526,0.3369,0.61,3.11,-0.61
710,406371982,0.1689,-0.9541,0.3428,0.24,2.32,-0.73
711,406376984,0.1704,-0.9546,0.3325,0.00,1.77,-0.67
712,406381984,0.1729,-0.9517,0.3276,-0.55,1.22,-0.67
713,406387076,0.1724,-0.9482,0.3354,-1.16,0.55,-0.79
714,406391984,0.1738,-0.9482,0.3320,-1.71,0.12,-0.73
715,406396983,0.1768,-0.9487,0.3345,-2.38,-0.49,-0.85
716,406401984,0.1768,-0.9429,0.3345,-3.17,-1.10,-1.04
717,406406984,0.1758,-0.9375,0.3286,-3.90,-1.59,-1.10
718,406411984,0.1826,-0.9404,0.3306,-4.76,-2.26,-1.34
719,406416984,0.1787,-0.9414,0.3218,-5.43,-2.56,-1.34
720,406421984,0.1768,-0.9473,0.3252,-6.52,-3.17,-1.40
721,406426983,0.1680,-0.9541,0.3257,-7.50,-3.72,-1.59
722,406431984,0.1733,-0.9517,0.3267,-8.35,-3.96,-1.52
723,406436984,0.1675,-0.9517,0.3193,-9.33,-4.21,-1.59
724,406441984,0.1670,-0.9497,0.3213,-10.18,-4.39,-1.71
725,406446984,0.1665,-0.9502,0.3203,-10.73,-4.45,-1.89
726,406451984,0.1641,-0.9536,0.3184,-11.22,-4.45,-2.13
727,406456984,0.1665,-0.9526,0.3213,-11.46,-4.63,-2.26
728,406461983,0.1689,-0.9536,0.3164,-11.71,-4.63,-2.38
729,406467069,0.1689,-0.9580,0.3115,-11.77,-4.82,-2.56
730,406471983,0.1626,-0.9585,0.3154,-11.89,-4.70,-2.62
731,406476986,0.1641,-0.9634,0.3140,-11.77,-4.76,-2.56
732,406481984,0.1621,-0.9590,0.3130,-11.59,-4.70,-2.62
733,406486984,0.1650,-0.9585,0.3096,-11.22,-4.63,-2.74
734,406491984,0.1655,-0.9590,0.3135,-10.61,-4.57,-2.50
735,406496984,0.1699,-0.9614,0.3086,-9.82,-4.63,-2.56
736,406501984,0.1670,-0.9600,0.3120,-8.90,-4.63,-2.56
737,406506984,0.1729,-0.9565,0.3066,-7.93,-4.57,-2.44
738,406511984,0.1719,-0.9624,0.3115,-6.77,-4.57,-2.20
739,406516984,0.1714,-0.9648,0.2993,-5.61,-4.82,-2.01
740,406521984,0.1733,-0.9668,0.3096,-4.45,-4.88,-1.65
741,406526986,0.1743,-0.9634,0.3081,-3.17,-5.06,-1.46
742,406531984,0.1816,-0.9658,0.2998,-1.83,-5.12,-1.22
743,406536984,0.1865,-0.9565,0.3018,-0.55,-5.30,-1.04
744,406541984,0.1875,-0.9541,0.3032,0.79,-5.37,-0.73
745,406546984,0.1875,-0.9556,0.3013,2.07,-5.55,-0.43
746,406551984,0.1938,-0.9531,0.3013,3.48,-5.91,-0.30
747,406556984,0.1899,-0.9497,0.2979,4.45,-6.16,-0.06
748,406561984,0.1851,-0.9585,0.3018,5.18,-6.34,0.24
749,406566986,0.1899,-0.9595,0.3057,5.79,-6.52,0.55
750,406571986,0.1890,-0.9541,0.3027,6.22,-6.59,0.85
751,406576984,0.1855,-0.9507,0.2993,6.28,-6.89,1.22
752,406581986,0.1919,-0.9512,0.2964,6.46,-7.07,1.46
753,406586984,0.1909,-0.9458,0.3018,6.46,-7.32,1.65
754,406591983,0.1963,-0.9424,0.2925,6.28,-7.74,1.89
755,406596983,0.1968,-0.9385,0.2964,6.22,-7.93,2.01
756,406601984,0.1968,-0.9443,0.2993,5.98,-8.23,2.26
757,406606982,0.1968,-0.9453,0.2915,5.67,-8.41,2.50
758,406611984,0.1909,-0.9492,0.2935,5.06,-8.66,2.62
759,406616984,0.1875,-0.9468,0.2886,4.51,-9.02,2.80
760,406621984,0.1865,-0.9478,0.2915,3.84,-9.15,2.93
761,406626984,0.1860,-0.9429,0.2817,3.35,-9.15,3.05
762,406631984,0.1870,-0.9395,0.2866,2.87,-9.51,3.05
763,406636984,0.1885,-0.9448,0.2861,2.50,-9.39,3.11
764,406641982,0.1826,-0.9473,0.2822,2.13,-9.39,3.05
765,406646984,0.1787,-0.9497,0.2822,1.95,-9.57,3.05
766,406651984,0.1792,-0.9521,0.2837,1.77,-9.57,3.05
767,406656983,0.1782,-0.9507,0.2759,1.71,-9.76,3.05
768,406661982,0.1821,-0.9502,0.2739,1.71,-9.63,2.99
769,406666983,0.1807,-0.9546,0.2808,1.89,-9.70,2.87
770,406671984,0.1772,-0.9526,0.2764,2.13,-9.70,2.80
771,406676984,0.1782,-0.9561,0.2759,2.26,-9.70,2.80
772,406681986,0.1768,-0.9585,0.2734,2.56,-9.82,2.68
773,406686982,0.1733,-0.9614,0.2700,2.93,-9.82,2.68
774,406691984,0.1782,-0.9609,0.2729,3.17,-9.82,2.68
775,406696984,0.1831,-0.9653,0.2695,3.60,-9.82,2.62
776,406701984,0.1807,-0.9595,0.2656,4.02,-10.00,2.56
777,406706984,0.1812,-0.9580,0.2656,4.39,-10.12,2.56
778,406711983,0.1841,-0.9629,0.2617,4.94,-10.24,2.50
779,406716984,0.1870,-0.9639,0.2632,5.12,-10.43,2.56
780,406721984,0.1836,-0.9600,0.2627,5.49,-10.61,2.50
781,406726984,0.1841,-0.9634,0.2598,5.61,-10.73,2.56
782,406731984,0.1865,-0.9604,0.2646,5.73,-10.91,2.50
783,406736984,0.1851,-0.9580,0.2656,5.55,-11.10,2.26
784,406741984,0.1836,-0.9600,0.2637,5.37,-11.10,2.26
785,406746984,0.1875,-0.9580,0.2612,4.94,-11.16,2.13
786,406751984,0.1855,-0.9609,0.2549,4.51,-11.28,2.01
787,406756984,0.1851,-0.9614,0.2524,3.90,-11.40,1.83
788,406761984,0.1846,-0.9663,0.2495,3.23,-11.40,1.71
789,406766984,0.1841,-0.9644,0.2583,2.50,-11.59,1.59
790,406771984,0.1899,-0.9629,0.2544,1.65,-11.46,1.46
791,406776984,0.1870,-0.9634,0.2505,0.73,-11.52,1.28
792,406781984,0.1904,-0.9653,0.2510,0.12,-11.65,1.10
793,406786989,0.1870,-0.9692,0.2471,-0.67,-11.71,0.98
794,406791984,0.1895,-0.9678,0.2471,-1.34,-11.83,0.98
795,406796984,0.1865,-0.9648,0.2476,-1.77,-11.89,0.79
796,406801984,0.1880,-0.9673,0.2490,-2.26,-11.83,0.67
797,406806984,0.1914,-0.9663,0.2441,-2.68,-11.95,0.49
798,406811984,0.1895,-0.9634,0.2397,-2.93,-11.89,0.37
799,406816984,0.1914,-0.9634,0.2417,-3.05,-11.95,0.06
800,406821984,0.1953,-0.9668,0.2407,-2.99,-12.01,-0.12
801,406826985,0.1934,-0.9683,0.2378,-3.17,-12.20,-0.30
802,406831984,0.1953,-0.9702,0.2393,-3.29,-12.07,-0.55
803,406836984,0.1924,-0.9648,0.2349,-3.54,-12.13,-0.67
804,406841984,0.1953,-0.9663,0.2378,-3.54,-12.07,-0.85
805,406846984,0.1987,-0.9639,0.2358,-3.66,-12.13,-1.04
806,406851984,0.2021,-0.9658,0.2378,-3.78,-12.01,-1.10
807,406856986,0.2031,-0.9653,0.2383,-3.90,-12.13,-1.16
808,406861983,0.2002,-0.9634,0.2354,-3.90,-12.13,-1.40
809,406866984,0.2070,-0.9668,0.2329,-3.90,-12.13,-1.40
810,406872444,0.2046,-0.9717,0.2300,-4.02,-12.07,-1.46
811,406876984,0.2041,-0.9673,0.2305,-4.21,-12.01,-1.65
812,406881984,0.2104,-0.9707,0.2271,-4.27,-11.95,-1.65
813,406886986,0.2085,-0.9707,0.2256,-4.51,-11.95,-1.65
814,406891984,0.2085,-0.9673,0.2241,-4.82,-11.95,-1.71
815,406896984,0.2095,-0.9722,0.2251,-4.76,-11.89,-1.59
816,406901982,0.2104,-0.9673,0.2148,-4.94,-11.83,-1.77
817,406906984,0.2129,-0.9702,0.2271,-5.06,-11.77,-1.83
818,406911984,0.2144,-0.9702,0.2197,-5.06,-11.71,-1.77
819,406916984,0.2144,-0.9678,0.2188,-5.06,-11.71,-1.65
820,406921984,0.2153,-0.9727,0.2192,-5.06,-11.59,-1.59
821,406926984,0.2139,-0.9663,0.2168,-4.94,-11.46,-1.52
822,406931984,0.2129,-0.9697,0.2183,-4.63,-11.28,-1.52
823,406936983,0.2119,-0.9663,0.2158,-4.45,-11.16,-1.52
824,406941984,0.2148,-0.9702,0.2192,-4.45,-11.10,-1.46
825,406946984,0.2153,-0.9736,0.2173,-4.39,-11.04,-1.40
826,406951984,0.2119,-0.9702,0.2119,-4.33,-10.91,-1.46
827,406956983,0.2148,-0.9688,0.2070,-4.27,-10.91,-1.52
828,406961982,0.2178,-0.9741,0.2104,-4.15,-10.79,-1.46
829,406966982,0.2100,-0.9702,0.2012,-4.02,-10.61,-1.52
830,406971982,0.2100,-0.9678,0.2070,-3.84,-10.49,-1.59
831,406976982,0.2114,-0.9707,0.2046,-3.84,-10.37,-1.65
832,406981983,0.2168,-0.9678,0.2085,-3.84,-10.30,-1.65
833,406987072,0.2158,-0.9692,0.2109,-3.66,-9.94,-1.52
834,406991984,0.2158,-0.9683,0.2100,-3.54,-9.76,-1.59
835,406997462,0.2124,-0.9619,0.2017,-3.48,-9.51,-1.59
836,407001984,0.2163,-0.9653,0.1987,-3.41,-9.45,-1.59
837,407006984,0.2207,-0.9648,0.2026,-3.17,-9.21,-1.52
838,407011984,0.2188,-0.9683,0.1992,-3.17,-8.90,-1.52
839,407016983,0.2188,-0.9629,0.2031,-3.23,-8.78,-1.40
840,407021983,0.2183,-0.9648,0.2036,-3.41,-8.54,-1.40
841,407026984,0.2202,-0.9658,0.2026,-3.41,-8.41,-1.34
842,407031984,0.2188,-0.9678,0.1973,-3.41,-8.29,-1.28
843,407036984,0.2227,-0.9619,0.1973,-3.41,-7.99,-1.16
844,407041984,0.2256,-0.9658,0.1953,-3.29,-7.93,-1.16
845,407046984,0.2251,-0.9634,0.1934,-3.23,-7.68,-0.98
846,407051984,0.2217,-0.9614,0.1963,-3.05,-7.56,-0.98
847,407056984,0.2241,-0.9644,0.2017,-2.80,-7.50,-0.79
848,407061984,0.2236,-0.9639,0.1948,-2.44,-7.38,-0.79
849,407066984,0.2236,-0.9619,0.1929,-2.07,-7.07,-0.67
850,407071984,0.2222,-0.9619,0.1914,-1.77,-7.01,-0.67
851,407076984,0.2197,-0.9585,0.1958,-1.46,-6.77,-0.55
852,407082329,0.2183,-0.9595,0.1924,-1.22,-6.59,-0.43
853,407086984,0.2158,-0.9590,0.1924,-1.04,-6.34,-0.30
854,407091986,0.2173,-0.9653,0.1958,-0.73,-6.16,-0.24
855,407097439,0.2183,-0.9629,0.1904,-0.55,-5.85,-0.18
856,407101984,0.2188,-0.9634,0.1934,-0.37,-5.67,-0.12
857,407106984,0.2178,-0.9634,0.1997,-0.30,-5.55,0.00
858,407111984,0.2197,-0.9697,0.1904,-0.06,-5.37,0.00
859,407116985,0.2173,-0.9648,0.1958,0.06,-5.18,0.00
860,407122464,0.2144,-0.9697,0.1997,0.37,-5.12,0.12
861,407126984,0.2197,-0.9678,0.1978,0.55,-5.06,0.06
862,407131983,0.2168,-0.9673,0.2017,0.67,-4.82,0.00
863,407136984,0.2139,-0.9702,0.1948,1.04,-4.70,0.06
864,407141984,0.2119,-0.9663,0.1919,1.40,-4.63,-0.06
865,407147438,0.2183,-0.9629,0.1943,1.89,-4.51,-0.18
866,407151984,0.2202,-0.9639,0.1948,2.07,-4.39,-0.30
867,407156984,0.2109,-0.9614,0.1934,2.44,-4.39,-0.30
868,407161984,0.2129,-0.9644,0.1938,2.50,-4.33,-0.30
869,407166984,0.2153,-0.9648,0.1973,2.62,-4.21,-0.43
870,407171983,0.2153,-0.9634,0.2012,2.56,-3.96,-0.49
871,407176984,0.2109,-0.9614,0.2012,2.26,-4.09,-0.55
872,407181984,0.2119,-0.9648,0.2046,2.07,-4.15,-0.61
873,407186984,0.2119,-0.9604,0.1978,1.77,-4.09,-0.79
874,407191984,0.2129,-0.9600,0.1987,1.34,-4.09,-0.85
875,407196987,0.2139,-0.9575,0.2070,0.91,-3.96,-0.85
876,407201984,0.2065,-0.9565,0.2061,0.67,-3.96,-1.04
877,407206984,0.2061,-0.9565,0.2056,0.18,-3.90,-1.04
878,407211984,0.2065,-0.9575,0.2129,-0.12,-4.02,-1.10
879,407216984,0.2026,-0.9526,0.2100,-0.61,-3.90,-1.16
880,407221983,0.2012,-0.9561,0.2109,-0.91,-3.66,-1.28
881,407226984,0.1973,-0.9507,0.2163,-1.10,-3.60,-1.34
882,407231984,0.1982,-0.9531,0.2114,-1.10,-3.72,-1.52
883,407236984,0.1992,-0.9512,0.2212,-1.04,-3.72,-1.52
884,407241984,0.1987,-0.9512,0.2197,-0.91,-3.78,-1.65
885,407246986,0.1992,-0.9463,0.2212,-0.67,-3.96,-1.65
886,407251984,0.2012,-0.9463,0.2217,-0.30,-3.96,-1.71
887,407256983,0.2012,-0.9409,0.2231,0.12,-4.21,-1.83
888,407261982,0.2017,-0.9419,0.2314,0.61,-4.39,-1.77
889,407267835,0.2041,-0.9385,0.2339,1.22,-4.63,-1.77
890,407271984,0.2095,-0.9365,0.2314,1.46,-4.94,-1.83
891,407276983,0.2046,-0.9360,0.2266,1.71,-5.18,-1.77
892,407281984,0.2070,-0.9351,0.2271,1.89,-5.49,-1.71
893,407286984,0.2061,-0.9346,0.2314,1.77,-5.73,-1.52
894,407291984,0.2046,-0.9385,0.2314,1.71,-5.98,-1.40
895,407296985,0.2061,-0.9346,0.2407,1.22,-6.22,-1.22
896,407301984,0.2026,-0.9326,0.2363,0.85,-6.59,-0.98
897,407307309,0.2051,-0.9331,0.2417,0.00,-6.83,-0.73
898,407311984,0.2041,-0.9297,0.2446,-0.55,-7.32,-0.61
899,407316984,0.2070,-0.9370,0.2461,-1.28,-7.44,-0.43
900,407321983,0.2104,-0.9287,0.2412,-1.83,-7.93,-0.18
901,407326983,0.2085,-0.9307,0.2490,-2.62,-8.17,0.12
902,407331984,0.2080,-0.9233,0.2524,-3.17,-8.60,0.43
903,407336984,0.2061,-0.9219,0.2520,-3.60,-8.84,0.67
904,407341984,0.2065,-0.9204,0.2471,-4.02,-9.21,0.98
905,407347383,0.2109,-0.9248,0.2520,-4.27,-9.57,1.46
906,407351984,0.2139,-0.9165,0.2515,-4.45,-10.06,1.71
907,407356984,0.2109,-0.9121,0.2598,-4.63,-10.49,2.07
908,407361987,0.2168,-0.9150,0.2544,-4.63,-11.04,2.56
909,407366984,0.2163,-0.9165,0.2563,-4.57,-11.40,2.80
910,407372367,0.2148,-0.9136,0.2622,-4.45,-12.07,3.35
911,407376984,0.2192,-0.9160,0.2686,-4.39,-12.44,3.66
912,407381984,0.2207,-0.9170,0.2686,-4.21,-12.93,4.21
913,407386984,0.2212,-0.9199,0.2661,-4.09,-13.35,4.82
914,407391984,0.2197,-0.9204,0.2725,-3.90,-13.96,5.43
915,407396984,0.2241,-0.9248,0.2715,-3.66,-14.45,5.98
916,407401985,0.2178,-0.9292,0.2705,-3.35,-15.00,6.77
917,407406984,0.2197,-0.9341,0.2661,-3.11,-15.49,7.32
918,407411984,0.2197,-0.9385,0.2705,-2.87,-15.98,8.23
919,407416984,0.2163,-0.9419,0.2671,-2.38,-16.65,8.96
920,407421984,0.2139,-0.9458,0.2646,-1.83,-17.20,9.57
921,407426982,0.2183,-0.9448,0.2583,-0.91,-17.87,10.49
922,407431984,0.2153,-0.9473,0.2559,0.06,-18.54,11.28
923,407436984,0.2144,-0.9478,0.2568,1.16,-19.15,12.01
924,407441984,0.2188,-0.9541,0.2485,2.38,-19.82,12.74
925,407446984,0.2231,-0.9570,0.2485,3.72,-20.73,13.35
926,407451984,0.2241,-0.9619,0.2451,5.00,-21.52,14.09
927,407456984,0.2261,-0.9565,0.2373,6.22,-22.38,14.70
928,407461984,0.2280,-0.9614,0.2324,7.32,-23.35,15.43
929,407466984,0.2251,-0.9629,0.2358,8.23,-24.15,15.98
930,407471984,0.2285,-0.9619,0.2324,8.90,-25.06,16.52
931,407476984,0.2310,-0.9688,0.2295,9.33,-25.91,17.13
932,407481984,0.2227,-0.9727,0.2266,9.45,-26.77,17.44
933,407486984,0.2222,-0.9775,0.2280,9.15,-27.50,18.05
934,407491984,0.2217,-0.9775,0.2231,8.54,-28.17,18.48
935,407497452,0.2192,-0.9819,0.2202,7.74,-28.90,18.78
936,407501985,0.2148,-0.9878,0.2222,7.13,-29.63,19.02
937,407506984,0.2095,-0.9888,0.2266,5.98,-30.18,19.33
938,407511984,0.2070,-0.9917,0.2280,5.06,-30.73,19.51
939,407516984,0.2041,-0.9966,0.2241,4.02,-31.28,19.51
940,407521984,0.2056,-1.0000,0.2163,3.23,-31.77,19.51
941,407526984,0.2017,-1.0029,0.2095,2.56,-32.32,19.57
942,407531985,0.1987,-1.0083,0.2100,1.89,-32.93,19.51
943,407536987,0.1895,-1.0063,0.2061,1.16,-33.48,19.33
944,407541984,0.1870,-1.0073,0.1997,1.10,-33.96,19.15
945,407546984,0.1846,-1.0107,0.2017,0.79,-34.33,18.90
946,407551984,0.1787,-1.0117,0.1963,0.61,-34.88,18.60
947,407556983,0.1738,-1.0156,0.1948,0.55,-35.43,18.23
948,407561982,0.1719,-1.0166,0.1948,0.55,-35.61,17.80
949,407566982,0.1719,-1.0181,0.1880,0.43,-36.22,17.38
950,407571982,0.1665,-1.0132,0.2002,0.49,-36.46,16.95
951,407576982,0.1577,-1.0122,0.1938,0.43,-36.95,16.34
952,407581982,0.1558,-1.0088,0.1973,0.49,-37.26,15.85
953,407587051,0.1523,-1.0054,0.1943,0.55,-37.56,15.37
954,407591985,0.1465,-1.0088,0.2036,0.37,-38.11,14.94
955,407596984,0.1455,-1.0039,0.2051,0.24,-38.48,14.45
956,407601984,0.1445,-1.0078,0.1978,-0.06,-38.78,13.96
957,407606986,0.1406,-1.0063,0.2026,-0.24,-39.33,13.41
958,407611984,0.1421,-1.0034,0.2002,-0.73,-39.45,13.11
959,407616984,0.1421,-1.0010,0.2041,-1.22,-40.12,12.68
960,407621984,0.1392,-1.0073,0.1982,-1.83,-40.61,12.32
961,407626984,0.1470,-1.0054,0.2002,-2.26,-41.22,11.89
962,407631984,0.1509,-1.0000,0.2041,-2.74,-42.01,11.59
963,407636984,0.1553,-0.9956,0.2012,-3.17,-42.68,11.22
964,407641984,0.1543,-0.9932,0.2080,-3.54,-43.41,10.85
965,407646984,0.1562,-0.9917,0.1982,-4.09,-44.21,10.55
966,407651984,0.1543,-0.9868,0.2031,-4.63,-45.43,10.12
967,407656984,0.1572,-0.9868,0.2007,-5.12,-46.34,9.76
968,407661984,0.1616,-0.9839,0.1963,-5.67,-47.20,9.45
969,407666984,0.1616,-0.9829,0.2017,-6.28,-48.29,8.96
970,407671984,0.1606,-0.9780,0.1978,-6.89,-49.09,8.66
971,407676984,0.1616,-0.9780,0.1953,-7.62,-50.37,8.23
972,407681984,0.1597,-0.9849,0.1968,-8.54,-51.40,7.87
973,407686985,0.1611,-0.9805,0.2041,-9.45,-52.38,7.56
974,407691984,0.1616,-0.9756,0.2012,-10.43,-53.66,7.20
975,407696984,0.1611,-0.9780,0.1958,-11.40,-54.82,6.71
976,407702446,0.1592,-0.9761,0.1953,-12.38,-55.73,6.28
977,407706985,0.1562,-0.9707,0.2017,-13.05,-56.59,5.91
978,407711984,0.1548,-0.9756,0.2031,-13.90,-57.68,5.43
979,407716984,0.1562,-0.9766,0.1890,-14.57,-58.72,4.88
980,407721984,0.1577,-0.9766,0.1968,-15.12,-59.57,4.21
981,407726984,0.1597,-0.9746,0.1914,-15.55,-60.61,3.78
982,407731984,0.1582,-0.9819,0.1973,-15.67,-61.40,3.29
983,407736982,0.1553,-0.9849,0.1958,-15.67,-62.07,2.87
984,407741984,0.1553,-0.9849,0.1836,-15.43,-63.29,2.32
985,407746984,0.1592,-0.9810,0.1865,-15.00,-64.21,1.89
986,407751984,0.1611,-0.9805,0.1841,-14.45,-65.43,1.40
987,407756984,0.1621,-0.9844,0.1831,-13.54,-66.28,0.91
988,407761984,0.1626,-0.9824,0.1836,-12.32,-67.50,0.43
989,407766984,0.1572,-0.9795,0.1841,-11.22,-68.60,-0.12
990,407771984,0.1577,-0.9775,0.1836,-9.82,-69.57,-0.67
991,407776984,0.1611,-0.9751,0.1821,-8.48,-70.67,-1.28
992,407781984,0.1558,-0.9751,0.1899,-6.95,-71.95,-1.77
993,407786984,0.1567,-0.9756,0.1777,-5.55,-73.11,-2.44
994,407791984,0.1509,-0.9761,0.1836,-4.09,-74.15,-2.93
995,407796984,0.1494,-0.9795,0.1860,-2.80,-75.24,-3.54
996,407801984,0.1426,-0.9771,0.1836,-1.83,-75.98,-4.09
997,407806986,0.1440,-0.9746,0.1831,-0.79,-77.01,-4.57
998,407811984,0.1426,-0.9814,0.1787,-0.12,-77.87,-5.24
999,407816984,0.1406,-0.9819,0.1797,0.61,-78.78,-5.85
1000,407821984,0.1362,-0.9854,0.1763,1.16,-79.45,-6.34
1001,407826984,0.1353,-0.9824,0.1753,1.59,-80.06,-6.89
1002,407831984,0.1338,-0.9883,0.1797,1.83,-80.73,-7.50
1003,407836983,0.1362,-0.9907,0.1758,1.95,-81.34,-8.11
1004,407841985,0.1382,-0.9971,0.1699,2.32,-82.01,-8.60
1005,407846984,0.1455,-0.9980,0.1719,2.56,-82.68,-9.27
1006,407851984,0.1514,-0.9995,0.1592,3.05,-83.48,-9.70
1007,407856983,0.1514,-1.0010,0.1528,3.66,-84.33,-10.24
1008,407861982,0.1538,-1.0059,0.1426,4.33,-85.24,-10.85
1009,407866982,0.1572,-1.0107,0.1421,5.18,-86.16,-11.28
1010,407871982,0.1592,-1.0112,0.1333,6.04,-87.32,-11.95
1011,407876982,0.1597,-1.0117,0.1255,6.77,-88.41,-12.62
1012,407881982,0.1592,-1.0215,0.1211,7.62,-89.45,-13.23
1013,407886984,0.1519,-1.0264,0.1113,8.29,-90.49,-13.84
1014,407891984,0.1509,-1.0317,0.1079,8.84,-91.46,-14.33
1015,407896984,0.1494,-1.0347,0.0996,9.27,-92.01,-14.94
1016,407901984,0.1465,-1.0420,0.1006,9.51,-93.05,-15.61
1017,407906982,0.1367,-1.0493,0.0908,9.63,-93.54,-16.40
1018,407911986,0.1333,-1.0537,0.0869,9.45,-94.51,-17.13
1019,407916983,0.1338,-1.0645,0.0737,9.15,-94.82,-17.87
1020,407921984,0.1294,-1.0747,0.0669,8.78,-95.43,-18.72
1021,407926982,0.1313,-1.0801,0.0596,8.41,-95.85,-19.51
1022,407931984,0.1338,-1.0889,0.0479,7.93,-96.28,-20.43
1023,407936983,0.1313,-1.0952,0.0381,7.56,-96.59,-21.34
1024,407941984,0.1318,-1.1074,0.0303,7.01,-96.77,-22.26
1025,407946982,0.1333,-1.1182,0.0132,6.65,-97.13,-23.11
1026,407951984,0.1333,-1.1250,0.0054,6.10,-97.32,-24.09
1027,407957032,0.1304,-1.1289,0.0029,5.67,-97.50,-25.00
1028,407961984,0.1299,-1.1396,-0.0112,5.43,-97.56,-26.04
1029,407966984,0.1309,-1.1436,-0.0176,5.37,-97.56,-26.95
1030,407971984,0.1348,-1.1489,-0.0273,5.49,-97.62,-27.93
1031,407977139,0.1367,-1.1543,-0.0352,5.73,-97.68,-28.90
1032,407981984,0.1445,-1.1606,-0.0479,6.28,-97.44,-29.94
1033,407986984,0.1479,-1.1626,-0.0591,7.01,-97.32,-30.98
1034,407991984,0.1470,-1.1733,-0.0679,8.11,-97.20,-31.95
1035,407996984,0.1543,-1.1704,-0.0835,9.33,-96.95,-32.87
1036,408001984,0.1646,-1.1729,-0.0923,10.73,-96.59,-33.66
1037,408006984,0.1704,-1.1665,-0.1060,12.44,-96.46,-34.70
1038,408011986,0.1748,-1.1680,-0.1138,14.15,-96.16,-35.85
1039,408016983,0.1738,-1.1689,-0.1260,15.85,-96.10,-37.01
1040,408021984,0.1792,-1.1655,-0.1431,17.62,-95.85,-38.23
1041,408026984,0.1895,-1.1704,-0.1479,18.96,-95.55,-39.51
1042,408031984,0.1948,-1.1733,-0.1675,20.12,-95.30,-40.85
1043,408036984,0.1948,-1.1680,-0.1724,20.85,-94.88,-42.13
1044,408042517,0.2031,-1.1724,-0.1821,21.46,-94.63,-43.54
1045,408046984,0.2002,-1.1758,-0.1919,21.40,-94.39,-44.88
1046,408051984,0.2041,-1.1753,-0.2012,21.04,-93.78,-46.16
1047,408056984,0.2021,-1.1743,-0.2065,20.49,-93.23,-47.68
1048,408061984,0.2065,-1.1758,-0.2168,19.51,-92.68,-49.02
1049,408066984,0.2090,-1.1748,-0.2290,18.41,-91.95,-50.30
1050,408071984,0.2119,-1.1782,-0.2368,17.26,-91.71,-51.77
1051,408076984,0.2163,-1.1714,-0.2456,15.98,-90.73,-53.11
1052,408081984,0.2148,-1.1689,-0.2603,14.70,-89.82,-54.51
1053,408086984,0.2139,-1.1719,-0.2725,13.23,-88.84,-56.04
1054,408091985,0.2119,-1.1606,-0.2837,11.71,-87.74,-57.62
1055,408096984,0.2144,-1.1602,-0.2861,10.06,-86.65,-59.21
1056,408101984,0.2168,-1.1582,-0.2979,8.23,-85.67,-60.85
1057,408107455,0.2207,-1.1504,-0.3057,6.34,-84.57,-62.74
1058,408111984,0.2212,-1.1484,-0.3159,4.39,-83.48,-64.51
1059,408116986,0.2168,-1.1377,-0.3193,2.20,-82.44,-66.40
1060,408121984,0.2202,-1.1260,-0.3242,0.06,-81.28,-68.54
1061,408126984,0.2217,-1.1147,-0.3335,-2.26,-80.00,-70.49
1062,408131984,0.2300,-1.1118,-0.3374,-4.57,-79.02,-72.56
1063,408136984,0.2334,-1.1030,-0.3394,-7.01,-77.62,-74.76
1064,408141984,0.2373,-1.1001,-0.3374,-9.57,-76.59,-76.95
1065,408146984,0.2358,-1.0952,-0.3506,-12.07,-75.18,-78.96
1066,408151984,0.2329,-1.0820,-0.3491,-14.88,-73.84,-81.16
1067,408156982,0.2393,-1.0771,-0.3564,-17.80,-72.38,-83.23
1068,408161982,0.2349,-1.0693,-0.3599,-21.04,-70.85,-85.43
1069,408167903,0.2407,-1.0532,-0.3594,-25.00,-69.02,-88.05
1070,408171984,0.2373,-1.0474,-0.3550,-27.74,-67.68,-89.76
1071,408176982,0.2456,-1.0356,-0.3604,-31.28,-65.98,-91.95
1072,408181984,0.3008,-1.0635,-0.5029,-35.85,-63.78,-94.45
1073,408186985,0.3140,-1.0972,-0.5874,-41.65,-62.13,-96.95
1074,408191983,0.2671,-1.1011,-0.4067,-46.71,-60.12,-99.51
1075,408196986,0.2734,-1.0894,-0.3315,-51.34,-57.32,-102.07
1076,408201984,0.3311,-1.0825,-0.5264,-57.07,-55.00,-104.82
1077,408206984,0.3745,-1.0073,-0.6143,-63.41,-51.83,-107.80
1078,408211984,0.3687,-1.0103,-0.5933,-69.27,-49.39,-111.16
1079,408216985,0.3345,-1.0752,-0.4609,-73.96,-46.65,-114.15
1080,408221984,0.3618,-1.1030,-0.5312,-79.02,-43.48,-117.07
1081,408226984,0.4175,-1.0879,-0.7061,-85.12,-40.67,-120.12
1082,408231984,0.4546,-1.0127,-0.7031,-91.71,-37.26,-122.93
1083,408236984,0.4736,-0.9106,-0.7119,-98.17,-33.54,-126.04
1084,408241984,0.5020,-0.8052,-0.8496,-104.27,-29.88,-129.02
1085,408247314,0.5859,-0.6826,-1.0376,-109.88,-26.16,-131.77
1086,408251984,0.5957,-0.6733,-0.9390,-115.49,-21.65,-134.33
1087,408256984,0.5015,-0.7178,-0.8843,-122.07,-16.40,-135.85
1088,408261984,0.4321,-0.7427,-0.8472,-129.94,-11.46,-136.71
1089,408266984,0.4341,-0.7349,-0.7988,-137.68,-7.01,-137.20
1090,408271984,0.4800,-0.7080,-0.7510,-145.06,-2.38,-137.44
1091,408276984,0.5005,-0.6924,-0.7393,-151.95,2.32,-137.56
1092,408281984,0.4897,-0.6860,-0.7334,-158.41,6.59,-137.62
1093,408286984,0.4492,-0.6768,-0.7139,-164.70,11.22,-137.44
1094,408291984,0.4033,-0.6802,-0.6919,-170.61,15.79,-137.26
1095,408296984,0.3862,-0.6919,-0.6562,-176.10,20.43,-136.71
1096,408301984,0.3760,-0.6992,-0.6255,-180.91,25.12,-135.85
1097,408306984,0.3813,-0.6743,-0.5767,-184.76,29.82,-134.82
1098,408311984,0.3926,-0.6362,-0.5503,-187.50,34.51,-133.72
1099,408316984,0.4038,-0.6021,-0.5181,-189.09,39.09,-132.50
1100,408321985,0.4033,-0.5688,-0.4985,-190.06,43.78,-131.04
1101,408326984,0.3984,-0.5513,-0.4775,-190.18,47.93,-129.45
1102,408331984,0.3945,-0.5479,-0.4570,-190.30,52.26,-127.50
1103,408337421,0.3901,-0.5361,-0.4351,-189.88,57.13,-124.57
1104,408341984,0.3911,-0.5288,-0.4072,-189.45,60.12,-122.38
1105,408346984,0.4087,-0.5107,-0.3999,-188.90,63.96,-119.27
1106,408351987,0.4263,-0.4756,-0.4043,-188.05,67.20,-115.98
1107,408356984,0.4473,-0.4434,-0.3945,-187.32,70.30,-112.50
1108,408361984,0.4697,-0.4150,-0.3906,-186.16,73.35,-108.78
1109,408366984,0.4863,-0.3984,-0.3945,-185.18,76.22,-104.88
1110,408371984,0.4971,-0.3794,-0.4028,-184.21,79.09,-100.55
1111,408376984,0.5107,-0.3530,-0.4067,-183.60,81.52,-95.98
1112,408381984,0.5293,-0.3335,-0.4019,-182.74,84.94,-91.16
1113,408386984,0.5513,-0.3120,-0.3921,-182.07,87.20,-86.22
1114,408391984,0.5625,-0.2896,-0.3931,-181.16,87.68,-81.04
1115,408396984,0.5674,-0.2764,-0.3887,-180.06,90.55,-75.55
1116,408401984,0.5718,-0.2505,-0.3911,-178.72,92.93,-69.82
1117,408406984,0.5679,-0.2368,-0.3608,-177.26,95.06,-63.90
1118,408411983,0.5732,-0.2222,-0.3540,-175.49,97.20,-57.93
1119,408416983,0.5586,-0.2168,-0.3359,-173.54,99.21,-51.71
1120,408421986,0.5669,-0.2051,-0.3135,-171.10,101.10,-45.30
1121,408426984,0.5557,-0.1934,-0.2964,-168.54,102.93,-38.96
1122,408431984,0.5435,-0.1870,-0.2886,-165.61,104.76,-32.32
1123,408436984,0.5356,-0.1738,-0.2632,-162.32,106.59,-25.55
1124,408441984,0.5298,-0.1597,-0.2334,-158.35,108.11,-18.72
1125,408446984,0.5249,-0.1543,-0.2173,-154.21,109.70,-11.89
1126,408451984,0.5215,-0.1567,-0.2031,-149.27,111.40,-5.18
1127,408456988,0.5200,-0.1533,-0.1816,-144.02,112.74,1.71
1128,408461982,0.5215,-0.1504,-0.1636,-138.17,114.15,8.48
1129,408466983,0.5112,-0.1450,-0.1460,-132.20,115.37,15.18
1130,408471982,0.5000,-0.1401,-0.1147,-125.85,116.59,21.71
1131,408476982,0.4902,-0.1372,-0.1055,-119.21,117.93,28.29
1132,408481985,0.4863,-0.1455,-0.0962,-112.13,119.09,34.94
1133,408486982,0.4888,-0.1528,-0.0693,-104.70,120.24,41.46
1134,408491984,0.4805,-0.1504,-0.0454,-97.62,121.34,47.80
1135,408496984,0.4673,-0.1426,-0.0322,-89.09,122.74,55.30
1136,408501984,0.4595,-0.1484,-0.0166,-83.60,123.60,60.18
1137,408507292,0.4556,-0.1538,0.0059,-75.67,124.88,67.20
1138,408511984,0.4551,-0.1528,0.0195,-70.79,125.91,71.83
1139,408516984,0.4492,-0.1523,0.0356,-64.94,127.20,77.44
1140,408522515,0.4316,-0.1626,0.0435,-58.23,128.41,83.72
1141,408526985,0.4258,-0.1724,0.0601,-54.21,129.15,87.62
1142,408531984,0.4136,-0.1831,0.0791,-49.33,130.30,93.29
1143,408536984,0.4019,-0.1953,0.0972,-44.94,131.16,98.66
1144,408541984,0.4062,-0.2075,0.1133,-40.79,131.95,103.66
1145,408546984,0.4058,-0.2217,0.1353,-36.95,132.99,108.78
1146,408551984,0.3989,-0.2246,0.1523,-32.87,133.96,113.84
1147,408556984,0.4028,-0.2407,0.1753,-28.78,134.70,118.78
1148,408561984,0.3999,-0.2617,0.1914,-24.45,135.79,123.72
1149,408566982,0.3999,-0.2764,0.2080,-20.06,136.52,128.48
1150,408571984,0.3984,-0.2920,0.2339,-15.49,137.26,133.48
1151,408576984,0.3936,-0.3105,0.2549,-10.91,138.05,138.41
1152,408581984,0.3945,-0.3223,0.2778,-6.52,139.02,143.11
1153,408586984,0.3931,-0.3413,0.2969,-2.32,139.76,147.99
1154,408591984,0.3877,-0.3628,0.3228,1.52,140.37,152.68
1155,408596984,0.3862,-0.3838,0.3521,5.37,141.04,157.20
1156,408601984,0.3779,-0.4116,0.3716,8.84,141.83,161.71
1157,408606984,0.3735,-0.4351,0.4048,12.01,142.13,166.16
1158,408611984,0.3589,-0.4702,0.4268,15.06,142.56,170.49
1159,408616984,0.3516,-0.5024,0.4478,17.74,142.74,174.76
1160,408621984,0.3389,-0.5264,0.4678,20.30,142.99,178.90
1161,408626986,0.3389,-0.5479,0.4917,22.50,143.11,182.74
1162,408631984,0.3267,-0.5708,0.5195,25.00,142.80,186.59
1163,408636984,0.3096,-0.5820,0.5410,27.38,142.44,190.18
1164,408641984,0.2847,-0.5913,0.5762,29.88,142.07,193.23
1165,408647470,0.2451,-0.6138,0.6362,33.35,141.46,196.65
1166,408651984,0.2300,-0.6343,0.6646,36.10,141.10,198.72
1167,408656984,0.2119,-0.6660,0.7051,39.94,140.49,201.10
1168,408661984,0.2085,-0.7070,0.7480,44.45,139.94,203.05
1169,408666984,0.2021,-0.7471,0.7988,49.63,138.84,204.70
1170,408671984,0.1924,-0.7793,0.8359,55.79,137.62,205.91
1171,408677428,0.1748,-0.8218,0.8828,64.33,135.43,206.71
1172,408681984,0.1606,-0.8491,0.9150,70.85,133.90,206.59
1173,408686984,0.1475,-0.8975,0.9766,79.88,131.34,206.28
1174,408691984,0.1299,-0.9521,1.0371,89.76,128.66,205.18
1175,408696984,0.1196,-1.0063,1.0879,100.00,125.55,203.72
1176,408701984,0.0942,-1.0591,1.1499,110.55,121.77,201.46
1177,408706984,0.0659,-1.1074,1.2051,121.65,115.73,198.72
1178,408711984,0.0542,-1.1470,1.2749,130.30,112.26,195.30
1179,408716984,0.0430,-1.1909,1.3340,140.43,106.71,191.10
1180,408721984,0.0371,-1.2334,1.4009,149.21,100.37,186.34
1181,408726984,0.0215,-1.2822,1.4688,156.71,93.41,181.16
1182,408731985,-0.0073,-1.3179,1.5371,163.11,86.65,175.43
1183,408736984,-0.0088,-1.3452,1.6016,168.17,77.93,169.39
1184,408741984,-0.0122,-1.3735,1.6592,171.95,68.90,162.99
1185,408746984,-0.0112,-1.4097,1.7373,174.94,57.01,154.88
1186,408751984,-0.0151,-1.4321,1.7876,175.98,48.54,149.45
1187,408756983,-0.0171,-1.4453,1.8110,176.04,37.26,142.56
1188,408761982,-0.0151,-1.4556,1.8398,174.88,24.94,135.55
1189,408766982,-0.0073,-1.4648,1.9502,172.01,11.95,128.60
1190,408771982,-0.0181,-1.4741,1.9819,167.99,-1.16,121.71
1191,408776982,-0.0044,-1.4937,1.9766,161.71,-15.37,115.18
1192,408781984,-0.0278,-1.4863,2.0005,152.13,-32.74,107.38
1193,408786984,-0.0327,-1.4878,2.0444,142.68,-47.68,101.28
1194,408791984,-0.0513,-1.4868,2.0796,131.83,-62.68,95.24
1195,408796984,-0.0464,-1.4771,2.0723,120.06,-77.80,89.94
1196,408801984,-0.0259,-1.4688,2.0483,107.44,-93.35,84.45
1197,408806984,-0.0112,-1.4678,2.0459,95.12,-108.54,78.90
1198,408812298,-0.0137,-1.4600,2.0332,83.66,-123.78,73.90
1199,408816984,-0.0142,-1.4678,2.0029,73.84,-138.96,69.45
1200,408821985,-0.0249,-1.4673,1.9775,65.12,-153.90,65.24
1201,408826984,-0.0181,-1.4487,1.9453,57.99,-168.35,61.16
1202,408831986,-0.0229,-1.4297,1.9199,52.68,-182.38,57.38
1203,408836984,-0.0312,-1.4121,1.8867,49.09,-195.85,53.90
1204,408841984,-0.0327,-1.3945,1.8447,46.89,-208.78,50.79
1205,408846984,-0.0454,-1.3887,1.7993,46.28,-221.40,48.05
1206,408851984,-0.0522,-1.3784,1.7505,47.26,-233.54,45.67
1207,408856984,-0.0635,-1.3774,1.6953,49.88,-245.24,43.66
1208,408861984,-0.0713,-1.3818,1.6411,54.09,-256.40,42.13
1209,408866984,-0.0835,-1.3887,1.5840,59.70,-267.32,40.91
1210,408871984,-0.0913,-1.3936,1.5142,66.46,-277.93,40.06
1211,408876984,-0.1025,-1.4014,1.4526,73.48,-288.29,39.57
1212,408882457,-0.1147,-1.3960,1.3960,80.43,-298.23,39.21
1213,408886984,-0.1147,-1.3970,1.3486,87.01,-307.68,39.27
1214,408891984,-0.1367,-1.3936,1.2886,93.11,-316.95,39.15
1215,408896984,-0.1680,-1.3965,1.2329,98.72,-325.73,38.96
1216,408901984,-0.2056,-1.4038,1.1870,103.66,-334.27,38.90
1217,408907278,-0.2432,-1.4165,1.1440,108.17,-342.26,38.66
1218,408911984,-0.2783,-1.4312,1.0933,112.32,-350.18,38.54
1219,408916984,-0.2939,-1.4399,1.0381,115.61,-357.44,37.93
1220,408921984,-0.3101,-1.4492,0.9927,118.41,-364.21,37.38
1221,408927328,-0.3228,-1.4595,0.9487,120.73,-370.79,36.52
1222,408931984,-0.3442,-1.4653,0.8989,122.32,-376.77,35.37
1223,408936982,-0.3735,-1.4888,0.8491,123.41,-382.26,33.96
1224,408942024,-0.4033,-1.5024,0.8091,124.09,-387.38,32.20
1225,408946985,-0.4316,-1.5195,0.7695,124.33,-392.13,30.30
1226,408951982,-0.4419,-1.5215,0.7227,124.09,-396.10,27.99
1227,408956984,-0.4546,-1.5317,0.6826,123.23,-399.51,25.24
1228,408961984,-0.4785,-1.5513,0.6553,121.83,-402.26,22.50
1229,408966984,-0.4985,-1.5586,0.6030,119.88,-404.51,19.57
1230,408971983,-0.5239,-1.5615,0.5620,117.32,-405.98,16.22
1231,408976984,-0.5146,-1.5786,0.5259,114.76,-407.07,12.80
1232,408981982,-0.5059,-1.6016,0.4614,112.56,-407.13,9.33
1233,408986984,-0.5410,-1.5723,0.3481,110.67,-407.32,5.37
1234,408991984,-0.5693,-1.5952,0.2900,109.45,-407.07,1.10
1235,408996984,-0.6074,-1.5879,0.2095,108.78,-406.52,-3.48
1236,409001984,-0.6226,-1.5884,0.1177,108.48,-405.73,-8.11
1237,409007391,-0.6133,-1.6138,0.0151,108.11,-404.02,-13.05
1238,409011984,-0.6235,-1.6274,-0.0596,107.74,-401.71,-17.87
1239,409017254,-0.6245,-1.6338,-0.1499,107.01,-398.66,-22.99
1240,409021984,-0.6255,-1.6333,-0.2578,105.73,-394.63,-28.11
1241,409026983,-0.6245,-1.6421,-0.3384,104.09,-389.94,-33.17
1242,409031984,-0.6499,-1.6182,-0.4458,102.13,-384.27,-38.29
1243,409036986,-0.6372,-1.6104,-0.5503,100.06,-377.74,-43.35
1244,409041984,-0.6475,-1.5669,-0.6064,97.80,-370.91,-48.17
1245,409046984,-0.6338,-1.5791,-0.6948,95.43,-363.41,-53.05
1246,409051984,-0.6089,-1.5928,-0.8105,93.41,-354.88,-57.68
1247,409056983,-0.6011,-1.5703,-0.8677,91.22,-345.49,-62.13
1248,409061982,-0.5552,-1.5508,-0.8950,89.45,-335.67,-66.46
1249,409066982,-0.5713,-1.5283,-0.9751,88.48,-325.12,-70.73
1250,409071982,-0.5361,-1.5098,-1.0591,87.93,-313.84,-75.00
1251,409076984,-0.4985,-1.5269,-1.0820,88.17,-299.94,-79.70
1252,409081984,-0.5020,-1.4873,-1.1201,88.60,-290.24,-82.50
1253,409086984,-0.4243,-1.4604,-1.1685,89.70,-278.17,-85.98
1254,409091984,-0.4126,-1.4663,-1.1763,91.71,-265.91,-88.90
1255,409096987,-0.4014,-1.4360,-1.1997,93.54,-253.17,-91.40
1256,409101984,-0.3218,-1.4048,-1.2300,95.49,-240.73,-93.72
1257,409106984,-0.3027,-1.3857,-1.2354,97.32,-228.23,-95.37
1258,409111986,-0.2896,-1.3306,-1.2578,98.35,-215.67,-96.83
1259,409116985,-0.1963,-1.2910,-1.2627,98.41,-203.23,-97.99
1260,409121984,-0.1831,-1.2817,-1.2407,98.05,-190.91,-98.66
1261,409126984,-0.1753,-1.2280,-1.2393,97.07,-178.66,-98.96
1262,409131984,-0.0918,-1.1846,-1.2397,95.61,-166.52,-99.21
1263,409136984,-0.0708,-1.1450,-1.2178,94.57,-154.51,-99.33
1264,409141986,-0.0752,-1.1323,-1.1958,93.05,-142.50,-98.96
1265,409146984,-0.0376,-1.0786,-1.2002,90.91,-131.10,-98.72
1266,409151983,0.0210,-1.0464,-1.1885,89.21,-120.06,-98.48
1267,409156985,0.0181,-0.9966,-1.1675,87.38,-109.09,-97.87
1268,409161984,0.0220,-0.9580,-1.1558,85.55,-98.23,-97.13
1269,409166982,0.0181,-0.9434,-1.1104,83.54,-88.05,-96.34
1270,409171984,0.0610,-0.8887,-1.1177,80.73,-78.17,-95.37
1271,409176984,0.1104,-0.8633,-1.1104,77.87,-68.60,-94.15
1272,409181984,0.0991,-0.8281,-1.0815,75.30,-59.51,-92.93
1273,409186984,0.1060,-0.7925,-1.0488,72.56,-50.79,-91.52
1274,409191983,0.1143,-0.7891,-1.0239,69.82,-42.20,-89.88
1275,409197474,0.1133,-0.7290,-1.0107,66.28,-34.02,-88.05
1276,409201984,0.2012,-0.6904,-0.9824,62.32,-26.46,-86.71
1277,409206984,0.2002,-0.6729,-0.9390,58.96,-18.96,-84.88
1278,409211984,0.1880,-0.6763,-0.9111,56.52,-12.26,-83.11
1279,409216985,0.1792,-0.7036,-0.8525,54.51,-5.79,-81.16
1280,409221984,0.1953,-0.6426,-0.8301,52.01,0.55,-79.27
1281,409226984,0.2773,-0.6157,-0.8218,49.82,6.34,-77.56
1282,409231984,0.2603,-0.5957,-0.7949,48.48,11.65,-75.73
1283,409236984,0.2520,-0.5898,-0.7529,47.93,16.95,-73.84
1284,409241986,0.2598,-0.5845,-0.7217,47.80,21.52,-71.77
1285,409246983,0.2388,-0.5732,-0.6577,47.26,25.79,-69.88
1286,409251984,0.2783,-0.5576,-0.6499,46.10,30.12,-68.11
1287,409256986,0.3354,-0.5825,-0.6343,45.24,33.72,-66.46
1288,409261984,0.3169,-0.5718,-0.6016,44.70,37.01,-64.51
1289,409266984,0.3174,-0.5547,-0.5513,44.88,40.12,-62.62
1290,409271984,0.3330,-0.5381,-0.5215,45.18,43.05,-60.61
1291,409276984,0.3413,-0.5361,-0.5029,45.55,45.55,-58.60
1292,409281984,0.3457,-0.5908,-0.4482,45.30,48.17,-56.52
1293,409286984,0.3213,-0.5474,-0.4346,43.90,50.55,-54.51
1294,409291984,0.4155,-0.5293,-0.4199,41.83,52.68,-52.99
1295,409296984,0.4243,-0.5347,-0.3823,40.12,54.57,-51.16
1296,409301984,0.4097,-0.5386,-0.3530,38.60,56.46,-49.21
1297,409306984,0.4077,-0.5625,-0.3325,36.89,58.17,-47.13
1298,409311984,0.4146,-0.5776,-0.3018,35.24,59.76,-45.00
1299,409316984,0.4204,-0.5742,-0.2749,33.11,61.22,-43.05
1300,409321984,0.4321,-0.5732,-0.2578,30.91,62.68,-41.16
1301,409326984,0.3838,-0.5464,-0.2153,28.54,63.90,-39.21
1302,409331984,0.4238,-0.5278,-0.2002,24.94,65.00,-37.74
1303,409336984,0.5146,-0.5830,-0.1987,21.46,65.79,-36.16
1304,409341984,0.5122,-0.6035,-0.2046,18.60,66.65,-34.33
1305,409347021,0.5044,-0.6089,-0.1763,16.16,67.20,-32.26
1306,409351983,0.4741,-0.6406,-0.1157,13.78,68.11,-30.43
1307,409356982,0.4722,-0.5869,-0.1362,10.00,68.66,-28.78
1308,409361984,0.5479,-0.5918,-0.1689,6.40,68.90,-27.38
1309,409366982,0.5591,-0.5913,-0.1265,2.87,69.15,-26.04
1310,409371982,0.5488,-0.5903,-0.0981,-0.37,69.63,-24.57
1311,409376985,0.5400,-0.6030,-0.1074,-3.23,69.63,-23.29
1312,409381984,0.5327,-0.6626,-0.0718,-6.10,69.39,-21.95
1313,409386982,0.5137,-0.6104,-0.0688,-9.76,69.09,-20.73
1314,409391984,0.6104,-0.6133,-0.0864,-13.35,68.60,-20.06
1315,409396984,0.6099,-0.6182,-0.0659,-16.34,67.74,-19.21
1316,409401984,0.5781,-0.6294,-0.0542,-18.66,67.13,-18.41
1317,409407419,0.5859,-0.6372,-0.0410,-20.49,66.10,-17.38
1318,409411984,0.6074,-0.6406,-0.0425,-21.77,65.00,-16.77
1319,409416984,0.6255,-0.6597,-0.0293,-22.74,64.15,-16.46
1320,409421984,0.6401,-0.6685,-0.0142,-23.78,63.29,-15.91
1321,409426984,0.6489,-0.6680,-0.0112,-24.94,62.50,-15.55
1322,409431984,0.6704,-0.6743,0.0039,-26.22,61.71,-15.30
1323,409436984,0.6880,-0.6943,0.0088,-27.80,61.16,-15.12
1324,409441984,0.7085,-0.7070,0.0205,-29.70,60.49,-14.76
1325,409446985,0.7217,-0.7168,0.0298,-32.01,59.76,-14.76
1326,409451984,0.7344,-0.7227,0.0308,-33.78,59.27,-14.82
1327,409456984,0.7451,-0.7432,0.0498,-35.98,58.60,-14.88
1328,409461984,0.7017,-0.7183,0.0537,-38.90,58.11,-14.88
1329,409466984,0.8057,-0.6938,0.0684,-42.20,57.74,-15.55
1330,409471984,0.8311,-0.7383,0.0786,-44.39,57.68,-15.98
1331,409476984,0.7827,-0.7695,0.0732,-45.00,57.32,-16.22
1332,409481984,0.8027,-0.7769,0.0693,-44.57,56.52,-16.40
1333,409486984,0.8281,-0.7837,0.0688,-43.66,55.98,-16.40
1334,409491984,0.8369,-0.7505,0.1147,-42.01,55.73,-16.52
1335,409496984,0.8564,-0.7354,0.0938,-39.63,55.67,-16.89
1336,409501984,0.9360,-0.7505,0.1694,-38.11,56.10,-17.50
1337,409506984,0.9004,-0.7759,0.1562,-36.83,56.83,-17.74
1338,409511984,0.8989,-0.7749,0.1284,-35.73,57.44,-17.87
1339,409516984,0.9219,-0.7651,0.1211,-34.27,57.74,-17.87
1340,409521984,0.9082,-0.8086,0.1660,-33.35,58.41,-17.80
1341,409526983,0.8945,-0.7593,0.1450,-33.78,59.21,-18.05
1342,409531984,0.9941,-0.7627,0.1216,-34.76,59.70,-18.35
1343,409536984,0.9683,-0.7578,0.1362,-35.49,60.37,-18.29
1344,409541984,0.9458,-0.7554,0.1616,-35.79,61.04,-17.74
1345,409546983,0.9585,-0.7417,0.1470,-36.34,61.71,-17.13
1346,409551986,0.9648,-0.7295,0.1489,-36.95,62.38,-16.59
1347,409556984,0.9487,-0.7173,0.1602,-37.68,63.23,-16.04
1348,409561984,0.9443,-0.7070,0.1660,-38.41,64.02,-15.37
1349,409566984,0.9390,-0.6841,0.1289,-39.09,64.51,-14.82
1350,409571985,0.9326,-0.6611,0.1328,-39.76,64.82,-14.57
1351,409576984,1.0479,-0.6436,0.1714,-40.73,64.94,-14.33
1352,409581982,0.9927,-0.6689,0.2017,-41.71,64.94,-14.21
1353,409586984,0.9253,-0.6812,0.1953,-42.50,64.94,-14.15
1354,409591984,0.9434,-0.6636,0.2158,-43.17,64.76,-13.78
1355,409596984,0.9561,-0.6465,0.2339,-43.96,64.70,-13.96
1356,409601984,0.9341,-0.6377,0.2329,-44.51,64.51,-14.33
1357,409607430,0.9004,-0.6392,0.2266,-44.82,64.21,-14.82
1358,409611984,0.8882,-0.6377,0.2432,-44.76,63.96,-15.24
1359,409616984,0.8867,-0.6348,0.2583,-44.21,63.48,-15.85
1360,409621984,0.8784,-0.6294,0.2485,-43.23,62.99,-16.65
1361,409627211,0.8735,-0.6270,0.2563,-41.83,62.50,-17.50
1362,409631984,0.8672,-0.6270,0.2764,-40.37,62.01,-18.48
1363,409636984,0.8618,-0.6299,0.2861,-38.90,61.52,-19.33
1364,409641984,0.8496,-0.6270,0.2832,-37.32,61.22,-20.37
1365,409646984,0.8359,-0.6377,0.3003,-36.16,61.04,-21.34
1366,409651985,0.8311,-0.6343,0.2949,-35.00,60.73,-22.07
1367,409656982,0.8213,-0.6333,0.2852,-33.84,60.55,-22.87
1368,409661982,0.8120,-0.6431,0.2837,-32.87,60.12,-23.60
1369,409666982,0.8022,-0.6348,0.2891,-32.01,60.00,-24.15
1370,409671982,0.8018,-0.6377,0.2954,-31.52,59.63,-24.82
1371,409676982,0.7959,-0.6318,0.2979,-31.22,59.27,-25.49
1372,409681984,0.7861,-0.6299,0.2925,-31.10,59.27,-26.22
1373,409686984,0.7822,-0.6187,0.2930,-31.28,59.09,-26.95
1374,409691984,0.7803,-0.6187,0.2939,-32.07,59.21,-27.87
1375,409696984,0.7808,-0.6143,0.2983,-32.68,59.02,-28.41
1376,409701984,0.7778,-0.6147,0.2969,-33.35,59.09,-29.09
1377,409706984,0.7861,-0.6147,0.2964,-34.39,59.15,-29.76
1378,409711986,0.7856,-0.6162,0.2930,-35.18,59.33,-30.24
1379,409716984,0.7817,-0.6123,0.2935,-36.10,59.39,-30.55
1380,409721984,0.7842,-0.6094,0.2920,-37.01,59.57,-31.04
1381,409726984,0.7847,-0.6060,0.2974,-37.50,59.63,-31.34
1382,409731984,0.7852,-0.6045,0.2925,-38.11,59.82,-31.34
1383,409736984,0.7896,-0.5967,0.2778,-38.29,59.70,-31.40
1384,409741984,0.7866,-0.5864,0.2827,-38.05,59.82,-31.59
1385,409746984,0.7837,-0.5801,0.2778,-37.68,59.94,-31.40
1386,409751984,0.7798,-0.5811,0.2734,-36.95,59.82,-31.34
1387,409756985,0.7734,-0.5771,0.2676,-35.79,59.88,-31.10
1388,409761984,0.7646,-0.5786,0.2676,-34.09,59.94,-30.85
1389,409766984,0.7607,-0.5732,0.2598,-32.44,59.94,-30.49
1390,409771984,0.7534,-0.5674,0.2627,-30.49,59.94,-30.18
1391,409776984,0.7422,-0.5654,0.2661,-28.72,59.94,-29.88
1392,409781984,0.7466,-0.5610,0.2734,-27.13,59.88,-29.33
1393,409786984,0.7368,-0.5542,0.2744,-25.67,59.94,-28.96
1394,409791984,0.7305,-0.5430,0.2783,-24.76,60.18,-28.60
1395,409796985,0.7290,-0.5400,0.2856,-24.02,60.30,-28.29
1396,409801984,0.7231,-0.5342,0.2886,-23.78,60.49,-28.05
1397,409806984,0.7231,-0.5259,0.2896,-23.90,60.73,-27.74
1398,409811984,0.7178,-0.5151,0.2949,-24.27,60.79,-27.38
1399,409816984,0.7095,-0.5049,0.2832,-24.88,60.73,-27.32
1400,409821984,0.7031,-0.4932,0.2886,-25.73,60.73,-27.13
1401,409826984,0.6987,-0.4766,0.2896,-26.89,60.61,-27.20
1402,409831984,0.6953,-0.4663,0.2769,-28.05,60.18,-27.26
1403,409836984,0.6899,-0.4424,0.2837,-29.76,59.88,-27.50
1404,409841984,0.6816,-0.4287,0.2783,-32.13,59.21,-27.87
1405,409846984,0.6899,-0.4214,0.2886,-33.78,58.72,-28.11
1406,409852395,0.6934,-0.4155,0.3003,-36.83,58.17,-28.60
1407,409856985,0.6978,-0.4102,0.2959,-39.15,57.74,-28.84
1408,409861984,0.7002,-0.4067,0.3086,-42.13,57.38,-29.15
1409,409866984,0.7021,-0.4043,0.3188,-45.55,57.13,-29.33
1410,409871984,0.7202,-0.4058,0.3325,-49.33,57.01,-29.51
1411,409876984,0.7422,-0.4087,0.3384,-53.54,57.01,-29.39
1412,409881984,0.7510,-0.4102,0.3452,-58.11,56.95,-29.33
1413,409887153,0.7729,-0.4150,0.3608,-64.15,57.13,-29.02
1414,409891984,0.7915,-0.4126,0.3740,-68.54,57.32,-28.72
1415,409896984,0.8145,-0.4082,0.3823,-74.39,57.50,-28.23
1416,409901984,0.8311,-0.4048,0.3989,-80.55,57.74,-27.68
1417,409906984,0.8545,-0.4062,0.4155,-86.95,58.05,-26.89
1418,409911984,0.8716,-0.4038,0.4307,-93.60,58.60,-26.22
1419,409916984,0.8911,-0.4028,0.4336,-100.12,58.78,-25.12
1420,409921984,0.8999,-0.3955,0.4414,-107.87,59.21,-23.90
1421,409926984,0.9028,-0.3955,0.4541,-112.80,59.39,-23.05
1422,409931984,0.8945,-0.3965,0.4634,-118.41,59.82,-21.83
1423,409936984,0.8823,-0.3970,0.4639,-123.48,59.88,-20.67
1424,409941984,0.8745,-0.3979,0.4668,-127.62,59.82,-19.51
1425,409946984,0.8633,-0.4014,0.4707,-130.98,59.88,-18.23
1426,409951984,0.8643,-0.4028,0.4795,-133.48,59.76,-16.83
1427,409956983,0.8550,-0.4019,0.4775,-135.06,59.70,-15.55
1428,409961984,0.8579,-0.4058,0.4868,-136.04,59.57,-14.33
1429,409966984,0.8604,-0.4160,0.5000,-136.16,59.51,-12.99
1430,409971982,0.8735,-0.4351,0.5059,-135.61,59.57,-11.65
1431,409976984,0.8823,-0.4375,0.5098,-134.39,59.45,-10.30
1432,409981984,0.8555,-0.4170,0.4932,-132.44,59.33,-8.84
1433,409986982,0.8052,-0.3979,0.4873,-130.67,59.02,-8.17
1434,409991984,0.7339,-0.3877,0.4834,-127.93,58.11,-7.68
1435,409996986,0.7227,-0.4312,0.5186,-125.61,57.80,-7.20
1436,410001984,0.7744,-0.4502,0.5386,-123.48,57.50,-6.52
1437,410006984,0.8203,-0.4395,0.5327,-121.22,57.74,-5.73
1438,410011984,0.8330,-0.4253,0.5278,-118.78,57.56,-5.18
1439,410016984,0.8018,-0.4316,0.5298,-116.28,57.38,-4.76
1440,410021984,0.7827,-0.4414,0.5366,-113.29,57.44,-4.21
1441,410026984,0.7671,-0.4448,0.5366,-110.00,57.13,-3.96
1442,410031984,0.7544,-0.4458,0.5352,-106.34,57.07,-3.54
1443,410036984,0.7490,-0.4443,0.5439,-102.87,56.77,-3.41
1444,410041984,0.7422,-0.4507,0.5488,-98.90,56.34,-2.99
1445,410046984,0.7358,-0.4595,0.5552,-95.30,55.98,-2.93
1446,410051984,0.7329,-0.4663,0.5615,-91.77,55.73,-2.80
1447,410056984,0.7314,-0.4736,0.5703,-88.23,55.49,-2.87
1448,410061985,0.7290,-0.4805,0.5728,-84.88,55.37,-2.93
1449,410066984,0.7202,-0.4844,0.5771,-81.46,55.06,-2.93
1450,410071984,0.7085,-0.4868,0.5771,-78.54,54.45,-3.11
1451,410076984,0.6953,-0.4897,0.5806,-75.49,54.21,-3.23
1452,410081984,0.6924,-0.4937,0.5815,-72.74,53.78,-3.66
1453,410086984,0.6836,-0.4937,0.5815,-70.24,53.17,-3.96
1454,410091984,0.6782,-0.5000,0.5811,-67.93,52.80,-4.45
1455,410096984,0.6709,-0.5044,0.5869,-65.98,52.07,-5.06
1456,410102393,0.6670,-0.5029,0.5874,-64.21,51.34,-5.55
1457,410106984,0.6582,-0.5054,0.5864,-62.50,50.79,-6.22
1458,410112411,0.6538,-0.5078,0.5874,-60.79,50.06,-6.83
1459,410116985,0.6489,-0.5132,0.5952,-59.51,49.15,-7.44
1460,410121984,0.6387,-0.5127,0.5962,-58.23,48.35,-7.99
1461,410126984,0.6372,-0.5151,0.5957,-57.13,47.26,-8.60
1462,410131984,0.6304,-0.5205,0.5991,-56.22,46.22,-9.15
1463,410136984,0.6313,-0.5244,0.6016,-55.43,45.37,-9.57
1464,410141984,0.6362,-0.5303,0.6084,-55.00,44.33,-10.00
1465,410147429,0.6362,-0.5337,0.6011,-54.51,43.11,-10.24
1466,410151984,0.6377,-0.5342,0.6064,-54.27,42.20,-10.49
1467,410156984,0.6362,-0.5415,0.6074,-54.39,41.10,-10.67
1468,410161984,0.6362,-0.5405,0.6104,-54.45,39.88,-10.79
1469,410166985,0.6304,-0.5386,0.6094,-54.63,38.90,-10.85
1470,410171984,0.6309,-0.5337,0.6089,-55.00,37.74,-10.91
1471,410176984,0.6323,-0.5322,0.6035,-55.37,36.59,-10.73
1472,410181984,0.6348,-0.5278,0.6035,-55.91,35.55,-10.61
1473,410186985,0.6377,-0.5278,0.5957,-56.40,34.33,-10.55
1474,410192150,0.6382,-0.5298,0.5947,-56.89,33.23,-10.18
1475,410196986,0.6348,-0.5317,0.5918,-57.50,32.01,-9.88
1476,410201984,0.6328,-0.5347,0.5952,-58.23,30.91,-9.51
1477,410206984,0.6396,-0.5332,0.5947,-58.84,29.76,-8.96
1478,410211984,0.6416,-0.5293,0.5894,-59.39,28.41,-8.54
1479,410217472,0.6465,-0.5288,0.5908,-60.00,27.44,-7.87
1480,410221984,0.6440,-0.5244,0.5908,-60.49,26.10,-7.32
1481,410226984,0.6436,-0.5298,0.5830,-60.67,25.00,-6.52
1482,410231984,0.6436,-0.5327,0.5801,-60.61,23.84,-5.79
1483,410236984,0.6484,-0.5400,0.5786,-60.43,22.74,-5.06
1484,410241984,0.6509,-0.5439,0.5752,-59.88,21.65,-4.21
1485,410246984,0.6577,-0.5483,0.5703,-59.21,20.61,-3.23
1486,410251984,0.6626,-0.5498,0.5698,-58.23,19.39,-2.38
1487,410256984,0.6665,-0.5576,0.5610,-57.44,18.11,-1.34
1488,410261982,0.6709,-0.5635,0.5620,-56.34,16.83,-0.24
1489,410266984,0.6758,-0.5693,0.5518,-55.49,15.67,0.85
1490,410271982,0.6821,-0.5684,0.5488,-54.70,14.51,1.95
1491,410276982,0.6904,-0.5635,0.5469,-53.78,13.23,2.99
1492,410281984,0.6909,-0.5630,0.5386,-53.48,12.07,4.09
1493,410286983,0.7002,-0.5576,0.5386,-53.17,10.85,5.06
1494,410291984,0.6987,-0.5542,0.5303,-53.05,9.57,5.98
1495,410297151,0.6992,-0.5498,0.5322,-53.29,8.23,6.83
1496,410301984,0.6997,-0.5527,0.5303,-53.48,7.20,7.62
1497,410306984,0.7046,-0.5552,0.5283,-53.78,5.91,8.29
1498,410311984,0.7095,-0.5493,0.5225,-54.33,4.82,8.90
1499,410316984,0.7183,-0.5444,0.5166,-54.76,3.48,9.39
1500,410321984,0.7378,-0.5488,0.5034,-55.06,2.32,9.94
1501,410326984,0.7510,-0.5498,0.4995,-55.30,1.16,10.37
1502,410331984,0.7656,-0.5542,0.4878,-55.24,-0.06,11.04
1503,410337439,0.7739,-0.5576,0.4829,-54.94,-1.22,11.65
1504,410341984,0.7842,-0.5649,0.4741,-54.45,-2.56,12.44
1505,410346984,0.7920,-0.5762,0.4595,-53.66,-3.60,13.35
1506,410352316,0.7915,-0.5923,0.4551,-52.44,-4.88,14.39
1507,410356984,0.8008,-0.6001,0.4463,-51.10,-6.04,15.61
1508,410361984,0.8018,-0.6143,0.4390,-49.15,-7.38,16.89
1509,410366986,0.8110,-0.6216,0.4336,-47.01,-8.17,18.29
1510,410371984,0.8169,-0.6309,0.4194,-44.63,-9.45,19.88
1511,410376984,0.8135,-0.6416,0.4043,-41.77,-10.49,21.52
1512,410382154,0.8130,-0.6411,0.3901,-38.84,-11.59,23.11
1513,410386984,0.8125,-0.6396,0.3804,-35.91,-12.62,24.82
1514,410391984,0.8154,-0.6357,0.3765,-32.99,-13.66,26.40
1515,410396983,0.8154,-0.6348,0.3584,-30.06,-14.45,27.80
1516,410401984,0.8203,-0.6289,0.3574,-27.56,-15.37,29.33
1517,410406984,0.8218,-0.6260,0.3447,-25.30,-16.34,30.79
1518,410411982,0.8179,-0.6245,0.3315,-23.05,-16.95,32.13
1519,410417207,0.8091,-0.6196,0.3257,-21.22,-17.56,33.17
1520,410421984,0.8096,-0.6113,0.3149,-19.63,-18.23,34.27
1521,410426984,0.8003,-0.6099,0.3115,-18.23,-18.90,35.30
1522,410431983,0.7944,-0.6074,0.3037,-16.83,-19.39,36.28
1523,410436983,0.7852,-0.6064,0.2954,-15.49,-19.76,37.13
1524,410441984,0.7832,-0.6050,0.2832,-14.51,-20.18,37.99
1525,410447514,0.7700,-0.5962,0.2686,-13.23,-20.49,38.60
1526,410452461,0.7627,-0.5972,0.2637,-11.95,-21.16,38.96
1527,410456984,0.7505,-0.5913,0.2490,-10.67,-21.52,39.45
1528,410461984,0.7388,-0.5854,0.2388,-9.27,-22.01,39.57
1529,410466984,0.7324,-0.5840,0.2275,-7.93,-22.38,39.76
1530,410471985,0.7202,-0.5781,0.2114,-6.46,-22.99,39.82
1531,410477490,0.7188,-0.5757,0.2021,-5.12,-23.23,39.76
1532,410481984,0.7095,-0.5737,0.1904,-3.54,-23.84,39.70
1533,410486984,0.7051,-0.5762,0.1743,-2.07,-24.33,39.45
1534,410491984,0.7075,-0.5796,0.1558,-0.49,-24.88,39.09
1535,410496984,0.7109,-0.5762,0.1519,1.16,-25.43,38.96
1536,410501997,0.7168,-0.5723,0.1431,2.80,-25.85,38.66
1537,410506984,0.7114,-0.5708,0.1299,4.51,-26.34,38.29
1538,410511984,0.7212,-0.5742,0.1230,6.34,-26.83,38.05
1539,410516984,0.7188,-0.5757,0.1113,8.11,-27.32,37.74
1540,410521984,0.7222,-0.5791,0.1123,10.30,-27.80,37.62
1541,410526984,0.7275,-0.5820,0.1064,12.56,-28.23,37.38
1542,410531984,0.7339,-0.5830,0.0913,15.00,-28.60,37.13
1543,410536984,0.7393,-0.5903,0.0869,17.44,-29.09,37.07
1544,410541984,0.7383,-0.5942,0.0830,19.82,-29.45,36.83
1545,410546986,0.7441,-0.5991,0.0786,22.44,-30.00,36.77
1546,410551984,0.7505,-0.6030,0.0732,24.82,-30.37,36.77
1547,410556983,0.7563,-0.6123,0.0640,27.13,-30.61,36.83
1548,410561983,0.7642,-0.6177,0.0566,29.21,-31.16,36.89
1549,410566984,0.7617,-0.6216,0.0532,31.34,-31.52,36.95
1550,410571984,0.7676,-0.6265,0.0439,33.05,-31.89,37.20
1551,410576982,0.7725,-0.6313,0.0405,34.21,-32.44,37.38
1552,410581984,0.7861,-0.6382,0.0376,35.06,-32.74,37.68
1553,410586984,0.7939,-0.6475,0.0303,35.67,-33.05,37.93
1554,410591984,0.8057,-0.6587,0.0254,35.91,-33.35,38.41
1555,410596984,0.8110,-0.6670,0.0190,35.49,-33.60,38.72
1556,410602501,0.8125,-0.6777,0.0239,34.88,-33.96,39.15
1557,410606984,0.8228,-0.6860,0.0186,33.90,-34.21,39.51
1558,410611984,0.8276,-0.6982,0.0127,32.50,-34.39,40.00
1559,410617486,0.8330,-0.7148,0.0142,30.61,-34.76,40.49
1560,410621984,0.8306,-0.7275,0.0127,28.35,-34.82,40.91
1561,410626985,0.8267,-0.7388,0.0122,25.67,-35.00,41.28
1562,410631984,0.8271,-0.7485,0.0127,22.87,-35.06,41.65
1563,410636984,0.8306,-0.7578,0.0181,19.09,-35.37,41.89
1564,410641987,0.8320,-0.7671,0.0156,15.67,-35.30,42.13
1565,410646984,0.8311,-0.7700,0.0215,12.80,-35.30,42.26
1566,410652452,0.8252,-0.7783,0.0293,9.33,-35.18,42.38
1567,410656984,0.8193,-0.7852,0.0288,5.67,-35.06,42.38
1568,410661984,0.8154,-0.7925,0.0337,1.89,-34.88,42.26
1569,410666984,0.8110,-0.8008,0.0312,-1.52,-34.51,41.95
1570,410671984,0.8071,-0.8081,0.0337,-4.70,-34.39,41.83
1571,410676985,0.7949,-0.8164,0.0410,-8.23,-34.02,41.28
1572,410681984,0.7900,-0.8203,0.0381,-10.12,-33.66,40.98
1573,410686984,0.7910,-0.8281,0.0352,-12.07,-33.41,40.61
1574,410691984,0.7715,-0.8301,0.0444,-14.09,-32.93,40.06
1575,410696986,0.7627,-0.8403,0.0439,-15.55,-32.62,39.45
1576,410701984,0.7544,-0.8486,0.0444,-16.65,-32.20,38.78
1577,410706984,0.7456,-0.8481,0.0488,-17.38,-31.71,38.23
1578,410711984,0.7407,-0.8550,0.0488,-17.56,-31.46,37.32
1579,410716984,0.7271,-0.8677,0.0576,-17.38,-30.67,36.83
1580,410721984,0.7349,-0.8384,0.0552,-16.95,-30.18,36.22
1581,410726984,0.7295,-0.8286,0.0469,-16.40,-29.39,35.18
1582,410731984,0.7051,-0.8325,0.0537,-15.79,-29.09,34.15
1583,410736984,0.6973,-0.8408,0.0508,-15.00,-28.35,32.93
1584,410741984,0.6968,-0.8486,0.0601,-13.90,-27.62,31.89
1585,410746984,0.6919,-0.8525,0.0522,-12.80,-26.83,30.67
1586,410751984,0.6899,-0.8511,0.0386,-11.65,-26.04,29.51
1587,410756984,0.6831,-0.8467,0.0522,-10.37,-25.18,28.29
1588,410761984,0.6797,-0.8413,0.0493,-8.96,-24.27,26.89
1589,410766984,0.6758,-0.8384,0.0435,-7.50,-23.60,25.49
1590,410771984,0.6675,-0.8340,0.0483,-6.16,-22.87,24.21
1591,410776986,0.6626,-0.8359,0.0488,-4.88,-21.95,22.56
1592,410781984,0.6567,-0.8267,0.0464,-3.48,-21.04,21.16
1593,410787290,0.6587,-0.8247,0.0405,-2.07,-20.12,19.57
1594,410791984,0.6538,-0.8213,0.0405,-0.85,-19.27,18.05
1595,410796984,0.6489,-0.8218,0.0542,0.30,-18.23,16.28
1596,410801983,0.6455,-0.8208,0.0459,1.52,-17.07,14.82
1597,410807350,0.6455,-0.8242,0.0479,2.87,-16.04,13.29
1598,410811984,0.6450,-0.8198,0.0498,4.21,-15.12,11.89
1599,410816984,0.6401,-0.8257,0.0479,5.67,-14.02,10.55
1600,410821984,0.6421,-0.8247,0.0444,7.07,-12.93,9.15
1601,410827420,0.6411,-0.8208,0.0464,8.90,-11.83,7.74
1602,410831985,0.6484,-0.8242,0.0425,9.94,-10.85,6.77
1603,410836984,0.6572,-0.8203,0.0410,11.46,-10.06,5.73
1604,410841984,0.6562,-0.8164,0.0376,12.80,-8.90,4.76
1605,410846984,0.6553,-0.8091,0.0396,14.39,-7.99,3.90
1606,410851984,0.6567,-0.8096,0.0396,15.79,-7.07,3.05
