# skilleye imu stream v1
# device=xiao_esp32c6 imu=mpu6050 addr=0x68
# rate_hz=200 accel_range_g=16 gyro_range_dps=2000 dlpf_hz=94
# units: accel in g, gyro in deg/s, t_us in microseconds since boot (monotonic)
# no shared clock with the camera -- tap the racket once before each take
# so both recordings share a spike to align on
seq,t_us,ax,ay,az,gx,gy,gz
0,314574787,0.6948,0.6821,0.3003,-4.39,-0.98,8.35
1,314579793,0.6919,0.6777,0.3022,-3.90,-0.79,8.29
2,314584786,0.6924,0.6772,0.2993,-3.54,-0.91,8.29
3,314589787,0.6890,0.6797,0.3047,-3.17,-0.98,8.23
4,314594786,0.6890,0.6782,0.2993,-2.80,-0.85,8.23
5,314599789,0.6904,0.6797,0.3003,-2.32,-1.04,8.29
6,314604786,0.6890,0.6777,0.3066,-1.89,-1.04,8.17
7,314609787,0.6860,0.6787,0.3022,-1.40,-1.16,8.11
8,314614786,0.6851,0.6797,0.3013,-0.85,-1.10,8.11
9,314619787,0.6851,0.6797,0.3071,-0.30,-0.91,8.11
10,314624789,0.6826,0.6807,0.3057,0.18,-1.04,8.05
11,314629788,0.6855,0.6826,0.3062,0.85,-0.85,7.99
12,314634787,0.6821,0.6841,0.3032,1.16,-0.98,7.80
13,314639787,0.6777,0.6855,0.3110,1.89,-0.85,7.87
14,314644787,0.6807,0.6851,0.3105,2.44,-0.91,7.74
15,314649788,0.6797,0.6812,0.3101,2.80,-0.85,7.50
16,314654787,0.6802,0.6860,0.3086,3.23,-0.79,7.44
17,314659785,0.6782,0.6855,0.3096,3.60,-0.73,7.50
18,314665232,0.6782,0.6836,0.3066,3.96,-0.61,7.26
19,314669788,0.6787,0.6841,0.3081,4.15,-0.49,7.26
20,314674785,0.6821,0.6875,0.3066,4.33,-0.67,7.07
21,314679861,0.6821,0.6885,0.3130,4.33,-0.67,6.89
22,314684786,0.6841,0.6865,0.3101,4.33,-0.49,6.89
23,314689785,0.6875,0.6880,0.3081,4.27,-0.73,6.59
24,314694806,0.6895,0.6895,0.3145,4.09,-0.61,6.46
25,314700232,0.6885,0.6875,0.3086,3.78,-0.61,6.16
26,314704787,0.6904,0.6943,0.3130,3.54,-0.61,5.91
27,314709785,0.6978,0.6934,0.3105,3.35,-0.85,5.55
28,314714789,0.6992,0.6968,0.3105,3.17,-0.61,5.30
29,314719787,0.7007,0.6973,0.3140,2.80,-0.67,4.82
30,314724787,0.6997,0.6953,0.3169,2.56,-0.85,4.33
31,314729835,0.6987,0.6987,0.3164,2.32,-0.91,4.02
32,314734789,0.6953,0.6963,0.3125,2.07,-0.85,3.72
33,314739787,0.6997,0.7007,0.3062,1.65,-0.98,3.17
34,314744786,0.7017,0.6987,0.3076,1.34,-0.98,2.68
35,314749787,0.7017,0.7021,0.3096,0.91,-0.98,2.26
36,314754786,0.7007,0.6997,0.3105,0.43,-1.16,1.71
37,314759787,0.7017,0.6963,0.3115,-0.06,-1.34,1.28
38,314764786,0.7036,0.6982,0.3091,-0.67,-1.59,0.85
39,314769787,0.7012,0.6953,0.3062,-1.28,-1.77,0.43
40,314774786,0.6982,0.6948,0.3081,-1.71,-1.77,-0.12
41,314779785,0.7012,0.6938,0.3096,-2.13,-1.95,-0.55
42,314784789,0.6963,0.6948,0.3086,-2.68,-2.07,-1.04
43,314789789,0.7007,0.6982,0.3066,-3.17,-2.32,-1.46
44,314794786,0.6978,0.6953,0.3096,-3.35,-2.56,-1.89
45,314799787,0.6963,0.6982,0.3076,-3.72,-2.56,-2.32
46,314804786,0.6943,0.6992,0.3066,-3.72,-2.87,-2.74
47,314809789,0.6934,0.6982,0.3071,-3.66,-2.80,-3.11
48,314814786,0.6885,0.6982,0.2983,-3.60,-3.05,-3.35
49,314819789,0.6870,0.6997,0.3018,-3.41,-3.17,-3.66
50,314824802,0.6875,0.6992,0.3057,-3.11,-3.35,-3.90
51,314829785,0.6851,0.6982,0.2954,-2.74,-3.54,-4.09
52,314835078,0.6870,0.6987,0.2993,-2.38,-3.54,-4.33
53,314839787,0.6836,0.6987,0.2979,-1.77,-3.78,-4.70
54,314844795,0.6851,0.6987,0.3013,-1.40,-3.96,-4.82
55,314849785,0.6885,0.7002,0.2959,-0.91,-4.15,-4.94
56,314854789,0.6836,0.7070,0.2910,-0.37,-4.15,-5.12
57,314859787,0.6855,0.7021,0.2993,0.18,-4.33,-5.24
58,314864787,0.6846,0.7085,0.3037,0.67,-4.45,-5.18
59,314869785,0.6826,0.7090,0.2979,1.28,-4.57,-5.24
60,314874785,0.6763,0.7085,0.2949,1.83,-4.63,-5.37
61,314879789,0.6782,0.7080,0.2969,2.38,-4.82,-5.49
62,314884786,0.6768,0.7080,0.2935,2.80,-4.82,-5.61
63,314889821,0.6797,0.7085,0.2983,3.23,-4.94,-5.49
64,314894814,0.6729,0.7090,0.2983,3.54,-5.06,-5.61
65,314899789,0.6733,0.7104,0.3037,3.78,-5.12,-5.61
66,314904786,0.6753,0.7124,0.3018,4.02,-5.18,-5.61
67,314909789,0.6729,0.7070,0.2988,4.02,-5.12,-5.55
68,314914786,0.6709,0.7075,0.3042,4.27,-5.06,-5.55
69,314919788,0.6660,0.7085,0.2983,4.09,-5.18,-5.55
70,314924786,0.6631,0.7100,0.3042,3.90,-5.24,-5.55
71,314929789,0.6641,0.7065,0.2993,3.72,-5.24,-5.55
72,314934786,0.6646,0.7065,0.3022,3.54,-5.18,-5.61
73,314939787,0.6660,0.7070,0.3042,3.11,-5.06,-5.49
74,314944786,0.6685,0.7075,0.3120,2.62,-4.94,-5.61
75,314949787,0.6611,0.7075,0.3091,2.13,-5.00,-5.73
76,314954786,0.6562,0.7080,0.3110,1.65,-4.88,-5.79
77,314959970,0.6533,0.7031,0.3149,1.10,-4.82,-5.98
78,314964787,0.6509,0.7075,0.3174,0.43,-4.57,-6.22
79,314969786,0.6455,0.7031,0.3198,-0.24,-4.33,-6.52
80,314974785,0.6450,0.7036,0.3276,-0.98,-4.09,-6.71
81,314979789,0.6411,0.6943,0.3271,-1.89,-3.84,-7.01
82,314984787,0.6421,0.6943,0.3257,-2.80,-3.35,-7.38
83,314989967,0.6362,0.6924,0.3242,-4.09,-3.23,-7.56
84,314994787,0.6348,0.6895,0.3354,-5.06,-2.80,-7.99
85,314999788,0.6333,0.6875,0.3374,-6.22,-2.50,-8.29
86,315004787,0.6348,0.6821,0.3340,-7.32,-2.26,-8.60
87,315009788,0.6294,0.6826,0.3350,-8.54,-1.77,-8.96
88,315014786,0.6348,0.6836,0.3369,-9.57,-1.40,-9.39
89,315019788,0.6284,0.6797,0.3364,-11.10,-0.85,-10.00
90,315024787,0.6299,0.6802,0.3447,-11.95,-0.37,-10.24
91,315029785,0.6245,0.6782,0.3457,-13.41,0.24,-10.79
92,315034785,0.6230,0.6802,0.3462,-14.39,0.91,-11.40
93,315039788,0.6211,0.6768,0.3525,-15.18,1.40,-11.83
94,315044787,0.6157,0.6787,0.3540,-15.98,2.07,-12.38
95,315049787,0.6172,0.6777,0.3545,-16.65,2.87,-12.99
96,315054787,0.6157,0.6758,0.3540,-17.20,3.66,-13.54
97,315059851,0.6177,0.6763,0.3555,-17.50,4.70,-14.15
98,315064788,0.6123,0.6704,0.3594,-17.68,5.37,-14.70
99,315069787,0.6201,0.6748,0.3579,-17.74,6.34,-15.24
100,315074785,0.6221,0.6777,0.3535,-17.62,7.26,-15.98
101,315079787,0.6187,0.6782,0.3535,-17.20,8.29,-16.65
102,315084786,0.6206,0.6831,0.3481,-16.77,9.27,-17.32
103,315089789,0.6196,0.6816,0.3535,-16.16,10.18,-17.93
104,315094870,0.6182,0.6846,0.3540,-15.24,11.46,-18.84
105,315099785,0.6182,0.6855,0.3477,-14.63,12.32,-19.33
106,315104813,0.6084,0.6895,0.3467,-13.72,13.29,-20.06
107,315109787,0.6025,0.6885,0.3413,-12.62,14.51,-20.79
108,315114787,0.5977,0.6982,0.3257,-11.40,15.49,-21.46
109,315119787,0.5938,0.6978,0.3174,-9.88,16.59,-22.13
110,315124788,0.6006,0.7031,0.3223,-8.05,17.50,-22.68
111,315129787,0.6045,0.7021,0.3188,-5.79,18.66,-23.05
112,315134787,0.6064,0.7026,0.3164,-2.93,19.88,-23.41
113,315139785,0.6055,0.7090,0.3198,0.43,21.04,-23.66
114,315144789,0.5981,0.7246,0.3101,4.33,22.56,-23.72
115,315149792,0.5928,0.7319,0.3105,8.66,23.96,-23.78
116,315154787,0.5825,0.7417,0.3037,13.23,25.55,-23.84
117,315159788,0.5786,0.7505,0.2993,18.05,27.13,-23.78
118,315164787,0.5688,0.7539,0.2954,22.80,28.84,-23.54
119,315169803,0.5625,0.7666,0.2886,27.74,30.61,-23.54
120,315174785,0.5596,0.7744,0.2817,32.38,32.38,-23.41
121,315179785,0.5620,0.7798,0.2715,36.89,33.84,-23.23
122,315184790,0.5605,0.7817,0.2749,40.79,35.61,-23.11
123,315189785,0.5581,0.7856,0.2700,44.63,37.32,-22.80
124,315194792,0.5542,0.7900,0.2681,47.80,39.21,-22.62
125,315200342,0.5532,0.7930,0.2734,51.22,41.04,-22.32
126,315204788,0.5479,0.7949,0.2676,52.99,42.50,-22.26
127,315209787,0.5469,0.7993,0.2583,54.57,44.21,-21.95
128,315214787,0.5449,0.7969,0.2583,55.55,45.73,-21.95
129,315219786,0.5435,0.7964,0.2573,55.91,46.95,-21.59
130,315224787,0.5444,0.7920,0.2520,55.61,48.23,-21.40
131,315229788,0.5400,0.7930,0.2524,54.70,49.27,-21.16
132,315234787,0.5396,0.7876,0.2598,53.29,50.30,-20.98
133,315239934,0.5405,0.7891,0.2612,51.22,51.34,-20.73
134,315244787,0.5391,0.7861,0.2661,48.54,52.26,-20.55
135,315249787,0.5361,0.7896,0.2700,45.37,53.23,-20.55
136,315254787,0.5371,0.7891,0.2651,41.71,53.72,-20.43
137,315259786,0.5376,0.7847,0.2607,37.50,54.39,-20.37
138,315264787,0.5352,0.7886,0.2725,33.05,54.76,-20.24
139,315269971,0.5332,0.7964,0.2715,28.54,55.06,-20.30
140,315274787,0.5337,0.8071,0.2793,23.78,55.24,-20.61
141,315279785,0.5381,0.8130,0.2959,19.15,55.30,-20.79
142,315284788,0.5415,0.8213,0.2998,14.33,55.43,-21.16
143,315289787,0.5449,0.8276,0.3203,9.94,55.30,-21.59
144,315294787,0.5513,0.8276,0.3213,5.67,55.12,-21.83
145,315299786,0.5444,0.8281,0.3335,1.52,54.76,-22.13
146,315304789,0.5405,0.8262,0.3320,-2.68,54.45,-22.38
147,315309787,0.5332,0.8130,0.3418,-6.59,54.09,-22.38
148,315314787,0.5283,0.8140,0.3447,-10.49,53.72,-22.32
149,315319786,0.5205,0.8101,0.3428,-14.21,52.99,-21.95
150,315324787,0.5142,0.8086,0.3452,-17.93,52.20,-21.59
151,315329788,0.4961,0.8066,0.3530,-21.52,51.28,-21.10
152,315334787,0.4717,0.7891,0.3467,-25.24,50.49,-20.73
153,315339788,0.4624,0.7637,0.3833,-29.45,49.63,-20.18
154,315344787,0.5474,0.7734,0.3584,-33.48,48.60,-19.33
155,315349786,0.5234,0.7935,0.3936,-36.83,47.26,-18.72
156,315354963,0.5044,0.8184,0.3784,-39.33,46.22,-18.29
157,315359787,0.4614,0.8101,0.3926,-41.40,44.88,-18.17
158,315364786,0.3706,0.8018,0.4551,-43.11,44.02,-17.99
159,315369790,0.4897,0.8525,0.4160,-44.45,42.99,-18.17
160,315374786,0.5493,0.8257,0.4150,-45.06,41.83,-18.54
161,315379804,0.6045,0.8042,0.4482,-44.76,40.37,-18.54
162,315384795,0.5835,0.8052,0.4731,-43.90,39.45,-18.54
163,315389787,0.5288,0.8159,0.4609,-42.38,38.60,-18.72
164,315394787,0.4888,0.8452,0.4546,-40.12,37.44,-19.21
165,315399786,0.4541,0.9546,0.5059,-36.40,36.59,-20.30
166,315404787,0.4678,0.8530,0.4761,-31.10,36.04,-21.83
167,315409787,0.4854,0.7754,0.4448,-25.67,34.94,-22.68
168,315414787,0.5210,0.7534,0.4482,-20.18,33.54,-22.99
169,315419788,0.5337,0.7646,0.4668,-14.82,32.13,-23.29
170,315424787,0.5298,0.7915,0.4746,-9.82,30.67,-23.54
171,315430196,0.5034,0.8188,0.4722,-5.18,29.21,-24.21
172,315434790,0.4902,0.8481,0.4824,-0.61,27.93,-25.18
173,315439786,0.4883,0.8618,0.5024,4.45,26.46,-26.71
174,315444788,0.5215,0.8823,0.4702,7.99,25.49,-27.74
175,315449786,0.6382,0.9814,0.2197,13.41,20.55,-31.22
176,315454788,0.7158,0.9751,0.1724,19.15,13.84,-34.02
177,315459787,0.8564,1.1235,0.1318,25.91,3.60,-38.17
178,315464786,0.8643,0.7334,0.7383,33.66,-6.95,-42.50
179,315470206,0.8022,0.4741,0.5312,41.28,-13.66,-43.17
180,315474787,0.6294,0.4648,0.6211,48.60,-17.07,-42.01
181,315479787,0.4238,0.5610,0.8623,55.18,-17.38,-40.79
182,315484788,0.3491,0.7119,0.6421,60.49,-17.99,-39.88
183,315489886,0.3784,0.8169,0.3335,64.21,-20.79,-39.33
184,315494787,0.4277,0.8398,0.4165,66.46,-23.35,-38.78
185,315499786,0.4390,0.8257,0.5767,67.13,-24.51,-38.29
186,315504787,0.4351,0.7954,0.4409,66.77,-25.98,-37.74
187,315509786,0.3960,0.7773,0.3105,65.98,-28.23,-37.20
188,315514787,0.3438,0.8037,0.4531,64.70,-29.76,-36.71
189,315519788,0.3159,0.8423,0.5674,63.29,-30.12,-35.91
190,315524787,0.3203,0.8647,0.4404,61.77,-31.04,-34.76
191,315530159,0.3252,0.8423,0.3940,60.18,-32.50,-33.05
192,315534787,0.3506,0.8716,0.5205,58.60,-32.50,-30.91
193,315539788,0.3711,0.9297,0.5576,56.83,-32.07,-29.57
194,315544787,0.3999,0.9355,0.4512,54.82,-31.71,-29.15
195,315549785,0.4126,0.9219,0.4180,52.26,-32.07,-28.96
196,315554789,0.4346,0.9746,0.5322,49.27,-31.52,-29.51
197,315559787,0.3848,1.0063,0.4863,45.18,-30.98,-30.79
198,315564787,0.3950,1.0034,0.3755,39.82,-31.16,-32.26
199,315569788,0.4502,0.9819,0.3867,33.48,-31.59,-33.78
200,315574787,0.4580,0.9800,0.4482,26.71,-31.65,-35.00
201,315579787,0.4497,0.9639,0.4136,19.51,-31.83,-36.04
202,315584787,0.4458,0.9473,0.3467,12.32,-32.56,-36.95
203,315589785,0.4331,0.9292,0.3633,5.55,-33.60,-37.38
204,315594787,0.4380,0.9297,0.4077,-1.04,-34.09,-37.32
205,315599787,0.4404,0.9414,0.3970,-6.89,-34.88,-37.07
206,315604786,0.4458,0.9526,0.3604,-12.13,-35.79,-36.59
207,315609787,0.4487,0.9663,0.3828,-16.83,-36.59,-36.10
208,315614786,0.4482,0.9727,0.3965,-21.40,-37.20,-35.55
209,315619787,0.4526,0.9824,0.3652,-25.49,-38.11,-35.00
210,315624786,0.4434,0.9854,0.3584,-29.02,-39.15,-34.51
211,315629787,0.4570,0.9854,0.3716,-32.01,-40.24,-33.96
212,315634786,0.4492,0.9829,0.3823,-34.45,-40.98,-33.11
213,315639943,0.4536,0.9839,0.3682,-36.10,-41.83,-31.95
214,315644786,0.4453,0.9839,0.3608,-36.65,-42.74,-30.91
215,315649789,0.4390,0.9863,0.3599,-36.46,-43.48,-29.39
216,315654786,0.4351,0.9951,0.3647,-35.37,-44.15,-28.05
217,315659787,0.4282,0.9937,0.3472,-33.17,-45.06,-26.34
218,315664786,0.4268,1.0000,0.3418,-30.24,-45.67,-24.63
219,315669787,0.4316,0.9971,0.3525,-26.65,-46.10,-22.87
220,315674786,0.4243,1.0049,0.3550,-22.68,-46.28,-21.22
221,315680048,0.4102,1.0073,0.3330,-18.05,-46.77,-19.27
222,315684787,0.4072,1.0083,0.3335,-13.35,-46.95,-17.44
223,315689785,0.4038,1.0122,0.3350,-8.48,-47.07,-15.61
224,315694789,0.3843,1.0229,0.3198,-4.02,-47.32,-13.90
225,315700138,0.3701,1.0249,0.3115,0.24,-47.50,-12.13
226,315704787,0.3765,1.0156,0.3301,3.90,-47.74,-10.55
227,315709786,0.3765,1.0078,0.3232,6.83,-47.68,-8.78
228,315714789,0.3613,1.0063,0.3145,9.27,-47.93,-7.13
229,315719786,0.3535,1.0015,0.3198,10.91,-47.80,-5.55
230,315724787,0.3506,0.9985,0.3169,12.07,-47.80,-3.96
231,315729788,0.3477,0.9985,0.3179,12.44,-47.56,-2.44
232,315734787,0.3389,0.9990,0.3140,12.07,-47.56,-1.04
233,315739786,0.3433,0.9985,0.3081,11.28,-47.44,0.24
234,315744787,0.3418,1.0034,0.3086,9.63,-47.13,1.34
235,315749785,0.3462,0.9966,0.3047,7.50,-46.89,2.38
236,315754789,0.3530,0.9917,0.2969,4.76,-46.71,3.35
237,315759787,0.3560,0.9849,0.3027,1.16,-46.77,4.39
238,315764787,0.3696,0.9780,0.3018,-2.93,-46.77,5.37
239,315769786,0.3740,0.9785,0.3018,-7.44,-46.77,6.34
240,315774787,0.3857,0.9771,0.2817,-12.26,-47.20,7.20
241,315779786,0.3921,0.9741,0.2886,-17.26,-47.50,7.87
242,315784785,0.3979,0.9634,0.2886,-22.38,-47.80,8.72
243,315789785,0.4097,0.9634,0.2842,-27.38,-48.48,9.39
244,315794785,0.4111,0.9658,0.2773,-32.44,-49.02,9.82
245,315799789,0.4224,0.9609,0.2759,-37.07,-49.51,10.37
246,315804786,0.4253,0.9585,0.2827,-41.59,-50.18,10.73
247,315809787,0.4282,0.9609,0.2788,-45.55,-50.55,10.91
248,315814786,0.4321,0.9639,0.2842,-48.84,-51.28,11.04
249,315819787,0.4346,0.9668,0.2812,-51.34,-51.77,11.16
250,315824809,0.4380,0.9658,0.2778,-53.23,-52.20,11.16
251,315829789,0.4385,0.9644,0.2793,-54.21,-52.68,11.10
252,315834786,0.4399,0.9658,0.2886,-54.82,-53.11,11.04
253,315839787,0.4487,0.9644,0.2778,-54.63,-53.41,10.85
254,315844786,0.4551,0.9575,0.2905,-53.96,-53.60,10.61
255,315849789,0.4673,0.9531,0.2876,-52.80,-53.96,10.30
256,315854786,0.4678,0.9561,0.2793,-51.28,-54.15,10.12
257,315859787,0.4634,0.9521,0.2720,-49.39,-54.51,9.82
258,315864786,0.4712,0.9448,0.2847,-47.80,-54.70,9.51
259,315869787,0.5039,0.9424,0.2783,-44.76,-55.12,9.27
260,315874786,0.4995,0.9424,0.2769,-42.62,-55.37,9.02
261,315879992,0.5093,0.9351,0.2803,-38.90,-55.79,8.84
262,315884787,0.5195,0.9336,0.2837,-36.46,-56.28,8.78
263,315889786,0.5391,0.9272,0.2729,-33.17,-56.89,8.72
264,315894785,0.5537,0.9233,0.2632,-29.70,-57.74,8.60
265,315899983,0.5625,0.9238,0.2612,-25.49,-59.02,8.60
266,315904789,0.5957,0.9268,0.2544,-21.89,-60.24,8.66
267,315909789,0.5767,0.9180,0.2788,-18.96,-61.10,8.60
268,315914786,0.5967,0.9189,0.2573,-15.06,-62.68,8.48
269,315919789,0.5884,0.9282,0.2627,-12.44,-63.66,8.23
270,315924786,0.5435,0.9282,0.2925,-9.21,-64.94,7.80
271,315929787,0.4248,0.9346,0.3218,-6.52,-65.43,6.95
272,315934786,0.3921,0.8828,0.3311,-4.63,-65.67,6.04
273,315939787,0.4023,0.8340,0.3218,-3.41,-65.85,5.85
274,315944786,0.3911,0.8149,0.3379,-2.93,-66.04,5.73
275,315949785,0.3486,0.8228,0.3457,-3.48,-66.04,5.43
276,315954785,0.3081,0.8174,0.3726,-4.94,-65.85,4.82
277,315959785,0.3247,0.7930,0.3730,-6.95,-65.43,3.90
278,315964788,0.3516,0.7798,0.3428,-9.39,-65.24,2.80
279,315969787,0.3745,0.7754,0.3540,-12.07,-65.12,1.77
280,315974787,0.3940,0.7583,0.3599,-14.33,-64.63,0.30
281,315979786,0.3989,0.7485,0.3716,-16.16,-63.96,-1.34
282,315984787,0.4126,0.7324,0.3779,-17.26,-63.17,-2.93
283,315989786,0.4014,0.7075,0.3467,-17.26,-61.83,-4.63
284,315994785,0.4097,0.6899,0.3262,-16.52,-60.61,-6.16
285,316000327,0.4136,0.6548,0.3203,-15.24,-58.90,-7.68
286,316004787,0.3789,0.6509,0.3154,-13.60,-57.56,-8.60
287,316009788,0.4287,0.6455,0.2524,-11.52,-56.28,-9.51
288,316014789,0.4717,0.6514,0.2466,-9.09,-55.06,-10.37
289,316019786,0.4697,0.6602,0.2446,-5.79,-53.90,-11.22
290,316024787,0.4619,0.6748,0.2104,-2.01,-52.87,-12.20
291,316029788,0.4502,0.7002,0.2041,1.95,-51.77,-13.54
292,316034789,0.4116,0.7236,0.3208,6.89,-50.18,-14.82
293,316039785,0.4087,0.7026,0.2393,13.66,-48.41,-16.16
294,316044787,0.4097,0.6880,0.1689,20.79,-47.50,-17.13
295,316050152,0.4600,0.6953,0.1670,28.90,-46.16,-18.23
296,316054787,0.4673,0.7129,0.1885,33.66,-44.82,-19.21
297,316059787,0.4111,0.6670,0.1924,38.96,-43.05,-20.43
298,316064787,0.1929,0.7202,0.2012,42.50,-41.10,-21.59
299,316069788,0.2954,0.7124,0.2153,44.94,-39.45,-23.29
300,316074787,0.3911,0.6328,0.2021,46.16,-38.17,-24.33
301,316079787,0.3975,0.5903,0.1997,46.22,-36.65,-25.06
302,316084787,0.3662,0.6021,0.2173,45.18,-35.18,-25.91
303,316089786,0.3350,0.6196,0.2212,42.62,-33.78,-27.07
304,316094787,0.3154,0.6318,0.2119,38.84,-32.26,-28.17
305,316099785,0.3198,0.6377,0.2090,34.15,-31.16,-29.15
306,316104789,0.3345,0.6313,0.2197,28.35,-29.63,-30.24
307,316109787,0.3364,0.6250,0.2124,21.59,-28.41,-31.04
308,316114786,0.3325,0.6230,0.2153,13.96,-27.26,-31.95
309,316119787,0.3169,0.6245,0.2271,5.30,-25.98,-32.99
310,316124785,0.3066,0.6201,0.2227,-4.02,-24.63,-33.90
311,316129789,0.3022,0.6187,0.2314,-14.02,-23.72,-34.82
312,316134787,0.2979,0.6118,0.2358,-24.33,-22.26,-35.85
313,316139786,0.3018,0.6123,0.2310,-35.18,-20.79,-36.83
314,316144837,0.3101,0.6260,0.2407,-45.73,-19.39,-37.80
315,316149787,0.3086,0.6313,0.2476,-56.16,-17.87,-38.66
316,316154786,0.3335,0.6709,0.2451,-66.22,-16.22,-39.39
317,316159787,0.3481,0.6987,0.2612,-75.79,-14.39,-40.00
318,316164786,0.3618,0.7271,0.2793,-84.57,-12.74,-40.43
319,316169787,0.3735,0.7954,0.2871,-92.68,-11.04,-40.67
320,316174786,0.3735,0.8364,0.3213,-100.24,-9.45,-40.85
321,316179787,0.3784,0.8159,0.3647,-107.38,-8.17,-40.49
322,316184786,0.3696,0.8076,0.3901,-114.63,-7.13,-40.00
323,316189787,0.3589,0.8198,0.4116,-121.83,-6.04,-39.76
324,316194792,0.3613,0.8262,0.4375,-129.02,-5.30,-39.70
325,316200770,0.3682,0.8359,0.4839,-136.77,-4.15,-39.88
326,316204789,0.3755,0.8438,0.4688,-141.59,-3.35,-39.94
327,316209785,0.3994,0.8862,0.4702,-147.07,-2.87,-40.30
328,316214786,0.4077,0.8975,0.5811,-151.71,-2.13,-40.73
329,316219786,0.4019,0.9292,0.5439,-155.61,-1.40,-40.85
330,316224787,0.4243,0.9429,0.5420,-158.35,-1.10,-40.98
331,316229786,0.4331,0.9634,0.6079,-160.55,-0.55,-41.04
332,316234787,0.4268,0.9570,0.6572,-161.46,0.00,-41.04
333,316239786,0.4233,0.9492,0.6123,-161.71,0.55,-40.73
334,316244789,0.4194,0.9263,0.6357,-160.98,0.79,-40.37
335,316249787,0.4111,0.9067,0.7114,-159.94,1.46,-39.76
336,316254787,0.4053,0.9072,0.7100,-158.54,1.83,-39.33
337,316259788,0.3652,0.9224,0.7236,-157.20,2.13,-38.60
338,316264787,0.3550,0.9316,0.7861,-156.16,2.44,-38.11
339,316269788,0.3618,0.9229,0.8276,-155.43,2.50,-37.38
340,316274787,0.3716,0.9360,0.8516,-155.18,2.13,-36.77
341,316279786,0.3794,0.9575,0.9321,-155.67,1.71,-36.04
342,316284788,0.3872,0.9639,1.0132,-157.01,0.98,-35.61
343,316289787,0.4019,0.9600,1.0679,-159.21,0.00,-34.82
344,316294787,0.4136,0.9570,1.1260,-162.26,-1.65,-34.09
345,316299822,0.4219,0.9536,1.1904,-165.91,-3.60,-33.17
346,316304788,0.4312,0.9473,1.2466,-170.24,-5.85,-32.01
347,316309787,0.4351,0.9346,1.2949,-175.24,-8.41,-30.98
348,316314787,0.4321,0.9292,1.3481,-180.79,-11.10,-29.57
349,316319787,0.4258,0.9189,1.4004,-186.77,-14.21,-28.48
350,316324785,0.4126,0.9033,1.4390,-193.05,-17.68,-27.20
351,316329892,0.3911,0.8784,1.4761,-199.51,-21.34,-25.98
352,316334786,0.3760,0.8613,1.5225,-206.10,-25.06,-24.88
353,316339785,0.3608,0.8525,1.5479,-212.80,-29.51,-23.78
354,316344788,0.3442,0.8403,1.5845,-219.63,-34.27,-22.99
355,316349785,0.3267,0.8237,1.6191,-226.16,-39.21,-22.62
356,316354789,0.2959,0.7974,1.6709,-232.68,-44.94,-22.20
357,316359786,0.2241,0.7729,1.6680,-239.63,-50.67,-21.95
358,316364785,0.2812,0.7593,1.6558,-246.77,-57.44,-22.01
359,316369785,0.3394,0.7026,1.7612,-256.40,-65.49,-23.11
360,316374787,0.3726,0.6489,1.7939,-263.05,-70.73,-23.78
361,316379787,0.3931,0.6045,1.7754,-271.28,-77.74,-24.27
362,316384787,0.3735,0.5908,1.7700,-278.90,-84.94,-24.88
363,316389785,0.3042,0.5981,1.7964,-286.16,-92.38,-26.22
364,316394787,0.2417,0.5605,1.8438,-293.29,-99.45,-28.48
365,316399786,0.2466,0.5029,1.8530,-300.18,-106.40,-30.67
366,316404785,0.2656,0.4683,1.8687,-306.22,-112.80,-32.80
367,316409787,0.2905,0.4624,1.8701,-311.46,-119.15,-35.24
368,316414787,0.3169,0.4370,1.8872,-315.79,-125.67,-38.05
369,316419787,0.3350,0.3950,1.9009,-319.45,-131.71,-41.16
370,316424787,0.2983,0.4365,1.9121,-322.68,-137.50,-44.70
371,316429786,0.3208,0.3003,1.9448,-326.04,-142.87,-48.17
372,316434787,0.3203,0.2832,1.9038,-328.66,-148.17,-51.04
373,316439787,0.3330,0.2871,1.8574,-330.06,-153.72,-54.27
374,316444787,0.3442,0.2812,1.8857,-330.24,-159.09,-58.05
375,316449786,0.3481,0.2651,1.9194,-329.27,-163.48,-61.71
376,316454787,0.3486,0.2583,1.8945,-327.13,-167.50,-65.43
377,316459787,0.3481,0.2466,1.8691,-323.60,-171.10,-69.33
378,316464787,0.3354,0.2354,1.8535,-318.54,-174.45,-72.68
379,316469785,0.3169,0.2109,1.8389,-312.56,-177.56,-76.16
380,316474786,0.3027,0.2031,1.8081,-305.30,-180.18,-79.39
381,316479787,0.2856,0.1953,1.7759,-297.13,-182.68,-82.62
382,316484786,0.2690,0.1836,1.7515,-288.23,-184.88,-85.73
383,316489787,0.2598,0.1704,1.7222,-278.96,-186.77,-88.48
384,316494786,0.2495,0.1699,1.6880,-269.45,-188.35,-90.79
385,316499789,0.2495,0.1772,1.6729,-259.88,-189.51,-92.68
386,316504786,0.2490,0.1958,1.6621,-250.55,-190.37,-94.33
387,316509787,0.2373,0.2153,1.6499,-241.22,-191.10,-95.61
388,316514786,0.2197,0.2427,1.6211,-232.50,-191.77,-96.65
389,316519787,0.2026,0.2598,1.5938,-224.57,-192.56,-97.32
390,316524786,0.1841,0.2788,1.5737,-217.32,-193.35,-97.68
391,316529787,0.1729,0.3027,1.5435,-211.22,-193.90,-97.68
392,316534786,0.1724,0.3296,1.5288,-206.52,-194.51,-97.50
393,316539787,0.1782,0.3521,1.5024,-203.17,-194.76,-97.20
394,316544786,0.1909,0.3936,1.5146,-201.34,-194.57,-96.95
395,316549785,0.2305,0.4019,1.4775,-200.43,-194.21,-96.40
396,316554789,0.2437,0.4229,1.4312,-199.82,-193.72,-95.67
397,316559787,0.2495,0.4399,1.4346,-199.27,-193.11,-94.51
398,316564787,0.2632,0.4463,1.4565,-198.90,-191.95,-93.29
399,316569787,0.2793,0.4658,1.4336,-198.48,-190.55,-91.83
400,316574787,0.2905,0.4985,1.4150,-198.41,-188.96,-90.30
401,316580200,0.3027,0.5244,1.4102,-198.48,-187.62,-88.72
402,316584788,0.3115,0.5435,1.3911,-198.90,-185.79,-87.20
403,316589787,0.3198,0.5537,1.3584,-199.45,-184.09,-85.85
404,316594787,0.3267,0.5576,1.3228,-200.24,-182.62,-84.39
405,316599786,0.3330,0.5649,1.3018,-201.34,-181.28,-82.93
406,316604787,0.3398,0.5576,1.2637,-202.68,-180.00,-81.52
407,316609785,0.3398,0.5552,1.2256,-204.02,-179.15,-80.18
408,316614787,0.3379,0.5483,1.1909,-205.30,-178.29,-78.90
409,316619787,0.3428,0.5454,1.1655,-206.52,-177.62,-77.50
410,316624786,0.3486,0.5303,1.1465,-207.68,-176.95,-76.10
411,316630287,0.3589,0.5166,1.1318,-208.41,-176.10,-74.63
412,316634787,0.3760,0.5088,1.1318,-208.66,-175.00,-73.05
413,316639789,0.3916,0.5044,1.1226,-208.60,-173.72,-71.46
414,316644786,0.4136,0.5073,1.1021,-207.93,-172.20,-69.57
415,316649787,0.4321,0.5122,1.0869,-207.01,-170.43,-67.87
416,316654786,0.4385,0.5166,1.0664,-205.91,-168.60,-65.98
417,316659788,0.4487,0.5200,1.0347,-204.27,-166.83,-64.09
418,316664786,0.4580,0.5244,1.0107,-202.62,-165.18,-62.13
419,316669787,0.4678,0.5239,0.9966,-200.73,-163.78,-60.12
420,316674785,0.4785,0.5264,0.9805,-198.78,-162.13,-57.99
421,316679787,0.4897,0.5195,0.9717,-196.89,-160.49,-55.85
422,316684786,0.4883,0.5132,0.9585,-195.00,-158.96,-53.54
423,316689787,0.4897,0.5107,0.9487,-193.54,-157.44,-51.34
424,316694786,0.4917,0.5029,0.9360,-192.13,-156.04,-49.15
425,316699787,0.5020,0.4971,0.9219,-191.16,-154.63,-47.01
426,316704786,0.5127,0.4912,0.9146,-190.43,-153.41,-45.18
427,316709785,0.5190,0.4810,0.8989,-189.94,-152.62,-43.84
428,316714785,0.5298,0.4780,0.8794,-189.51,-151.40,-42.26
429,316719787,0.5386,0.4712,0.8657,-189.27,-149.94,-40.49
430,316724787,0.5508,0.4644,0.8379,-188.90,-149.21,-39.39
431,316729787,0.5581,0.4600,0.8149,-188.41,-147.87,-37.74
432,316734786,0.5649,0.4585,0.7876,-188.17,-146.83,-36.77
433,316739787,0.5732,0.4653,0.7563,-187.80,-145.49,-35.61
434,316744787,0.5864,0.4790,0.7202,-187.62,-143.96,-34.51
435,316749787,0.5908,0.4800,0.6855,-187.32,-142.32,-33.41
436,316754786,0.6011,0.4902,0.6709,-187.56,-140.61,-32.32
437,316759785,0.6128,0.4668,0.6421,-188.41,-138.84,-31.34
438,316764789,0.6279,0.3633,0.6201,-190.00,-137.01,-30.67
439,316769786,0.6753,0.3071,0.6040,-193.41,-135.18,-29.94
440,316774787,0.6831,0.2983,0.5796,-198.17,-133.41,-29.76
441,316780048,0.6899,0.2725,0.5552,-204.88,-131.04,-30.24
442,316784787,0.6934,0.2158,0.5376,-209.88,-129.33,-30.43
443,316789787,0.6997,0.2031,0.5151,-216.40,-127.50,-30.79
444,316794787,0.7021,0.2002,0.4907,-222.74,-125.43,-31.40
445,316799786,0.7041,0.1929,0.4658,-229.09,-123.29,-32.07
446,316804787,0.7129,0.1875,0.4468,-234.82,-121.10,-32.93
447,316809786,0.7183,0.1890,0.4302,-240.00,-118.78,-33.90
448,316814787,0.7183,0.1943,0.4170,-244.02,-116.52,-34.70
449,316819786,0.7251,0.1836,0.3984,-247.50,-114.02,-35.61
450,316824787,0.7271,0.1694,0.3823,-250.06,-111.59,-36.52
451,316829951,0.7290,0.1562,0.3589,-252.32,-108.66,-37.44
452,316834787,0.7363,0.1431,0.3496,-253.23,-106.65,-38.17
453,316839852,0.7324,0.1333,0.3311,-253.66,-103.96,-38.72
454,316844787,0.7285,0.1274,0.3286,-253.66,-101.28,-39.39
455,316849789,0.7275,0.1377,0.3184,-253.05,-98.60,-40.00
456,316854786,0.7266,0.1416,0.3179,-252.07,-95.98,-40.49
457,316859787,0.7241,0.1494,0.3027,-250.79,-93.29,-41.10
458,316864786,0.7192,0.1616,0.3052,-249.45,-90.73,-41.46
459,316869785,0.7178,0.1782,0.3066,-248.05,-88.17,-41.89
460,316874787,0.7100,0.1899,0.2939,-246.71,-85.61,-42.50
461,316879786,0.7036,0.2026,0.2822,-245.73,-82.99,-43.11
462,316884789,0.7002,0.2178,0.2827,-244.57,-80.61,-43.66
463,316889787,0.6973,0.2271,0.2817,-243.60,-78.05,-44.33
464,316894786,0.7017,0.2354,0.2739,-242.62,-75.55,-45.12
465,316899787,0.7061,0.2437,0.2710,-241.65,-72.99,-45.73
466,316904786,0.7114,0.2559,0.2646,-240.85,-70.30,-46.34
467,316909787,0.7129,0.2612,0.2578,-240.00,-67.62,-47.26
468,316914786,0.7144,0.2651,0.2583,-239.09,-64.94,-47.99
469,316919785,0.7207,0.2695,0.2466,-238.29,-62.38,-48.66
470,316924787,0.7227,0.2686,0.2495,-237.74,-59.70,-49.33
471,316929789,0.7222,0.2637,0.2305,-237.01,-57.01,-50.00
472,316934786,0.7153,0.2690,0.2290,-236.28,-54.21,-50.43
473,316939787,0.7104,0.2822,0.2324,-235.91,-51.52,-51.04
474,316944786,0.7119,0.2910,0.2256,-235.73,-48.72,-51.65
475,316949787,0.7021,0.3013,0.2163,-235.67,-45.85,-52.56
476,316954785,0.6934,0.3066,0.2148,-235.61,-43.11,-53.41
477,316959787,0.6748,0.3154,0.2090,-235.49,-40.12,-54.15
478,316964786,0.6582,0.3140,0.2017,-235.24,-37.44,-55.00
479,316969789,0.6484,0.3218,0.2012,-234.88,-34.82,-55.73
480,316974786,0.6309,0.3223,0.1870,-234.33,-32.13,-56.46
481,316979785,0.6240,0.3198,0.1860,-233.41,-29.70,-57.07
482,316984785,0.6167,0.3159,0.1826,-232.38,-27.26,-57.74
483,316989787,0.6128,0.3203,0.1821,-231.28,-24.82,-58.23
484,316994786,0.6001,0.3311,0.1743,-230.00,-22.44,-58.72
485,316999787,0.6084,0.3281,0.1685,-228.60,-20.24,-59.15
486,317004786,0.6123,0.3286,0.1621,-227.13,-18.29,-59.82
487,317009787,0.6030,0.3320,0.1670,-225.67,-16.22,-60.24
488,317014785,0.5957,0.3364,0.1704,-224.27,-14.02,-60.98
489,317019785,0.5938,0.3452,0.1621,-222.80,-11.95,-61.65
490,317025328,0.5952,0.3501,0.1528,-221.10,-9.51,-62.87
491,317029787,0.6016,0.3599,0.1475,-219.76,-7.93,-63.66
492,317034786,0.6108,0.3584,0.1479,-218.05,-5.73,-64.76
493,317039787,0.6138,0.3652,0.1548,-215.91,-3.60,-66.04
494,317044786,0.6196,0.3711,0.1504,-213.60,-1.59,-67.38
495,317050183,0.6323,0.3906,0.1587,-210.43,1.46,-69.33
496,317054787,0.6416,0.3799,0.1592,-208.41,3.48,-70.61
497,317059788,0.6382,0.3838,0.1660,-205.55,6.04,-72.20
498,317064787,0.6338,0.3848,0.1499,-202.56,8.29,-73.72
499,317069786,0.6182,0.3862,0.1533,-198.96,10.49,-75.24
500,317074786,0.6079,0.3853,0.1479,-195.18,12.68,-76.59
501,317079788,0.6030,0.3843,0.1528,-191.40,14.63,-77.93
502,317084787,0.5903,0.3921,0.1602,-187.62,16.40,-79.33
503,317089787,0.5815,0.3960,0.1567,-183.60,18.29,-80.85
504,317094786,0.5703,0.3979,0.1567,-179.63,20.06,-82.38
505,317099787,0.5581,0.4033,0.1567,-175.67,21.71,-84.02
506,317104786,0.5513,0.4126,0.1606,-171.83,23.41,-85.73
507,317109931,0.5557,0.4321,0.1665,-167.99,25.37,-87.80
508,317114787,0.5586,0.4453,0.1704,-164.27,27.07,-89.88
509,317119787,0.5576,0.4580,0.1807,-160.79,28.84,-92.13
510,317124785,0.5405,0.4624,0.1777,-157.20,30.67,-94.27
511,317129787,0.5264,0.4658,0.1748,-153.66,32.38,-96.28
512,317134787,0.5127,0.4688,0.1758,-150.12,34.02,-98.11
513,317139787,0.5049,0.4717,0.1836,-146.46,35.67,-99.94
514,317144787,0.4941,0.4810,0.1841,-142.99,37.20,-101.65
515,317149872,0.4819,0.4746,0.1841,-139.57,38.54,-103.48
516,317154788,0.4678,0.4780,0.1880,-136.52,40.06,-105.12
517,317159787,0.4478,0.4780,0.1816,-133.54,41.46,-106.83
518,317164786,0.4272,0.4727,0.1782,-130.91,42.62,-108.54
519,317169787,0.4248,0.4844,0.1841,-128.72,43.78,-110.37
520,317174788,0.4341,0.5161,0.2041,-127.20,45.49,-112.62
521,317179785,0.4351,0.5337,0.2017,-126.16,47.01,-115.18
522,317184786,0.4248,0.5474,0.1992,-125.73,48.60,-117.74
523,317189785,0.4023,0.5562,0.2168,-125.24,50.24,-120.43
524,317194789,0.3818,0.5605,0.2188,-124.88,51.89,-122.80
525,317199788,0.3633,0.5688,0.2241,-124.09,53.60,-125.00
526,317204789,0.3379,0.5723,0.2236,-122.99,55.24,-127.01
527,317209787,0.3130,0.5840,0.2310,-121.28,56.95,-128.72
528,317214787,0.2817,0.5830,0.2310,-119.21,58.41,-130.30
529,317219785,0.2563,0.5918,0.2324,-116.83,59.82,-131.59
530,317224785,0.2407,0.6011,0.2432,-113.96,61.10,-132.87
531,317229785,0.2305,0.6089,0.2500,-111.04,62.44,-134.02
532,317234787,0.2192,0.6157,0.2539,-107.87,63.84,-135.18
533,317239830,0.2056,0.6289,0.2637,-104.63,65.18,-136.34
534,317244789,0.2021,0.6431,0.2773,-101.52,66.52,-137.56
535,317249786,0.1914,0.6714,0.2959,-98.84,67.93,-138.96
536,317254787,0.1841,0.6924,0.3081,-96.52,69.51,-140.61
537,317259787,0.1714,0.7134,0.3120,-94.70,71.16,-142.32
538,317264789,0.1499,0.7334,0.3213,-93.11,72.74,-143.78
539,317269785,0.1260,0.7505,0.3335,-91.59,74.33,-145.24
540,317274787,0.0928,0.7617,0.3408,-90.12,75.85,-146.34
541,317279787,0.0601,0.7627,0.3501,-88.54,77.26,-147.13
542,317284788,0.0381,0.7695,0.3735,-86.83,78.66,-147.50
543,317289785,0.0068,0.7764,0.3906,-85.12,80.24,-147.56
544,317294787,-0.0210,0.7939,0.3901,-83.60,81.52,-147.68
545,317299789,-0.0332,0.8159,0.4058,-82.13,82.74,-147.56
546,317304786,-0.0454,0.8354,0.4302,-81.04,85.55,-147.50
547,317309790,-0.0674,0.8506,0.4438,-79.88,86.04,-147.62
548,317314787,-0.0903,0.8711,0.4702,-78.72,86.04,-147.74
549,317319787,-0.1055,0.8926,0.4976,-77.93,88.72,-147.87
550,317324787,-0.1191,0.9131,0.5190,-76.77,90.91,-148.11
551,317329787,-0.1245,0.9497,0.5503,-75.85,93.11,-148.66
552,317334787,-0.1406,0.9834,0.5708,-74.45,95.24,-149.21
553,317339787,-0.1626,1.0200,0.5986,-72.80,97.38,-149.70
554,317344787,-0.1826,1.0474,0.6392,-70.37,99.45,-150.24
555,317349825,-0.2026,1.0684,0.6602,-67.68,101.65,-150.24
556,317354785,-0.2339,1.0894,0.6914,-64.15,103.78,-150.00
557,317359846,-0.2578,1.1084,0.7173,-60.12,105.91,-149.33
558,317364786,-0.2891,1.1250,0.7417,-55.73,107.87,-148.54
559,317369787,-0.3291,1.1372,0.7549,-51.34,109.70,-147.50
560,317374790,-0.3711,1.1558,0.7651,-46.71,111.34,-146.46
561,317379786,-0.3999,1.1636,0.7910,-42.80,112.74,-145.37
562,317384787,-0.4346,1.1621,0.7988,-39.45,114.33,-144.27
563,317389787,-0.4722,1.1689,0.8208,-36.89,115.79,-143.35
564,317394787,-0.5044,1.1758,0.8281,-35.49,117.26,-142.44
565,317399786,-0.5337,1.1846,0.8442,-35.18,118.90,-141.65
566,317404787,-0.5615,1.2085,0.8623,-35.73,120.73,-140.98
567,317409785,-0.5967,1.2139,0.8696,-37.13,122.50,-140.24
568,317414787,-0.6353,1.2212,0.8794,-39.09,124.21,-139.45
569,317419786,-0.6743,1.2261,0.8896,-40.91,125.73,-138.35
570,317424787,-0.7065,1.2319,0.8848,-42.62,127.01,-137.13
571,317429785,-0.7324,1.2363,0.8833,-44.09,128.29,-135.61
572,317434787,-0.7534,1.2358,0.8799,-44.88,129.57,-133.90
573,317439812,-0.7739,1.2314,0.8696,-44.88,130.55,-132.01
574,317444788,-0.7900,1.2241,0.8613,-44.27,131.40,-129.76
575,317449787,-0.7979,1.2236,0.8389,-42.80,132.32,-127.38
576,317454787,-0.8018,1.2183,0.8203,-40.98,133.29,-124.63
577,317459787,-0.8062,1.2100,0.8062,-38.66,134.21,-121.95
578,317464787,-0.7969,1.2114,0.7871,-36.40,135.30,-118.90
579,317469788,-0.7852,1.2129,0.7734,-34.15,136.46,-115.91
580,317474787,-0.7817,1.2188,0.7544,-32.13,137.74,-112.68
581,317479786,-0.7759,1.2153,0.7437,-30.37,139.45,-109.09
582,317484868,-0.7720,1.2129,0.7324,-28.48,141.34,-105.30
583,317489787,-0.7578,1.2070,0.7197,-26.89,143.41,-101.04
584,317494785,-0.7476,1.2017,0.7065,-25.61,145.79,-96.59
585,317499787,-0.7485,1.2041,0.7056,-24.88,148.54,-91.83
586,317504786,-0.7490,1.2065,0.6909,-25.06,151.71,-87.20
587,317509785,-0.7539,1.2070,0.6865,-26.22,155.18,-82.20
588,317514789,-0.7617,1.2017,0.6821,-28.11,158.96,-76.95
589,317519786,-0.7725,1.1943,0.6831,-30.73,163.35,-71.83
590,317524787,-0.7891,1.1992,0.6909,-34.27,168.05,-66.28
591,317529785,-0.8115,1.1958,0.6890,-37.99,173.23,-60.67
592,317534787,-0.8359,1.2002,0.7012,-42.20,178.54,-55.00
593,317539786,-0.8667,1.1992,0.7148,-46.46,184.33,-49.02
594,317544787,-0.8911,1.1978,0.7231,-49.82,189.21,-44.27
595,317549785,-0.9336,1.1924,0.7397,-54.02,195.49,-37.87
596,317554787,-0.9614,1.1938,0.7588,-57.99,201.89,-31.28
597,317559786,-0.9902,1.2041,0.7910,-61.71,208.60,-24.57
598,317564787,-1.0249,1.2109,0.8076,-64.94,215.67,-17.80
599,317569785,-1.0732,1.2202,0.8311,-67.93,222.74,-10.91
600,317574787,-1.1216,1.2285,0.8613,-70.37,229.88,-4.02
601,317579788,-1.1841,1.2310,0.8911,-72.44,236.95,3.23
602,317584787,-1.2480,1.2305,0.9194,-73.78,244.15,10.73
603,317589869,-1.3423,1.2339,0.9565,-74.45,253.11,19.76
604,317594787,-1.4116,1.2290,0.9766,-74.33,258.96,26.10
605,317600221,-1.5088,1.2178,1.0200,-73.23,268.05,35.73
606,317604789,-1.5806,1.2119,1.0508,-72.01,273.90,42.38
607,317609786,-1.6641,1.2173,1.0806,-70.30,281.65,50.49
608,317614785,-1.7651,1.2310,1.1113,-68.41,289.51,58.84
609,317619787,-1.8613,1.2456,1.1538,-66.46,297.56,67.07
610,317624786,-1.9634,1.2622,1.1919,-64.88,305.79,75.18
611,317629785,-2.0615,1.2856,1.2358,-63.17,314.27,83.66
612,317634785,-2.1455,1.2983,1.2793,-61.46,322.93,91.52
613,317639787,-2.2314,1.3135,1.3071,-59.51,331.89,99.94
614,317644788,-2.3232,1.3135,1.3394,-57.32,340.98,108.78
615,317649787,-2.4062,1.3057,1.3657,-54.76,350.24,117.93
616,317654785,-2.4712,1.2969,1.3877,-52.01,359.51,127.99
617,317659787,-2.5298,1.2881,1.4019,-49.15,368.90,138.41
618,317664787,-2.5796,1.2700,1.4180,-46.46,378.17,149.27
619,317669785,-2.6533,1.2544,1.4297,-44.09,387.50,160.49
620,317674789,-2.7476,1.2476,1.4399,-42.13,396.65,172.38
621,317679786,-2.8320,1.2412,1.4683,-41.04,405.67,184.45
622,317684787,-2.9229,1.2344,1.4829,-40.98,414.51,196.65
623,317689786,-3.0522,1.2383,1.5229,-41.95,425.06,211.34
624,317694789,-3.1348,1.2500,1.5479,-43.41,431.59,221.10
625,317699786,-3.2446,1.2588,1.5679,-45.85,439.76,233.29
626,317704787,-3.3643,1.2578,1.6021,-48.11,447.56,245.43
627,317709786,-3.4775,1.2588,1.6436,-50.37,455.12,257.68
628,317714787,-3.5620,1.2524,1.6772,-52.13,462.20,270.18
629,317719785,-3.6387,1.2485,1.7222,-52.74,469.39,282.56
630,317724787,-3.7183,1.2705,1.7607,-52.07,476.59,294.88
631,317729786,-3.8027,1.2798,1.8042,-50.49,483.72,306.89
632,317734787,-3.8774,1.2817,1.8501,-47.38,490.73,318.96
633,317739785,-3.9824,1.2896,1.9028,-42.93,497.80,330.67
634,317744787,-4.0938,1.2983,1.9473,-37.07,504.94,342.07
635,317749787,-4.2310,1.3188,1.9946,-30.73,511.71,353.11
636,317754786,-4.3838,1.3286,2.0195,-23.78,517.93,363.78
637,317759787,-4.5439,1.3340,2.0752,-16.10,523.96,374.09
638,317764787,-4.6841,1.3467,2.1211,-7.93,530.00,384.02
639,317769787,-4.8193,1.3540,2.1567,1.22,536.22,393.78
640,317774786,-4.9414,1.3862,2.2021,10.37,541.95,402.87
641,317779787,-5.0581,1.4092,2.2295,19.94,547.62,411.65
642,317784787,-5.1680,1.4336,2.2578,29.88,553.35,419.82
643,317789787,-5.2607,1.4619,2.2715,39.70,558.84,427.62
644,317794787,-5.3374,1.4810,2.2822,50.30,564.76,434.63
645,317800064,-5.4189,1.5156,2.2891,60.18,570.73,441.16
646,317804787,-5.5083,1.5068,2.2925,70.24,576.34,447.56
647,317809786,-5.5649,1.5205,2.2954,80.24,582.38,453.60
648,317814787,-5.5879,1.5210,2.3105,88.17,588.11,459.63
649,317819785,-5.6113,1.5317,2.3501,94.82,594.33,465.49
650,317824787,-5.6558,1.5664,2.3784,98.35,599.88,471.04
651,317829786,-5.7183,1.5732,2.3965,98.48,604.39,476.28
652,317834787,-5.7979,1.5776,2.4634,96.40,608.11,481.59
653,317839785,-5.8418,1.5806,2.5327,91.34,610.73,487.20
654,317844787,-5.9019,1.5854,2.6055,83.96,612.13,492.93
655,317849788,-5.9863,1.6050,2.6938,75.37,611.59,498.90
656,317854787,-6.0601,1.6030,2.7812,65.30,608.96,505.18
657,317859785,-6.1133,1.5898,2.8330,56.22,604.76,512.01
658,317864787,-6.1494,1.5806,2.8994,48.05,598.23,519.57
659,317869787,-6.1768,1.5576,2.9692,40.49,589.63,527.80
660,317874787,-6.1982,1.5464,2.9932,35.67,579.27,536.59
661,317879785,-6.1895,1.5298,3.0571,31.71,567.32,545.79
662,317884787,-6.1606,1.5034,3.0674,28.60,553.72,555.18
663,317889787,-6.1436,1.4878,3.1113,25.79,538.66,564.82
664,317894787,-6.0835,1.4600,3.1255,22.32,522.20,574.63
665,317899785,-6.0420,1.4404,3.1411,17.80,504.15,584.02
666,317904786,-6.0146,1.4341,3.1592,11.10,484.21,593.23
667,317909787,-5.9473,1.4102,3.1763,2.38,462.44,602.32
668,317914787,-5.8726,1.3779,3.1797,-8.48,439.33,611.28
669,317919787,-5.7725,1.3452,3.1655,-20.85,414.88,620.00
670,317924787,-5.6187,1.2993,3.1758,-32.99,389.63,629.02
671,317929787,-5.4253,1.2295,3.1460,-44.15,364.51,638.29
672,317934787,-5.2397,1.1401,3.1235,-54.15,340.00,647.68
673,317939785,-5.0332,1.0576,3.1118,-62.62,316.40,657.56
674,317944785,-4.8301,0.9858,3.0664,-70.00,293.84,667.38
675,317949788,-4.6807,0.8989,3.0337,-78.29,272.32,676.77
676,317954787,-4.5610,0.7915,2.9829,-88.41,251.10,685.73
677,317959787,-4.4531,0.7065,2.9268,-100.18,230.12,694.15
678,317964787,-4.3726,0.6245,2.8779,-112.99,208.66,701.83
679,317969787,-4.3330,0.5317,2.8145,-126.89,186.77,708.90
680,317974787,-4.2837,0.4321,2.7344,-142.32,164.33,714.88
681,317979785,-4.2441,0.3486,2.6753,-158.05,141.34,720.18
682,317984788,-4.2275,0.2759,2.6431,-172.87,117.26,724.45
683,317989980,-4.2217,0.1831,2.5894,-186.89,92.50,728.17
684,317994787,-4.1934,0.1006,2.5186,-200.30,67.99,730.73
685,317999883,-4.1533,0.0205,2.4419,-212.68,43.11,732.56
686,318004845,-4.1260,-0.0454,2.3813,-222.87,18.35,733.60
687,318009787,-4.0928,-0.1279,2.3228,-231.59,-6.10,733.90
688,318014786,-4.0503,-0.1816,2.2578,-240.30,-30.49,733.11
689,318019787,-4.0322,-0.2305,2.1709,-249.09,-54.63,732.01
690,318024786,-4.0234,-0.2749,2.0742,-258.11,-78.23,730.06
691,318029787,-4.0078,-0.3359,2.0010,-267.32,-101.65,727.44
692,318034787,-3.9839,-0.3877,1.9087,-276.22,-124.70,723.96
693,318039785,-3.9858,-0.4258,1.8193,-285.00,-147.38,719.88
694,318044785,-3.9858,-0.4551,1.7222,-293.48,-169.33,714.70
695,318049787,-3.9912,-0.6982,1.7422,-302.01,-190.67,708.78
696,318054787,-3.8828,-1.6455,1.8462,-308.90,-211.16,704.15
697,318060203,-3.8833,-2.4561,2.1934,-317.87,-230.73,700.37
698,318064842,-3.7100,-2.3877,1.9868,-334.15,-250.91,692.38
699,318069787,-3.5723,-1.8901,1.9575,-355.43,-270.61,678.60
700,318074785,-3.4810,-1.4829,1.6479,-375.73,-290.91,660.06
701,318080231,-3.4819,-1.2622,1.3628,-392.13,-311.16,639.94
702,318084787,-3.4414,-1.0913,1.1851,-403.41,-330.12,618.41
703,318090080,-3.3223,-0.6768,1.0181,-410.61,-347.99,595.49
704,318094787,-3.1592,-0.4731,0.7144,-413.41,-364.82,569.15
705,318099787,-3.1455,-0.3501,0.2090,-406.83,-381.46,542.50
706,318104785,-3.2593,-0.2700,0.4165,-388.78,-395.55,516.77
707,318109785,-3.1147,-0.3018,0.3608,-364.33,-404.94,491.77
708,318114787,-2.9277,-0.3599,0.2412,-335.61,-412.87,467.32
709,318119787,-2.8203,-0.4390,0.2705,-303.90,-418.84,442.87
710,318124787,-2.7031,-0.4985,0.2168,-269.63,-422.26,419.33
711,318129787,-2.6387,-0.5889,0.0898,-234.21,-423.90,396.71
712,318134787,-2.6421,-0.6997,0.0317,-200.49,-423.35,375.37
713,318139787,-2.6772,-0.8022,-0.0444,-170.37,-420.67,355.18
714,318144785,-2.6621,-0.9233,-0.1909,-145.55,-416.71,336.10
715,318149787,-2.6147,-1.0366,-0.2588,-126.22,-411.52,317.68
716,318154786,-2.6064,-1.0347,-0.2583,-112.87,-404.76,299.63
717,318159788,-2.4736,-1.3071,-0.4565,-104.94,-397.99,281.95
718,318164787,-2.3281,-1.1958,-0.3110,-100.49,-390.85,264.94
719,318169787,-2.4048,-1.1089,-0.5674,-99.88,-383.48,247.50
720,318174787,-2.4111,-1.0918,-0.6582,-101.71,-375.98,230.00
721,318179785,-2.4365,-1.1431,-0.7046,-104.51,-367.62,213.11
722,318184789,-2.4819,-1.2061,-0.8696,-108.23,-358.96,196.95
723,318189785,-2.5293,-1.2651,-1.0322,-112.74,-349.76,181.46
724,318194792,-2.5942,-1.3232,-1.1294,-118.90,-340.24,166.16
725,318199785,-2.6870,-1.4585,-1.2681,-127.26,-330.18,150.98
726,318204789,-2.6743,-1.6191,-1.3970,-137.20,-319.63,136.52
727,318209786,-2.6743,-1.6816,-1.5029,-147.93,-308.23,122.13
728,318214787,-2.6748,-1.7842,-1.5884,-158.66,-295.98,107.93
729,318219785,-2.6250,-1.9102,-1.6870,-168.78,-282.93,93.78
730,318224787,-2.5708,-1.9668,-1.7300,-175.91,-272.01,83.23
731,318229998,-2.4033,-2.0322,-1.7661,-184.27,-254.33,67.44
732,318234787,-2.2983,-2.0645,-1.7607,-187.99,-241.83,56.89
733,318239785,-2.1367,-2.0684,-1.7446,-190.30,-225.43,44.15
734,318244787,-1.9258,-2.0425,-1.7212,-189.27,-208.35,31.59
735,318249785,-1.7422,-1.9873,-1.6470,-184.88,-191.10,19.39
736,318254787,-1.5317,-1.9199,-1.6035,-177.56,-173.48,7.44
737,318259787,-1.3267,-1.8213,-1.5449,-166.22,-155.85,-4.02
738,318264786,-1.1636,-1.7246,-1.4893,-150.67,-138.60,-14.88
739,318269785,-1.0430,-1.5840,-1.4092,-131.52,-121.22,-25.24
740,318274785,-0.9160,-1.4736,-1.3696,-110.00,-104.39,-35.43
741,318279787,-0.8242,-1.3496,-1.3164,-87.44,-88.48,-45.06
742,318284785,-0.7280,-1.2461,-1.2358,-66.46,-73.17,-54.45
743,318289789,-0.6401,-1.1689,-1.1729,-48.11,-59.02,-63.90
744,318294787,-0.5718,-1.1055,-1.1147,-33.78,-45.98,-73.11
745,318299786,-0.5210,-1.0469,-1.0435,-23.48,-33.90,-82.38
746,318304787,-0.4902,-0.9976,-0.9658,-16.83,-22.80,-91.22
747,318309787,-0.4575,-0.9575,-0.9082,-12.99,-12.50,-100.18
748,318314785,-0.4419,-0.9165,-0.8525,-11.04,-3.05,-108.60
749,318319787,-0.4370,-0.8784,-0.7808,-9.82,5.67,-116.65
750,318324786,-0.4507,-0.8506,-0.7227,-8.54,13.60,-124.39
751,318329785,-0.4507,-0.8276,-0.6616,-6.34,20.98,-131.34
752,318334789,-0.4600,-0.7998,-0.5981,-3.11,27.87,-137.80
753,318339791,-0.4771,-0.7793,-0.5557,1.46,33.72,-143.66
754,318344787,-0.4980,-0.7720,-0.5068,6.89,39.15,-149.09
755,318349786,-0.5273,-0.7651,-0.4746,12.99,43.96,-153.90
756,318354787,-0.5527,-0.7661,-0.4424,19.33,47.99,-158.11
757,318359785,-0.5635,-0.7759,-0.4048,25.73,51.16,-161.95
758,318364789,-0.6016,-0.7847,-0.3662,31.95,53.84,-165.24
759,318369786,-0.6064,-0.7993,-0.3516,37.93,56.10,-168.11
760,318374787,-0.5889,-0.8169,-0.3213,43.72,57.32,-170.73
761,318379788,-0.6001,-0.8320,-0.2915,49.15,58.48,-173.11
762,318384785,-0.6177,-0.8521,-0.2812,53.96,59.09,-175.06
763,318389785,-0.6328,-0.8647,-0.2715,58.54,59.27,-176.89
764,318394787,-0.6333,-0.8799,-0.2637,62.68,59.15,-178.41
765,318399788,-0.6309,-0.8901,-0.2559,66.65,58.72,-179.82
766,318404786,-0.6357,-0.8945,-0.2554,70.18,57.93,-180.91
767,318409787,-0.6494,-0.9004,-0.2500,73.66,56.83,-181.89
768,318414785,-0.6499,-0.9038,-0.2524,76.95,55.67,-182.62
769,318419787,-0.6416,-0.9131,-0.2656,80.55,54.39,-182.99
770,318424785,-0.6494,-0.9326,-0.2661,83.90,52.87,-183.05
771,318429787,-0.6675,-0.9390,-0.2671,87.44,51.34,-183.05
772,318434787,-0.6494,-0.9395,-0.2729,90.73,50.06,-182.68
773,318439787,-0.6372,-0.9580,-0.2817,94.02,48.66,-182.26
774,318444785,-0.6392,-0.9775,-0.2769,97.01,47.01,-181.52
775,318449787,-0.6431,-0.9917,-0.2666,99.45,45.61,-180.67
776,318454785,-0.6553,-0.9907,-0.2588,100.73,44.33,-179.88
777,318459787,-0.6724,-1.0312,-0.2476,100.30,42.87,-179.15
778,318464787,-0.6128,-1.0664,-0.2559,98.17,41.34,-178.23
779,318470166,-0.6025,-1.0605,-0.2461,94.21,39.33,-177.32
780,318474787,-0.5723,-1.0474,-0.2573,90.43,37.99,-176.95
781,318479786,-0.5234,-1.0298,-0.2515,85.12,36.40,-176.65
782,318484787,-0.4985,-1.0205,-0.2397,79.82,34.94,-176.59
783,318489785,-0.5005,-1.0205,-0.2280,74.39,33.78,-176.52
784,318494787,-0.5166,-1.0088,-0.1968,68.90,32.62,-176.52
785,318499786,-0.4824,-1.0088,-0.2085,63.35,31.65,-176.65
786,318504789,-0.4155,-0.9976,-0.2227,57.99,30.55,-176.65
787,318509786,-0.3794,-0.9639,-0.2241,53.11,29.76,-176.95
788,318514787,-0.3774,-0.9351,-0.2080,48.84,29.27,-177.38
789,318519786,-0.3657,-0.9253,-0.1978,45.12,28.90,-177.99
790,318524787,-0.3433,-0.9048,-0.2153,42.56,28.54,-178.35
791,318529786,-0.3145,-0.9106,-0.1831,41.04,28.41,-178.96
792,318534785,-0.2881,-0.8853,-0.1665,40.37,28.48,-179.57
793,318539789,-0.2471,-0.8667,-0.1675,40.37,28.60,-180.30
794,318544786,-0.2085,-0.8447,-0.1533,40.85,28.72,-181.22
795,318549785,-0.1719,-0.8267,-0.1226,41.95,29.21,-182.26
796,318554785,-0.1416,-0.8193,-0.1226,43.60,29.45,-183.29
797,318559785,-0.1089,-0.8164,-0.1035,45.61,29.70,-184.45
798,318564787,-0.0859,-0.8125,-0.0908,48.05,29.88,-185.49
799,318569788,-0.0654,-0.8022,-0.0801,50.85,29.94,-186.28
800,318574787,-0.0522,-0.7925,-0.0786,53.90,30.12,-187.20
801,318579787,-0.0381,-0.7808,-0.0693,56.95,30.30,-187.93
802,318584787,-0.0200,-0.7808,-0.0708,60.24,30.24,-188.48
803,318589787,-0.0049,-0.7729,-0.0762,63.29,30.24,-188.84
804,318594787,0.0107,-0.7710,-0.0664,66.28,30.24,-189.27
805,318599788,0.0234,-0.7646,-0.0605,69.21,30.00,-189.33
806,318604787,0.0488,-0.7485,-0.0591,71.34,30.06,-189.45
807,318609785,0.0703,-0.7368,-0.0620,73.29,29.82,-189.57
808,318614787,0.0933,-0.7271,-0.0571,74.70,29.63,-189.63
809,318619787,0.1206,-0.7139,-0.0503,75.30,29.57,-189.70
810,318624788,0.1348,-0.7036,-0.0542,75.37,29.39,-189.76
811,318629785,0.1577,-0.6929,-0.0420,74.63,29.27,-189.70
812,318634787,0.1768,-0.6870,-0.0371,73.29,29.21,-189.76
813,318639786,0.1978,-0.6802,-0.0337,71.28,29.45,-189.57
814,318644787,0.2124,-0.6758,-0.0288,68.84,29.57,-189.45
815,318649786,0.2300,-0.6748,-0.0200,66.22,29.76,-189.15
816,318654787,0.2485,-0.6646,-0.0166,63.60,30.18,-188.78
817,318659786,0.2646,-0.6567,-0.0142,61.16,30.49,-188.17
818,318664787,0.2749,-0.6421,-0.0122,58.90,30.91,-187.50
819,318669786,0.2852,-0.6313,-0.0054,57.07,31.46,-186.46
820,318674787,0.2925,-0.6138,-0.0063,55.55,31.89,-185.55
821,318679785,0.3042,-0.5972,-0.0054,54.39,32.56,-184.51
822,318684787,0.3174,-0.5811,-0.0112,53.17,33.17,-183.29
823,318689787,0.3389,-0.5649,0.0024,52.01,33.72,-182.07
824,318694787,0.3579,-0.5601,0.0073,50.61,34.51,-180.91
825,318699785,0.3745,-0.5557,0.0190,48.96,35.37,-179.70
826,318704785,0.3896,-0.5493,0.0249,47.01,36.28,-178.35
827,318709788,0.4121,-0.5430,0.0283,44.70,37.32,-177.07
828,318714786,0.4321,-0.5386,0.0342,42.07,38.48,-175.73
829,318719786,0.4448,-0.5273,0.0488,38.96,39.57,-174.39
830,318724785,0.4619,-0.5186,0.0542,35.67,40.73,-173.05
831,318729787,0.4727,-0.5044,0.0620,32.50,42.01,-171.52
832,318734786,0.4741,-0.5000,0.0610,29.76,43.41,-170.18
833,318739787,0.4678,-0.4834,0.0723,27.20,44.70,-168.54
834,318744787,0.4531,-0.4624,0.0713,25.37,45.98,-166.77
835,318749787,0.4497,-0.4395,0.0684,23.96,47.20,-165.06
836,318754785,0.4546,-0.4229,0.0850,23.23,48.29,-163.29
837,318759785,0.4688,-0.4082,0.0972,22.99,49.45,-161.52
838,318764787,0.4868,-0.3940,0.1099,22.99,50.43,-159.57
839,318769787,0.5107,-0.3818,0.1260,23.29,51.71,-157.74
840,318774787,0.5244,-0.3677,0.1392,23.35,52.62,-155.98
841,318779787,0.5415,-0.3662,0.1685,23.41,54.02,-154.15
842,318784785,0.5581,-0.3594,0.1792,22.87,55.49,-152.56
843,318789788,0.5615,-0.3726,0.1440,21.65,56.77,-150.61
844,318794787,0.5806,-0.3501,0.1133,17.62,57.13,-148.60
845,318799786,0.6104,-0.3345,0.1948,12.07,57.93,-146.77
846,318804787,0.6270,-0.3208,0.2612,6.10,59.88,-145.12
847,318810331,0.6265,-0.2876,0.2363,0.18,61.95,-143.41
848,318814787,0.6250,-0.2778,0.1924,-6.16,63.48,-142.26
849,318819787,0.6353,-0.2915,0.2671,-13.17,65.18,-140.30
850,318824785,0.6021,-0.2979,0.2842,-19.88,67.50,-137.80
851,318829785,0.5781,-0.2261,0.2271,-25.61,69.21,-135.12
852,318834789,0.6099,-0.2568,0.1465,-26.77,69.94,-133.78
853,318839785,0.6699,-0.2793,0.2427,-24.45,71.04,-132.80
854,318844787,0.7935,-0.1289,0.2339,-20.06,71.28,-131.71
855,318849785,0.8330,-0.1387,0.2622,-14.57,70.85,-130.73
856,318854787,0.8589,-0.1445,0.1777,-8.66,69.51,-129.63
857,318859786,0.8750,-0.1729,0.2026,-2.44,68.29,-128.60
858,318864787,0.9287,-0.2510,0.2104,4.70,66.46,-127.50
859,318869785,0.9341,-0.2764,0.2378,12.50,64.21,-126.16
860,318874787,0.9365,-0.2427,0.2046,20.18,62.07,-125.00
861,318879786,0.9390,-0.1733,0.2295,28.11,60.00,-123.90
862,318884787,0.9360,-0.1157,0.2705,36.16,58.35,-122.99
863,318890006,0.9375,-0.0850,0.2568,44.27,56.46,-122.07
864,318894787,0.9424,-0.0938,0.2388,52.38,54.33,-120.98
865,318899786,0.9277,-0.1265,0.2686,60.18,52.50,-119.94
866,318904787,0.9219,-0.1504,0.3193,67.93,50.98,-118.90
867,318909787,0.9351,-0.1470,0.3125,75.73,49.57,-117.93
868,318914786,0.9175,-0.1294,0.2974,83.35,47.99,-117.01
869,318919787,0.8813,-0.0732,0.3359,90.91,46.83,-116.10
870,318924788,0.8804,-0.0298,0.3774,98.17,45.98,-115.30
871,318929881,0.9146,-0.0039,0.3721,104.88,45.30,-114.63
872,318934789,0.9419,-0.0049,0.3657,111.40,44.33,-113.78
873,318939786,0.9453,-0.0205,0.4102,117.13,43.54,-112.80
874,318944787,0.9346,-0.0386,0.4263,122.44,42.80,-111.65
875,318949785,0.9253,-0.0371,0.3911,126.28,42.01,-110.67
876,318954787,0.9214,-0.0430,0.3872,129.57,40.73,-109.27
877,318959786,0.9155,0.0107,0.4189,132.07,40.12,-108.23
878,318964785,0.9136,0.0190,0.4028,134.09,38.96,-106.95
879,318969827,0.9082,0.0083,0.3833,135.24,37.38,-105.49
880,318974789,0.9121,-0.0059,0.3965,135.73,36.28,-103.90
881,318979786,0.9199,-0.0171,0.4116,135.37,35.06,-102.26
882,318984787,0.9170,0.0005,0.3984,134.70,33.72,-100.73
883,318989785,0.9238,0.0181,0.3926,133.35,32.20,-99.21
884,318994789,0.9268,0.0483,0.4062,131.65,30.85,-97.87
885,318999786,0.9160,0.0840,0.4282,129.51,29.94,-96.46
886,319004787,0.9023,0.1157,0.4189,128.84,28.66,-95.12
887,319009785,0.8862,0.1592,0.4126,126.83,27.32,-94.15
888,319014789,0.8853,0.1509,0.4175,125.43,26.10,-93.23
889,319019787,0.8833,0.1396,0.4365,123.66,24.76,-91.95
890,319024787,0.8804,0.1387,0.4258,121.65,23.54,-90.79
891,319029785,0.8843,0.1572,0.4287,119.02,21.89,-89.45
892,319034785,0.8833,0.1880,0.4409,116.04,20.61,-88.29
893,319039787,0.9360,0.2124,0.4478,112.13,19.09,-87.01
894,319044786,0.9526,0.2095,0.4331,107.56,17.56,-85.55
895,319049787,0.9492,0.2100,0.4287,102.13,15.79,-83.96
896,319054787,0.9365,0.2114,0.4438,96.22,14.27,-82.32
897,319059787,0.9175,0.2241,0.4233,89.63,12.50,-80.73
898,319064785,0.9180,0.2456,0.3999,82.80,10.79,-79.21
899,319069785,0.9248,0.2568,0.4009,76.04,8.66,-77.68
900,319074826,0.9277,0.2686,0.4033,69.57,6.65,-76.04
901,319079787,0.9321,0.2886,0.4048,63.60,4.76,-74.33
902,319084787,0.9316,0.3130,0.4092,58.11,3.05,-72.44
903,319089785,0.9351,0.3354,0.4209,53.35,1.46,-70.73
904,319094787,0.9351,0.3530,0.4380,49.33,0.06,-68.78
905,319099786,0.9307,0.3613,0.4380,46.04,-1.10,-67.07
906,319104787,0.9312,0.3706,0.4438,43.17,-2.07,-65.00
907,319109785,0.9346,0.3882,0.4487,40.85,-3.11,-62.87
908,319114787,0.9346,0.4043,0.4565,39.21,-3.84,-60.55
909,319119789,0.9395,0.4204,0.4546,37.87,-4.57,-58.17
910,319124787,0.9438,0.4326,0.4478,37.01,-5.12,-55.85
911,319129786,0.9409,0.4434,0.4629,36.71,-5.61,-53.48
912,319134787,0.9404,0.4575,0.4678,36.89,-5.91,-51.04
913,319139786,0.9463,0.4785,0.4727,37.93,-6.04,-48.60
914,319144787,0.9473,0.4932,0.4829,39.27,-5.98,-46.40
915,319149785,0.9448,0.5112,0.4937,41.46,-5.91,-43.96
916,319154787,0.9458,0.5298,0.5059,44.09,-5.43,-41.65
917,319159786,0.9458,0.5454,0.5107,46.95,-4.94,-39.45
918,319164787,0.9497,0.5557,0.5020,50.18,-4.51,-37.26
919,319169787,0.9536,0.5591,0.5088,53.60,-3.90,-34.88
920,319174785,0.9595,0.5664,0.5171,56.77,-3.35,-32.74
921,319179785,0.9644,0.5723,0.5151,60.06,-2.68,-30.67
922,319184788,0.9683,0.5742,0.5195,62.74,-2.07,-28.54
923,319189785,0.9722,0.5830,0.5176,65.06,-1.65,-26.46
924,319194788,0.9800,0.5850,0.5142,67.01,-1.04,-24.57
925,319199800,0.9805,0.5879,0.5156,68.23,-0.67,-22.62
926,319204789,0.9868,0.5850,0.5078,68.90,-0.43,-20.67
927,319209788,0.9883,0.5811,0.5112,68.78,0.00,-18.72
928,319214787,0.9863,0.5742,0.5103,68.35,0.18,-16.83
929,319219786,0.9824,0.5635,0.4990,66.83,0.43,-14.63
930,319224787,0.9849,0.5581,0.5049,65.30,0.37,-13.11
931,319229787,0.9849,0.5522,0.5044,63.35,0.43,-11.22
932,319234785,0.9839,0.5513,0.4971,60.85,0.37,-9.39
933,319239787,0.9868,0.5479,0.4844,58.35,0.37,-7.68
934,319244786,0.9873,0.5400,0.4854,55.73,0.12,-6.04
935,319249787,0.9878,0.5288,0.4844,52.87,0.06,-4.39
936,319254787,0.9897,0.5215,0.4800,50.06,-0.24,-2.80
937,319259787,0.9849,0.5103,0.4771,47.44,-0.49,-1.28
938,319264788,0.9883,0.5034,0.4756,45.12,-0.73,0.24
939,319269785,0.9878,0.4917,0.4761,43.05,-1.04,1.89
940,319274785,0.9834,0.4790,0.4736,41.22,-1.22,3.29
941,319279787,0.9795,0.4688,0.4731,39.94,-1.34,4.88
942,319284787,0.9751,0.4585,0.4639,38.90,-1.52,6.40
943,319289787,0.9717,0.4453,0.4688,38.29,-1.52,7.93
944,319294787,0.9683,0.4341,0.4702,38.17,-1.52,9.45
945,319299787,0.9668,0.4248,0.4678,38.54,-1.65,10.85
946,319304787,0.9619,0.4087,0.4697,39.15,-1.46,12.32
947,319309787,0.9658,0.3975,0.4673,40.00,-1.46,13.72
948,319314787,0.9590,0.3867,0.4595,41.46,-1.22,15.06
949,319320331,0.9614,0.3765,0.4570,43.29,-1.22,16.83
950,319324789,0.9644,0.3701,0.4629,44.70,-1.16,17.87
951,319329786,0.9614,0.3647,0.4551,46.59,-1.04,19.21
952,319334787,0.9644,0.3462,0.4497,48.72,-0.98,20.37
953,319339988,0.9644,0.3389,0.4546,50.85,-0.73,21.71
954,319344787,0.9717,0.3359,0.4546,53.11,-0.49,22.93
955,319349786,0.9692,0.3359,0.4551,55.37,-0.30,24.09
956,319354787,0.9756,0.3311,0.4546,57.68,0.00,25.06
957,319359785,0.9751,0.3306,0.4639,60.12,0.37,25.98
958,319364787,0.9780,0.3364,0.4683,62.38,0.85,26.71
959,319369786,0.9839,0.3394,0.4702,64.57,1.34,27.44
960,319374785,0.9873,0.3394,0.4712,66.46,1.95,27.80
961,319379785,0.9961,0.3389,0.4736,68.05,2.56,28.23
962,319384787,0.9956,0.3423,0.4790,69.39,3.11,28.41
963,319389786,1.0005,0.3486,0.4697,70.30,3.72,28.72
964,319394787,1.0068,0.3486,0.4775,70.67,4.21,28.78
965,319399785,1.0161,0.3467,0.4805,70.61,4.70,28.78
966,319404787,1.0181,0.3496,0.4849,70.18,5.00,28.78
967,319410277,1.0142,0.3525,0.4756,69.27,5.49,28.54
968,319414789,1.0103,0.3521,0.4736,67.74,5.73,28.48
969,319419786,1.0112,0.3496,0.4805,65.79,6.22,28.23
970,319424788,1.0112,0.3506,0.4736,63.48,6.40,27.99
971,319429785,1.0117,0.3521,0.4702,60.79,6.59,27.80
972,319434789,1.0049,0.3530,0.4653,57.74,6.77,27.38
973,319439786,1.0015,0.3589,0.4668,54.57,6.95,27.13
974,319444787,0.9990,0.3613,0.4697,51.22,7.01,26.65
975,319449785,0.9980,0.3667,0.4648,47.50,6.89,26.10
976,319454787,0.9907,0.3672,0.4629,44.02,6.89,25.67
977,319459786,0.9966,0.3657,0.4619,40.24,6.89,25.06
978,319464787,0.9897,0.3623,0.4619,36.34,6.77,24.57
979,319469785,0.9854,0.3608,0.4590,32.68,6.77,24.15
980,319474787,0.9805,0.3599,0.4463,28.96,6.52,23.60
981,319479785,0.9717,0.3594,0.4478,25.30,6.34,23.23
982,319484787,0.9678,0.3560,0.4487,21.71,5.98,22.74
983,319490259,0.9624,0.3530,0.4434,18.29,5.79,22.44
984,319494788,0.9570,0.3457,0.4326,15.37,5.55,22.07
985,319499787,0.9517,0.3428,0.4302,12.50,5.18,21.77
986,319504787,0.9438,0.3403,0.4321,10.18,4.76,21.71
987,319509786,0.9434,0.3354,0.4292,7.99,4.51,21.40
988,319514787,0.9326,0.3311,0.4233,6.28,4.15,21.34
989,319519787,0.9321,0.3315,0.4263,5.06,3.66,21.28
990,319524787,0.9238,0.3257,0.4214,3.90,3.23,21.16
991,319529786,0.9238,0.3242,0.4175,3.11,3.05,21.04
992,319534787,0.9229,0.3179,0.4150,2.74,2.56,21.04
993,319539788,0.9229,0.3223,0.4131,2.38,2.07,20.98
994,319544785,0.9233,0.3149,0.4131,2.56,1.65,20.98
995,319549785,0.9258,0.3101,0.4058,3.11,0.91,20.98
996,319554820,0.9229,0.3071,0.4033,3.54,0.37,21.10
997,319559785,0.9155,0.3022,0.4038,4.33,-0.18,21.16
998,319564785,0.9185,0.2993,0.4004,5.30,-0.67,21.40
999,319569785,0.9209,0.2944,0.3984,6.22,-1.28,21.65
1000,319574785,0.9189,0.2935,0.4038,7.56,-1.83,21.83
1001,319579785,0.9204,0.2915,0.4038,8.66,-2.50,22.07
1002,319585110,0.9219,0.2817,0.3994,10.18,-2.99,22.26
1003,319589789,0.9175,0.2778,0.4053,11.52,-3.66,22.44
1004,319594788,0.9209,0.2773,0.4023,12.93,-4.27,22.68
1005,319599787,0.9194,0.2769,0.4009,14.33,-4.51,22.93
1006,319604786,0.9233,0.2788,0.3945,15.73,-5.12,23.11
1007,319609787,0.9258,0.2773,0.3950,17.13,-5.67,23.23
1008,319614787,0.9292,0.2773,0.3989,18.66,-5.91,23.35
1009,319619787,0.9316,0.2773,0.3970,20.00,-6.40,23.48
1010,319624786,0.9326,0.2700,0.3999,21.40,-7.01,23.60
1011,319629787,0.9336,0.2705,0.4058,22.50,-7.44,23.60
1012,319634787,0.9375,0.2676,0.4033,23.78,-7.74,23.72
1013,319639788,0.9365,0.2676,0.3955,24.76,-8.05,23.66
1014,319644785,0.9419,0.2749,0.3960,25.67,-8.35,23.54
1015,319649787,0.9473,0.2798,0.3960,26.46,-8.72,23.35
1016,319654789,0.9482,0.2749,0.3896,27.01,-8.84,23.29
1017,319659786,0.9468,0.2754,0.3921,27.32,-9.21,22.99
1018,319664787,0.9512,0.2729,0.3950,27.44,-9.27,22.74
1019,319669786,0.9497,0.2700,0.3867,27.68,-9.51,22.50
1020,319674787,0.9434,0.2681,0.3931,27.44,-9.33,22.32
1021,319679785,0.9502,0.2661,0.3960,26.89,-9.51,22.13
1022,319684785,0.9492,0.2642,0.3936,26.52,-9.57,21.95
1023,319689787,0.9521,0.2583,0.3911,25.55,-9.45,21.52
1024,319694788,0.9517,0.2607,0.3887,24.51,-9.39,21.22
1025,319699787,0.9546,0.2573,0.3911,23.54,-9.33,20.91
1026,319704786,0.9482,0.2524,0.3833,22.50,-9.27,20.67
1027,319709787,0.9502,0.2441,0.3809,21.22,-9.21,20.49
1028,319714787,0.9492,0.2476,0.3774,20.30,-9.27,20.24
1029,319719787,0.9478,0.2471,0.3770,19.15,-9.15,20.06
1030,319724786,0.9487,0.2437,0.3774,17.99,-9.21,19.76
1031,319729787,0.9453,0.2397,0.3838,16.83,-9.15,19.57
1032,319734787,0.9443,0.2363,0.3755,15.91,-9.27,19.33
1033,319739787,0.9443,0.2354,0.3774,14.94,-9.09,19.15
1034,319744786,0.9419,0.2383,0.3691,14.21,-9.15,18.96
1035,319750184,0.9424,0.2383,0.3667,13.48,-9.15,18.66
1036,319754787,0.9336,0.2397,0.3687,13.11,-9.09,18.35
1037,319759786,0.9360,0.2339,0.3691,12.93,-9.02,18.11
1038,319764790,0.9331,0.2363,0.3687,13.05,-9.02,17.93
1039,319769787,0.9292,0.2334,0.3701,13.29,-9.02,17.74
1040,319774842,0.9224,0.2256,0.3682,13.84,-9.09,17.68
1041,319779785,0.9194,0.2183,0.3657,14.82,-9.02,17.56
1042,319784785,0.9204,0.2144,0.3633,16.04,-8.90,17.68
1043,319790393,0.9214,0.2075,0.3560,17.93,-8.96,17.74
1044,319794787,0.9243,0.2080,0.3535,19.51,-9.02,17.93
1045,319799786,0.9263,0.2168,0.3545,21.89,-9.09,18.05
1046,319804787,0.9268,0.2114,0.3501,24.27,-9.09,18.23
1047,319809786,0.9302,0.2109,0.3477,26.83,-9.15,18.29
1048,319815075,0.9351,0.2139,0.3511,30.00,-9.33,18.48
1049,319819787,0.9380,0.2129,0.3525,31.95,-9.39,18.41
1050,319825186,0.9380,0.2124,0.3481,34.45,-9.45,18.54
1051,319829787,0.9375,0.2153,0.3486,35.91,-9.57,18.60
1052,319834787,0.9409,0.2114,0.3423,37.20,-9.63,18.66
1053,319839787,0.9395,0.2095,0.3384,38.05,-9.70,18.72
1054,319844787,0.9453,0.2051,0.3428,38.29,-9.82,18.72
1055,319849785,0.9473,0.2061,0.3394,37.93,-9.94,18.84
1056,319854787,0.9512,0.2095,0.3345,37.13,-10.12,18.84
1057,319859786,0.9556,0.2065,0.3311,35.91,-10.24,18.72
1058,319864787,0.9600,0.2021,0.3267,34.27,-10.43,18.90
1059,319869786,0.9585,0.2017,0.3252,32.32,-10.67,18.90
1060,319874787,0.9595,0.1997,0.3242,30.06,-10.91,18.96
1061,319879786,0.9639,0.2012,0.3203,27.74,-11.22,18.90
1062,319884785,0.9658,0.1992,0.3232,25.30,-11.34,18.84
1063,319889785,0.9727,0.2007,0.3125,22.74,-11.46,18.84
1064,319894787,0.9722,0.2041,0.3120,20.30,-11.65,18.72
1065,319899787,0.9780,0.2080,0.3120,17.80,-11.77,18.54
1066,319904787,0.9766,0.2041,0.3096,15.55,-12.01,18.54
1067,319909786,0.9819,0.2017,0.3081,13.29,-12.01,18.29
1068,319914787,0.9810,0.2031,0.3003,11.34,-12.07,18.17
1069,319919786,0.9795,0.2007,0.3091,9.39,-12.01,17.93
1070,319924785,0.9829,0.1992,0.3057,7.87,-11.95,17.68
1071,319929789,0.9775,0.1963,0.3037,6.22,-12.01,17.56
1072,319934787,0.9795,0.1924,0.3013,4.88,-11.77,17.32
1073,319939787,0.9844,0.1846,0.3022,3.48,-11.77,17.07
1074,319944785,0.9849,0.1831,0.2959,2.20,-11.71,16.95
1075,319949787,0.9873,0.1797,0.2949,1.10,-11.65,16.83
1076,319955255,0.9873,0.1792,0.2983,-0.30,-11.59,16.59
1077,319959787,0.9858,0.1831,0.2827,-1.04,-11.40,16.40
1078,319964787,0.9858,0.1841,0.2871,-2.01,-11.59,16.16
1079,319969787,0.9878,0.1758,0.2842,-2.74,-11.52,16.04
1080,319974786,0.9863,0.1724,0.2856,-3.29,-11.46,15.79
1081,319979787,0.9868,0.1758,0.2832,-3.72,-11.34,15.49
1082,319984787,0.9849,0.1719,0.2817,-3.84,-11.28,15.24
1083,319989787,0.9839,0.1665,0.2886,-4.15,-11.34,14.94
1084,319994786,0.9834,0.1680,0.2827,-4.15,-11.22,14.76
1085,319999787,0.9814,0.1641,0.2773,-4.02,-11.10,14.57
1086,320004787,0.9800,0.1621,0.2793,-3.90,-10.98,14.33
1087,320009787,0.9771,0.1582,0.2769,-3.54,-10.91,14.27
1088,320014875,0.9727,0.1558,0.2720,-3.17,-10.85,14.02
1089,320019787,0.9717,0.1519,0.2749,-2.74,-10.73,13.90
1090,320024787,0.9707,0.1450,0.2705,-2.38,-10.61,13.90
1091,320029788,0.9712,0.1421,0.2773,-1.89,-10.61,13.78
1092,320034786,0.9653,0.1392,0.2759,-1.22,-10.61,13.78
1093,320039787,0.9648,0.1338,0.2729,-0.85,-10.55,13.72
1094,320044786,0.9648,0.1367,0.2720,-0.06,-10.49,13.72
1095,320049787,0.9624,0.1309,0.2778,0.73,-10.49,13.60
1096,320054786,0.9590,0.1318,0.2769,1.40,-10.49,13.66
1097,320059787,0.9604,0.1299,0.2764,2.32,-10.24,13.54
1098,320064787,0.9570,0.1304,0.2734,3.05,-10.12,13.48
1099,320069787,0.9600,0.1270,0.2720,3.96,-10.12,13.41
1100,320074786,0.9595,0.1270,0.2725,4.70,-9.88,13.29
1101,320079787,0.9639,0.1304,0.2700,5.67,-9.63,13.17
1102,320084787,0.9634,0.1362,0.2734,6.46,-9.39,13.05
1103,320089787,0.9648,0.1309,0.2769,7.38,-9.33,12.99
1104,320095288,0.9629,0.1343,0.2759,8.29,-9.02,12.80
1105,320099787,0.9619,0.1372,0.2690,8.90,-8.84,12.56
1106,320104787,0.9604,0.1333,0.2754,9.39,-8.72,12.44
1107,320109787,0.9580,0.1353,0.2769,9.94,-8.48,12.26
1108,320114786,0.9604,0.1289,0.2769,10.18,-8.29,12.13
1109,320119788,0.9604,0.1240,0.2812,10.24,-8.05,12.07
1110,320124788,0.9595,0.1211,0.2744,10.06,-7.99,12.01
1111,320129787,0.9644,0.1230,0.2725,9.70,-7.74,11.83
1112,320134786,0.9609,0.1221,0.2715,9.21,-7.56,11.77
1113,320139787,0.9678,0.1226,0.2729,8.72,-7.44,11.77
1114,320144787,0.9658,0.1177,0.2720,7.99,-7.38,11.65
1115,320149787,0.9658,0.1138,0.2715,7.20,-7.01,11.52
1116,320154786,0.9663,0.1123,0.2734,6.28,-6.95,11.40
1117,320159808,0.9668,0.1147,0.2705,5.43,-6.83,11.28
1118,320164993,0.9653,0.1147,0.2739,4.63,-6.77,11.10
1119,320169788,0.9702,0.1108,0.2710,3.90,-6.71,11.10
1120,320174787,0.9717,0.1133,0.2705,3.11,-6.65,10.85
1121,320179787,0.9722,0.1143,0.2725,2.38,-6.59,10.67
1122,320184786,0.9736,0.1118,0.2739,1.77,-6.46,10.55
1123,320189786,0.9795,0.1138,0.2759,1.46,-6.52,10.24
1124,320194788,0.9795,0.1113,0.2739,1.10,-6.28,10.06
1125,320199787,0.9746,0.1133,0.2749,0.79,-6.16,9.70
1126,320204787,0.9800,0.1084,0.2744,0.61,-6.10,9.51
1127,320209786,0.9834,0.1113,0.2700,0.61,-5.91,9.21
1128,320214785,0.9834,0.1094,0.2754,0.61,-6.04,8.90
1129,320219788,0.9854,0.1118,0.2739,0.73,-5.79,8.66
1130,320224787,0.9844,0.1113,0.2769,1.04,-5.73,8.35
1131,320229787,0.9829,0.1147,0.2778,1.46,-5.43,7.87
1132,320234786,0.9829,0.1138,0.2759,1.77,-5.37,7.62
1133,320239787,0.9868,0.1133,0.2812,2.13,-5.37,7.32
1134,320244787,0.9888,0.1118,0.2803,2.74,-5.12,7.07
1135,320249787,0.9858,0.1108,0.2783,3.17,-5.12,6.89
1136,320254788,0.9888,0.1138,0.2773,3.60,-4.88,6.46
1137,320259787,0.9897,0.1143,0.2803,3.84,-4.94,6.22
1138,320264787,0.9937,0.1099,0.2783,4.21,-4.70,6.04
1139,320269787,0.9907,0.1143,0.2739,4.27,-4.57,5.67
1140,320274786,0.9868,0.1089,0.2656,4.27,-4.57,5.55
1141,320279901,0.9897,0.1045,0.2681,4.45,-4.45,5.24
1142,320284789,0.9873,0.1069,0.2715,4.39,-4.39,5.06
1143,320289786,0.9800,0.1064,0.2676,4.33,-4.45,4.88
1144,320294785,0.9849,0.1064,0.2720,4.15,-4.33,4.70
1145,320299818,0.9868,0.1006,0.2666,3.96,-4.27,4.57
1146,320304787,0.9897,0.1016,0.2651,3.66,-4.27,4.45
1147,320309786,0.9819,0.0991,0.2676,3.35,-4.27,4.39
1148,320314787,0.9849,0.1025,0.2676,3.23,-4.27,4.27
1149,320319786,0.9849,0.0942,0.2651,2.99,-4.33,4.15
1150,320324787,0.9819,0.0981,0.2622,2.93,-4.27,4.02
1151,320329788,0.9800,0.0962,0.2617,2.80,-4.21,3.90
1152,320334788,0.9839,0.1006,0.2661,2.68,-4.15,3.84
1153,320339787,0.9814,0.0967,0.2622,2.68,-4.27,3.72
1154,320344787,0.9800,0.1006,0.2622,2.62,-4.09,3.66
1155,320349848,0.9800,0.1060,0.2593,2.74,-3.96,3.60
1156,320354787,0.9795,0.1050,0.2627,2.74,-4.15,3.48
1157,320360099,0.9839,0.0967,0.2642,2.93,-4.09,3.35
1158,320364787,0.9814,0.1045,0.2632,3.11,-4.02,3.17
1159,320369786,0.9775,0.1035,0.2622,3.11,-3.90,3.17
1160,320374787,0.9873,0.1025,0.2661,3.23,-3.78,3.05
1161,320379787,0.9810,0.1011,0.2666,3.41,-3.78,2.93
1162,320384786,0.9824,0.0991,0.2622,3.60,-3.66,2.80
1163,320389787,0.9849,0.1064,0.2603,3.78,-3.60,2.68
1164,320394788,0.9844,0.1045,0.2598,3.90,-3.60,2.68
1165,320399785,0.9858,0.1045,0.2656,4.09,-3.41,2.56
1166,320404785,0.9834,0.1025,0.2627,4.33,-3.17,2.56
1167,320409787,0.9858,0.1040,0.2559,4.45,-3.23,2.44
1168,320414787,0.9863,0.1035,0.2593,4.57,-3.17,2.38
1169,320419785,0.9907,0.1045,0.2656,4.76,-2.99,2.26
1170,320425023,0.9863,0.1025,0.2646,4.88,-2.80,2.26
1171,320429814,0.9834,0.1074,0.2681,4.94,-2.74,2.20
1172,320434786,0.9854,0.1133,0.2651,5.06,-2.62,2.01
1173,320439787,0.9854,0.1133,0.2622,5.06,-2.62,1.83
1174,320444786,0.9858,0.1128,0.2617,5.18,-2.50,1.65
1175,320449789,0.9878,0.1108,0.2739,5.30,-2.44,1.52
1176,320454786,0.9858,0.1172,0.2622,5.18,-2.32,1.28
1177,320459785,0.9883,0.1143,0.2661,5.24,-2.32,1.16
1178,320464787,0.9912,0.1177,0.2651,5.12,-2.20,1.04
1179,320469786,0.9897,0.1133,0.2651,5.24,-2.32,0.98
1180,320474789,0.9897,0.1123,0.2642,5.12,-2.20,0.85
1181,320479787,0.9873,0.1079,0.2583,5.18,-2.01,0.79
1182,320484787,0.9917,0.1094,0.2705,5.06,-2.01,0.85
1183,320489789,0.9883,0.1060,0.2666,5.00,-1.95,0.79
1184,320494787,0.9883,0.1074,0.2612,4.76,-1.89,0.79
1185,320499785,0.9883,0.1104,0.2603,4.82,-1.77,0.85
1186,320505269,0.9883,0.1060,0.2632,4.70,-1.65,0.91
1187,320509787,0.9873,0.1079,0.2637,4.82,-1.65,0.91
1188,320514786,0.9868,0.1113,0.2637,4.63,-1.59,0.98
1189,320519787,0.9863,0.1118,0.2607,4.63,-1.52,0.98
1190,320524786,0.9854,0.1108,0.2642,4.51,-1.34,0.98
1191,320529787,0.9873,0.1147,0.2578,4.51,-1.40,1.10
1192,320534786,0.9907,0.1157,0.2559,4.57,-1.34,1.10
1193,320539787,0.9937,0.1147,0.2627,4.57,-1.34,1.16
1194,320544785,0.9893,0.1152,0.2632,4.57,-1.34,1.16
1195,320549785,0.9902,0.1177,0.2534,4.57,-1.22,1.22
1196,320554789,0.9907,0.1152,0.2563,4.76,-1.10,1.40
1197,320559863,0.9897,0.1172,0.2515,4.63,-1.28,1.52
1198,320564787,0.9897,0.1167,0.2612,4.70,-1.22,1.65
1199,320569787,0.9912,0.1152,0.2563,4.76,-1.22,1.71
1200,320574891,0.9902,0.1172,0.2549,4.76,-1.16,1.89
1201,320579788,0.9941,0.1226,0.2588,5.06,-1.16,2.01
1202,320584787,0.9946,0.1221,0.2539,5.06,-1.16,2.20
1203,320589787,0.9912,0.1177,0.2544,5.18,-1.16,2.32
1204,320594787,0.9946,0.1206,0.2505,5.30,-1.22,2.50
1205,320599785,0.9946,0.1226,0.2505,5.55,-1.28,2.74
1206,320604785,0.9897,0.1191,0.2612,5.73,-1.16,2.87
1207,320609787,0.9863,0.1191,0.2593,5.98,-1.10,2.99
1208,320614787,0.9868,0.1177,0.2603,6.16,-1.04,3.17
1209,320619786,0.9897,0.1152,0.2671,6.40,-0.91,3.48
1210,320624787,0.9814,0.1162,0.2642,6.65,-0.91,3.66
1211,320629786,0.9814,0.1162,0.2598,6.77,-0.91,4.02
1212,320634789,0.9785,0.1172,0.2617,6.95,-0.79,4.39
1213,320639787,0.9775,0.1157,0.2559,7.26,-0.73,4.57
1214,320644787,0.9819,0.1152,0.2617,7.56,-0.73,4.76
1215,320649789,0.9780,0.1187,0.2588,7.80,-0.73,5.06
1216,320654788,0.9819,0.1147,0.2632,7.99,-0.79,5.30
1217,320659786,0.9780,0.1191,0.2612,8.29,-0.67,5.49
