# skilleye imu stream v1
# device=xiao_esp32c6 imu=mpu6050 addr=0x68
# rate_hz=200 accel_range_g=16 gyro_range_dps=2000 dlpf_hz=94
# units: accel in g, gyro in deg/s, t_us in microseconds since boot (monotonic)
# no shared clock with the camera -- tap the racket once before each take
# so both recordings share a spike to align on
seq,t_us,ax,ay,az,gx,gy,gz
0,102884843,0.9443,0.0625,-0.1401,-2.99,-7.93,10.61
1,102889846,0.9419,0.0615,-0.1367,-2.93,-7.68,10.73
2,102894842,0.9419,0.0615,-0.1387,-2.80,-7.68,10.85
3,102899843,0.9419,0.0601,-0.1367,-2.68,-7.62,10.79
4,102904842,0.9390,0.0601,-0.1401,-2.56,-7.50,10.91
5,102909845,0.9390,0.0581,-0.1406,-2.38,-7.44,11.04
6,102914842,0.9375,0.0576,-0.1343,-2.07,-7.26,11.16
7,102919841,0.9409,0.0581,-0.1406,-1.83,-7.13,11.16
8,102924843,0.9346,0.0610,-0.1362,-1.59,-7.01,11.22
9,102930351,0.9404,0.0635,-0.1445,-1.28,-6.95,11.22
10,102934843,0.9390,0.0615,-0.1392,-1.04,-7.01,11.22
11,102939844,0.9399,0.0620,-0.1440,-0.79,-7.01,11.22
12,102944843,0.9409,0.0610,-0.1450,-0.61,-6.95,11.16
13,102949842,0.9419,0.0596,-0.1455,-0.30,-6.89,11.28
14,102954930,0.9438,0.0596,-0.1499,-0.12,-6.89,11.34
15,102960131,0.9448,0.0557,-0.1509,0.06,-6.89,11.40
16,102964843,0.9502,0.0576,-0.1504,0.12,-6.77,11.40
17,102969841,0.9473,0.0503,-0.1523,0.24,-6.65,11.59
18,102974843,0.9478,0.0498,-0.1514,0.12,-6.65,11.59
19,102979889,0.9492,0.0469,-0.1479,0.18,-6.52,11.71
20,102984842,0.9502,0.0464,-0.1533,-0.06,-6.52,11.83
21,102989841,0.9526,0.0513,-0.1533,-0.18,-6.46,11.95
22,102994844,0.9570,0.0479,-0.1489,-0.49,-6.22,12.07
23,102999843,0.9556,0.0483,-0.1523,-0.85,-6.16,12.26
24,103004843,0.9595,0.0493,-0.1538,-1.22,-6.04,12.38
25,103009843,0.9590,0.0542,-0.1665,-1.77,-6.04,12.38
26,103014841,0.9561,0.0527,-0.1646,-2.26,-5.98,12.56
27,103019845,0.9585,0.0596,-0.1660,-2.99,-5.98,12.62
28,103024842,0.9551,0.0581,-0.1685,-3.72,-5.91,12.62
29,103029843,0.9580,0.0552,-0.1738,-4.45,-5.98,12.80
30,103034842,0.9551,0.0542,-0.1841,-5.00,-5.98,12.93
31,103039843,0.9541,0.0513,-0.1846,-5.79,-5.98,13.05
32,103044842,0.9565,0.0513,-0.1841,-6.34,-5.98,13.29
33,103049843,0.9570,0.0493,-0.1899,-7.07,-6.04,13.48
34,103054842,0.9541,0.0444,-0.1875,-7.74,-6.16,13.66
35,103059841,0.9551,0.0410,-0.1929,-8.41,-6.10,13.90
36,103064843,0.9521,0.0356,-0.1987,-9.09,-6.22,14.33
37,103069841,0.9556,0.0356,-0.2002,-9.70,-6.10,14.63
38,103074842,0.9536,0.0371,-0.2026,-10.49,-6.22,15.00
39,103080334,0.9541,0.0410,-0.2046,-11.59,-6.46,15.30
40,103084843,0.9590,0.0498,-0.1953,-12.38,-6.40,15.55
41,103089843,0.9590,0.0527,-0.2114,-13.54,-6.40,15.73
42,103094843,0.9585,0.0576,-0.2202,-14.51,-6.52,15.85
43,103099842,0.9565,0.0674,-0.2236,-15.73,-6.59,16.04
44,103104843,0.9521,0.0679,-0.2061,-16.95,-6.65,16.22
45,103109846,0.8662,0.1060,-0.1802,-18.54,-7.01,15.98
46,103114842,0.8555,0.1489,-0.2246,-20.43,-7.13,15.55
47,103119841,0.9458,0.1387,-0.2954,-22.62,-7.87,15.12
48,103124846,0.9814,0.0840,-0.2417,-24.82,-8.29,14.70
49,103129843,0.9404,0.0454,-0.2036,-26.71,-8.29,14.70
50,103134842,0.8774,0.0181,-0.2788,-28.72,-8.54,14.70
51,103139843,0.8770,-0.0186,-0.2871,-30.79,-9.27,14.76
52,103144842,0.8892,-0.0293,-0.1963,-32.56,-9.51,14.94
53,103149965,0.9189,-0.0059,-0.1890,-34.45,-9.39,15.00
54,103154843,0.9316,0.0078,-0.3096,-36.16,-9.82,14.88
55,103159843,0.9204,-0.0034,-0.2974,-38.29,-10.49,14.82
56,103164843,0.8691,-0.0225,-0.2427,-40.91,-10.73,14.94
57,103169841,0.8481,-0.0010,-0.3281,-44.76,-11.71,14.82
58,103174841,0.8486,0.0308,-0.3569,-48.78,-13.29,14.63
59,103179844,0.8306,0.0640,-0.2603,-52.20,-14.39,14.45
60,103184843,0.7617,0.0322,-0.0947,-54.57,-14.27,14.27
61,103189843,0.8408,0.0103,-0.1660,-55.79,-14.33,14.27
62,103194844,0.9038,0.0225,-0.3330,-56.65,-15.37,14.09
63,103199844,0.9399,0.0166,-0.2925,-57.50,-16.28,13.90
64,103204893,0.9541,0.0288,-0.1802,-58.60,-16.46,13.72
65,103209844,0.9570,0.0420,-0.2158,-59.33,-16.89,13.54
66,103214843,0.9658,0.0498,-0.3101,-59.82,-17.87,13.11
67,103219841,0.9590,0.0547,-0.2402,-60.06,-18.66,12.93
68,103224843,0.9385,0.0376,-0.1924,-59.94,-18.66,12.93
69,103229842,0.9316,0.0210,-0.2471,-59.88,-18.96,12.93
70,103234845,0.9380,0.0029,-0.2422,-59.57,-19.57,13.11
71,103239843,0.9438,-0.0088,-0.1538,-58.78,-19.57,13.29
72,103244843,0.9849,0.0034,-0.1611,-57.80,-19.39,13.54
73,103249841,0.9961,0.0181,-0.2285,-56.95,-19.39,13.84
74,103254891,0.9863,0.0210,-0.2319,-55.91,-19.70,14.09
75,103259844,1.0049,0.0376,-0.1792,-54.76,-19.57,14.39
76,103264843,1.0107,0.0503,-0.1948,-54.02,-19.33,14.51
77,103269844,1.0098,0.0518,-0.2246,-53.72,-19.51,14.76
78,103274843,0.9741,0.0625,-0.1978,-53.17,-19.45,15.06
79,103279841,0.9023,0.0327,-0.1450,-52.80,-19.09,15.30
80,103284843,0.9351,0.0337,-0.1333,-51.71,-18.54,15.73
81,103290040,0.9404,0.0317,-0.1562,-50.30,-18.35,16.16
82,103294955,0.9341,0.0342,-0.1616,-48.41,-18.05,16.71
83,103299845,0.9233,0.0542,-0.1538,-46.46,-17.80,17.07
84,103304842,0.7344,0.0273,-0.1157,-44.45,-17.13,17.56
85,103309843,0.8555,0.0889,-0.1436,-42.50,-16.52,17.87
86,103314841,0.8511,0.0923,-0.1792,-40.49,-16.28,18.05
87,103319845,0.8960,0.0977,-0.2036,-38.23,-16.40,18.11
88,103324842,0.9463,0.0869,-0.1187,-36.04,-16.10,18.17
89,103329841,0.9941,0.0767,-0.1147,-33.72,-15.55,18.29
90,103334843,1.0503,0.0957,-0.2417,-31.16,-15.85,18.11
91,103339845,1.0796,0.1323,-0.2734,-28.54,-16.22,17.93
92,103344842,1.0854,0.1675,-0.1704,-25.73,-16.16,17.68
93,103349843,1.1104,0.1982,-0.1641,-22.80,-15.91,17.50
94,103354841,1.0986,0.1968,-0.2241,-19.88,-16.04,17.26
95,103359845,1.0288,0.1689,-0.2061,-17.07,-16.34,17.13
96,103364842,0.9512,0.1323,-0.1240,-14.09,-15.91,17.20
97,103370392,0.9067,0.0991,-0.1245,-11.28,-15.49,17.56
98,103374844,0.8877,0.0850,-0.1729,-8.41,-15.37,17.74
99,103379843,0.7866,0.0679,-0.1255,-5.61,-15.24,18.23
100,103384844,0.6489,-0.0132,-0.0229,-2.80,-14.70,18.84
101,103389844,0.6753,-0.0391,-0.0635,0.43,-14.02,19.76
102,103394843,0.7197,-0.0249,-0.1885,3.78,-14.02,20.61
103,103399843,0.7642,0.0137,-0.2480,7.13,-14.63,21.40
104,103404843,0.8340,0.0679,-0.1714,10.43,-14.76,22.13
105,103409841,0.8921,0.1191,-0.2075,13.66,-14.88,22.74
106,103414843,1.0068,0.1636,-0.2939,16.52,-15.55,22.99
107,103420216,1.1157,0.1997,-0.2954,19.27,-16.28,23.11
108,103424843,1.1821,0.2310,-0.2324,21.46,-16.52,22.99
109,103429953,1.1519,0.2163,-0.2402,22.56,-16.71,22.68
110,103434841,1.0312,0.1904,-0.2554,22.93,-17.01,22.56
111,103439845,0.9346,0.1426,-0.1748,23.17,-16.83,22.38
112,103444842,0.8740,0.0869,-0.1108,22.99,-16.10,22.62
113,103449843,0.8765,0.0557,-0.1582,22.32,-15.43,23.11
114,103454841,0.9077,0.0386,-0.2231,20.61,-14.94,23.78
115,103459843,0.9375,0.0298,-0.2007,17.99,-14.51,24.33
116,103464842,0.9497,0.0234,-0.1660,14.27,-13.41,24.82
117,103470114,0.9526,0.0078,-0.1992,9.76,-12.38,25.55
118,103474843,0.9395,0.0039,-0.2241,4.27,-11.59,25.98
119,103479844,0.9302,-0.0015,-0.2085,-1.65,-10.55,26.59
120,103484843,0.9253,-0.0059,-0.1982,-7.87,-9.39,27.20
121,103489967,0.9233,-0.0122,-0.2173,-14.21,-8.29,27.62
122,103494843,0.9224,-0.0195,-0.2305,-20.61,-7.20,28.54
123,103499843,0.9189,-0.0317,-0.2090,-26.95,-5.98,29.15
124,103504843,0.9160,-0.0410,-0.2163,-32.93,-4.76,29.88
125,103509842,0.8989,-0.0396,-0.2236,-38.78,-3.48,30.79
126,103514843,0.8945,-0.0361,-0.2207,-42.87,-2.74,31.52
127,103519844,0.8765,-0.0400,-0.2188,-48.84,-1.16,32.68
128,103524843,0.8657,-0.0366,-0.2285,-52.44,-0.12,33.41
129,103529841,0.8569,-0.0303,-0.2388,-56.59,1.04,34.45
130,103534845,0.8384,-0.0239,-0.2344,-60.85,2.38,35.73
131,103540365,0.8335,-0.0166,-0.2344,-63.96,3.60,36.71
132,103544844,0.8315,-0.0083,-0.2397,-65.98,4.51,37.68
133,103549843,0.8223,0.0054,-0.2412,-68.05,5.67,38.72
134,103554843,0.8145,0.0195,-0.2451,-69.45,6.83,39.76
135,103559842,0.8135,0.0381,-0.2417,-70.18,7.74,40.67
136,103564843,0.8057,0.0493,-0.2441,-70.30,8.78,41.71
137,103569843,0.8013,0.0557,-0.2495,-69.76,9.51,42.50
138,103574843,0.7974,0.0659,-0.2471,-68.48,10.43,43.48
139,103579844,0.7900,0.0708,-0.2524,-66.52,11.22,44.39
140,103584843,0.7852,0.0781,-0.2559,-63.96,11.95,45.24
141,103589841,0.7812,0.0801,-0.2446,-60.85,12.56,46.16
142,103595016,0.7764,0.0869,-0.2441,-56.59,13.41,47.26
143,103599843,0.7695,0.0864,-0.2407,-53.11,13.84,47.99
144,103604842,0.7632,0.0913,-0.2446,-48.54,14.21,48.84
145,103610306,0.7563,0.0894,-0.2393,-42.56,14.94,49.82
146,103614843,0.7544,0.0908,-0.2471,-38.17,15.24,50.55
147,103619844,0.7544,0.0859,-0.2441,-32.56,15.37,51.46
148,103624843,0.7500,0.0796,-0.2480,-26.34,15.67,52.38
149,103629841,0.7510,0.0757,-0.2393,-19.76,15.98,53.23
150,103634841,0.7524,0.0767,-0.2417,-12.99,16.04,54.09
151,103639842,0.7529,0.0693,-0.2441,-5.91,16.22,54.88
152,103644843,0.7529,0.0630,-0.2441,1.46,16.28,55.79
153,103649843,0.7544,0.0532,-0.2432,8.90,16.46,56.59
154,103654843,0.7568,0.0386,-0.2407,16.46,16.40,57.38
155,103659842,0.7578,0.0249,-0.2456,24.02,16.40,58.29
156,103664843,0.7583,0.0078,-0.2466,31.34,16.40,59.15
157,103669843,0.7593,-0.0049,-0.2563,38.35,16.28,59.94
158,103674843,0.7607,-0.0195,-0.2510,45.18,16.16,60.79
159,103680155,0.7603,-0.0332,-0.2534,52.87,16.28,61.77
160,103684844,0.7651,-0.0454,-0.2476,57.50,16.16,62.44
161,103689843,0.7764,-0.0522,-0.2441,62.80,16.10,63.17
162,103694842,0.7881,-0.0610,-0.2334,67.56,16.22,63.78
163,103699845,0.7974,-0.0698,-0.2236,71.59,16.40,64.27
164,103704841,0.8115,-0.0742,-0.2134,75.12,16.52,64.70
165,103709843,0.8218,-0.0820,-0.2109,77.99,16.77,65.06
166,103714842,0.8350,-0.0908,-0.2080,80.49,16.89,65.18
167,103719841,0.8433,-0.1035,-0.1997,82.56,17.13,65.49
168,103724843,0.8442,-0.1104,-0.1963,84.15,17.38,65.73
169,103729845,0.8428,-0.1250,-0.2026,85.55,17.56,65.85
170,103734842,0.8428,-0.1323,-0.2065,86.77,17.50,65.79
171,103739841,0.8354,-0.1426,-0.2246,87.68,17.62,66.04
172,103744845,0.8325,-0.1475,-0.2358,88.23,17.26,66.04
173,103749843,0.8296,-0.1616,-0.2588,88.78,16.95,66.10
174,103754842,0.8257,-0.1807,-0.2754,89.09,16.22,66.28
175,103759843,0.8154,-0.1885,-0.2827,89.45,15.43,66.52
176,103764841,0.8179,-0.2031,-0.2930,89.27,14.51,66.71
177,103769844,0.8223,-0.2134,-0.2954,88.96,13.60,66.95
178,103774842,0.8262,-0.2227,-0.3066,88.17,12.50,67.38
179,103779845,0.8408,-0.2266,-0.3179,87.07,11.28,67.87
180,103784841,0.8516,-0.2305,-0.3198,85.24,10.18,68.35
181,103789841,0.8633,-0.2368,-0.3237,83.11,8.78,68.78
182,103794845,0.8721,-0.2490,-0.3232,80.49,7.62,69.51
183,103799843,0.8833,-0.2598,-0.3262,77.26,6.46,70.43
184,103804843,0.8872,-0.2773,-0.3286,73.60,5.12,71.16
185,103809844,0.9004,-0.2896,-0.3320,69.33,3.90,72.20
186,103814843,0.9111,-0.3003,-0.3340,64.51,2.50,73.41
187,103819841,0.9268,-0.3115,-0.3257,59.15,1.34,74.63
188,103824844,0.9375,-0.3218,-0.3105,53.41,-0.06,76.10
189,103829843,0.9541,-0.3345,-0.3003,46.89,-1.22,77.56
190,103834841,0.9692,-0.3447,-0.2749,39.88,-2.13,78.90
191,103839843,0.9927,-0.3511,-0.2544,32.26,-3.05,80.49
192,103844842,1.0078,-0.3618,-0.2368,23.96,-3.60,82.13
193,103849843,1.0317,-0.3735,-0.2202,15.30,-3.96,83.84
194,103854841,1.0469,-0.3809,-0.1953,6.16,-4.33,85.30
195,103859841,1.0605,-0.3911,-0.1855,-3.17,-4.51,87.32
196,103864843,1.0684,-0.3984,-0.1753,-12.68,-4.63,89.21
197,103869845,1.0723,-0.4028,-0.1650,-22.01,-4.82,91.16
198,103874842,1.0684,-0.4023,-0.1582,-31.34,-4.94,93.11
199,103879845,1.0640,-0.3975,-0.1572,-42.20,-5.12,95.55
200,103884843,1.0601,-0.3911,-0.1592,-49.15,-5.37,97.13
201,103889841,1.0435,-0.3813,-0.1514,-57.50,-5.73,98.90
202,103894844,1.0347,-0.3672,-0.1465,-65.00,-6.22,100.67
203,103899843,1.0259,-0.3579,-0.1587,-71.95,-6.77,102.38
204,103904841,1.0107,-0.3394,-0.1509,-78.11,-7.62,103.90
205,103909841,1.0005,-0.3301,-0.1465,-83.35,-8.35,105.37
206,103914845,0.9888,-0.3188,-0.1426,-87.93,-9.39,106.52
207,103919843,0.9873,-0.2935,-0.1426,-91.71,-10.18,107.44
208,103924842,0.9990,-0.2808,-0.1245,-94.45,-11.04,107.80
209,103929843,1.0298,-0.2739,-0.1201,-96.46,-11.65,107.80
210,103934841,1.0410,-0.2583,-0.0933,-97.74,-12.07,106.83
211,103939841,1.0537,-0.2290,-0.0752,-98.11,-12.20,104.82
212,103944843,1.0864,-0.2031,-0.0317,-97.74,-11.71,101.04
213,103949843,1.1333,-0.1895,-0.0107,-96.52,-11.59,95.24
214,103954843,1.1753,-0.2192,0.0000,-94.76,-8.17,87.32
215,103959842,1.1880,-0.2783,0.0195,-91.77,-5.49,78.35
216,103964843,1.1943,-0.3706,0.0049,-87.68,-2.13,68.54
217,103969843,1.1846,-0.5005,-0.0186,-82.07,1.16,59.02
218,103974843,1.1768,-0.5952,-0.0713,-74.88,3.96,50.37
219,103979842,1.1943,-0.6904,-0.1021,-66.77,6.10,42.80
220,103984843,1.1670,-0.7695,-0.1221,-57.68,7.74,36.46
221,103989844,1.1421,-0.7773,-0.1680,-47.38,8.90,30.98
222,103994843,1.1299,-0.7588,-0.2163,-36.28,9.33,25.98
223,103999845,1.1294,-0.7261,-0.2178,-24.88,9.39,21.34
224,104004841,1.1372,-0.6821,-0.2305,-13.48,9.27,17.01
225,104009843,1.1519,-0.6401,-0.2334,-2.87,9.21,12.99
226,104014842,1.1479,-0.6035,-0.2310,6.59,8.90,9.33
227,104019843,1.1182,-0.5718,-0.2100,14.51,8.66,5.79
228,104024841,1.0747,-0.5420,-0.1997,20.67,8.72,2.68
229,104029845,1.0244,-0.5186,-0.1929,25.24,8.54,-0.30
230,104034842,0.9722,-0.4961,-0.1899,28.35,8.35,-2.93
231,104039841,0.9194,-0.4736,-0.1899,29.94,8.11,-5.24
232,104044843,0.8687,-0.4551,-0.1865,30.37,7.87,-7.38
233,104049841,0.8271,-0.4321,-0.1831,29.57,7.68,-9.21
234,104054843,0.7881,-0.4102,-0.1890,27.87,7.32,-10.73
235,104059843,0.7471,-0.4023,-0.1895,25.12,7.07,-12.01
236,104064843,0.7212,-0.3862,-0.1831,21.77,6.77,-13.11
237,104069844,0.7007,-0.3735,-0.1733,17.74,6.52,-13.90
238,104074843,0.6807,-0.3652,-0.1655,13.05,6.40,-14.39
239,104079843,0.6675,-0.3540,-0.1660,8.11,6.10,-14.82
240,104084843,0.6602,-0.3384,-0.1650,2.99,6.04,-14.94
241,104090184,0.6650,-0.3306,-0.1709,-2.38,5.91,-14.94
242,104094844,0.6680,-0.3296,-0.1597,-7.62,5.73,-14.70
243,104099843,0.6772,-0.3232,-0.1543,-12.74,5.73,-14.39
244,104104843,0.6914,-0.3198,-0.1582,-17.56,5.55,-13.90
245,104109845,0.7056,-0.3198,-0.1631,-21.83,5.43,-13.29
246,104114842,0.7217,-0.3188,-0.1597,-25.67,5.24,-12.68
247,104120003,0.7407,-0.3203,-0.1582,-28.84,5.00,-12.07
248,104124842,0.7622,-0.3213,-0.1567,-31.28,5.06,-11.46
249,104129843,0.7827,-0.3262,-0.1504,-33.05,4.94,-11.16
250,104134843,0.8022,-0.3340,-0.1479,-34.02,4.88,-10.79
251,104139844,0.8306,-0.3433,-0.1597,-34.09,4.94,-10.61
252,104144843,0.8564,-0.3569,-0.1577,-33.29,4.57,-10.67
253,104149841,0.8862,-0.3740,-0.1528,-31.77,4.63,-10.73
254,104154843,0.9175,-0.3940,-0.1558,-29.63,4.39,-10.98
255,104159842,0.9380,-0.4160,-0.1558,-26.59,4.45,-11.16
256,104164843,0.9658,-0.4331,-0.1631,-22.93,4.15,-11.46
257,104169843,0.9893,-0.4531,-0.1631,-18.90,4.02,-11.65
258,104174843,1.0137,-0.4683,-0.1689,-14.39,3.84,-11.89
259,104179842,1.0547,-0.4629,-0.1665,-9.82,3.84,-12.26
260,104184843,1.0679,-0.4756,-0.1709,-5.30,3.84,-12.68
261,104189844,1.0820,-0.4858,-0.1748,-0.85,3.84,-13.17
262,104194844,1.0854,-0.4990,-0.1699,2.50,3.90,-13.66
263,104199841,1.0913,-0.5054,-0.1743,6.46,4.09,-14.57
264,104204843,1.1035,-0.5200,-0.1748,10.06,4.15,-15.61
265,104209986,1.1367,-0.5273,-0.1655,14.15,4.27,-16.89
266,104214843,1.1436,-0.5337,-0.1675,16.59,4.39,-17.74
267,104219841,1.1577,-0.5410,-0.1729,19.27,4.15,-18.78
268,104224843,1.1587,-0.5464,-0.1714,21.34,4.02,-19.82
269,104229842,1.1572,-0.5542,-0.1694,23.05,3.66,-20.79
270,104234843,1.1450,-0.5615,-0.1689,24.27,2.93,-21.77
271,104239845,1.1260,-0.5625,-0.1704,25.06,2.07,-22.80
272,104244958,1.1094,-0.5640,-0.1753,25.55,0.98,-23.84
273,104249841,1.1045,-0.5640,-0.1738,25.67,0.06,-24.63
274,104254845,1.0688,-0.5620,-0.1699,25.43,-1.10,-25.49
275,104259842,1.0366,-0.5566,-0.1729,24.63,-2.26,-26.40
276,104264843,1.0103,-0.5601,-0.1729,23.78,-3.41,-27.01
277,104270036,0.9956,-0.5498,-0.1655,22.38,-4.76,-27.74
278,104274843,0.9873,-0.5498,-0.1665,21.34,-5.73,-28.05
279,104280045,0.9766,-0.5435,-0.1738,19.76,-7.07,-28.60
280,104284843,0.9658,-0.5371,-0.1797,18.60,-8.05,-28.72
281,104290222,0.9658,-0.5288,-0.1733,16.77,-9.51,-28.72
282,104294844,0.9575,-0.5288,-0.1689,15.61,-10.30,-28.54
283,104299841,0.9336,-0.5220,-0.1729,14.02,-11.40,-28.29
284,104304843,0.9141,-0.5151,-0.1738,12.38,-12.50,-27.74
285,104309843,0.9038,-0.5098,-0.1792,10.49,-13.78,-26.83
286,104314843,0.8989,-0.5029,-0.1768,9.33,-14.63,-26.10
287,104319842,0.8813,-0.4897,-0.1792,7.99,-15.55,-25.06
288,104324843,0.8696,-0.4702,-0.1787,6.71,-16.46,-23.96
289,104329843,0.8467,-0.4570,-0.1763,5.67,-17.32,-22.99
290,104334842,0.8130,-0.4404,-0.1694,4.70,-17.99,-22.01
291,104339843,0.7915,-0.4297,-0.1689,3.78,-18.29,-21.16
292,104344842,0.7642,-0.4180,-0.1631,3.11,-18.23,-20.67
293,104349843,0.7378,-0.4019,-0.1646,2.62,-18.23,-20.30
294,104354841,0.7065,-0.3945,-0.1587,2.26,-17.74,-20.06
295,104359844,0.6841,-0.3833,-0.1689,2.01,-16.95,-20.06
296,104364843,0.6631,-0.3677,-0.1685,1.95,-16.28,-20.30
297,104369843,0.6377,-0.3652,-0.1636,2.01,-15.55,-20.49
298,104374843,0.6221,-0.3477,-0.1689,2.26,-14.45,-20.91
299,104379843,0.6064,-0.3384,-0.1724,2.44,-13.78,-21.16
300,104384843,0.6016,-0.3296,-0.1841,2.99,-13.05,-21.40
301,104389843,0.5957,-0.3188,-0.1924,3.41,-12.38,-21.28
302,104394843,0.6021,-0.3052,-0.2100,4.02,-11.89,-20.85
303,104399841,0.6152,-0.2949,-0.2207,4.63,-11.77,-20.30
304,104404843,0.6284,-0.2822,-0.2383,5.30,-11.77,-19.27
305,104409843,0.6650,-0.2646,-0.2363,5.98,-12.07,-17.93
306,104414842,0.6465,-0.2495,-0.2607,6.34,-12.38,-16.28
307,104419844,0.6533,-0.2451,-0.2930,6.59,-13.29,-14.09
308,104424843,0.6758,-0.2437,-0.2822,6.34,-13.84,-11.65
309,104429841,0.7065,-0.2422,-0.2808,5.73,-14.51,-8.72
310,104434841,0.7300,-0.2275,-0.2754,4.76,-15.37,-5.61
311,104439845,0.7393,-0.2246,-0.2920,3.41,-16.04,-2.44
312,104444843,0.7529,-0.2124,-0.2896,1.65,-16.65,1.04
313,104449842,0.7866,-0.2173,-0.2832,-0.18,-17.13,4.57
314,104454843,0.7725,-0.2109,-0.2778,-2.44,-17.38,8.05
315,104459843,0.7856,-0.2129,-0.2812,-4.76,-17.32,11.65
316,104464843,0.8042,-0.2207,-0.2783,-7.13,-17.20,15.18
317,104469842,0.8174,-0.2290,-0.2871,-9.21,-16.65,18.41
318,104474843,0.7998,-0.2300,-0.2793,-11.40,-16.10,21.77
319,104479841,0.8062,-0.2432,-0.2783,-13.29,-15.24,24.63
320,104484843,0.8101,-0.2524,-0.2842,-14.70,-14.21,27.44
321,104489842,0.8135,-0.2622,-0.2930,-15.85,-13.11,29.82
322,104494843,0.8257,-0.2544,-0.3018,-16.59,-11.77,32.20
323,104499843,0.8154,-0.3149,-0.2969,-16.52,-10.49,34.21
324,104504843,0.7925,-0.3115,-0.3057,-15.79,-9.21,36.16
325,104509891,0.7871,-0.3374,-0.3032,-15.06,-7.87,37.80
326,104514843,0.7871,-0.3433,-0.3140,-14.09,-6.59,39.21
327,104519843,0.7896,-0.3560,-0.3203,-12.80,-5.30,40.55
328,104524843,0.7939,-0.3662,-0.3311,-11.10,-4.27,41.77
329,104529842,0.7959,-0.3813,-0.3325,-9.27,-3.41,42.68
330,104534843,0.7954,-0.3965,-0.3433,-7.20,-2.56,43.78
331,104539841,0.7969,-0.4204,-0.3428,-5.06,-1.83,44.57
332,104544843,0.7964,-0.4351,-0.3477,-2.74,-1.40,45.30
333,104549842,0.8008,-0.4487,-0.3564,-0.49,-0.79,45.98
334,104554843,0.8115,-0.4419,-0.3730,1.77,-0.49,46.28
335,104559841,0.7881,-0.5283,-0.3525,4.57,-0.18,46.46
336,104564841,0.7808,-0.5181,-0.3584,7.13,0.12,46.59
337,104570208,0.7686,-0.5415,-0.3643,9.39,0.49,46.22
338,104574843,0.7578,-0.5474,-0.3643,11.16,0.61,45.61
339,104579845,0.7583,-0.5522,-0.3682,12.74,0.85,44.70
340,104584842,0.7500,-0.5596,-0.3701,13.96,1.10,43.29
341,104589939,0.7480,-0.5688,-0.3662,14.94,1.28,41.77
342,104594843,0.7354,-0.5845,-0.3623,15.67,1.65,39.88
343,104599843,0.7261,-0.5894,-0.3560,16.22,2.01,37.68
344,104604843,0.7168,-0.5947,-0.3569,16.52,2.32,35.30
345,104609841,0.7173,-0.6011,-0.3477,16.71,2.68,32.87
346,104614843,0.7207,-0.5981,-0.3325,16.65,3.05,30.12
347,104619842,0.7227,-0.5991,-0.3237,16.46,3.35,27.56
348,104624843,0.7319,-0.5947,-0.3203,15.98,3.60,24.88
349,104629841,0.7544,-0.5708,-0.3198,15.85,3.84,22.44
350,104634843,0.7422,-0.6118,-0.3013,15.79,4.21,20.18
351,104639842,0.7695,-0.5859,-0.2935,15.79,4.45,18.17
352,104644843,0.7720,-0.5903,-0.2910,15.61,4.63,16.22
353,104649841,0.7661,-0.5806,-0.2749,15.24,4.94,14.51
354,104654843,0.7729,-0.5752,-0.2769,14.94,4.94,12.93
355,104659842,0.7896,-0.5659,-0.2783,14.88,4.88,11.59
356,104664952,0.7988,-0.5532,-0.2739,14.88,4.94,10.37
357,104669843,0.8091,-0.5493,-0.2749,15.12,4.88,9.33
358,104674842,0.8037,-0.5396,-0.2720,15.49,4.82,8.48
359,104679844,0.8037,-0.5371,-0.2627,16.16,4.63,7.68
360,104684843,0.8008,-0.5327,-0.2603,16.95,4.51,7.07
361,104689843,0.8042,-0.5220,-0.2593,17.68,4.39,6.59
362,104694843,0.8013,-0.5220,-0.2549,18.60,4.27,6.16
363,104699843,0.7969,-0.5142,-0.2485,19.70,4.15,5.73
364,104704843,0.7988,-0.5049,-0.2485,20.73,4.21,5.55
365,104709844,0.7915,-0.5054,-0.2476,21.95,4.21,5.18
366,104714843,0.7925,-0.4966,-0.2446,23.29,4.15,5.06
367,104720241,0.7910,-0.4932,-0.2417,24.70,4.21,4.88
368,104724843,0.7930,-0.4897,-0.2383,25.98,4.39,4.82
369,104729842,0.7939,-0.4849,-0.2349,27.32,4.33,4.82
370,104734843,0.7939,-0.4810,-0.2349,28.66,4.51,4.76
371,104739842,0.7983,-0.4800,-0.2305,29.82,4.51,4.82
372,104744843,0.7935,-0.4795,-0.2300,30.85,4.33,4.82
373,104749841,0.7881,-0.4800,-0.2300,31.89,4.33,4.88
374,104754843,0.7949,-0.4834,-0.2295,32.80,4.21,4.76
375,104759842,0.7954,-0.4863,-0.2222,33.41,4.02,4.57
376,104764841,0.8008,-0.4956,-0.2256,34.02,3.78,4.57
377,104769843,0.7988,-0.4990,-0.2231,34.45,3.29,4.27
378,104774842,0.7969,-0.5034,-0.2192,34.76,2.74,4.09
379,104779843,0.7939,-0.5117,-0.2183,35.00,2.26,3.90
380,104784841,0.7925,-0.5127,-0.2124,35.24,1.28,3.66
381,104789844,0.8047,-0.5059,-0.2183,35.24,0.55,3.29
382,104794843,0.8203,-0.5215,-0.1919,34.82,-0.43,2.93
383,104799843,0.7861,-0.5337,-0.1748,34.33,-1.16,2.93
384,104804843,0.7720,-0.5337,-0.1973,34.02,-2.20,2.93
385,104809841,0.7783,-0.5249,-0.1997,33.90,-3.23,2.99
386,104814841,0.7954,-0.5161,-0.1934,33.84,-4.21,3.17
387,104819844,0.8003,-0.5068,-0.1982,33.84,-5.43,3.54
388,104824843,0.8062,-0.5015,-0.1865,33.90,-6.16,4.09
389,104829843,0.8037,-0.4912,-0.1826,34.09,-6.89,4.82
390,104834843,0.8022,-0.4819,-0.1777,34.33,-7.44,5.73
391,104839841,0.8062,-0.4736,-0.1797,34.63,-7.80,6.83
392,104844843,0.8052,-0.4663,-0.1719,35.06,-7.93,7.93
393,104849842,0.8066,-0.4614,-0.1763,35.79,-7.99,9.15
394,104854845,0.7969,-0.4634,-0.1821,36.52,-7.99,10.49
395,104859842,0.7827,-0.4580,-0.1792,37.38,-7.80,11.89
396,104864841,0.7749,-0.4609,-0.1826,38.29,-7.44,13.23
397,104869845,0.7627,-0.4595,-0.1890,39.27,-7.13,14.51
398,104874842,0.7524,-0.4551,-0.1978,40.18,-6.65,15.85
399,104879843,0.7422,-0.4609,-0.2080,41.10,-6.10,17.01
400,104884843,0.7383,-0.4629,-0.2026,41.89,-5.55,17.99
401,104889843,0.7261,-0.4663,-0.2104,42.68,-5.00,18.84
402,104894843,0.7202,-0.4727,-0.2041,43.41,-4.45,19.57
403,104899843,0.7231,-0.4819,-0.1963,44.09,-3.90,20.00
404,104904843,0.7158,-0.4888,-0.1948,44.63,-3.11,20.37
405,104909841,0.7222,-0.4883,-0.1890,44.88,-2.56,20.61
406,104914841,0.7261,-0.4956,-0.1826,45.12,-1.89,20.85
407,104919844,0.7329,-0.5039,-0.1758,45.00,-1.40,20.98
408,104924843,0.7349,-0.5029,-0.1719,44.82,-0.79,21.28
409,104929843,0.7402,-0.5044,-0.1631,44.33,-0.49,21.40
410,104934843,0.7446,-0.5083,-0.1670,43.72,0.06,21.71
411,104939843,0.7515,-0.5044,-0.1548,42.93,0.30,22.07
412,104944843,0.7520,-0.5103,-0.1562,42.01,0.43,22.62
413,104949843,0.7607,-0.5122,-0.1494,40.91,0.55,23.23
414,104954843,0.7593,-0.5122,-0.1475,39.76,0.61,23.84
415,104959843,0.7646,-0.5190,-0.1460,38.41,0.61,24.70
416,104964843,0.7656,-0.5293,-0.1357,36.95,0.73,25.55
417,104969841,0.7651,-0.5410,-0.1250,35.55,0.73,26.46
418,104974843,0.7617,-0.5537,-0.1235,34.02,0.79,27.32
419,104979843,0.7539,-0.5601,-0.1187,32.68,0.98,28.05
420,104984843,0.7412,-0.5679,-0.1157,31.34,1.10,28.78
421,104989841,0.7266,-0.5771,-0.1104,29.94,1.10,29.27
422,104994843,0.7188,-0.5854,-0.1011,28.78,1.28,29.63
423,104999855,0.7114,-0.5928,-0.0928,27.68,1.28,29.82
424,105004843,0.7100,-0.5972,-0.0898,26.71,1.52,29.94
425,105009843,0.7095,-0.6045,-0.0864,25.79,2.01,29.82
426,105014843,0.7109,-0.6113,-0.0825,25.18,2.13,29.70
427,105019841,0.7119,-0.6157,-0.0679,24.51,2.44,29.45
428,105024843,0.7192,-0.6255,-0.0659,24.15,2.80,29.21
429,105029845,0.7349,-0.6284,-0.0596,23.90,3.05,28.96
430,105034842,0.7402,-0.6372,-0.0649,23.72,3.35,28.54
431,105039841,0.7495,-0.6382,-0.0610,23.66,3.60,28.23
432,105044934,0.7529,-0.6421,-0.0571,23.96,3.78,27.93
433,105049843,0.7578,-0.6470,-0.0620,24.27,4.09,27.50
434,105054843,0.7666,-0.6460,-0.0674,24.63,4.09,27.26
435,105059841,0.7705,-0.6514,-0.0625,25.24,4.27,27.01
436,105064950,0.7734,-0.6597,-0.0630,26.04,4.21,26.77
437,105069842,0.7744,-0.6646,-0.0615,26.71,4.21,26.40
438,105074843,0.7729,-0.6699,-0.0566,27.50,4.09,26.10
439,105079974,0.7666,-0.6758,-0.0562,28.29,4.02,25.67
440,105084843,0.7671,-0.6860,-0.0557,29.27,3.66,25.37
441,105089945,0.7603,-0.6953,-0.0620,30.00,3.29,24.94
442,105094843,0.7520,-0.6992,-0.0625,30.91,3.05,24.33
443,105099841,0.7485,-0.7017,-0.0649,31.83,2.62,23.78
444,105104843,0.7393,-0.7036,-0.0591,32.68,2.20,23.17
445,105109843,0.7305,-0.7070,-0.0586,33.66,1.83,22.50
446,105114843,0.7261,-0.7100,-0.0576,34.51,1.46,21.71
447,105119845,0.7261,-0.7085,-0.0591,35.00,1.34,21.04
448,105124845,0.7207,-0.7061,-0.0522,35.30,1.16,20.24
449,105129842,0.7222,-0.7017,-0.0459,35.37,0.98,19.57
450,105134844,0.7256,-0.7017,-0.0435,35.30,1.10,18.84
451,105139843,0.7285,-0.6992,-0.0396,34.94,1.04,18.11
452,105144845,0.7319,-0.6958,-0.0425,34.27,1.10,17.50
453,105149843,0.7280,-0.6929,-0.0352,33.48,1.34,16.95
454,105154843,0.7324,-0.6934,-0.0288,32.62,1.52,16.28
455,105159842,0.7324,-0.6909,-0.0400,31.52,1.65,15.67
456,105164843,0.7319,-0.6890,-0.0371,30.49,1.83,15.24
457,105170375,0.7363,-0.6895,-0.0386,29.51,1.89,14.57
458,105174843,0.7344,-0.6909,-0.0361,28.48,1.89,14.15
459,105179844,0.7319,-0.6909,-0.0396,27.56,1.77,13.66
460,105184843,0.7354,-0.6978,-0.0371,26.71,1.65,13.05
461,105189843,0.7402,-0.6958,-0.0312,25.73,1.52,12.56
462,105194845,0.7368,-0.7012,-0.0293,25.06,1.34,12.01
463,105199843,0.7310,-0.7070,-0.0303,24.33,1.10,11.40
464,105204843,0.7290,-0.7070,-0.0239,23.66,0.79,10.91
465,105209896,0.7354,-0.6997,-0.0200,23.17,0.55,10.30
466,105214843,0.7407,-0.6968,-0.0112,22.56,0.24,9.70
467,105219843,0.7412,-0.6943,-0.0073,22.13,0.12,9.15
468,105225498,0.7461,-0.6909,-0.0005,21.46,-0.12,8.41
469,105229941,0.7441,-0.6860,-0.0039,21.04,-0.18,7.99
470,105234842,0.7456,-0.6816,-0.0020,20.61,-0.43,7.44
471,105239841,0.7446,-0.6753,0.0054,20.06,-0.43,6.89
472,105244841,0.7451,-0.6719,-0.0020,19.63,-0.55,6.46
473,105250177,0.7466,-0.6646,-0.0039,19.39,-0.91,6.10
474,105254844,0.7461,-0.6592,-0.0044,19.09,-0.73,5.79
475,105259843,0.7529,-0.6538,-0.0034,18.84,-1.10,5.49
476,105264843,0.7422,-0.6519,-0.0073,18.72,-1.40,5.12
477,105269842,0.7295,-0.6577,-0.0010,18.60,-1.46,4.94
478,105274843,0.7324,-0.6528,0.0015,18.72,-1.89,4.82
479,105279843,0.7383,-0.6523,-0.0010,18.90,-2.26,4.63
480,105284843,0.7437,-0.6489,-0.0044,19.39,-2.62,4.51
481,105289844,0.7432,-0.6470,-0.0024,19.63,-3.05,4.45
482,105294843,0.7417,-0.6436,0.0010,20.06,-3.54,4.33
483,105299843,0.7432,-0.6450,0.0010,20.43,-4.02,4.27
484,105304843,0.7432,-0.6445,0.0005,20.67,-4.27,4.45
485,105310341,0.7451,-0.6465,0.0029,20.79,-4.76,4.45
486,105314843,0.7456,-0.6436,0.0044,20.79,-5.06,4.63
487,105319841,0.7524,-0.6372,0.0054,20.67,-5.67,4.76
488,105324841,0.7627,-0.6201,0.0254,20.06,-5.98,4.82
489,105329841,0.7251,-0.6323,0.0278,19.09,-6.04,5.12
490,105334844,0.7134,-0.6392,0.0073,18.35,-6.40,5.30
491,105339843,0.7354,-0.6333,-0.0078,17.93,-6.71,5.43
492,105344843,0.7466,-0.6250,0.0059,17.38,-7.01,5.67
493,105349844,0.7432,-0.6182,0.0059,16.77,-7.26,5.85
494,105354843,0.7412,-0.6177,-0.0054,16.28,-7.44,5.91
495,105359843,0.7432,-0.6196,0.0010,15.73,-7.74,5.91
496,105364843,0.7490,-0.6235,0.0073,15.18,-7.93,6.28
497,105369842,0.7505,-0.6221,-0.0029,14.63,-7.80,6.46
498,105374843,0.7480,-0.6279,0.0024,14.09,-8.05,6.65
499,105379842,0.7427,-0.6240,-0.0024,13.54,-8.35,6.95
500,105384843,0.7422,-0.6226,-0.0093,13.23,-8.54,7.07
501,105389844,0.7461,-0.6157,-0.0083,12.87,-8.72,7.26
502,105394843,0.7480,-0.6177,-0.0098,12.62,-8.78,7.56
503,105399842,0.7451,-0.6167,-0.0151,12.50,-8.84,7.87
504,105404843,0.7451,-0.6123,-0.0132,12.50,-9.09,8.29
505,105409843,0.7451,-0.6138,-0.0161,12.32,-9.21,8.78
506,105414900,0.7417,-0.6196,-0.0244,12.32,-9.21,9.21
507,105419844,0.7471,-0.6157,-0.0312,12.44,-9.21,9.63
508,105424843,0.7412,-0.6182,-0.0269,12.44,-9.09,10.00
509,105429842,0.7300,-0.6260,-0.0278,12.50,-8.96,10.43
510,105434843,0.7310,-0.6309,-0.0347,12.87,-8.78,11.04
511,105439843,0.7310,-0.6260,-0.0400,13.35,-8.72,11.52
512,105444843,0.7334,-0.6245,-0.0444,13.66,-8.60,12.01
513,105449842,0.7305,-0.6201,-0.0464,14.02,-8.23,12.38
514,105454843,0.7319,-0.6216,-0.0537,14.27,-8.05,12.87
515,105459842,0.7261,-0.6196,-0.0537,14.57,-7.74,13.23
516,105464845,0.7251,-0.6255,-0.0552,14.70,-7.50,13.66
517,105469843,0.7236,-0.6226,-0.0513,14.63,-7.13,14.27
518,105474843,0.7197,-0.6221,-0.0430,14.57,-6.89,14.63
519,105479841,0.7202,-0.6201,-0.0522,14.27,-6.34,15.12
520,105484844,0.7183,-0.6201,-0.0532,13.84,-5.98,15.73
521,105489843,0.7144,-0.6250,-0.0552,13.41,-5.55,16.04
522,105494842,0.7153,-0.6255,-0.0522,12.68,-5.12,16.46
523,105499843,0.7158,-0.6309,-0.0620,12.07,-4.70,16.89
524,105504842,0.7139,-0.6309,-0.0654,11.40,-4.39,17.20
525,105509843,0.7192,-0.6406,-0.0718,10.91,-3.78,17.56
526,105514842,0.7148,-0.6475,-0.0767,10.24,-3.23,17.87
527,105519845,0.7188,-0.6479,-0.0767,9.70,-2.74,17.87
528,105524841,0.7236,-0.6548,-0.0776,9.21,-2.32,18.05
529,105529842,0.7251,-0.6626,-0.0830,8.60,-1.89,18.11
530,105534841,0.7251,-0.6729,-0.0811,7.93,-1.34,18.11
531,105539843,0.7231,-0.6787,-0.0801,7.32,-0.85,18.11
532,105544842,0.7266,-0.6875,-0.0850,6.34,-0.18,17.80
533,105549888,0.7271,-0.6958,-0.0815,5.43,0.24,17.80
534,105554842,0.7300,-0.7046,-0.0830,4.27,0.85,17.56
535,105559843,0.7266,-0.7129,-0.0771,2.99,1.28,17.20
536,105564842,0.7266,-0.7202,-0.0771,1.59,1.65,16.83
537,105569843,0.7231,-0.7295,-0.0703,0.18,1.95,16.40
538,105574842,0.7207,-0.7363,-0.0737,-1.28,2.20,15.79
539,105579843,0.7153,-0.7432,-0.0669,-2.62,2.50,15.37
540,105584842,0.7119,-0.7476,-0.0659,-3.90,2.68,14.70
541,105589843,0.7046,-0.7539,-0.0654,-5.06,2.93,14.02
542,105594842,0.7002,-0.7539,-0.0591,-5.98,3.05,13.29
543,105599843,0.6934,-0.7563,-0.0664,-6.52,3.29,12.68
544,105604842,0.6924,-0.7598,-0.0566,-6.77,3.60,12.07
545,105609843,0.6924,-0.7607,-0.0571,-6.71,3.96,11.34
546,105614842,0.6875,-0.7622,-0.0542,-6.34,4.27,10.73
547,105619843,0.6826,-0.7676,-0.0508,-5.67,4.63,10.06
548,105624842,0.6826,-0.7651,-0.0420,-4.88,5.06,9.33
549,105629845,0.6812,-0.7715,-0.0391,-3.90,5.37,8.72
550,105634842,0.6768,-0.7778,-0.0371,-2.68,5.55,7.99
551,105639843,0.6821,-0.7871,-0.0308,-1.46,5.79,7.44
552,105644842,0.6797,-0.7861,-0.0288,-0.06,6.04,6.71
553,105649843,0.6807,-0.7896,-0.0278,1.10,6.16,6.10
554,105654842,0.6846,-0.7861,-0.0186,2.44,6.28,5.49
555,105659843,0.6924,-0.7881,-0.0190,3.66,6.16,4.88
556,105664842,0.6929,-0.7866,-0.0122,4.63,6.34,4.21
557,105669843,0.6987,-0.7832,-0.0146,5.91,6.22,3.48
558,105674842,0.7031,-0.7812,-0.0073,7.07,6.22,2.93
559,105679847,0.7031,-0.7778,-0.0049,8.35,6.10,2.44
560,105684842,0.7085,-0.7788,-0.0063,9.51,6.10,1.83
561,105690047,0.7056,-0.7788,-0.0044,10.73,5.98,1.22
562,105694843,0.7095,-0.7754,-0.0117,12.01,5.85,0.67
563,105699843,0.7080,-0.7769,-0.0029,13.23,5.61,0.12
564,105704843,0.7046,-0.7759,-0.0010,14.27,5.24,-0.55
565,105709842,0.7041,-0.7705,-0.0010,15.12,4.70,-1.22
566,105714843,0.7046,-0.7700,0.0024,15.91,4.39,-1.95
567,105719843,0.7046,-0.7666,0.0049,16.40,3.90,-2.68
568,105724843,0.6987,-0.7661,0.0063,16.89,3.48,-3.35
569,105729841,0.6992,-0.7651,0.0020,17.07,2.93,-4.15
570,105734844,0.7002,-0.7681,0.0083,17.13,2.38,-4.94
571,105739855,0.7012,-0.7681,0.0063,17.13,1.77,-5.67
572,105744844,0.7080,-0.7666,0.0063,17.01,1.10,-6.59
573,105749843,0.7065,-0.7686,0.0142,16.71,0.49,-7.44
574,105754842,0.7051,-0.7676,0.0146,16.52,-0.37,-8.17
575,105759845,0.7070,-0.7676,0.0176,16.22,-0.91,-9.02
576,105764842,0.7070,-0.7661,0.0186,15.91,-1.59,-9.57
577,105769845,0.7085,-0.7622,0.0244,15.55,-2.32,-10.30
578,105774842,0.7095,-0.7598,0.0220,15.37,-3.05,-10.85
579,105779841,0.7104,-0.7544,0.0269,15.12,-3.54,-11.34
580,105784843,0.7095,-0.7471,0.0308,15.12,-4.33,-11.89
581,105789845,0.7080,-0.7476,0.0327,15.06,-5.06,-12.32
582,105794842,0.7056,-0.7432,0.0356,15.30,-5.55,-12.62
583,105799843,0.7065,-0.7363,0.0332,15.73,-6.16,-12.87
584,105804842,0.7056,-0.7319,0.0376,16.40,-6.83,-13.11
585,105809843,0.7036,-0.7271,0.0410,17.26,-7.38,-13.29
586,105814842,0.7041,-0.7246,0.0420,18.35,-7.99,-13.29
587,105819844,0.7021,-0.7202,0.0386,19.76,-8.48,-13.41
588,105824842,0.7085,-0.7119,0.0361,21.16,-9.27,-13.35
589,105829845,0.7124,-0.7114,0.0405,22.68,-9.70,-13.17
590,105834841,0.7119,-0.7061,0.0415,24.45,-10.30,-13.11
591,105839842,0.7139,-0.7051,0.0464,26.22,-10.85,-12.93
592,105844843,0.7158,-0.7085,0.0396,27.93,-11.34,-12.74
593,105849843,0.7173,-0.7085,0.0430,29.51,-11.95,-12.62
594,105854843,0.7163,-0.7109,0.0498,31.10,-12.56,-12.62
595,105859842,0.7217,-0.7051,0.0537,32.56,-13.05,-12.62
596,105864843,0.7222,-0.7090,0.0498,33.72,-13.48,-12.74
597,105869843,0.7266,-0.7056,0.0508,34.88,-14.02,-12.74
598,105874843,0.7319,-0.7012,0.0508,35.79,-14.51,-12.93
599,105879842,0.7329,-0.6992,0.0513,36.46,-15.00,-13.05
600,105884843,0.7305,-0.6958,0.0576,37.07,-15.61,-13.11
601,105889842,0.7295,-0.6929,0.0591,37.80,-16.28,-13.29
602,105894842,0.7256,-0.6899,0.0605,38.35,-16.77,-13.29
603,105899843,0.7222,-0.6880,0.0659,38.72,-17.56,-13.29
604,105904842,0.7183,-0.6851,0.0645,39.27,-18.17,-13.35
605,105909843,0.7168,-0.6792,0.0659,40.00,-18.96,-13.17
606,105914842,0.7148,-0.6724,0.0591,40.61,-19.57,-13.11
607,105919844,0.7124,-0.6743,0.0566,41.52,-20.43,-12.99
608,105924842,0.7065,-0.6709,0.0562,42.26,-20.98,-12.68
609,105929845,0.7070,-0.6743,0.0566,43.29,-21.65,-12.50
610,105934841,0.7031,-0.6685,0.0522,44.21,-22.07,-12.32
611,105939841,0.7026,-0.6675,0.0537,45.06,-22.68,-12.13
612,105944845,0.7046,-0.6689,0.0439,45.85,-23.05,-12.01
613,105949843,0.7036,-0.6616,0.0493,46.65,-23.54,-11.83
614,105954842,0.7070,-0.6572,0.0542,47.13,-23.84,-11.71
615,105960083,0.7148,-0.6509,0.0518,47.44,-23.90,-11.52
616,105964843,0.7144,-0.6470,0.0557,47.50,-24.21,-11.46
617,105969842,0.7217,-0.6440,0.0552,47.32,-24.39,-11.28
618,105974844,0.7266,-0.6348,0.0508,46.89,-24.51,-11.16
619,105979843,0.7310,-0.6309,0.0503,46.34,-24.70,-11.10
620,105984843,0.7324,-0.6226,0.0454,45.49,-24.76,-10.98
621,105989843,0.7373,-0.6201,0.0527,44.76,-24.88,-10.91
622,105994842,0.7437,-0.6147,0.0425,43.78,-25.00,-10.85
623,105999841,0.7476,-0.6089,0.0479,42.87,-25.00,-10.79
624,106004843,0.7529,-0.6084,0.0386,42.13,-25.24,-10.67
625,106009843,0.7510,-0.6050,0.0391,41.46,-25.43,-10.43
626,106014843,0.7500,-0.5991,0.0439,41.10,-25.55,-10.30
627,106019842,0.7471,-0.5972,0.0410,40.61,-25.91,-10.06
628,106024843,0.7446,-0.5942,0.0410,40.30,-25.91,-9.70
629,106030049,0.7451,-0.5918,0.0376,40.06,-26.28,-9.57
630,106034843,0.7432,-0.5874,0.0332,39.76,-26.46,-9.21
631,106039841,0.7363,-0.5825,0.0278,39.57,-26.71,-8.84
632,106044841,0.7412,-0.5757,0.0259,39.21,-27.01,-8.48
633,106049845,0.7397,-0.5742,0.0264,38.96,-27.13,-8.23
634,106054843,0.7373,-0.5620,0.0215,38.54,-27.13,-7.74
635,106059843,0.7358,-0.5547,0.0239,37.99,-27.38,-7.26
636,106064843,0.7417,-0.5483,0.0205,37.32,-27.50,-6.77
637,106069842,0.7388,-0.5430,0.0210,36.59,-27.38,-6.16
638,106074843,0.7378,-0.5386,0.0229,35.79,-27.44,-5.43
639,106079843,0.7437,-0.5342,0.0166,34.63,-27.38,-4.76
640,106084843,0.7441,-0.5298,0.0171,33.48,-27.26,-4.02
641,106090097,0.7471,-0.5273,0.0103,32.26,-27.38,-3.17
642,106094843,0.7466,-0.5220,0.0166,30.98,-27.01,-2.44
643,106099846,0.7500,-0.5190,0.0142,29.57,-27.07,-1.40
644,106104842,0.7520,-0.5181,0.0044,28.23,-26.77,-0.49
645,106109845,0.7510,-0.5171,0.0049,26.83,-26.59,0.55
646,106114843,0.7505,-0.5151,0.0044,25.43,-26.65,1.40
647,106119843,0.7476,-0.5127,0.0015,24.27,-26.34,2.44
648,106124842,0.7466,-0.5161,-0.0063,23.41,-26.22,3.35
649,106129843,0.7422,-0.5215,-0.0073,22.38,-25.91,4.51
650,106134844,0.7388,-0.5190,-0.0239,21.77,-25.73,5.55
651,106139842,0.7393,-0.5220,-0.0127,21.28,-25.49,6.28
652,106144841,0.7383,-0.5215,-0.0210,20.79,-25.30,7.32
653,106149841,0.7334,-0.5239,-0.0186,20.49,-24.82,8.35
654,106155157,0.7354,-0.5259,-0.0293,19.94,-24.15,9.57
655,106159843,0.7324,-0.5278,-0.0317,19.63,-23.66,10.37
656,106164841,0.7363,-0.5317,-0.0283,19.27,-22.93,11.34
657,106169845,0.7358,-0.5376,-0.0259,18.66,-22.13,12.32
658,106174841,0.7373,-0.5454,-0.0293,17.93,-21.28,13.35
659,106179845,0.7422,-0.5479,-0.0249,17.07,-20.37,14.21
660,106184841,0.7437,-0.5557,-0.0200,15.91,-19.33,15.12
661,106189842,0.7480,-0.5674,-0.0200,14.57,-18.35,15.98
662,106194845,0.7505,-0.5786,-0.0161,13.17,-17.44,16.71
663,106199842,0.7500,-0.5889,-0.0176,11.59,-16.46,17.32
664,106204845,0.7505,-0.5977,-0.0171,10.00,-15.55,17.93
665,106209843,0.7559,-0.6108,-0.0146,8.41,-14.45,18.29
666,106214844,0.7588,-0.6201,-0.0127,7.01,-13.66,18.72
667,106219844,0.7632,-0.6323,-0.0156,5.61,-12.87,18.96
668,106224844,0.7637,-0.6396,-0.0181,4.45,-11.95,19.02
669,106229844,0.7627,-0.6494,-0.0161,3.54,-11.10,19.15
670,106234843,0.7676,-0.6592,-0.0210,2.74,-10.37,19.09
671,106239841,0.7739,-0.6689,-0.0156,2.26,-9.76,18.96
672,106244842,0.7764,-0.6782,-0.0249,1.95,-8.96,18.78
673,106249841,0.7627,-0.6899,-0.0254,1.95,-8.17,18.35
674,106254844,0.7451,-0.7056,-0.0225,2.13,-7.38,17.99
675,106259841,0.7461,-0.7163,-0.0234,2.38,-6.71,17.62
676,106264843,0.7441,-0.7261,-0.0200,2.74,-6.10,17.13
677,106269842,0.7476,-0.7271,-0.0220,2.93,-5.37,16.59
678,106274843,0.7437,-0.7368,-0.0298,2.99,-4.94,15.85
679,106279843,0.7324,-0.7437,-0.0259,2.93,-4.15,15.24
680,106284843,0.7256,-0.7441,-0.0234,2.62,-3.54,14.39
681,106289843,0.7236,-0.7471,-0.0161,2.07,-2.99,13.54
682,106294841,0.7241,-0.7495,-0.0210,1.40,-2.38,12.87
683,106299843,0.7192,-0.7500,-0.0142,0.67,-1.89,12.07
684,106304844,0.7192,-0.7422,-0.0215,-0.18,-1.28,11.34
685,106309843,0.7178,-0.7441,-0.0176,-0.98,-0.73,10.67
686,106314841,0.7153,-0.7451,-0.0195,-1.95,-0.18,10.12
687,106319843,0.7178,-0.7378,-0.0151,-2.74,0.24,9.39
688,106324842,0.7192,-0.7393,-0.0068,-3.41,0.73,8.84
689,106329841,0.7231,-0.7324,-0.0078,-3.84,1.16,8.35
690,106334843,0.7222,-0.7339,-0.0083,-4.27,1.71,7.80
691,106339845,0.7231,-0.7319,-0.0142,-4.39,2.01,7.32
692,106344842,0.7305,-0.7275,-0.0068,-4.45,2.38,6.83
693,106349841,0.7275,-0.7256,-0.0034,-4.33,2.74,6.34
694,106354841,0.7256,-0.7256,-0.0034,-4.09,2.99,5.85
695,106359862,0.7246,-0.7227,0.0029,-3.84,3.17,5.30
696,106364842,0.7295,-0.7178,0.0083,-3.54,3.41,4.82
697,106369841,0.7271,-0.7202,-0.0059,-2.99,3.78,4.33
698,106374845,0.7231,-0.7129,0.0015,-2.74,3.84,3.90
699,106379842,0.7231,-0.7109,0.0054,-2.44,3.96,3.41
700,106384843,0.7212,-0.7026,0.0054,-1.95,4.21,3.11
701,106389842,0.7202,-0.7012,0.0088,-1.59,4.09,2.80
702,106394841,0.7227,-0.6953,0.0132,-1.40,4.39,2.50
703,106399845,0.7246,-0.6909,0.0122,-1.22,4.51,2.20
704,106404841,0.7231,-0.6890,0.0146,-0.98,4.63,2.20
705,106409890,0.7246,-0.6855,0.0146,-0.79,4.57,2.07
706,106414844,0.7246,-0.6875,0.0205,-0.73,4.63,2.07
707,106419843,0.7227,-0.6802,0.0176,-0.73,4.82,2.07
708,106424843,0.7202,-0.6743,0.0239,-0.67,4.63,2.13
709,106429843,0.7173,-0.6738,0.0186,-0.79,4.88,2.20
710,106434841,0.7114,-0.6685,0.0244,-0.98,4.76,2.38
711,106439843,0.7109,-0.6621,0.0234,-1.16,4.76,2.44
712,106444845,0.7090,-0.6602,0.0225,-1.40,4.63,2.68
713,106449842,0.7036,-0.6621,0.0244,-1.65,4.76,2.87
714,106454841,0.7036,-0.6597,0.0239,-1.83,4.57,3.11
715,106459841,0.7031,-0.6577,0.0200,-1.95,4.51,3.35
716,106464841,0.6992,-0.6606,0.0205,-2.13,4.45,3.66
717,106469845,0.6973,-0.6606,0.0269,-2.32,4.57,4.02
718,106474843,0.6953,-0.6646,0.0273,-2.26,4.45,4.27
719,106479842,0.6938,-0.6597,0.0278,-2.44,4.39,4.57
720,106484841,0.6953,-0.6611,0.0220,-2.68,4.33,4.94
721,106489843,0.6895,-0.6606,0.0332,-2.80,4.21,5.30
722,106494843,0.6938,-0.6602,0.0259,-3.11,4.27,5.73
723,106499843,0.6953,-0.6597,0.0288,-3.35,4.39,6.04
724,106505197,0.7012,-0.6626,0.0244,-3.66,4.45,6.28
725,106509843,0.7007,-0.6660,0.0269,-4.09,4.39,6.59
726,106514843,0.7051,-0.6646,0.0288,-4.45,4.45,7.01
727,106519843,0.7114,-0.6680,0.0308,-5.06,4.51,7.26
728,106524843,0.7129,-0.6685,0.0327,-5.61,4.57,7.32
729,106529843,0.7134,-0.6748,0.0361,-6.10,4.63,7.44
730,106534843,0.7134,-0.6797,0.0366,-6.59,4.57,7.50
731,106539843,0.7153,-0.6792,0.0381,-6.95,4.51,7.62
732,106544844,0.7129,-0.6846,0.0381,-7.26,4.45,7.62
733,106549843,0.7158,-0.6919,0.0342,-7.56,4.39,7.56
734,106554841,0.7129,-0.6870,0.0352,-7.56,4.39,7.50
735,106559843,0.7139,-0.6934,0.0352,-7.56,4.15,7.44
736,106564844,0.7124,-0.6924,0.0317,-7.38,4.27,7.44
737,106569843,0.7109,-0.6992,0.0356,-7.20,4.02,7.32
738,106574843,0.7080,-0.6997,0.0400,-6.89,4.02,7.32
739,106579843,0.7129,-0.7017,0.0347,-6.46,4.02,7.32
740,106584940,0.7090,-0.6973,0.0352,-6.10,3.78,7.26
741,106589843,0.7065,-0.7012,0.0361,-5.61,3.84,7.20
742,106594843,0.7051,-0.6978,0.0293,-5.18,3.60,7.13
743,106599843,0.7065,-0.6997,0.0396,-4.88,3.60,7.13
744,106604843,0.7080,-0.7021,0.0352,-4.51,3.54,7.20
745,106609842,0.7075,-0.7046,0.0303,-4.21,3.48,7.20
746,106614843,0.7026,-0.7046,0.0366,-4.02,3.41,7.26
747,106619842,0.7036,-0.7104,0.0366,-3.90,3.23,7.20
748,106624843,0.6958,-0.7124,0.0366,-3.78,3.29,7.20
749,106629842,0.6929,-0.7139,0.0391,-3.54,2.99,7.07
750,106634843,0.6938,-0.7168,0.0347,-3.60,3.11,6.95
751,106639842,0.6899,-0.7148,0.0308,-3.54,2.99,6.77
752,106644843,0.6899,-0.7139,0.0317,-3.48,2.87,6.65
753,106649842,0.6919,-0.7153,0.0303,-3.48,2.93,6.34
754,106654841,0.6885,-0.7153,0.0293,-3.41,2.80,6.16
755,106659841,0.6841,-0.7222,0.0308,-3.29,2.68,5.91
756,106664845,0.6924,-0.7246,0.0293,-3.23,2.62,5.73
757,106669842,0.6904,-0.7217,0.0298,-2.87,2.68,5.43
758,106674841,0.6870,-0.7217,0.0293,-2.56,2.56,5.18
759,106679845,0.6895,-0.7246,0.0288,-2.44,2.44,5.00
760,106684843,0.6992,-0.7261,0.0259,-1.95,2.38,4.70
761,106689843,0.6963,-0.7246,0.0234,-1.65,2.32,4.39
762,106694843,0.6997,-0.7290,0.0249,-1.40,2.44,4.15
763,106699843,0.7017,-0.7310,0.0220,-1.22,2.44,3.90
764,106704843,0.7046,-0.7310,0.0239,-1.10,2.62,3.72
765,106709843,0.6982,-0.7305,0.0254,-0.98,2.62,3.48
766,106714843,0.7061,-0.7275,0.0249,-0.91,2.80,3.17
767,106719843,0.7070,-0.7300,0.0210,-1.04,2.87,2.87
768,106724843,0.7139,-0.7261,0.0225,-1.10,2.99,2.56
769,106729843,0.7104,-0.7280,0.0200,-1.22,3.23,2.20
770,106734843,0.7109,-0.7290,0.0229,-1.28,3.29,1.83
771,106739843,0.7090,-0.7266,0.0229,-1.46,3.48,1.46
772,106744843,0.7100,-0.7261,0.0176,-1.52,3.60,1.04
773,106749843,0.7119,-0.7261,0.0161,-1.65,3.60,0.67
774,106754841,0.7139,-0.7246,0.0107,-1.59,3.90,0.37
775,106759841,0.7153,-0.7256,0.0088,-1.71,4.02,0.12
776,106764845,0.7183,-0.7207,0.0078,-1.89,4.15,-0.37
777,106769843,0.7178,-0.7197,0.0020,-1.95,4.39,-0.73
778,106774843,0.7148,-0.7188,0.0005,-2.07,4.45,-0.98
779,106779843,0.7148,-0.7173,0.0020,-2.20,4.70,-1.22
780,106784844,0.7119,-0.7163,0.0054,-2.26,4.88,-1.34
781,106789856,0.7109,-0.7129,0.0015,-2.44,4.88,-1.52
782,106794844,0.7114,-0.7153,0.0034,-2.62,5.12,-1.65
783,106799843,0.7104,-0.7075,-0.0010,-2.87,5.18,-1.77
784,106804841,0.7100,-0.7036,-0.0010,-2.99,5.43,-1.83
785,106809843,0.7085,-0.7012,-0.0034,-3.11,5.55,-1.89
786,106814842,0.7104,-0.6992,0.0015,-3.48,5.61,-1.71
787,106819843,0.7085,-0.6943,0.0034,-3.60,5.67,-1.77
788,106824843,0.7095,-0.6904,-0.0010,-3.72,5.79,-1.65
789,106829842,0.7070,-0.6885,0.0044,-3.78,5.91,-1.59
790,106834843,0.7119,-0.6895,0.0015,-3.60,6.16,-1.40
791,106839842,0.7124,-0.6851,0.0044,-3.66,6.22,-1.28
792,106844845,0.7119,-0.6895,0.0044,-3.41,6.40,-1.16
793,106849842,0.7144,-0.6885,0.0044,-3.11,6.52,-0.85
794,106854845,0.7095,-0.6929,0.0127,-2.80,6.65,-0.79
795,106859842,0.7124,-0.6890,0.0093,-2.62,6.83,-0.61
796,106864930,0.7095,-0.6899,0.0181,-2.44,7.01,-0.49
797,106869843,0.7124,-0.6924,0.0195,-2.32,7.13,-0.43
798,106874843,0.7100,-0.6924,0.0181,-2.20,7.26,-0.49
799,106879843,0.7090,-0.6943,0.0186,-2.20,7.38,-0.49
800,106884843,0.7080,-0.6929,0.0259,-2.32,7.44,-0.49
801,106889843,0.7100,-0.6948,0.0298,-2.13,7.44,-0.43
802,106894843,0.7095,-0.6992,0.0273,-2.26,7.50,-0.49
803,106899843,0.7056,-0.6987,0.0259,-2.13,7.44,-0.55
804,106904843,0.7070,-0.6968,0.0308,-2.20,7.44,-0.61
805,106909843,0.7100,-0.6943,0.0278,-2.01,7.38,-0.67
806,106914843,0.7090,-0.6948,0.0312,-1.95,7.56,-0.79
807,106919843,0.7051,-0.6914,0.0386,-1.83,7.56,-0.73
808,106924843,0.7070,-0.6948,0.0366,-1.52,7.50,-0.79
809,106929843,0.7075,-0.6943,0.0366,-1.34,7.44,-0.79
810,106934978,0.7065,-0.6914,0.0376,-0.91,7.32,-0.67
811,106939842,0.7061,-0.6948,0.0361,-0.55,7.13,-0.61
812,106944845,0.7017,-0.6919,0.0381,-0.30,7.13,-0.67
813,106949842,0.7046,-0.6880,0.0361,-0.06,6.95,-0.61
814,106954845,0.7041,-0.6958,0.0435,0.24,6.89,-0.61
815,106959841,0.7075,-0.6841,0.0376,0.55,6.71,-0.61
816,106964842,0.7036,-0.6831,0.0449,0.73,6.46,-0.55
817,106969843,0.7051,-0.6812,0.0415,0.98,6.22,-0.43
818,106975255,0.7119,-0.6797,0.0396,1.10,6.10,-0.43
819,106979843,0.7090,-0.6758,0.0435,1.16,6.04,-0.43
820,106984842,0.7090,-0.6689,0.0396,1.22,5.91,-0.24
821,106989845,0.7114,-0.6689,0.0469,1.28,5.73,-0.18
822,106994843,0.7124,-0.6709,0.0503,1.22,5.61,-0.06
823,106999843,0.7163,-0.6675,0.0469,1.22,5.55,0.06
824,107004842,0.7139,-0.6724,0.0439,1.22,5.37,0.18
825,107009843,0.7197,-0.6689,0.0493,1.28,5.24,0.37
826,107014843,0.7212,-0.6680,0.0557,1.22,5.24,0.43
827,107019843,0.7236,-0.6680,0.0479,1.10,5.18,0.55
828,107024842,0.7285,-0.6704,0.0483,1.04,5.12,0.61
829,107029843,0.7290,-0.6709,0.0542,0.91,4.94,0.79
830,107034843,0.7324,-0.6738,0.0483,0.73,4.76,0.73
831,107039843,0.7354,-0.6772,0.0527,0.55,4.63,0.79
832,107044844,0.7354,-0.6729,0.0508,0.24,4.51,0.79
833,107049843,0.7393,-0.6782,0.0503,0.06,4.33,0.73
834,107054842,0.7393,-0.6812,0.0527,-0.24,4.27,0.79
835,107059843,0.7373,-0.6772,0.0498,-0.49,4.21,0.79
836,107064841,0.7329,-0.6787,0.0513,-0.85,4.15,0.85
837,107069845,0.7363,-0.6763,0.0508,-1.04,3.90,0.79
838,107074843,0.7285,-0.6763,0.0566,-1.22,3.96,0.85
839,107079842,0.7261,-0.6763,0.0469,-1.46,3.78,0.85
840,107084843,0.7212,-0.6763,0.0459,-1.46,3.60,0.98
841,107089842,0.7134,-0.6812,0.0405,-1.46,3.48,0.98
842,107094843,0.7085,-0.6802,0.0493,-1.22,3.35,1.04
843,107099842,0.7041,-0.6821,0.0405,-1.16,2.99,1.10
844,107104843,0.6987,-0.6807,0.0400,-0.85,2.68,1.10
845,107109843,0.6943,-0.6816,0.0410,-0.55,2.38,1.22
846,107114845,0.6914,-0.6777,0.0352,-0.24,2.20,1.16
847,107119843,0.6890,-0.6758,0.0361,0.00,2.01,1.16
848,107124845,0.6909,-0.6777,0.0347,0.12,1.71,1.28
849,107129842,0.6943,-0.6729,0.0322,0.37,1.59,1.28
850,107134845,0.6963,-0.6787,0.0347,0.55,1.16,1.40
851,107139842,0.7012,-0.6743,0.0337,0.61,1.04,1.40
852,107144843,0.7046,-0.6743,0.0366,0.67,0.85,1.46
853,107149842,0.7114,-0.6724,0.0264,0.61,0.79,1.59
854,107154843,0.7139,-0.6733,0.0293,0.55,0.67,1.52
855,107159846,0.7202,-0.6704,0.0366,0.61,0.43,1.71
856,107164842,0.7222,-0.6738,0.0366,0.30,0.43,1.71
857,107169841,0.7256,-0.6714,0.0308,0.18,0.43,1.77
858,107174843,0.7246,-0.6709,0.0366,0.00,0.37,1.77
859,107179843,0.7202,-0.6743,0.0342,-0.12,0.37,1.77
860,107184844,0.7207,-0.6733,0.0347,-0.18,0.24,1.83
861,107189843,0.7188,-0.6748,0.0347,-0.24,0.43,1.83
862,107194844,0.7192,-0.6743,0.0273,-0.06,0.37,1.89
863,107199843,0.7168,-0.6782,0.0283,-0.06,0.43,1.95
864,107204843,0.7139,-0.6777,0.0254,0.18,0.24,1.95
865,107209843,0.7134,-0.6782,0.0171,0.49,0.37,2.07
866,107215211,0.7090,-0.6777,0.0264,0.73,0.24,2.13
867,107219843,0.7070,-0.6792,0.0244,1.04,0.37,2.07
868,107226955,0.7119,-0.6768,0.0200,1.28,0.24,2.26
869,107229843,0.7134,-0.6768,0.0239,1.46,0.30,2.32
870,107234845,0.7104,-0.6816,0.0200,1.59,0.24,2.38
871,107239842,0.7139,-0.6802,0.0254,1.65,0.30,2.38
872,107244843,0.7129,-0.6802,0.0205,1.77,0.37,2.38
873,107249842,0.7173,-0.6836,0.0210,1.65,0.43,2.50
874,107254844,0.7168,-0.6797,0.0225,1.65,0.43,2.50
875,107259842,0.7202,-0.6831,0.0293,1.52,0.30,2.50
876,107264841,0.7217,-0.6812,0.0254,1.34,0.43,2.56
877,107269841,0.7295,-0.6802,0.0269,1.04,0.37,2.56
878,107274845,0.7305,-0.6851,0.0259,0.85,0.37,2.44
879,107279842,0.7295,-0.6802,0.0234,0.49,0.49,2.32
880,107284843,0.7305,-0.6846,0.0254,0.12,0.55,2.26
881,107289849,0.7354,-0.6826,0.0278,-0.18,0.49,2.13
882,107294845,0.7388,-0.6841,0.0278,-0.55,0.55,2.01
883,107299842,0.7383,-0.6860,0.0244,-0.79,0.61,1.95
884,107304843,0.7407,-0.6841,0.0210,-0.85,0.67,1.83
885,107309842,0.7456,-0.6821,0.0254,-0.85,0.79,1.71
886,107314843,0.7407,-0.6865,0.0249,-0.61,0.79,1.46
887,107319842,0.7388,-0.6836,0.0264,-0.43,0.91,1.28
888,107324841,0.7383,-0.6851,0.0225,-0.12,1.04,1.16
889,107329843,0.7344,-0.6860,0.0244,0.18,1.04,1.10
890,107334843,0.7349,-0.6919,0.0254,0.55,1.16,0.91
891,107339842,0.7300,-0.6914,0.0239,0.85,1.34,0.79
892,107344843,0.7271,-0.6914,0.0190,1.16,1.40,0.73
893,107349842,0.7212,-0.6929,0.0195,1.40,1.40,0.43
894,107354844,0.7192,-0.6914,0.0205,1.52,1.52,0.37
895,107359842,0.7173,-0.6865,0.0200,1.52,1.65,0.12
896,107364845,0.7168,-0.6841,0.0176,1.65,1.59,-0.06
897,107369841,0.7153,-0.6846,0.0151,1.59,1.77,-0.24
898,107374841,0.7114,-0.6875,0.0186,1.59,1.77,-0.37
899,107379954,0.7153,-0.6890,0.0132,1.40,1.89,-0.55
900,107384843,0.7178,-0.6846,0.0103,1.16,2.01,-0.73
901,107389842,0.7168,-0.6816,0.0151,0.91,2.20,-0.91
902,107394843,0.7158,-0.6802,0.0107,0.61,2.20,-1.04
903,107399842,0.7227,-0.6748,0.0132,0.24,2.50,-1.28
904,107404843,0.7217,-0.6748,0.0083,-0.12,2.56,-1.28
905,107409842,0.7280,-0.6714,0.0127,-0.61,2.56,-1.28
906,107414843,0.7290,-0.6724,0.0117,-0.98,2.93,-1.34
907,107419842,0.7251,-0.6685,0.0078,-1.28,2.93,-1.34
908,107424843,0.7285,-0.6670,0.0098,-1.83,3.11,-1.52
909,107429842,0.7261,-0.6694,0.0083,-2.07,3.05,-1.52
910,107434843,0.7271,-0.6621,0.0107,-2.50,3.29,-1.46
911,107439842,0.7246,-0.6636,0.0132,-2.87,3.29,-1.46
912,107444843,0.7266,-0.6631,0.0083,-3.17,3.41,-1.40
913,107449843,0.7246,-0.6616,0.0137,-3.29,3.41,-1.28
914,107454844,0.7261,-0.6587,0.0088,-3.66,3.48,-1.22
915,107459843,0.7285,-0.6562,0.0078,-3.84,3.60,-1.16
916,107464842,0.7280,-0.6567,0.0127,-4.27,3.78,-0.98
917,107469843,0.7280,-0.6509,0.0161,-4.39,4.02,-0.85
918,107474842,0.7349,-0.6543,0.0039,-4.70,4.45,-0.79
919,107479841,0.7368,-0.6543,0.0083,-4.94,4.51,-0.73
920,107484845,0.7368,-0.6514,0.0005,-5.18,4.94,-0.67
921,107489842,0.7373,-0.6509,0.0054,-5.61,5.18,-0.61
922,107494843,0.7383,-0.6475,0.0073,-5.79,5.43,-0.43
923,107499842,0.7432,-0.6465,0.0054,-6.28,5.61,-0.37
924,107504843,0.7422,-0.6484,0.0078,-6.52,5.98,-0.24
925,107509842,0.7437,-0.6470,0.0083,-6.89,6.34,-0.12
926,107514843,0.7437,-0.6470,0.0088,-7.44,6.40,-0.06
927,107519842,0.7407,-0.6479,0.0117,-7.80,6.59,0.24
928,107524841,0.7358,-0.6455,0.0068,-8.17,6.89,0.43
929,107529843,0.7344,-0.6479,0.0127,-8.54,7.07,0.61
930,107534845,0.7295,-0.6514,0.0117,-8.78,7.32,0.91
931,107539842,0.7271,-0.6519,0.0107,-9.15,7.38,1.04
932,107544843,0.7290,-0.6558,0.0132,-9.45,7.38,1.22
933,107549842,0.7197,-0.6553,0.0127,-9.70,7.68,1.28
934,107554843,0.7183,-0.6528,0.0098,-9.82,7.87,1.52
935,107559842,0.7158,-0.6553,0.0146,-10.12,7.99,1.52
936,107564843,0.7163,-0.6533,0.0107,-10.30,8.29,1.65
937,107569842,0.7188,-0.6523,0.0137,-10.49,8.41,1.59
938,107574841,0.7231,-0.6558,0.0093,-10.61,8.66,1.59
939,107579841,0.7246,-0.6543,0.0161,-10.55,8.90,1.65
940,107584845,0.7319,-0.6572,0.0186,-10.55,9.02,1.71
941,107589842,0.7358,-0.6548,0.0176,-10.49,9.45,1.77
942,107594843,0.7354,-0.6592,0.0186,-10.43,9.63,1.89
943,107599842,0.7339,-0.6543,0.0210,-10.37,9.82,1.95
944,107604841,0.7334,-0.6519,0.0166,-10.18,10.00,2.07
945,107609843,0.7373,-0.6514,0.0137,-10.12,10.18,2.20
946,107614844,0.7349,-0.6528,0.0142,-9.94,10.49,2.44
947,107619843,0.7329,-0.6548,0.0098,-10.06,10.79,2.56
948,107624843,0.7295,-0.6494,0.0122,-10.00,11.10,2.74
949,107629843,0.7324,-0.6553,0.0073,-10.00,11.28,2.99
950,107634843,0.7319,-0.6562,0.0127,-10.18,11.34,3.17
951,107639843,0.7251,-0.6558,0.0088,-10.30,11.65,3.41
952,107644843,0.7256,-0.6587,0.0156,-10.43,11.77,3.60
953,107649843,0.7290,-0.6626,0.0103,-10.55,12.07,3.72
954,107654843,0.7285,-0.6636,0.0151,-10.91,12.13,3.78
955,107659843,0.7275,-0.6660,0.0181,-11.04,12.13,3.90
956,107664843,0.7266,-0.6670,0.0225,-11.28,12.32,3.96
957,107669843,0.7324,-0.6646,0.0195,-11.28,12.44,3.78
958,107674841,0.7339,-0.6665,0.0234,-11.40,12.56,3.66
959,107679841,0.7329,-0.6650,0.0215,-11.34,12.62,3.78
960,107684844,0.7358,-0.6646,0.0249,-11.28,12.87,3.84
961,107689843,0.7310,-0.6660,0.0181,-11.10,12.87,3.78
962,107694843,0.7329,-0.6660,0.0171,-10.91,12.87,3.72
963,107699843,0.7305,-0.6694,0.0215,-10.73,12.93,3.72
964,107704843,0.7339,-0.6646,0.0186,-10.67,13.05,3.78
965,107709901,0.7295,-0.6626,0.0181,-10.43,13.23,3.84
966,107714844,0.7251,-0.6621,0.0132,-10.37,13.35,3.84
967,107719843,0.7266,-0.6636,0.0215,-10.30,13.29,3.84
968,107724844,0.7241,-0.6597,0.0195,-10.30,13.54,3.90
969,107729843,0.7295,-0.6626,0.0127,-10.30,13.60,3.78
970,107734843,0.7251,-0.6611,0.0161,-10.49,13.72,3.78
971,107739843,0.7285,-0.6602,0.0190,-10.61,13.72,3.72
972,107744843,0.7314,-0.6636,0.0210,-10.73,13.90,3.78
973,107749843,0.7300,-0.6621,0.0186,-10.85,13.96,3.84
974,107754843,0.7305,-0.6611,0.0190,-11.10,13.96,3.84
975,107759843,0.7344,-0.6616,0.0186,-11.22,14.02,3.96
976,107764843,0.7358,-0.6597,0.0161,-11.52,14.09,3.90
977,107769843,0.7402,-0.6611,0.0254,-11.77,14.21,4.02
978,107774844,0.7378,-0.6587,0.0225,-11.95,14.27,4.15
979,107779843,0.7383,-0.6567,0.0239,-12.20,14.33,4.15
980,107784841,0.7358,-0.6597,0.0195,-12.44,14.39,4.33
981,107789843,0.7295,-0.6577,0.0288,-12.62,14.39,4.39
982,107794843,0.7329,-0.6582,0.0269,-12.74,14.51,4.63
983,107799842,0.7285,-0.6597,0.0332,-12.99,14.39,4.63
984,107804933,0.7285,-0.6592,0.0342,-13.17,14.45,4.57
985,107809842,0.7280,-0.6582,0.0322,-13.29,14.33,4.63
986,107814845,0.7290,-0.6572,0.0312,-13.48,14.33,4.57
987,107819842,0.7305,-0.6489,0.0371,-13.66,14.15,4.57
988,107824843,0.7295,-0.6509,0.0342,-13.66,14.02,4.51
989,107829842,0.7310,-0.6494,0.0366,-13.84,13.96,4.57
990,107834841,0.7344,-0.6426,0.0420,-13.84,13.96,4.63
991,107839843,0.7354,-0.6406,0.0352,-13.78,13.66,4.76
992,107844936,0.7373,-0.6406,0.0396,-13.72,13.60,4.94
993,107849842,0.7427,-0.6392,0.0425,-13.72,13.54,5.24
994,107854843,0.7490,-0.6338,0.0459,-13.66,13.23,5.49
995,107859842,0.7456,-0.6387,0.0405,-13.48,13.23,5.91
996,107864843,0.7456,-0.6377,0.0415,-13.54,13.23,6.22
997,107869842,0.7441,-0.6416,0.0474,-13.60,13.05,6.65
998,107875147,0.7480,-0.6479,0.0474,-13.60,12.99,7.01
999,107879844,0.7397,-0.6523,0.0435,-13.78,12.80,7.26
1000,107884842,0.7383,-0.6572,0.0547,-13.72,12.62,7.56
1001,107889904,0.7305,-0.6562,0.0503,-13.84,12.50,7.62
1002,107894843,0.7280,-0.6592,0.0542,-13.96,12.26,7.68
1003,107899843,0.7236,-0.6680,0.0542,-13.84,11.89,7.68
1004,107904843,0.7207,-0.6733,0.0532,-13.84,11.77,7.68
1005,107909843,0.7168,-0.6753,0.0508,-13.72,11.34,7.68
1006,107914843,0.7144,-0.6782,0.0503,-13.60,11.16,7.74
1007,107919843,0.7104,-0.6787,0.0518,-13.23,10.98,7.68
1008,107924843,0.7095,-0.6816,0.0547,-13.17,10.73,7.74
1009,107929843,0.7061,-0.6816,0.0513,-12.93,10.49,7.87
1010,107934841,0.7065,-0.6831,0.0503,-12.87,10.43,7.99
1011,107940586,0.7036,-0.6870,0.0522,-12.68,10.43,8.11
1012,107944843,0.6948,-0.6968,0.0488,-12.80,10.18,8.29
1013,107949842,0.6914,-0.6938,0.0479,-12.74,10.30,8.41
1014,107954845,0.6958,-0.7036,0.0527,-12.87,10.18,8.48
1015,107959842,0.6880,-0.7046,0.0532,-12.93,10.12,8.41
1016,107964843,0.6909,-0.7075,0.0552,-13.11,10.18,8.35
1017,107969842,0.6870,-0.7114,0.0610,-13.41,10.12,8.23
1018,107974843,0.6802,-0.7144,0.0605,-13.60,10.00,8.11
1019,107979842,0.6826,-0.7227,0.0605,-13.90,10.00,7.87
1020,107984841,0.6851,-0.7227,0.0669,-14.02,9.63,7.50
1021,107989841,0.6846,-0.7246,0.0640,-14.33,9.51,7.26
1022,107994978,0.6855,-0.7251,0.0713,-14.57,9.15,6.89
1023,107999842,0.6904,-0.7290,0.0664,-14.63,8.72,6.59
1024,108004841,0.6948,-0.7222,0.0713,-14.76,8.23,6.34
1025,108009843,0.7002,-0.7222,0.0684,-14.70,7.93,6.10
1026,108014842,0.7021,-0.7153,0.0732,-14.63,7.44,5.79
1027,108019844,0.7041,-0.7095,0.0664,-14.45,7.01,5.43
1028,108024841,0.7075,-0.7012,0.0708,-13.96,6.52,5.24
1029,108029843,0.7144,-0.6953,0.0688,-13.35,6.28,5.06
1030,108034842,0.7173,-0.6855,0.0669,-12.68,5.91,4.94
1031,108039844,0.7217,-0.6768,0.0654,-11.77,5.67,4.88
1032,108044843,0.7222,-0.6704,0.0601,-10.85,5.37,4.88
1033,108049845,0.7280,-0.6675,0.0605,-9.82,5.18,4.94
1034,108054843,0.7339,-0.6606,0.0591,-8.66,5.00,5.06
1035,108059843,0.7368,-0.6582,0.0508,-7.50,4.76,5.24
1036,108064844,0.7383,-0.6592,0.0420,-6.28,4.57,5.49
1037,108069843,0.7397,-0.6562,0.0430,-5.12,4.39,5.85
1038,108074990,0.7427,-0.6533,0.0439,-4.09,4.27,6.04
1039,108079843,0.7471,-0.6558,0.0444,-3.23,4.02,6.40
1040,108084841,0.7441,-0.6548,0.0376,-2.32,4.09,6.77
1041,108089841,0.7432,-0.6533,0.0288,-1.52,4.15,7.13
1042,108094844,0.7407,-0.6592,0.0322,-0.79,4.02,7.38
1043,108099843,0.7373,-0.6582,0.0293,-0.37,4.02,7.62
1044,108104843,0.7334,-0.6567,0.0239,0.00,4.09,7.93
1045,108109843,0.7266,-0.6606,0.0259,0.18,4.21,8.17
1046,108114843,0.7271,-0.6641,0.0205,0.18,4.15,8.29
1047,108119843,0.7246,-0.6641,0.0171,0.12,4.33,8.41
1048,108125343,0.7207,-0.6670,0.0171,-0.12,4.63,8.54
1049,108129843,0.7183,-0.6680,0.0132,-0.18,4.76,8.60
1050,108134843,0.7158,-0.6719,0.0176,-0.55,4.94,8.66
1051,108139843,0.7144,-0.6738,0.0078,-0.79,5.18,8.72
1052,108144843,0.7124,-0.6733,0.0059,-1.22,5.49,8.60
1053,108149842,0.7139,-0.6782,0.0098,-1.34,5.61,8.66
1054,108154843,0.7163,-0.6821,0.0142,-1.65,5.85,8.66
1055,108159844,0.7153,-0.6880,0.0059,-1.89,6.04,8.60
1056,108164843,0.7173,-0.6904,0.0117,-2.20,6.22,8.66
1057,108169843,0.7192,-0.6968,0.0054,-2.50,6.40,8.54
1058,108174950,0.7212,-0.7002,0.0156,-2.80,6.71,8.54
1059,108179843,0.7222,-0.6987,0.0151,-3.11,6.83,8.41
1060,108184843,0.7183,-0.7046,0.0176,-3.48,7.13,8.29
1061,108189843,0.7202,-0.7114,0.0210,-3.84,7.32,7.99
1062,108194905,0.7227,-0.7139,0.0166,-4.15,7.32,7.80
1063,108199843,0.7212,-0.7163,0.0254,-4.51,7.56,7.44
1064,108204842,0.7197,-0.7207,0.0186,-4.88,7.50,7.13
1065,108209843,0.7207,-0.7251,0.0254,-5.12,7.56,6.89
1066,108214842,0.7236,-0.7256,0.0215,-5.43,7.62,6.40
1067,108219843,0.7207,-0.7285,0.0254,-5.49,7.68,5.91
1068,108224841,0.7222,-0.7266,0.0332,-5.55,7.62,5.43
1069,108229843,0.7212,-0.7290,0.0327,-5.67,7.50,5.12
1070,108234843,0.7222,-0.7300,0.0322,-5.55,7.26,4.63
1071,108239843,0.7188,-0.7300,0.0352,-5.37,7.13,4.15
1072,108244842,0.7183,-0.7339,0.0352,-5.24,6.95,3.60
1073,108249843,0.7168,-0.7344,0.0371,-5.12,6.89,3.17
1074,108254842,0.7158,-0.7305,0.0361,-4.88,6.52,2.74
1075,108259841,0.7173,-0.7290,0.0347,-4.63,6.34,2.26
1076,108264843,0.7188,-0.7227,0.0415,-4.39,6.04,1.71
1077,108269843,0.7173,-0.7241,0.0430,-3.96,5.79,1.16
1078,108274842,0.7188,-0.7212,0.0420,-3.72,5.49,0.67
1079,108279844,0.7222,-0.7217,0.0439,-3.29,5.37,0.18
1080,108284843,0.7227,-0.7183,0.0415,-3.05,5.12,-0.30
1081,108289843,0.7275,-0.7183,0.0430,-2.56,5.06,-0.67
1082,108294841,0.7227,-0.7158,0.0483,-2.13,4.70,-1.04
1083,108299843,0.7275,-0.7119,0.0513,-1.89,4.45,-1.46
1084,108304843,0.7251,-0.7061,0.0469,-1.46,4.33,-1.71
1085,108309842,0.7236,-0.7080,0.0474,-1.22,4.15,-2.01
1086,108314843,0.7246,-0.6987,0.0449,-0.98,3.90,-2.20
1087,108319841,0.7227,-0.6953,0.0449,-0.79,3.90,-2.50
1088,108324843,0.7188,-0.6899,0.0459,-0.73,3.78,-2.56
1089,108329842,0.7173,-0.6860,0.0449,-0.61,3.60,-2.68
1090,108334843,0.7178,-0.6870,0.0430,-0.61,3.54,-2.68
1091,108339841,0.7139,-0.6816,0.0410,-0.61,3.48,-2.56
1092,108344843,0.7119,-0.6812,0.0435,-0.61,3.35,-2.44
1093,108349842,0.7119,-0.6743,0.0439,-0.79,3.35,-2.38
1094,108354843,0.7100,-0.6768,0.0420,-0.79,3.29,-2.20
1095,108359842,0.7109,-0.6753,0.0479,-0.98,3.17,-2.13
1096,108364843,0.7124,-0.6709,0.0430,-1.10,3.11,-1.89
1097,108369841,0.7129,-0.6729,0.0361,-1.10,3.05,-1.71
1098,108374843,0.7114,-0.6733,0.0381,-1.22,2.99,-1.59
1099,108379842,0.7090,-0.6729,0.0376,-1.16,2.87,-1.34
1100,108384843,0.7129,-0.6738,0.0449,-1.04,2.80,-1.16
1101,108389843,0.7129,-0.6738,0.0371,-0.91,2.56,-0.98
1102,108394843,0.7114,-0.6724,0.0400,-0.67,2.44,-0.79
1103,108399924,0.7139,-0.6709,0.0405,-0.43,2.26,-0.61
1104,108404843,0.7153,-0.6724,0.0420,-0.06,2.26,-0.43
1105,108409843,0.7139,-0.6748,0.0474,0.30,2.07,-0.37
1106,108414843,0.7183,-0.6758,0.0425,0.79,2.07,-0.30
1107,108420274,0.7144,-0.6782,0.0425,1.10,1.95,-0.18
1108,108424843,0.7178,-0.6714,0.0474,1.59,1.95,0.00
1109,108429842,0.7158,-0.6787,0.0444,1.83,1.89,0.06
1110,108434843,0.7178,-0.6802,0.0474,2.20,1.89,0.12
1111,108439841,0.7178,-0.6812,0.0483,2.32,1.77,0.18
1112,108444845,0.7188,-0.6802,0.0430,2.62,1.65,0.18
1113,108449843,0.7192,-0.6826,0.0425,2.62,1.65,0.18
1114,108454843,0.7178,-0.6860,0.0469,2.80,1.52,0.30
1115,108459843,0.7124,-0.6860,0.0479,2.87,1.59,0.37
1116,108464843,0.7104,-0.6836,0.0508,2.80,1.40,0.43
1117,108469842,0.7109,-0.6831,0.0444,2.68,1.34,0.49
1118,108474843,0.7104,-0.6792,0.0488,2.80,1.34,0.61
1119,108480143,0.7041,-0.6802,0.0503,2.68,1.16,0.61
1120,108484843,0.7065,-0.6768,0.0488,2.62,0.98,0.67
1121,108489842,0.7104,-0.6797,0.0522,2.68,0.85,0.67
1122,108494843,0.7129,-0.6802,0.0532,2.80,0.91,0.67
1123,108499841,0.7114,-0.6802,0.0552,2.87,0.73,0.67
1124,108504845,0.7148,-0.6772,0.0522,3.11,0.55,0.79
1125,108509843,0.7188,-0.6802,0.0503,3.35,0.43,0.85
1126,108514843,0.7212,-0.6816,0.0542,3.84,0.37,0.91
1127,108519841,0.7178,-0.6870,0.0547,4.27,0.18,0.98
1128,108524845,0.7246,-0.6841,0.0474,4.82,0.00,0.98
1129,108529842,0.7236,-0.6870,0.0542,5.24,0.06,1.10
1130,108534843,0.7227,-0.6880,0.0591,5.61,-0.18,1.04
1131,108539842,0.7256,-0.6899,0.0571,5.91,-0.43,0.98
1132,108544843,0.7222,-0.6919,0.0537,6.22,-0.43,0.98
1133,108549843,0.7197,-0.6904,0.0537,6.59,-0.55,0.98
1134,108554842,0.7202,-0.6909,0.0503,6.59,-0.67,0.79
1135,108559841,0.7183,-0.6885,0.0566,6.77,-0.73,0.73
1136,108564845,0.7188,-0.6855,0.0552,6.83,-0.85,0.67
1137,108569842,0.7148,-0.6870,0.0522,6.77,-1.04,0.55
1138,108574843,0.7173,-0.6860,0.0552,6.77,-1.16,0.49
1139,108579842,0.7183,-0.6855,0.0591,6.65,-1.34,0.43
1140,108584843,0.7173,-0.6846,0.0537,6.46,-1.59,0.30
1141,108590258,0.7148,-0.6870,0.0552,6.28,-1.77,0.30
1142,108594843,0.7173,-0.6846,0.0562,6.16,-1.89,0.37
1143,108599842,0.7134,-0.6836,0.0581,6.22,-2.13,0.30
1144,108604930,0.7144,-0.6836,0.0469,6.16,-2.44,0.37
1145,108610280,0.7158,-0.6802,0.0488,6.34,-2.50,0.43
1146,108614843,0.7178,-0.6753,0.0532,6.46,-2.74,0.49
1147,108619842,0.7178,-0.6748,0.0571,6.52,-2.74,0.55
1148,108624843,0.7178,-0.6714,0.0566,6.71,-2.80,0.55
1149,108629842,0.7188,-0.6670,0.0522,6.83,-2.99,0.67
1150,108634843,0.7217,-0.6650,0.0571,7.07,-3.05,0.85
1151,108639842,0.7207,-0.6680,0.0581,7.20,-3.17,0.91
1152,108644843,0.7188,-0.6660,0.0571,7.20,-3.23,1.04
1153,108649841,0.7222,-0.6685,0.0464,7.32,-3.29,1.10
1154,108654843,0.7178,-0.6660,0.0571,7.44,-3.60,1.34
1155,108659871,0.7207,-0.6665,0.0586,7.50,-3.72,1.40
1156,108664843,0.7192,-0.6709,0.0591,7.80,-3.72,1.59
1157,108669842,0.7183,-0.6655,0.0547,7.99,-3.96,1.77
1158,108674843,0.7207,-0.6655,0.0557,8.17,-4.21,1.83
1159,108679842,0.7231,-0.6626,0.0566,8.54,-4.27,1.89
1160,108684844,0.7192,-0.6631,0.0532,8.90,-4.45,2.13
1161,108689842,0.7207,-0.6587,0.0483,9.33,-4.45,2.26
1162,108694843,0.7207,-0.6572,0.0537,9.82,-4.51,2.38
1163,108699841,0.7192,-0.6470,0.0513,10.30,-4.70,2.56
1164,108704841,0.7197,-0.6445,0.0464,10.67,-4.82,2.68
1165,108709843,0.7183,-0.6411,0.0557,11.22,-4.76,2.99
1166,108714843,0.7163,-0.6392,0.0474,11.77,-4.82,3.29
1167,108719842,0.7168,-0.6353,0.0444,12.32,-4.94,3.66
1168,108724843,0.7188,-0.6387,0.0400,12.68,-4.94,3.90
1169,108729841,0.7173,-0.6348,0.0396,13.29,-4.94,4.39
1170,108734845,0.7183,-0.6357,0.0356,13.35,-4.94,4.76
1171,108739842,0.7139,-0.6353,0.0342,13.72,-4.88,5.24
1172,108744843,0.7153,-0.6318,0.0371,13.90,-4.82,5.55
1173,108749841,0.7183,-0.6348,0.0381,14.02,-4.82,5.98
1174,108754843,0.7158,-0.6343,0.0361,13.84,-4.82,6.34
1175,108759843,0.7178,-0.6343,0.0342,13.54,-4.76,6.71
1176,108764842,0.7188,-0.6387,0.0327,13.35,-4.70,7.13
1177,108769844,0.7188,-0.6367,0.0303,13.17,-4.57,7.38
1178,108774843,0.7227,-0.6392,0.0352,12.68,-4.45,7.68
1179,108779843,0.7236,-0.6367,0.0352,12.20,-4.39,7.87
1180,108784843,0.7285,-0.6416,0.0356,11.83,-4.33,8.23
1181,108789843,0.7271,-0.6431,0.0312,11.34,-4.33,8.48
1182,108794843,0.7251,-0.6436,0.0264,10.98,-4.15,8.66
1183,108799844,0.7324,-0.6455,0.0269,10.67,-4.09,8.90
1184,108804842,0.7295,-0.6489,0.0220,10.49,-4.27,9.15
1185,108809928,0.7305,-0.6533,0.0259,10.37,-4.21,9.39
1186,108814842,0.7275,-0.6553,0.0229,10.24,-4.15,9.51
1187,108819844,0.7300,-0.6548,0.0200,10.30,-4.33,9.76
1188,108824843,0.7280,-0.6602,0.0308,10.30,-4.21,9.94
1189,108829843,0.7280,-0.6641,0.0229,10.49,-4.09,10.06
1190,108834843,0.7256,-0.6665,0.0190,10.55,-4.02,10.24
1191,108839843,0.7261,-0.6738,0.0200,10.61,-3.90,10.37
1192,108844843,0.7251,-0.6743,0.0220,10.55,-3.60,10.49
1193,108849843,0.7236,-0.6772,0.0171,10.30,-3.54,10.55
1194,108854843,0.7197,-0.6860,0.0273,10.06,-3.41,10.49
1195,108859841,0.7163,-0.6860,0.0308,9.63,-3.17,10.49
1196,108864843,0.7139,-0.6919,0.0273,9.09,-2.99,10.30
1197,108869844,0.7148,-0.6948,0.0273,8.48,-2.87,10.06
1198,108874843,0.7134,-0.6938,0.0312,7.87,-2.80,9.88
1199,108879843,0.7109,-0.6929,0.0347,7.26,-2.62,9.51
1200,108884843,0.7144,-0.7036,0.0352,6.46,-2.44,9.33
1201,108889843,0.7153,-0.6992,0.0312,5.98,-2.32,9.09
1202,108894843,0.7104,-0.7017,0.0420,5.37,-2.26,8.72
1203,108899844,0.7129,-0.6987,0.0317,4.94,-2.13,8.66
1204,108904842,0.7095,-0.7002,0.0366,4.70,-1.89,8.29
1205,108909841,0.7139,-0.6973,0.0400,4.63,-1.65,8.11
1206,108914842,0.7134,-0.6934,0.0405,4.45,-1.71,7.80
1207,108919843,0.7129,-0.6934,0.0400,4.51,-1.46,7.68
1208,108924842,0.7119,-0.6938,0.0459,4.63,-1.34,7.56
1209,108929843,0.7153,-0.6938,0.0449,4.76,-1.22,7.32
1210,108934843,0.7134,-0.6934,0.0508,5.00,-1.04,7.20
1211,108940294,0.7119,-0.6934,0.0439,5.30,-1.04,7.07
1212,108944845,0.7124,-0.6938,0.0444,5.37,-0.98,6.95
1213,108949843,0.7163,-0.6895,0.0513,5.55,-0.79,6.95
1214,108954843,0.7168,-0.6899,0.0547,5.49,-0.85,6.89
1215,108959986,0.7173,-0.6895,0.0498,5.49,-0.61,6.83
1216,108964844,0.7173,-0.6855,0.0542,5.55,-0.73,6.71
1217,108970007,0.7202,-0.6895,0.0571,5.37,-0.73,6.77
1218,108974843,0.7178,-0.6851,0.0581,5.12,-0.73,6.77
1219,108979843,0.7134,-0.6846,0.0552,4.88,-0.67,6.77
1220,108984843,0.7148,-0.6812,0.0532,4.70,-0.61,6.83
1221,108989842,0.7144,-0.6787,0.0542,4.39,-0.61,6.83
1222,108994844,0.7036,-0.6797,0.0693,4.09,-0.55,6.89
1223,109000064,0.7056,-0.6772,0.0527,3.84,-0.73,7.07
1224,109004843,0.7017,-0.6699,0.0620,3.60,-0.73,7.26
1225,109009841,0.7007,-0.6719,0.0630,3.54,-0.85,7.38
1226,109015252,0.7021,-0.6670,0.0615,3.48,-0.79,7.56
1227,109019844,0.6978,-0.6631,0.0620,3.48,-0.91,7.80
1228,109024843,0.6973,-0.6675,0.0640,3.60,-0.98,7.99
1229,109029844,0.6953,-0.6704,0.0625,3.66,-1.10,8.35
1230,109034843,0.7002,-0.6729,0.0581,3.96,-1.04,8.66
1231,109039843,0.7007,-0.6704,0.0532,4.33,-1.04,8.90
1232,109044843,0.7065,-0.6733,0.0659,4.51,-1.04,9.21
1233,109049843,0.7070,-0.6768,0.0591,4.88,-0.98,9.45
1234,109054843,0.7104,-0.6807,0.0659,5.12,-0.98,9.70
1235,109059844,0.7080,-0.6841,0.0591,5.18,-0.98,9.82
1236,109064843,0.7095,-0.6885,0.0664,5.43,-0.79,9.94
1237,109069841,0.7148,-0.6929,0.0659,5.43,-0.91,10.06
1238,109074843,0.7124,-0.6934,0.0664,5.55,-0.73,10.12
1239,109079843,0.7139,-0.7002,0.0620,5.55,-0.73,10.12
1240,109084843,0.7114,-0.7056,0.0605,5.49,-0.67,10.12
1241,109089842,0.7148,-0.7026,0.0630,5.37,-0.67,10.00
1242,109094844,0.7129,-0.7061,0.0581,5.37,-0.55,9.94
1243,109099842,0.7095,-0.6992,0.0640,5.30,-0.55,9.82
1244,109104843,0.7114,-0.7036,0.0605,5.24,-0.55,9.70
1245,109109841,0.7080,-0.7080,0.0635,5.18,-0.61,9.57
1246,109114842,0.7080,-0.7070,0.0596,5.18,-0.49,9.45
1247,109119845,0.7075,-0.7095,0.0537,5.30,-0.55,9.39
1248,109124842,0.7070,-0.7075,0.0527,5.43,-0.43,9.27
1249,109129843,0.7056,-0.7104,0.0503,5.67,-0.43,9.21
1250,109134843,0.7070,-0.7104,0.0449,5.85,-0.49,9.09
1251,109139843,0.7124,-0.7134,0.0469,6.10,-0.18,9.15
1252,109144843,0.7095,-0.7163,0.0439,6.22,-0.30,9.21
1253,109149845,0.7061,-0.7104,0.0391,6.46,-0.30,9.09
1254,109154842,0.7041,-0.7114,0.0420,6.59,-0.18,8.96
1255,109159841,0.7021,-0.7139,0.0435,6.65,-0.12,9.09
1256,109164845,0.7017,-0.7148,0.0405,6.65,0.00,8.96
1257,109169842,0.7007,-0.7163,0.0444,6.46,0.18,8.78
1258,109174845,0.6992,-0.7158,0.0488,6.34,0.30,8.66
1259,109179843,0.6943,-0.7153,0.0435,6.10,0.18,8.54
1260,109184844,0.6938,-0.7163,0.0444,5.73,0.49,8.48
1261,109189843,0.6938,-0.7163,0.0459,5.30,0.49,8.29
1262,109194845,0.6924,-0.7139,0.0396,4.82,0.67,8.11
1263,109199842,0.6934,-0.7139,0.0449,4.45,0.67,8.05
1264,109204843,0.6895,-0.7139,0.0469,3.78,0.67,7.93
1265,109209841,0.6875,-0.7158,0.0513,3.29,0.91,7.80
1266,109214841,0.6890,-0.7158,0.0527,2.93,0.85,7.74
1267,109219845,0.6895,-0.7163,0.0498,2.38,1.10,7.68
1268,109225436,0.6929,-0.7134,0.0479,1.89,1.10,7.68
1269,109229844,0.6929,-0.7144,0.0513,1.40,1.28,7.56
1270,109234842,0.6890,-0.7100,0.0586,0.91,1.34,7.56
1271,109239843,0.6890,-0.7095,0.0581,0.49,1.10,7.50
1272,109244842,0.6836,-0.7100,0.0664,-0.06,1.28,7.38
1273,109249844,0.6851,-0.7119,0.0596,-0.61,1.28,7.50
1274,109254842,0.6841,-0.7139,0.0625,-1.04,1.22,7.62
1275,109259843,0.6846,-0.7114,0.0654,-1.34,1.10,7.56
1276,109264843,0.6855,-0.7104,0.0659,-1.65,1.10,7.62
1277,109269842,0.6787,-0.7090,0.0635,-1.95,1.10,7.68
1278,109274843,0.6743,-0.7104,0.0659,-2.13,0.98,7.74
1279,109279843,0.6738,-0.7104,0.0713,-2.20,0.85,7.87
1280,109284842,0.6694,-0.7061,0.0640,-2.32,0.85,7.93
1281,109289844,0.6699,-0.7065,0.0654,-2.38,0.55,8.05
1282,109294843,0.6680,-0.7070,0.0688,-2.44,0.37,8.11
1283,109299843,0.6665,-0.7041,0.0781,-2.56,0.55,8.17
1284,109304843,0.6738,-0.6973,0.0708,-2.68,0.30,8.35
1285,109309844,0.6714,-0.6958,0.0752,-2.80,0.18,8.48
1286,109314843,0.6787,-0.6948,0.0825,-2.80,0.18,8.72
1287,109319844,0.6758,-0.6875,0.0762,-2.93,0.24,8.90
1288,109324843,0.6733,-0.6914,0.0801,-3.17,0.18,9.27
1289,109329843,0.6768,-0.6929,0.0815,-3.23,0.06,9.57
1290,109334843,0.6714,-0.6948,0.0796,-3.17,-0.12,9.82
1291,109339843,0.6738,-0.7007,0.0815,-2.93,-0.37,10.18
1292,109344843,0.6704,-0.6992,0.0835,-2.74,-0.49,10.43
1293,109349841,0.6729,-0.6992,0.0767,-2.32,-0.67,10.85
1294,109354843,0.6709,-0.7036,0.0791,-1.71,-0.85,11.28
1295,109359843,0.6694,-0.7134,0.0737,-1.28,-1.10,11.46
1296,109364843,0.6763,-0.7158,0.0806,-0.61,-1.22,11.71
1297,109369845,0.6753,-0.7222,0.0742,0.06,-1.40,11.95
1298,109374842,0.6763,-0.7251,0.0776,0.73,-1.77,12.07
1299,109379843,0.6753,-0.7290,0.0742,1.34,-1.77,12.07
1300,109384843,0.6763,-0.7339,0.0728,1.83,-1.95,12.13
1301,109389847,0.6772,-0.7388,0.0811,2.26,-2.01,12.13
1302,109394843,0.6743,-0.7451,0.0786,2.62,-2.38,12.01
1303,109399843,0.6729,-0.7485,0.0820,2.62,-2.50,11.95
1304,109404843,0.6729,-0.7510,0.0796,2.80,-2.56,11.77
1305,109409843,0.6680,-0.7554,0.0771,2.93,-2.74,11.65
1306,109414843,0.6660,-0.7549,0.0811,2.99,-2.99,11.34
1307,109419844,0.6685,-0.7612,0.0811,2.93,-3.17,11.16
1308,109424843,0.6631,-0.7617,0.0791,3.05,-3.35,10.98
1309,109429843,0.6621,-0.7651,0.0752,3.05,-3.41,10.67
1310,109434843,0.6616,-0.7656,0.0762,3.05,-3.66,10.37
1311,109439843,0.6611,-0.7690,0.0728,3.05,-3.90,10.24
1312,109444845,0.6631,-0.7715,0.0728,3.35,-4.02,9.88
1313,109449843,0.6606,-0.7764,0.0713,3.29,-4.21,9.70
1314,109454843,0.6582,-0.7729,0.0737,3.54,-4.39,9.45
1315,109459842,0.6626,-0.7764,0.0698,3.60,-4.45,9.15
1316,109464843,0.6562,-0.7778,0.0723,3.72,-4.63,8.90
1317,109469842,0.6562,-0.7764,0.0776,3.72,-4.82,8.54
1318,109474843,0.6567,-0.7817,0.0693,3.72,-4.88,8.29
1319,109479842,0.6577,-0.7803,0.0747,3.60,-5.06,7.87
1320,109484843,0.6548,-0.7803,0.0659,3.48,-5.06,7.68
1321,109489842,0.6572,-0.7812,0.0693,3.41,-5.24,7.26
1322,109494843,0.6489,-0.7798,0.0674,3.11,-5.43,7.01
1323,109499842,0.6509,-0.7798,0.0718,2.80,-5.49,6.71
1324,109504844,0.6538,-0.7803,0.0688,2.62,-5.61,6.46
1325,109509842,0.6499,-0.7788,0.0728,2.38,-5.61,6.04
1326,109514843,0.6509,-0.7749,0.0762,2.13,-5.79,5.73
1327,109519843,0.6572,-0.7769,0.0674,1.95,-5.73,5.43
1328,109524843,0.6587,-0.7729,0.0674,1.77,-5.73,5.06
1329,109529842,0.6587,-0.7764,0.0625,1.59,-5.98,4.82
1330,109534843,0.6548,-0.7720,0.0649,1.46,-5.98,4.51
1331,109539842,0.6592,-0.7725,0.0610,1.46,-5.98,4.21
1332,109544843,0.6587,-0.7720,0.0610,1.71,-6.04,3.96
1333,109549842,0.6572,-0.7710,0.0596,1.71,-5.98,3.72
1334,109554843,0.6592,-0.7739,0.0620,1.83,-6.10,3.48
1335,109559843,0.6567,-0.7686,0.0586,2.07,-5.98,3.11
1336,109564843,0.6553,-0.7671,0.0591,2.26,-6.16,2.93
1337,109569923,0.6528,-0.7671,0.0566,2.50,-6.04,2.62
1338,109574842,0.6553,-0.7622,0.0518,2.62,-5.91,2.38
1339,109579843,0.6533,-0.7627,0.0537,2.68,-5.98,2.20
1340,109584842,0.6553,-0.7617,0.0503,2.74,-6.04,2.01
1341,109589843,0.6538,-0.7588,0.0522,2.80,-5.98,1.77
1342,109594843,0.6528,-0.7568,0.0518,2.74,-6.04,1.65
1343,109599843,0.6479,-0.7559,0.0532,2.62,-6.04,1.59
1344,109604843,0.6494,-0.7529,0.0513,2.56,-6.10,1.52
1345,109609843,0.6470,-0.7520,0.0527,2.32,-5.98,1.52
1346,109614843,0.6533,-0.7520,0.0537,2.26,-5.91,1.46
1347,109619844,0.6475,-0.7466,0.0542,2.07,-6.04,1.40
1348,109624843,0.6479,-0.7456,0.0532,2.07,-5.91,1.40
1349,109629843,0.6479,-0.7446,0.0513,1.95,-5.91,1.34
1350,109634843,0.6509,-0.7432,0.0503,2.07,-5.91,1.22
1351,109639844,0.6504,-0.7397,0.0483,2.13,-5.79,1.28
1352,109644843,0.6504,-0.7417,0.0522,2.32,-5.91,1.22
1353,109649843,0.6499,-0.7437,0.0498,2.62,-5.67,1.22
1354,109654843,0.6533,-0.7412,0.0449,2.87,-5.55,1.16
1355,109659843,0.6562,-0.7417,0.0498,3.29,-5.67,1.16
1356,109664843,0.6558,-0.7432,0.0449,3.72,-5.55,1.22
1357,109669843,0.6562,-0.7437,0.0444,4.15,-5.49,1.16
1358,109674843,0.6567,-0.7461,0.0493,4.57,-5.24,1.22
1359,109679844,0.6592,-0.7427,0.0513,4.94,-5.37,1.34
1360,109684843,0.6587,-0.7402,0.0435,5.30,-5.12,1.46
1361,109689843,0.6543,-0.7393,0.0386,5.49,-4.88,1.52
1362,109694843,0.6533,-0.7368,0.0469,5.73,-4.82,1.71
1363,109699843,0.6582,-0.7402,0.0400,5.73,-4.70,1.83
1364,109704843,0.6538,-0.7388,0.0400,5.67,-4.51,1.89
1365,109709844,0.6494,-0.7388,0.0352,5.43,-4.45,2.20
1366,109714843,0.6489,-0.7393,0.0405,5.18,-4.21,2.44
1367,109719844,0.6509,-0.7417,0.0371,4.82,-4.09,2.56
1368,109724843,0.6519,-0.7446,0.0376,4.51,-3.90,2.74
1369,109729843,0.6533,-0.7461,0.0469,4.15,-3.84,2.87
1370,109734843,0.6470,-0.7437,0.0449,3.66,-3.66,2.99
1371,109739843,0.6553,-0.7427,0.0415,3.41,-3.60,3.23
1372,109744843,0.6509,-0.7451,0.0479,3.23,-3.54,3.17
1373,109749843,0.6558,-0.7485,0.0400,2.99,-3.41,3.29
1374,109754843,0.6543,-0.7495,0.0425,2.80,-3.35,3.23
1375,109759841,0.6538,-0.7515,0.0435,2.80,-3.29,3.23
1376,109764843,0.6504,-0.7510,0.0420,2.87,-3.17,3.11
1377,109769842,0.6533,-0.7554,0.0454,2.87,-2.93,3.11
1378,109774843,0.6533,-0.7539,0.0439,3.17,-2.87,3.17
1379,109779841,0.6577,-0.7539,0.0469,3.17,-2.87,2.99
1380,109785027,0.6562,-0.7529,0.0386,3.29,-2.68,2.99
1381,109789886,0.6577,-0.7544,0.0522,3.48,-2.56,2.74
1382,109794842,0.6558,-0.7544,0.0479,3.54,-2.56,2.74
1383,109799844,0.6548,-0.7588,0.0464,3.54,-2.44,2.74
1384,109804843,0.6548,-0.7612,0.0503,3.54,-2.44,2.68
1385,109809843,0.6543,-0.7578,0.0474,3.48,-2.32,2.62
1386,109814843,0.6582,-0.7598,0.0513,3.48,-2.13,2.44
1387,109819843,0.6548,-0.7598,0.0547,3.35,-2.20,2.32
1388,109824843,0.6528,-0.7598,0.0527,3.23,-2.26,2.26
1389,109829844,0.6523,-0.7568,0.0508,3.11,-2.13,2.07
1390,109834842,0.6484,-0.7598,0.0532,2.87,-2.01,2.01
1391,109839843,0.6504,-0.7583,0.0483,2.87,-2.07,1.95
1392,109844843,0.6509,-0.7534,0.0596,2.87,-1.95,1.83
1393,109849843,0.6538,-0.7549,0.0522,2.93,-2.01,1.71
1394,109854843,0.6523,-0.7563,0.0527,2.87,-1.95,1.52
1395,109859843,0.6538,-0.7559,0.0562,2.93,-2.13,1.40
1396,109864843,0.6504,-0.7520,0.0625,3.05,-2.01,1.34
1397,109869843,0.6514,-0.7583,0.0562,3.17,-1.89,1.34
1398,109874843,0.6499,-0.7559,0.0581,3.17,-2.01,1.16
1399,109879843,0.6494,-0.7559,0.0527,3.35,-1.95,1.16
1400,109884843,0.6499,-0.7563,0.0620,3.48,-2.07,0.98
1401,109889841,0.6489,-0.7563,0.0527,3.72,-1.89,0.98
1402,109894843,0.6509,-0.7598,0.0571,3.90,-1.95,0.85
1403,109899842,0.6494,-0.7612,0.0537,4.15,-2.07,0.67
1404,109904843,0.6533,-0.7622,0.0562,4.27,-2.13,0.61
1405,109909842,0.6509,-0.7578,0.0532,4.51,-2.13,0.43
1406,109914844,0.6562,-0.7563,0.0576,4.63,-2.20,0.30
1407,109919841,0.6553,-0.7554,0.0503,4.76,-2.32,0.18
1408,109924843,0.6548,-0.7549,0.0498,4.76,-2.20,0.12
1409,109929843,0.6558,-0.7544,0.0566,4.76,-2.26,0.00
1410,109934843,0.6543,-0.7476,0.0566,4.70,-2.38,-0.06
1411,109940141,0.6558,-0.7485,0.0586,4.63,-2.32,-0.06
1412,109944845,0.6572,-0.7451,0.0552,4.57,-2.26,-0.12
1413,109949842,0.6533,-0.7441,0.0557,4.39,-2.26,-0.12
1414,109954843,0.6577,-0.7422,0.0581,4.21,-2.38,-0.12
1415,109959877,0.6543,-0.7451,0.0503,4.09,-2.38,-0.12
1416,109964843,0.6538,-0.7437,0.0532,3.84,-2.26,-0.06
1417,109969843,0.6514,-0.7383,0.0562,3.66,-2.13,0.12
1418,109974843,0.6489,-0.7363,0.0596,3.60,-2.20,0.12
1419,109979841,0.6528,-0.7383,0.0547,3.48,-2.13,0.12
1420,109984843,0.6494,-0.7368,0.0537,3.48,-2.13,0.12
1421,109989891,0.6528,-0.7319,0.0571,3.41,-2.01,0.24
1422,109994843,0.6558,-0.7358,0.0522,3.41,-2.01,0.30
1423,109999842,0.6616,-0.7329,0.0518,3.48,-1.95,0.37
1424,110004843,0.6597,-0.7319,0.0449,3.54,-1.89,0.55
1425,110009842,0.6592,-0.7324,0.0498,3.48,-1.95,0.55
1426,110014843,0.6616,-0.7280,0.0483,3.60,-1.83,0.55
1427,110019842,0.6660,-0.7310,0.0469,3.60,-1.83,0.67
1428,110024847,0.6655,-0.7339,0.0513,3.54,-1.83,0.85
1429,110029842,0.6631,-0.7305,0.0498,3.54,-1.71,0.91
1430,110034841,0.6636,-0.7310,0.0474,3.41,-1.71,0.98
1431,110039848,0.6670,-0.7300,0.0498,3.41,-1.71,0.98
1432,110044841,0.6655,-0.7319,0.0513,3.17,-1.52,1.04
1433,110049843,0.6660,-0.7266,0.0522,3.05,-1.65,1.16
1434,110054844,0.6626,-0.7290,0.0532,2.87,-1.52,1.16
1435,110059843,0.6631,-0.7227,0.0469,2.74,-1.46,1.16
1436,110064843,0.6631,-0.7256,0.0469,2.50,-1.59,1.28
1437,110069843,0.6611,-0.7236,0.0498,2.32,-1.34,1.34
1438,110074844,0.6606,-0.7188,0.0435,2.26,-1.40,1.28
1439,110080116,0.6655,-0.7148,0.0474,2.13,-1.46,1.40
1440,110084843,0.6636,-0.7153,0.0464,2.13,-1.40,1.52
1441,110089842,0.6626,-0.7148,0.0488,2.13,-1.34,1.71
1442,110094843,0.6602,-0.7148,0.0439,2.01,-1.34,1.83
1443,110099842,0.6646,-0.7144,0.0425,2.07,-1.46,2.01
1444,110104844,0.6646,-0.7119,0.0454,2.13,-1.34,2.13
1445,110109841,0.6587,-0.7153,0.0464,2.13,-1.46,2.32
1446,110114846,0.6626,-0.7148,0.0439,2.20,-1.52,2.44
1447,110119842,0.6602,-0.7153,0.0425,2.20,-1.59,2.56
1448,110124843,0.6606,-0.7163,0.0454,2.13,-1.65,2.87
1449,110129845,0.6597,-0.7144,0.0454,2.07,-1.65,3.05
1450,110134842,0.6587,-0.7144,0.0396,2.07,-1.65,3.23
1451,110139843,0.6597,-0.7158,0.0444,2.07,-1.59,3.54
1452,110144843,0.6626,-0.7163,0.0449,1.83,-1.71,3.72
1453,110149842,0.6611,-0.7153,0.0479,1.71,-1.83,3.84
1454,110154843,0.6587,-0.7183,0.0464,1.59,-1.71,4.15
1455,110159843,0.6606,-0.7163,0.0479,1.40,-1.71,4.39
1456,110164841,0.6582,-0.7148,0.0518,1.22,-1.77,4.57
1457,110169846,0.6626,-0.7153,0.0513,1.10,-1.89,4.70
1458,110175193,0.6626,-0.7188,0.0425,0.98,-1.83,4.94
1459,110179949,0.6616,-0.7173,0.0454,0.91,-1.71,5.18
1460,110184842,0.6592,-0.7183,0.0425,0.85,-1.83,5.30
1461,110189846,0.6704,-0.7192,0.0444,0.79,-1.77,5.61
1462,110194843,0.6680,-0.7227,0.0474,0.98,-1.77,5.67
1463,110199887,0.6641,-0.7256,0.0439,0.91,-1.65,5.85
1464,110204843,0.6631,-0.7207,0.0361,1.10,-1.77,6.04
1465,110209898,0.6675,-0.7251,0.0508,1.16,-1.71,6.10
1466,110214841,0.6685,-0.7241,0.0425,1.22,-1.59,6.28
1467,110220166,0.6660,-0.7295,0.0469,1.40,-1.46,6.34
1468,110224843,0.6631,-0.7275,0.0474,1.40,-1.46,6.34
1469,110230014,0.6650,-0.7290,0.0439,1.46,-1.34,6.46
1470,110234845,0.6611,-0.7295,0.0439,1.52,-1.16,6.52
1471,110239841,0.6641,-0.7256,0.0454,1.52,-1.28,6.65
1472,110244845,0.6636,-0.7285,0.0454,1.59,-1.04,6.77
1473,110249842,0.6582,-0.7300,0.0425,1.46,-0.98,6.89
1474,110254841,0.6562,-0.7305,0.0430,1.40,-1.04,7.07
1475,110259843,0.6528,-0.7344,0.0376,1.34,-0.98,7.13
1476,110264842,0.6548,-0.7290,0.0449,1.34,-0.79,7.26
1477,110269843,0.6577,-0.7319,0.0400,1.28,-0.79,7.50
1478,110274843,0.6567,-0.7383,0.0396,1.28,-0.73,7.56
1479,110279846,0.6553,-0.7363,0.0381,1.40,-0.61,7.62
1480,110284842,0.6528,-0.7383,0.0415,1.52,-0.61,7.74
1481,110289845,0.6553,-0.7412,0.0386,1.52,-0.55,7.74
1482,110294843,0.6504,-0.7412,0.0415,1.59,-0.37,7.80
1483,110299843,0.6499,-0.7378,0.0400,1.71,-0.37,7.87
1484,110304843,0.6528,-0.7412,0.0420,1.77,-0.24,7.80
1485,110309842,0.6494,-0.7441,0.0435,1.83,0.00,7.87
1486,110314845,0.6499,-0.7427,0.0439,1.77,0.00,7.87
1487,110319841,0.6533,-0.7432,0.0410,1.83,0.06,7.74
1488,110324845,0.6553,-0.7407,0.0459,1.77,0.06,7.74
1489,110329842,0.6519,-0.7422,0.0454,1.65,0.06,7.80
1490,110334843,0.6577,-0.7471,0.0430,1.52,0.18,7.74
1491,110339841,0.6548,-0.7495,0.0479,1.46,0.24,7.74
1492,110344845,0.6543,-0.7476,0.0454,1.46,0.24,7.74
1493,110349842,0.6553,-0.7505,0.0425,1.59,0.30,7.80
1494,110354843,0.6567,-0.7520,0.0469,1.71,0.30,7.68
1495,110359843,0.6543,-0.7534,0.0435,1.83,0.30,7.62
1496,110364843,0.6548,-0.7549,0.0430,1.95,0.30,7.56
1497,110370200,0.6558,-0.7568,0.0410,2.13,0.37,7.44
1498,110374845,0.6543,-0.7578,0.0435,2.38,0.37,7.50
1499,110379842,0.6562,-0.7612,0.0469,2.44,0.49,7.26
1500,110384843,0.6582,-0.7578,0.0459,2.62,0.49,7.20
1501,110389841,0.6553,-0.7612,0.0479,2.56,0.61,7.01
1502,110394845,0.6504,-0.7578,0.0449,2.56,0.43,6.89
1503,110399842,0.6484,-0.7598,0.0479,2.56,0.55,6.83
1504,110404843,0.6475,-0.7559,0.0449,2.44,0.73,6.65
1505,110409841,0.6436,-0.7539,0.0464,2.32,0.67,6.59
1506,110414845,0.6426,-0.7515,0.0469,2.07,0.67,6.46
1507,110419842,0.6426,-0.7534,0.0430,1.89,0.61,6.40
1508,110424843,0.6382,-0.7520,0.0454,1.65,0.55,6.34
1509,110429842,0.6406,-0.7549,0.0488,1.59,0.61,6.40
1510,110434843,0.6377,-0.7559,0.0503,1.52,0.67,6.28
1511,110439841,0.6387,-0.7578,0.0513,1.46,0.49,6.34
1512,110444843,0.6416,-0.7559,0.0464,1.40,0.55,6.34
1513,110449843,0.6392,-0.7573,0.0493,1.52,0.49,6.34
1514,110454843,0.6392,-0.7549,0.0542,1.65,0.61,6.40
1515,110459845,0.6357,-0.7544,0.0513,1.59,0.55,6.46
1516,110464844,0.6367,-0.7524,0.0522,1.77,0.61,6.46
1517,110469842,0.6372,-0.7539,0.0566,1.89,0.61,6.46
1518,110474843,0.6377,-0.7500,0.0522,1.95,0.49,6.52
1519,110479843,0.6387,-0.7505,0.0542,2.07,0.61,6.59
1520,110484843,0.6362,-0.7505,0.0532,2.13,0.67,6.59
1521,110489842,0.6377,-0.7524,0.0591,2.13,0.55,6.65
1522,110494843,0.6377,-0.7510,0.0576,2.20,0.43,6.59
1523,110499843,0.6372,-0.7505,0.0601,2.38,0.55,6.71
1524,110504886,0.6382,-0.7466,0.0532,2.32,0.43,6.65
1525,110509942,0.6387,-0.7485,0.0596,2.38,0.30,6.77
1526,110514842,0.6392,-0.7422,0.0581,2.50,0.43,6.89
1527,110519841,0.6396,-0.7476,0.0571,2.50,0.30,6.95
1528,110524843,0.6377,-0.7441,0.0615,2.62,0.00,7.01
1529,110529843,0.6382,-0.7476,0.0557,2.74,0.06,7.13
1530,110534843,0.6377,-0.7505,0.0581,2.93,-0.12,7.20
1531,110539843,0.6387,-0.7485,0.0571,3.11,-0.24,7.38
1532,110544844,0.6406,-0.7466,0.0576,3.29,-0.24,7.56
1533,110549843,0.6367,-0.7471,0.0562,3.60,-0.43,7.62
1534,110554843,0.6367,-0.7510,0.0552,3.84,-0.30,7.87
1535,110559843,0.6377,-0.7485,0.0605,4.02,-0.43,7.93
1536,110564843,0.6313,-0.7520,0.0557,4.15,-0.43,7.99
1537,110570159,0.6294,-0.7520,0.0591,4.27,-0.37,7.99
1538,110574843,0.6313,-0.7554,0.0591,4.39,-0.55,8.17
1539,110579843,0.6284,-0.7534,0.0586,4.33,-0.61,8.29
1540,110584843,0.6284,-0.7520,0.0571,4.27,-0.55,8.29
1541,110589842,0.6265,-0.7520,0.0581,4.21,-0.67,8.35
1542,110594845,0.6299,-0.7583,0.0591,4.09,-0.85,8.35
1543,110599841,0.6250,-0.7563,0.0576,3.90,-0.91,8.41
1544,110605201,0.6260,-0.7573,0.0615,3.78,-1.10,8.54
1545,110609843,0.6250,-0.7627,0.0630,3.66,-1.16,8.54
1546,110614843,0.6284,-0.7661,0.0645,3.60,-1.10,8.60
1547,110619842,0.6284,-0.7666,0.0601,3.48,-1.16,8.60
1548,110624845,0.6299,-0.7695,0.0718,3.48,-1.28,8.60
1549,110629842,0.6318,-0.7686,0.0615,3.41,-1.40,8.60
1550,110634843,0.6279,-0.7695,0.0654,3.35,-1.59,8.60
1551,110639842,0.6260,-0.7729,0.0679,3.54,-1.77,8.48
1552,110644843,0.6328,-0.7734,0.0684,3.60,-1.89,8.41
1553,110649841,0.6304,-0.7798,0.0713,3.66,-2.01,8.48
1554,110654843,0.6284,-0.7754,0.0679,3.90,-2.07,8.41
1555,110660043,0.6318,-0.7803,0.0615,4.21,-2.26,8.41
1556,110664843,0.6274,-0.7749,0.0635,4.33,-2.20,8.29
1557,110669842,0.6230,-0.7788,0.0635,4.51,-2.44,8.23
1558,110674843,0.6299,-0.7798,0.0596,4.70,-2.50,8.17
1559,110679842,0.6250,-0.7764,0.0635,4.94,-2.50,8.11
1560,110684843,0.6245,-0.7769,0.0547,5.18,-2.56,7.99
1561,110689842,0.6250,-0.7773,0.0679,5.24,-2.62,7.87
1562,110694843,0.6216,-0.7749,0.0669,5.30,-2.62,7.74
1563,110700110,0.6250,-0.7729,0.0630,5.24,-2.62,7.68
1564,110704843,0.6279,-0.7754,0.0610,5.24,-2.74,7.62
1565,110709842,0.6260,-0.7749,0.0649,5.18,-2.68,7.50
1566,110714843,0.6250,-0.7759,0.0654,4.94,-2.80,7.56
1567,110719841,0.6206,-0.7729,0.0645,4.76,-2.62,7.50
1568,110724843,0.6240,-0.7725,0.0620,4.51,-2.74,7.44
1569,110729847,0.6206,-0.7764,0.0620,4.45,-2.80,7.32
1570,110734844,0.7148,-1.1958,-0.0298,3.84,-3.05,6.77
1571,110740037,0.6226,-1.0581,-0.0054,-4.63,-2.01,1.52
1572,110744843,0.5430,-0.7212,0.0635,-5.67,-1.34,-0.85
1573,110749849,0.6255,-0.7388,-0.0015,-4.21,-1.34,-0.12
1574,110754845,0.6138,-0.7222,0.0483,-2.01,-1.22,0.85
1575,110759842,0.5840,-0.7231,0.0508,0.55,-0.79,1.95
1576,110764843,0.5801,-0.7295,0.0410,2.93,-0.79,2.99
1577,110769843,0.5879,-0.7295,0.0444,5.12,-0.79,3.90
1578,110774843,0.5967,-0.7275,0.0571,6.59,-1.04,4.70
1579,110779843,0.7012,-0.9316,-0.0039,6.16,-0.98,4.21
1580,110784844,0.5815,-0.8359,0.0327,1.28,-0.91,2.13
1581,110789843,0.5698,-0.6772,0.0591,0.73,-0.49,1.65
1582,110794843,0.6191,-0.7373,0.0337,1.59,-0.61,2.38
1583,110800394,0.6382,-0.8042,0.0420,1.65,-0.49,2.56
1584,110804843,0.5850,-0.7383,0.0620,1.95,-0.24,2.56
1585,110809842,0.6113,-0.7305,0.0552,2.93,-0.30,3.23
1586,110814845,0.6528,-0.8223,0.0391,3.11,-0.30,3.48
1587,110819925,0.6357,-0.8276,0.0464,1.89,-0.12,2.74
1588,110824843,0.6035,-0.7642,0.0464,1.40,-0.06,2.38
1589,110829842,0.6216,-0.7593,0.0493,1.22,-0.18,2.44
1590,110834843,0.6284,-0.7603,0.0532,1.34,0.06,2.68
1591,110839842,0.6187,-0.7583,0.0527,1.83,0.12,2.87
1592,110844843,0.6201,-0.7671,0.0591,2.26,0.00,3.29
1593,110849842,0.6235,-0.7827,0.0513,2.68,0.00,3.41
1594,110854843,0.6304,-0.7964,0.0508,2.50,0.12,3.17
1595,110859842,0.6289,-0.7983,0.0527,2.26,0.00,2.80
1596,110864843,0.6094,-0.7627,0.0537,2.38,0.00,2.62
1597,110869842,0.6221,-0.7520,0.0547,2.80,0.06,2.62
1598,110874845,0.6216,-0.7642,0.0518,3.17,0.12,2.87
1599,110879842,0.6099,-0.7432,0.0596,3.41,0.12,3.05
1600,110884843,0.6265,-0.7798,0.0596,3.60,-0.18,3.29
1601,110889842,0.6348,-0.8101,0.0454,3.05,-0.06,2.99
1602,110894843,0.6172,-0.7827,0.0576,2.44,-0.12,2.62
1603,110899841,0.6245,-0.7695,0.0542,2.56,-0.06,2.56
1604,110904843,0.6294,-0.7588,0.0527,2.62,-0.06,2.50
1605,110909843,0.6230,-0.7598,0.0493,2.80,-0.06,2.68
1606,110914843,0.6167,-0.7554,0.0581,2.99,-0.06,2.93
1607,110919842,0.6196,-0.7612,0.0601,3.05,-0.12,3.17
1608,110924843,0.6299,-0.7910,0.0532,2.74,-0.12,3.17
1609,110929842,0.6265,-0.7969,0.0566,2.01,0.06,2.87
1610,110934843,0.6133,-0.7778,0.0503,1.52,-0.06,2.68
1611,110939842,0.6211,-0.7642,0.0508,1.40,0.00,2.56
1612,110944843,0.6196,-0.7534,0.0459,1.40,0.00,2.74
1613,110949843,0.6157,-0.7593,0.0537,1.52,0.12,2.87
1614,110954842,0.6177,-0.7632,0.0508,1.52,0.06,2.99
1615,110961268,0.6245,-0.7798,0.0430,1.46,0.12,3.11
1616,110964843,0.6226,-0.7798,0.0444,1.16,0.12,3.05
1617,110969905,0.6260,-0.7793,0.0542,0.79,0.18,2.99
1618,110974843,0.6357,-0.7910,0.0503,0.85,0.24,2.74
1619,110979842,0.6157,-0.7661,0.0522,1.04,0.24,2.62
1620,110984843,0.6177,-0.7563,0.0513,1.52,0.30,2.74
1621,110989843,0.6157,-0.7466,0.0547,1.83,0.18,2.99
1622,110994843,0.6260,-0.7646,0.0552,2.07,0.18,3.17
1623,110999842,0.6274,-0.7915,0.0508,1.83,0.24,3.11
1624,111004843,0.6118,-0.7681,0.0518,1.04,0.24,2.93
1625,111009841,0.6245,-0.7759,0.0522,0.55,0.18,2.87
1626,111014843,0.6235,-0.7729,0.0449,-0.06,0.18,2.68
1627,111019842,0.6182,-0.7563,0.0586,-0.49,0.24,2.62
1628,111024843,0.6333,-0.7661,0.0527,-0.61,0.37,2.74
1629,111029842,0.6108,-0.7524,0.0547,-0.91,0.24,2.93
1630,111034845,0.6206,-0.7563,0.0479,-1.16,0.24,3.17
1631,111039842,0.6445,-0.7959,0.0459,-1.77,0.18,3.11
1632,111044842,0.6182,-0.7788,0.0557,-2.56,0.30,2.87
1633,111050316,0.6460,-0.8115,0.0674,-1.71,0.24,2.62
1634,111054845,0.6274,-0.7764,0.0640,0.79,0.00,2.44
1635,111059842,0.6294,-0.7690,0.0669,2.74,-0.12,2.32
1636,111064843,0.6396,-0.7930,0.0815,5.18,-0.24,2.32
1637,111069935,0.6182,-0.7749,0.0762,7.62,-0.67,2.20
1638,111074843,0.6235,-0.7847,0.0684,9.45,-0.73,2.32
1639,111079842,0.6177,-0.7759,0.0713,9.63,-0.98,2.13
1640,111084843,0.6143,-0.7744,0.0576,8.60,-1.22,2.20
1641,111089842,0.6104,-0.7671,0.0586,6.40,-1.34,2.26
1642,111094843,0.6025,-0.7695,0.0513,3.90,-1.34,2.20
1643,111099841,0.6133,-0.7778,0.0557,1.52,-1.28,2.26
1644,111104842,0.6113,-0.7754,0.0640,0.06,-1.28,2.20
1645,111109845,0.6196,-0.7788,0.0703,-0.24,-1.40,2.20
1646,111114843,0.6187,-0.7817,0.0737,0.43,-1.59,2.20
1647,111119841,0.6206,-0.7773,0.0742,1.52,-1.77,2.13
1648,111124843,0.6221,-0.7817,0.0776,2.74,-1.89,2.20
1649,111129843,0.6265,-0.7783,0.0762,3.78,-2.07,2.26
1650,111134843,0.6206,-0.7759,0.0698,3.90,-2.20,2.07
1651,111139843,0.6162,-0.7715,0.0601,3.29,-2.32,2.01
1652,111144843,0.6182,-0.7729,0.0557,1.95,-2.20,2.07
1653,111149843,0.6201,-0.7690,0.0532,0.61,-2.38,2.01
1654,111154843,0.6196,-0.7686,0.0513,-0.49,-2.20,2.07
1655,111160879,0.6196,-0.7734,0.0542,-1.22,-2.32,2.07
1656,111164844,0.6216,-0.7695,0.0508,-1.22,-2.32,1.95
1657,111169843,0.6230,-0.7739,0.0566,-0.73,-2.26,2.07
1658,111174843,0.6196,-0.7749,0.0601,0.12,-2.44,2.07
1659,111179846,0.6216,-0.7739,0.0557,1.16,-2.32,2.01
1660,111184842,0.6216,-0.7744,0.0464,1.95,-2.38,2.07
1661,111189844,0.6201,-0.7734,0.0449,2.38,-2.20,1.95
1662,111194844,0.6206,-0.7681,0.0371,2.32,-2.20,1.95
1663,111199843,0.6226,-0.7700,0.0381,2.13,-1.89,2.01
1664,111204842,0.6196,-0.7686,0.0303,1.77,-1.83,2.07
1665,111209843,0.6201,-0.7695,0.0366,1.46,-1.71,2.01
1666,111214843,0.6157,-0.7700,0.0366,1.46,-1.34,2.01
1667,111219843,0.6211,-0.7715,0.0459,1.65,-1.34,2.13
1668,111224843,0.6230,-0.7754,0.0376,2.20,-1.22,2.07
1669,111229842,0.6206,-0.7729,0.0430,2.93,-1.16,2.13
1670,111234843,0.6191,-0.7749,0.0488,3.72,-1.04,2.20
1671,111239843,0.6255,-0.7734,0.0425,4.45,-0.98,2.20
1672,111244843,0.6191,-0.7725,0.0444,4.94,-1.04,2.20
1673,111249907,0.6172,-0.7661,0.0444,4.94,-0.85,2.26
1674,111254843,0.6191,-0.7676,0.0479,4.76,-0.98,2.26
1675,111259843,0.6133,-0.7690,0.0483,4.45,-0.91,2.20
1676,111264844,0.6167,-0.7764,0.0503,4.02,-0.98,2.26
1677,111269842,0.6138,-0.7715,0.0557,3.84,-0.85,2.07
1678,111274843,0.6113,-0.7739,0.0542,3.78,-0.79,2.20
1679,111279846,0.6172,-0.7725,0.0610,3.90,-0.91,2.07
1680,111284842,0.6118,-0.7788,0.0664,4.15,-0.98,2.07
1681,111289843,0.6177,-0.7744,0.0596,4.57,-0.85,2.13
1682,111294842,0.6177,-0.7729,0.0620,4.76,-0.85,2.01
1683,111299843,0.6162,-0.7759,0.0542,4.76,-0.91,1.89
1684,111304842,0.6196,-0.7773,0.0571,4.57,-1.10,1.89
1685,111309841,0.6187,-0.7764,0.0620,4.27,-1.16,2.01
1686,111314843,0.6138,-0.7739,0.0635,3.78,-1.04,1.89
1687,111319843,0.6172,-0.7759,0.0630,3.35,-1.22,1.95
1688,111324842,0.6191,-0.7769,0.0625,3.11,-1.28,1.95
1689,111329843,0.6172,-0.7778,0.0610,2.87,-1.28,1.95
1690,111334842,0.6172,-0.7749,0.0605,2.87,-1.46,1.89
1691,111339843,0.6206,-0.7759,0.0635,2.80,-1.34,1.95
1692,111344842,0.6235,-0.7725,0.0645,2.80,-1.46,1.89
1693,111349844,0.6250,-0.7744,0.0586,2.80,-1.52,1.83
1694,111354841,0.6191,-0.7749,0.0571,2.68,-1.59,1.83
1695,111359843,0.6191,-0.7739,0.0591,2.50,-1.65,1.83
1696,111364843,0.6187,-0.7754,0.0552,2.26,-1.65,1.77
1697,111369902,0.6196,-0.7734,0.0527,1.89,-1.65,1.77
1698,111374843,0.6201,-0.7739,0.0537,1.71,-1.59,1.83
1699,111379843,0.6201,-0.7725,0.0522,1.52,-1.59,1.89
1700,111384843,0.6172,-0.7734,0.0610,1.52,-1.59,1.83
1701,111389842,0.6216,-0.7729,0.0513,1.59,-1.77,1.89
1702,111394843,0.6152,-0.7710,0.0605,1.65,-1.71,1.83
1703,111399843,0.6206,-0.7739,0.0542,1.77,-1.77,1.83
1704,111404843,0.6177,-0.7744,0.0596,1.77,-1.89,1.89
1705,111409842,0.6177,-0.7764,0.0562,1.71,-1.83,1.83
1706,111414843,0.6162,-0.7764,0.0537,1.59,-1.89,1.89
1707,111419842,0.6157,-0.7749,0.0566,1.34,-1.95,1.95
1708,111424842,0.6187,-0.7759,0.0508,1.10,-1.83,1.95
1709,111429843,0.6196,-0.7783,0.0527,0.91,-1.77,2.01
1710,111434842,0.6187,-0.7773,0.0537,1.10,-1.71,2.07
1711,111439843,0.6177,-0.7759,0.0552,1.10,-1.83,2.01
1712,111444845,0.6196,-0.7759,0.0537,1.28,-1.83,2.01
1713,111449843,0.6191,-0.7759,0.0542,1.46,-1.83,2.07
1714,111454842,0.6182,-0.7700,0.0537,1.59,-1.83,1.95
1715,111459843,0.6172,-0.7734,0.0542,1.77,-1.77,2.07
1716,111464843,0.6152,-0.7749,0.0557,1.71,-1.59,2.01
1717,111469843,0.6162,-0.7729,0.0493,1.52,-1.59,2.07
1718,111474842,0.6172,-0.7720,0.0615,1.22,-1.71,2.07
1719,111479843,0.6177,-0.7749,0.0557,1.10,-1.65,2.01
1720,111484843,0.6187,-0.7773,0.0469,0.85,-1.65,2.07
1721,111489843,0.6201,-0.7739,0.0581,0.85,-1.65,2.13
1722,111494842,0.6172,-0.7764,0.0620,0.85,-1.52,2.07
1723,111500279,0.6172,-0.7744,0.0566,0.98,-1.83,2.07
1724,111504843,0.6196,-0.7764,0.0571,0.98,-1.77,2.13
1725,111509845,0.6201,-0.7729,0.0547,0.85,-1.77,2.13
1726,111514842,0.6187,-0.7725,0.0557,0.85,-1.71,2.07
1727,111519843,0.6206,-0.7739,0.0566,0.67,-1.83,2.13
1728,111524842,0.6191,-0.7681,0.0537,0.43,-1.83,2.07
1729,111529843,0.6201,-0.7710,0.0532,0.24,-1.89,2.07
1730,111534842,0.6211,-0.7720,0.0513,0.00,-1.77,2.01
1731,111539843,0.6177,-0.7700,0.0503,-0.18,-1.77,2.01
1732,111544842,0.6187,-0.7715,0.0576,-0.30,-1.65,2.01
1733,111549893,0.6196,-0.7700,0.0508,-0.30,-1.71,2.07
1734,111554842,0.6230,-0.7700,0.0498,-0.24,-1.71,2.01
1735,111559841,0.6177,-0.7729,0.0435,-0.06,-1.65,1.95
1736,111564841,0.6226,-0.7710,0.0454,0.06,-1.52,2.01
1737,111569845,0.6162,-0.7729,0.0493,0.18,-1.65,1.89
1738,111574842,0.6167,-0.7759,0.0444,0.43,-1.46,2.01
1739,111579843,0.6157,-0.7715,0.0400,0.61,-1.40,1.95
1740,111584842,0.6172,-0.7725,0.0381,0.79,-1.40,2.01
1741,111590353,0.6206,-0.7729,0.0376,0.98,-1.28,2.01
1742,111594864,0.6143,-0.7749,0.0356,1.16,-1.28,2.01
1743,111599843,0.6162,-0.7729,0.0366,1.34,-1.16,2.07
1744,111604942,0.6191,-0.7715,0.0444,1.59,-0.98,2.07
1745,111610357,0.6226,-0.7739,0.0396,1.95,-0.85,2.01
1746,111614844,0.6226,-0.7749,0.0396,2.26,-0.79,2.20
1747,111619842,0.6206,-0.7759,0.0396,2.50,-0.67,2.26
1748,111624846,0.6162,-0.7686,0.0449,2.87,-0.61,2.20
1749,111629842,0.6191,-0.7734,0.0400,2.93,-0.67,2.26
1750,111634842,0.6235,-0.7739,0.0396,2.99,-0.43,2.32
1751,111639844,0.6211,-0.7734,0.0493,2.99,-0.49,2.26
1752,111644843,0.6187,-0.7720,0.0430,2.87,-0.49,2.38
1753,111650031,0.6191,-0.7739,0.0547,2.74,-0.43,2.32
1754,111654843,0.6162,-0.7744,0.0479,2.74,-0.49,2.38
1755,111659843,0.6162,-0.7700,0.0479,2.74,-0.43,2.32
1756,111664843,0.6157,-0.7744,0.0566,2.68,-0.67,2.26
1757,111669841,0.6157,-0.7744,0.0518,2.80,-0.61,2.20
1758,111674845,0.6201,-0.7734,0.0562,2.74,-0.67,2.26
1759,111679842,0.6177,-0.7739,0.0542,2.68,-0.67,2.13
1760,111684843,0.6182,-0.7725,0.0562,2.50,-0.79,2.20
1761,111689843,0.6167,-0.7720,0.0503,2.44,-0.91,2.13
1762,111694842,0.6133,-0.7681,0.0562,2.13,-0.91,2.13
1763,111699843,0.6157,-0.7734,0.0508,1.95,-0.85,2.07
1764,111704843,0.6157,-0.7725,0.0513,1.71,-1.10,2.07
1765,111709843,0.6177,-0.7739,0.0537,1.52,-1.04,2.01
1766,111714842,0.6143,-0.7764,0.0527,1.46,-1.10,2.01
1767,111719843,0.6177,-0.7734,0.0459,1.52,-1.04,1.95
1768,111724845,0.6167,-0.7749,0.0469,1.59,-1.10,1.95
1769,111729843,0.6216,-0.7744,0.0488,1.59,-1.16,1.89
1770,111734843,0.6211,-0.7739,0.0425,1.52,-1.28,1.89
1771,111739843,0.6235,-0.7715,0.0527,1.52,-1.22,1.95
1772,111744841,0.6226,-0.7700,0.0537,1.59,-1.28,1.95
1773,111749845,0.6196,-0.7705,0.0483,1.40,-1.16,2.01
1774,111754842,0.6206,-0.7734,0.0474,1.28,-1.04,2.01
1775,111759843,0.6196,-0.7749,0.0469,1.16,-1.16,2.01
1776,111764842,0.6206,-0.7754,0.0459,1.28,-1.16,1.95
1777,111769843,0.6177,-0.7705,0.0464,1.16,-1.22,1.89
1778,111774842,0.6172,-0.7705,0.0479,1.34,-1.04,1.95
1779,111779845,0.6177,-0.7705,0.0376,1.40,-1.04,1.89
1780,111784842,0.6157,-0.7744,0.0420,1.52,-1.10,1.89
1781,111789843,0.6147,-0.7773,0.0444,1.71,-1.04,1.95
1782,111794842,0.6191,-0.7744,0.0439,1.89,-0.98,1.95
1783,111799843,0.6152,-0.7769,0.0430,2.07,-0.85,1.95
1784,111804843,0.6162,-0.7769,0.0396,2.26,-0.85,1.95
1785,111809841,0.6177,-0.7769,0.0425,2.50,-0.79,1.95
1786,111814845,0.6177,-0.7749,0.0435,2.44,-0.85,2.07
1787,111819843,0.6182,-0.7754,0.0493,2.56,-0.73,2.01
1788,111824844,0.6201,-0.7754,0.0430,2.50,-0.73,2.13
1789,111829848,0.6157,-0.7739,0.0469,2.56,-0.67,2.13
1790,111834843,0.6196,-0.7710,0.0522,2.50,-0.79,2.13
1791,111839843,0.6191,-0.7705,0.0498,2.44,-0.73,2.13
1792,111844844,0.6167,-0.7734,0.0513,2.38,-0.73,2.20
1793,111849842,0.6152,-0.7729,0.0479,2.32,-0.73,2.20
1794,111854844,0.6191,-0.7715,0.0542,2.20,-0.67,2.13
1795,111859842,0.6177,-0.7700,0.0508,2.20,-0.79,2.13
1796,111864842,0.6245,-0.7729,0.0498,2.13,-0.85,2.01
1797,111869843,0.6196,-0.7705,0.0503,2.07,-0.85,1.95
1798,111874843,0.6211,-0.7715,0.0547,2.07,-0.85,1.89
1799,111879843,0.6221,-0.7715,0.0449,1.89,-0.91,1.89
1800,111884843,0.6250,-0.7705,0.0444,1.89,-0.73,1.89
1801,111889843,0.6221,-0.7705,0.0469,1.95,-0.73,1.95
1802,111894870,0.6206,-0.7739,0.0498,1.83,-0.91,2.01
1803,111899843,0.6221,-0.7754,0.0493,2.01,-0.85,2.01
1804,111904842,0.6191,-0.7739,0.0493,1.89,-0.85,2.07
1805,111909843,0.6201,-0.7695,0.0444,2.07,-0.67,2.07
1806,111914843,0.6206,-0.7729,0.0464,2.13,-0.73,2.07
1807,111919843,0.6177,-0.7729,0.0439,2.26,-0.73,2.13
1808,111924844,0.6182,-0.7788,0.0454,2.44,-0.73,2.20
1809,111929841,0.6187,-0.7744,0.0464,2.50,-0.85,2.20
1810,111934843,0.6152,-0.7773,0.0410,2.62,-0.67,2.13
1811,111939843,0.6162,-0.7749,0.0415,2.68,-0.67,2.13
1812,111944842,0.6162,-0.7715,0.0479,2.80,-0.73,2.13
1813,111949841,0.6187,-0.7715,0.0444,2.87,-0.67,2.07
1814,111954845,0.6191,-0.7725,0.0488,2.93,-0.55,2.01
1815,111959843,0.6177,-0.7729,0.0435,2.99,-0.67,2.07
1816,111964843,0.6172,-0.7710,0.0469,2.99,-0.61,2.01
1817,111969841,0.6191,-0.7700,0.0488,2.99,-0.61,2.01
1818,111974868,0.6211,-0.7710,0.0469,3.05,-0.61,2.01
1819,111979843,0.6240,-0.7715,0.0552,3.11,-0.61,1.89
1820,111984844,0.6230,-0.7690,0.0498,3.23,-0.61,1.89
1821,111989841,0.6226,-0.7700,0.0483,3.35,-0.67,1.83
1822,111994842,0.6177,-0.7744,0.0474,3.29,-0.61,1.95
1823,111999843,0.6206,-0.7739,0.0493,3.35,-0.55,1.95
1824,112004842,0.6211,-0.7720,0.0483,3.29,-0.61,1.89
1825,112009843,0.6182,-0.7729,0.0522,3.29,-0.55,2.01
1826,112014843,0.6201,-0.7754,0.0532,3.11,-0.67,1.95
1827,112019843,0.6226,-0.7705,0.0518,3.11,-0.67,1.95
1828,112024842,0.6167,-0.7754,0.0522,2.99,-0.67,2.07
1829,112029841,0.6240,-0.7725,0.0513,3.05,-0.61,1.95
1830,112034903,0.6211,-0.7710,0.0488,2.80,-0.73,1.89
1831,112039842,0.6196,-0.7734,0.0552,2.74,-0.79,1.89
1832,112045260,0.6211,-0.7754,0.0596,2.74,-0.67,1.83
1833,112049843,0.6196,-0.7739,0.0532,2.62,-0.79,1.89
1834,112054842,0.6230,-0.7705,0.0518,2.56,-0.85,1.95
1835,112059843,0.6235,-0.7739,0.0532,2.38,-1.04,1.89
1836,112064842,0.6260,-0.7734,0.0547,2.20,-0.98,1.95
1837,112069843,0.6230,-0.7734,0.0527,1.95,-1.04,1.89
1838,112074842,0.6235,-0.7754,0.0562,1.89,-1.04,1.95
1839,112079841,0.6211,-0.7681,0.0566,1.52,-1.10,1.95
1840,112084843,0.6172,-0.7749,0.0601,1.40,-1.22,1.95
1841,112090388,0.6177,-0.7744,0.0513,1.46,-1.10,1.95
1842,112094843,0.6157,-0.7700,0.0532,1.40,-1.22,1.89
1843,112099845,0.6152,-0.7749,0.0503,1.40,-1.28,1.95
1844,112104843,0.6167,-0.7754,0.0493,1.52,-1.34,1.89
1845,112109842,0.6196,-0.7729,0.0552,1.65,-1.28,1.83
1846,112114859,0.6172,-0.7720,0.0459,1.71,-1.28,1.89
1847,112119843,0.6187,-0.7759,0.0459,1.71,-1.34,1.89
1848,112124844,0.6182,-0.7700,0.0493,1.65,-1.22,1.89
1849,112129905,0.6196,-0.7681,0.0483,1.71,-1.16,1.89
1850,112134842,0.6221,-0.7690,0.0483,1.71,-1.16,1.83
1851,112139843,0.6182,-0.7710,0.0410,1.77,-1.04,1.89
1852,112144842,0.6167,-0.7725,0.0439,1.83,-0.85,1.89
1853,112149843,0.6216,-0.7715,0.0430,2.01,-0.85,1.95
1854,112154842,0.6191,-0.7754,0.0459,2.13,-0.91,2.01
1855,112160075,0.6216,-0.7739,0.0396,2.26,-0.73,1.89
1856,112164843,0.6182,-0.7739,0.0430,2.44,-0.73,1.89
1857,112169843,0.6167,-0.7734,0.0518,2.62,-0.79,1.95
1858,112174843,0.6211,-0.7739,0.0435,2.80,-0.73,1.95
1859,112179842,0.6182,-0.7773,0.0469,2.93,-0.61,2.07
1860,112184843,0.6172,-0.7744,0.0459,3.11,-0.61,1.95
1861,112189843,0.6147,-0.7764,0.0459,3.17,-0.61,2.13
1862,112194845,0.6206,-0.7769,0.0459,3.35,-0.61,2.07
1863,112199842,0.6167,-0.7749,0.0483,3.35,-0.49,2.13
1864,112204843,0.6206,-0.7749,0.0557,3.41,-0.43,2.13
1865,112209843,0.6201,-0.7695,0.0503,3.41,-0.37,2.20
1866,112214843,0.6177,-0.7749,0.0557,3.48,-0.49,2.13
1867,112219841,0.6172,-0.7759,0.0459,3.48,-0.49,2.13
1868,112224843,0.6196,-0.7759,0.0537,3.35,-0.55,2.20
1869,112229843,0.6211,-0.7729,0.0557,3.23,-0.55,2.07
1870,112234841,0.6182,-0.7749,0.0601,3.11,-0.49,2.13
1871,112239933,0.6191,-0.7715,0.0576,2.93,-0.67,2.13
1872,112244843,0.6206,-0.7739,0.0532,2.87,-0.73,2.07
1873,112249843,0.6226,-0.7739,0.0571,2.68,-0.73,2.07
1874,112254843,0.6167,-0.7754,0.0581,2.50,-0.85,2.07
1875,112259842,0.6182,-0.7734,0.0547,2.32,-0.91,2.07
1876,112264843,0.6182,-0.7754,0.0566,2.01,-0.98,2.07
1877,112269843,0.6196,-0.7695,0.0571,2.01,-1.10,2.07
1878,112274843,0.6177,-0.7739,0.0557,1.77,-1.04,2.13
1879,112279842,0.6172,-0.7739,0.0605,1.71,-1.16,2.01
1880,112284844,0.6182,-0.7749,0.0522,1.59,-1.22,2.07
1881,112289843,0.6152,-0.7778,0.0566,1.40,-1.40,2.01
1882,112294843,0.6152,-0.7769,0.0542,1.28,-1.40,2.07
1883,112299935,0.6147,-0.7754,0.0532,1.22,-1.46,2.01
1884,112304843,0.6143,-0.7739,0.0493,1.16,-1.46,2.07
1885,112309843,0.6128,-0.7710,0.0547,1.10,-1.40,2.07
1886,112314860,0.6172,-0.7744,0.0527,1.16,-1.59,2.01
1887,112320391,0.6172,-0.7720,0.0537,1.04,-1.59,1.95
1888,112324843,0.6167,-0.7725,0.0518,1.10,-1.59,2.01
1889,112329843,0.6182,-0.7729,0.0513,1.10,-1.59,1.95
1890,112334843,0.6216,-0.7720,0.0474,1.04,-1.65,1.89
1891,112339843,0.6221,-0.7759,0.0474,1.16,-1.65,1.95
1892,112344843,0.6240,-0.7734,0.0464,1.04,-1.65,1.89
1893,112349843,0.6221,-0.7725,0.0522,0.98,-1.59,1.95
1894,112354843,0.6211,-0.7686,0.0435,0.91,-1.59,2.01
1895,112360108,0.6216,-0.7720,0.0474,0.67,-1.52,1.89
1896,112364843,0.6211,-0.7725,0.0459,0.61,-1.71,2.01
1897,112369844,0.6245,-0.7695,0.0479,0.55,-1.46,2.01
1898,112374843,0.6216,-0.7710,0.0459,0.55,-1.65,2.01
1899,112379842,0.6226,-0.7749,0.0474,0.55,-1.77,1.95
1900,112384844,0.6196,-0.7729,0.0435,0.55,-1.65,1.95
1901,112389843,0.6240,-0.7720,0.0454,0.67,-1.83,1.89
1902,112394843,0.6187,-0.7710,0.0488,0.73,-1.71,1.89
1903,112399842,0.6201,-0.7705,0.0435,0.79,-1.71,1.89
1904,112404843,0.6221,-0.7720,0.0376,0.73,-1.77,1.95
1905,112409843,0.6196,-0.7676,0.0386,0.67,-1.71,1.95
1906,112414843,0.6221,-0.7729,0.0469,0.67,-1.59,1.89
1907,112419842,0.6206,-0.7715,0.0483,0.73,-1.71,1.83
1908,112424843,0.6216,-0.7705,0.0444,0.79,-1.77,1.89
1909,112429844,0.6235,-0.7725,0.0391,0.85,-1.65,1.89
1910,112434843,0.6265,-0.7710,0.0439,1.04,-1.65,1.83
1911,112439841,0.6260,-0.7749,0.0405,1.10,-1.59,1.95
1912,112444843,0.6250,-0.7710,0.0479,1.16,-1.65,1.89
1913,112449842,0.6230,-0.7695,0.0420,1.40,-1.52,1.95
1914,112454844,0.6201,-0.7715,0.0425,1.40,-1.52,2.01
1915,112459845,0.6157,-0.7700,0.0454,1.40,-1.59,1.95
1916,112464843,0.6147,-0.7744,0.0415,1.34,-1.52,2.01
1917,112469843,0.6128,-0.7695,0.0420,1.28,-1.59,2.07
1918,112474842,0.6099,-0.7700,0.0425,0.98,-1.59,2.07
1919,112479841,0.6143,-0.7720,0.0366,0.85,-1.59,2.07
1920,112484843,0.6104,-0.7734,0.0391,0.61,-1.59,2.01
1921,112489842,0.6104,-0.7769,0.0405,0.30,-1.52,2.01
1922,112494844,0.6128,-0.7788,0.0356,0.24,-1.59,2.01
1923,112499842,0.6152,-0.7764,0.0420,0.49,-1.46,2.01
1924,112504843,0.6157,-0.7749,0.0391,0.73,-1.40,1.89
1925,112509843,0.6162,-0.7754,0.0420,1.10,-1.28,2.01
1926,112514844,0.6226,-0.7749,0.0420,1.65,-1.34,2.07
1927,112519842,0.6211,-0.7769,0.0391,1.95,-1.34,2.07
1928,112524844,0.6216,-0.7739,0.0420,2.01,-1.40,2.20
1929,112529842,0.6221,-0.7739,0.0400,1.95,-1.46,2.26
1930,112534843,0.6226,-0.7690,0.0430,1.40,-1.40,2.20
1931,112539843,0.6221,-0.7710,0.0420,1.22,-1.34,2.26
1932,112544842,0.6250,-0.7729,0.0435,1.28,-1.16,2.20
1933,112549843,0.6196,-0.7705,0.0435,1.40,-1.22,2.20
1934,112554843,0.6230,-0.7700,0.0483,1.59,-1.34,2.26
1935,112559843,0.6235,-0.7686,0.0420,1.95,-1.28,2.26
1936,112564843,0.6240,-0.7656,0.0430,2.32,-1.28,2.26
1937,112569957,0.6226,-0.7749,0.0405,2.44,-1.28,2.20
1938,112574843,0.6211,-0.7705,0.0449,2.38,-1.28,2.07
1939,112579843,0.6270,-0.7661,0.0439,2.26,-1.28,2.26
1940,112584843,0.6240,-0.7695,0.0361,2.26,-1.28,2.07
1941,112589842,0.6230,-0.7666,0.0366,2.32,-1.28,2.07
1942,112594843,0.6250,-0.7729,0.0439,2.68,-1.16,2.07
1943,112599843,0.6250,-0.7676,0.0488,3.11,-1.28,2.07
1944,112604843,0.6216,-0.7710,0.0405,3.54,-1.40,2.01
1945,112609842,0.6221,-0.7705,0.0376,3.78,-1.22,2.07
1946,112614843,0.6211,-0.7744,0.0356,3.96,-1.28,2.07
1947,112620549,0.6196,-0.7715,0.0400,3.78,-1.28,2.07
1948,112624843,0.6182,-0.7734,0.0342,3.54,-1.28,2.01
1949,112629846,0.6187,-0.7729,0.0400,3.23,-1.22,2.07
1950,112634842,0.6123,-0.7739,0.0410,2.99,-1.16,2.13
1951,112639843,0.6099,-0.7739,0.0400,2.80,-1.22,2.01
1952,112644842,0.6152,-0.7700,0.0430,2.68,-1.28,2.07
1953,112650300,0.6187,-0.7764,0.0400,2.62,-1.22,2.01
1954,112654843,0.6177,-0.7710,0.0435,2.74,-1.16,1.95
1955,112659843,0.6138,-0.7720,0.0464,2.93,-1.40,2.01
1956,112664843,0.6230,-0.7725,0.0420,3.11,-1.40,1.89
1957,112669842,0.6211,-0.7720,0.0444,3.35,-1.52,1.95
1958,112674844,0.6250,-0.7725,0.0464,3.66,-1.52,1.95
1959,112679843,0.6235,-0.7710,0.0444,3.72,-1.59,1.89
1960,112684843,0.6187,-0.7720,0.0415,3.60,-1.52,1.77
1961,112689842,0.6162,-0.7666,0.0469,3.17,-1.52,1.95
1962,112694843,0.6201,-0.7695,0.0469,2.62,-1.59,1.89
1963,112699845,0.6284,-0.7812,0.0425,2.26,-1.46,2.01
1964,112704843,0.6138,-0.7710,0.0366,2.13,-1.40,1.89
1965,112709843,0.6177,-0.7695,0.0479,2.07,-1.52,1.95
1966,112714843,0.6196,-0.7705,0.0439,2.07,-1.65,1.95
1967,112720323,0.6167,-0.7715,0.0459,2.26,-1.65,2.01
1968,112724843,0.6255,-0.7754,0.0513,2.50,-1.65,2.01
1969,112730001,0.6167,-0.7710,0.0454,2.80,-1.65,1.83
1970,112734843,0.6206,-0.7690,0.0503,2.93,-1.65,1.83
1971,112739842,0.6226,-0.7710,0.0425,3.05,-1.83,1.77
1972,112744843,0.6211,-0.7695,0.0508,3.05,-1.71,1.89
1973,112749843,0.6240,-0.7720,0.0386,2.99,-1.77,1.83
1974,112754843,0.6216,-0.7671,0.0454,2.74,-1.89,1.95
1975,112759843,0.6240,-0.7715,0.0488,2.62,-1.89,1.89
1976,112764843,0.6250,-0.7700,0.0459,2.44,-2.01,1.89
1977,112769841,0.6230,-0.7715,0.0483,2.26,-2.01,1.95
1978,112774843,0.6196,-0.7720,0.0513,2.13,-1.89,1.95
1979,112779843,0.6221,-0.7715,0.0488,2.07,-1.89,1.89
1980,112784843,0.6211,-0.7739,0.0469,1.89,-2.01,1.89
1981,112789842,0.6226,-0.7720,0.0493,1.95,-2.13,1.89
1982,112794843,0.6196,-0.7720,0.0449,1.83,-2.07,1.95
1983,112799843,0.6196,-0.7729,0.0488,1.83,-2.13,1.95
1984,112804843,0.6206,-0.7710,0.0347,1.77,-2.13,1.83
1985,112809844,0.6211,-0.7705,0.0483,1.83,-2.26,1.89
1986,112814843,0.6177,-0.7690,0.0479,1.89,-2.20,1.83
1987,112819842,0.6162,-0.7720,0.0498,1.95,-2.20,1.83
1988,112824843,0.6221,-0.7695,0.0444,1.95,-2.38,1.83
1989,112829842,0.6245,-0.7710,0.0469,2.01,-2.26,1.89
1990,112834843,0.6211,-0.7700,0.0430,1.95,-2.20,1.83
1991,112839843,0.6201,-0.7710,0.0474,1.83,-2.20,1.83
1992,112844843,0.6196,-0.7744,0.0420,1.77,-2.13,1.77
1993,112849843,0.6191,-0.7710,0.0415,1.71,-2.20,1.83
1994,112854843,0.6162,-0.7710,0.0405,1.77,-2.20,1.89
1995,112859843,0.6240,-0.7744,0.0405,1.83,-2.20,1.95
1996,112864843,0.6235,-0.7759,0.0430,1.89,-2.07,1.95
1997,112869842,0.6211,-0.7715,0.0444,1.89,-2.13,2.01
1998,112874843,0.6221,-0.7759,0.0391,2.01,-2.13,1.95
1999,112879843,0.6187,-0.7739,0.0396,2.01,-2.01,2.07
2000,112884843,0.6162,-0.7705,0.0391,2.07,-2.01,1.95
2001,112889842,0.6172,-0.7725,0.0454,2.01,-1.95,2.01
2002,112894843,0.6211,-0.7690,0.0444,2.01,-2.01,2.07
2003,112899843,0.6211,-0.7695,0.0454,1.95,-1.89,2.07
2004,112904844,0.6201,-0.7700,0.0503,2.01,-1.95,2.07
2005,112909842,0.6182,-0.7710,0.0469,2.01,-1.89,1.95
2006,112914843,0.6187,-0.7720,0.0479,1.95,-1.95,2.01
2007,112919843,0.6191,-0.7671,0.0454,2.01,-1.95,2.07
2008,112924842,0.6201,-0.7725,0.0425,1.95,-1.95,2.07
2009,112929843,0.6206,-0.7695,0.0444,1.83,-1.89,2.01
2010,112934843,0.6187,-0.7720,0.0381,1.65,-1.95,2.07
2011,112939843,0.6201,-0.7695,0.0430,1.46,-2.07,2.07
2012,112944843,0.6211,-0.7695,0.0425,1.40,-1.95,1.89
2013,112949843,0.6162,-0.7700,0.0459,1.16,-2.07,1.95
2014,112954842,0.6196,-0.7686,0.0415,1.04,-2.01,2.01
2015,112960337,0.6221,-0.7729,0.0366,0.98,-2.01,2.01
2016,112964843,0.6157,-0.7739,0.0410,1.10,-2.13,1.89
2017,112969843,0.6182,-0.7710,0.0361,1.28,-2.07,1.89
2018,112974843,0.6250,-0.7720,0.0420,1.59,-2.13,1.89
2019,112979842,0.6216,-0.7715,0.0356,1.83,-1.95,1.83
2020,112984843,0.6211,-0.7700,0.0396,2.13,-2.01,1.83
2021,112989843,0.6211,-0.7690,0.0386,2.38,-1.95,1.71
2022,112994843,0.6221,-0.7695,0.0366,2.44,-2.01,1.83
2023,112999842,0.6240,-0.7690,0.0386,2.44,-2.01,1.83
2024,113004843,0.6260,-0.7710,0.0356,2.32,-1.83,1.83
2025,113009843,0.6235,-0.7700,0.0337,2.07,-1.95,1.89
2026,113014843,0.6250,-0.7651,0.0342,2.01,-1.83,1.89
2027,113019843,0.6255,-0.7695,0.0356,2.13,-1.71,1.95
2028,113024844,0.6230,-0.7710,0.0361,2.07,-1.83,2.01
2029,113029842,0.6235,-0.7686,0.0381,2.32,-1.77,1.89
2030,113034843,0.6240,-0.7715,0.0352,2.44,-1.65,1.95
2031,113039843,0.6216,-0.7686,0.0308,2.56,-1.71,1.95
2032,113044843,0.6260,-0.7686,0.0381,2.68,-1.65,1.89
2033,113049843,0.6201,-0.7695,0.0332,2.93,-1.77,1.77
2034,113055353,0.6201,-0.7705,0.0342,2.87,-1.71,1.83
2035,113059843,0.6221,-0.7676,0.0337,3.05,-1.71,1.83
2036,113064843,0.6226,-0.7695,0.0342,3.17,-1.59,1.77
2037,113069843,0.6201,-0.7700,0.0303,3.41,-1.52,1.77
2038,113074842,0.6226,-0.7715,0.0356,3.48,-1.65,1.77
2039,113079843,0.6226,-0.7705,0.0396,3.66,-1.71,1.77
2040,113084842,0.6152,-0.7695,0.0381,3.72,-1.65,1.71
2041,113089844,0.6167,-0.7729,0.0396,3.78,-1.52,1.71
2042,113094842,0.6162,-0.7744,0.0415,3.78,-1.59,1.71
2043,113099843,0.6172,-0.7729,0.0410,3.66,-1.40,1.77
2044,113104842,0.6201,-0.7705,0.0400,3.72,-1.52,1.71
2045,113109843,0.6211,-0.7744,0.0410,3.66,-1.59,1.65
2046,113114843,0.6226,-0.7734,0.0444,3.66,-1.46,1.71
2047,113119843,0.6255,-0.7729,0.0381,3.54,-1.46,1.71
2048,113124842,0.6196,-0.7720,0.0366,3.60,-1.52,1.89
2049,113129843,0.6211,-0.7729,0.0405,3.54,-1.52,1.83
2050,113134843,0.6240,-0.7690,0.0356,3.72,-1.46,1.89
2051,113139841,0.6235,-0.7700,0.0430,3.66,-1.52,1.89
2052,113144843,0.6196,-0.7705,0.0469,3.66,-1.52,2.01
2053,113149843,0.6221,-0.7705,0.0415,3.54,-1.52,1.95
2054,113154842,0.6255,-0.7715,0.0469,3.48,-1.52,1.95
2055,113159841,0.6182,-0.7725,0.0391,3.35,-1.59,1.77
2056,113164846,0.6162,-0.7739,0.0366,3.35,-1.46,1.95
2057,113169842,0.6152,-0.7715,0.0425,3.23,-1.52,1.95
2058,113174842,0.6128,-0.7725,0.0391,3.41,-1.59,1.83
2059,113179843,0.6133,-0.7725,0.0435,3.48,-1.46,1.77
2060,113184842,0.6167,-0.7725,0.0449,3.60,-1.52,1.77
2061,113189843,0.6182,-0.7739,0.0386,3.78,-1.52,1.77
2062,113194934,0.6138,-0.7764,0.0405,3.96,-1.46,1.77
2063,113199842,0.6172,-0.7729,0.0449,4.02,-1.46,1.77
2064,113204845,0.6167,-0.7739,0.0396,4.15,-1.52,1.71
2065,113209842,0.6191,-0.7754,0.0420,4.09,-1.40,1.83
2066,113214843,0.6196,-0.7764,0.0435,4.02,-1.52,1.77
2067,113219843,0.6245,-0.7759,0.0430,3.96,-1.34,1.89
2068,113224843,0.6211,-0.7749,0.0400,3.78,-1.46,1.95
2069,113230877,0.6230,-0.7739,0.0435,3.66,-1.46,2.01
2070,113234843,0.6240,-0.7744,0.0479,3.54,-1.46,1.95
2071,113239842,0.6260,-0.7739,0.0459,3.60,-1.52,2.13
2072,113244845,0.6255,-0.7729,0.0479,3.60,-1.46,2.07
2073,113249843,0.6206,-0.7715,0.0498,3.41,-1.52,2.01
2074,113254843,0.6201,-0.7725,0.0464,3.23,-1.65,2.20
2075,113260012,0.6206,-0.7676,0.0527,2.99,-1.59,2.13
2076,113264844,0.6240,-0.7695,0.0493,2.74,-1.83,2.13
2077,113269843,0.6211,-0.7729,0.0552,2.56,-1.71,2.07
2078,113274843,0.6206,-0.7729,0.0576,2.20,-1.83,2.13
2079,113280787,0.6235,-0.7734,0.0532,1.77,-1.77,2.07
2080,113284844,0.6245,-0.7705,0.0557,1.59,-1.83,2.13
2081,113289843,0.6221,-0.7759,0.0498,1.28,-1.95,2.07
2082,113294843,0.6201,-0.7749,0.0522,1.10,-1.95,2.13
2083,113299841,0.6226,-0.7720,0.0449,0.85,-1.95,2.20
2084,113304843,0.6221,-0.7720,0.0532,0.73,-2.07,2.13
2085,113309843,0.6211,-0.7700,0.0537,0.73,-2.13,2.07
2086,113314844,0.6216,-0.7720,0.0449,0.49,-2.20,2.26
2087,113319915,0.6196,-0.7739,0.0444,0.30,-2.07,2.26
2088,113324843,0.6187,-0.7734,0.0464,0.12,-2.07,2.20
2089,113329843,0.6211,-0.7729,0.0444,0.00,-2.13,2.26
2090,113334843,0.6211,-0.7705,0.0444,-0.12,-2.20,2.20
2091,113339842,0.6182,-0.7734,0.0337,-0.18,-2.07,2.20
2092,113344844,0.6187,-0.7739,0.0356,-0.30,-2.13,2.26
2093,113349843,0.6172,-0.7720,0.0386,-0.12,-2.26,2.26
2094,113354843,0.6177,-0.7715,0.0386,-0.12,-2.26,2.20
2095,113359843,0.6152,-0.7715,0.0361,-0.06,-2.26,2.13
2096,113364841,0.6191,-0.7651,0.0444,0.06,-2.13,2.20
2097,113369843,0.6172,-0.7705,0.0308,0.00,-2.13,2.26
2098,113374843,0.6157,-0.7700,0.0312,0.06,-2.20,2.20
2099,113379842,0.6162,-0.7739,0.0337,0.06,-2.13,2.07
2100,113384843,0.6177,-0.7681,0.0376,0.12,-2.01,2.13
2101,113389843,0.6152,-0.7681,0.0366,0.12,-1.95,2.13
2102,113394843,0.6157,-0.7705,0.0332,0.12,-2.01,2.13
2103,113399844,0.6138,-0.7764,0.0366,0.12,-1.95,2.13
2104,113404843,0.6182,-0.7734,0.0342,0.24,-2.01,2.07
2105,113409843,0.6191,-0.7690,0.0342,0.43,-2.07,2.13
2106,113414843,0.6152,-0.7681,0.0342,0.49,-2.01,2.07
2107,113419842,0.6191,-0.7705,0.0288,0.67,-2.07,1.95
2108,113424843,0.6230,-0.7661,0.0317,0.73,-1.95,2.01
2109,113430074,0.6250,-0.7671,0.0312,0.73,-2.01,2.01
2110,113434844,0.6270,-0.7671,0.0342,0.79,-1.89,2.07
2111,113439842,0.6260,-0.7676,0.0327,0.85,-1.77,1.95
2112,113444843,0.6279,-0.7681,0.0342,0.79,-1.65,2.07
2113,113449844,0.6304,-0.7681,0.0342,0.79,-1.65,2.01
2114,113454843,0.6240,-0.7661,0.0400,0.91,-1.65,2.07
2115,113459843,0.6235,-0.7715,0.0317,1.04,-1.65,2.07
2116,113464843,0.6250,-0.7710,0.0342,1.22,-1.59,2.13
2117,113469843,0.6206,-0.7729,0.0347,1.40,-1.52,2.07
2118,113474843,0.6206,-0.7700,0.0322,1.40,-1.59,2.07
2119,113479843,0.6177,-0.7686,0.0288,1.59,-1.71,2.07
2120,113484843,0.6157,-0.7681,0.0317,1.52,-1.59,2.07
2121,113489842,0.6191,-0.7725,0.0303,1.65,-1.71,2.01
2122,113494843,0.6147,-0.7690,0.0269,1.65,-1.59,2.01
2123,113499844,0.6167,-0.7700,0.0293,1.65,-1.65,2.01
2124,113504843,0.6182,-0.7705,0.0288,1.83,-1.59,1.89
2125,113509842,0.6182,-0.7666,0.0273,2.07,-1.59,1.95
2126,113514844,0.6182,-0.7710,0.0283,2.32,-1.52,2.01
2127,113519841,0.6191,-0.7676,0.0293,2.68,-1.52,1.89
2128,113524843,0.6177,-0.7700,0.0278,2.87,-1.40,1.89
2129,113529843,0.6201,-0.7744,0.0239,3.17,-1.40,1.89
2130,113534841,0.6177,-0.7700,0.0234,3.48,-1.40,1.83
2131,113539843,0.6191,-0.7686,0.0244,3.60,-1.34,1.89
2132,113544843,0.6201,-0.7690,0.0225,3.84,-1.22,1.89
2133,113549844,0.6191,-0.7695,0.0254,3.84,-1.10,1.89
2134,113554843,0.6216,-0.7715,0.0220,4.21,-1.10,1.89
2135,113559843,0.6230,-0.7690,0.0254,4.39,-0.98,1.89
2136,113564843,0.6235,-0.7710,0.0264,4.63,-0.98,2.07
2137,113569841,0.6216,-0.7734,0.0244,4.88,-0.79,2.01
2138,113574843,0.6211,-0.7749,0.0361,5.24,-0.67,2.07
2139,113579842,0.6201,-0.7725,0.0293,5.43,-0.61,2.13
2140,113584843,0.6255,-0.7725,0.0327,5.61,-0.73,2.13
2141,113589843,0.6187,-0.7725,0.0332,5.73,-0.67,2.13
2142,113594843,0.6191,-0.7739,0.0352,5.79,-0.61,2.13
2143,113599843,0.6147,-0.7715,0.0337,5.79,-0.61,2.13
2144,113604843,0.6201,-0.7661,0.0366,5.79,-0.49,2.13
2145,113609843,0.6182,-0.7686,0.0381,5.79,-0.43,2.20
2146,113614843,0.6221,-0.7705,0.0405,5.55,-0.49,2.20
2147,113619843,0.6221,-0.7690,0.0415,5.37,-0.43,2.20
2148,113624843,0.6196,-0.7681,0.0376,5.00,-0.37,2.26
2149,113629843,0.6177,-0.7671,0.0488,4.27,-0.43,2.20
2150,113634845,0.6167,-0.7686,0.0396,3.78,-0.30,2.26
2151,113640382,0.6182,-0.7656,0.0400,2.62,-0.30,2.32
2152,113644843,0.6143,-0.7676,0.0356,1.65,-0.30,2.38
2153,113649843,0.6211,-0.7720,0.0352,0.73,-0.18,2.38
2154,113654845,0.6191,-0.7676,0.0420,0.00,-0.06,2.38
2155,113659843,0.6182,-0.7637,0.0386,-0.79,-0.12,2.32
2156,113664842,0.6230,-0.7734,0.0298,-1.34,-0.06,2.44
2157,113669845,0.6216,-0.7769,0.0405,-1.10,0.06,2.44
2158,113674842,0.6274,-0.7803,0.0425,-0.18,0.00,2.44
2159,113679843,0.6265,-0.7808,0.0444,1.28,0.00,2.32
2160,113684841,0.6260,-0.7759,0.0420,2.74,-0.06,2.26
2161,113689843,0.6260,-0.7759,0.0469,4.27,-0.18,2.26
2162,113694842,0.6245,-0.7715,0.0498,5.55,-0.24,2.26
2163,113699843,0.6201,-0.7739,0.0469,6.59,-0.30,2.26
2164,113704842,0.6201,-0.7739,0.0439,6.95,-0.43,2.26
2165,113709843,0.6138,-0.7695,0.0376,6.71,-0.37,2.13
2166,113714842,0.6157,-0.7656,0.0459,5.85,-0.37,2.26
2167,113719843,0.6157,-0.7695,0.0527,4.88,-0.30,2.20
2168,113724843,0.6167,-0.7705,0.0503,3.72,-0.43,2.26
2169,113729843,0.6152,-0.7710,0.0459,2.87,-0.43,2.20
2170,113734842,0.6235,-0.7744,0.0518,2.56,-0.49,2.26
2171,113739843,0.6201,-0.7734,0.0562,2.56,-0.61,2.20
2172,113744841,0.6230,-0.7686,0.0581,2.99,-0.67,2.20
2173,113749843,0.6255,-0.7705,0.0571,3.23,-0.85,2.07
2174,113754842,0.6230,-0.7725,0.0591,3.35,-0.98,2.13
2175,113759843,0.6196,-0.7778,0.0508,3.17,-1.10,2.13
2176,113764841,0.6177,-0.7744,0.0532,2.87,-1.22,2.07
2177,113769843,0.6221,-0.7715,0.0464,2.20,-1.34,2.07
2178,113774843,0.6182,-0.7700,0.0449,1.34,-1.28,2.13
2179,113779843,0.6182,-0.7720,0.0415,0.73,-1.40,2.13
2180,113784842,0.6211,-0.7764,0.0420,0.37,-1.34,2.13
2181,113789843,0.6226,-0.7749,0.0435,0.43,-1.52,2.13
2182,113794843,0.6255,-0.7705,0.0439,0.73,-1.46,2.13
2183,113799841,0.6245,-0.7759,0.0435,1.10,-1.59,2.26
2184,113804843,0.6230,-0.7690,0.0391,1.40,-1.52,2.20
2185,113809843,0.6221,-0.7729,0.0400,1.59,-1.65,2.26
2186,113814843,0.6221,-0.7715,0.0381,1.65,-1.65,2.32
2187,113819843,0.6216,-0.7681,0.0278,1.46,-1.59,2.26
2188,113824843,0.6201,-0.7686,0.0337,1.28,-1.46,2.26
2189,113829843,0.6221,-0.7690,0.0288,1.04,-1.52,2.26
2190,113834842,0.6206,-0.7637,0.0308,0.79,-1.40,2.20
2191,113839843,0.6187,-0.7637,0.0288,0.85,-1.40,2.13
2192,113844844,0.6191,-0.7676,0.0283,1.22,-1.40,2.20
2193,113849841,0.6191,-0.7725,0.0244,1.59,-1.34,2.07
2194,113854843,0.6191,-0.7690,0.0264,2.13,-1.40,2.01
2195,113859843,0.6118,-0.7681,0.0259,2.74,-1.16,2.07
2196,113864843,0.6157,-0.7705,0.0249,3.29,-1.10,2.01
2197,113869843,0.6172,-0.7729,0.0264,3.54,-0.85,2.01
2198,113874843,0.6167,-0.7681,0.0215,3.90,-0.73,2.13
2199,113879843,0.6187,-0.7695,0.0220,4.09,-0.67,2.07
2200,113884843,0.6221,-0.7705,0.0229,4.33,-0.55,2.13
2201,113889843,0.6221,-0.7729,0.0293,4.51,-0.55,2.20
2202,113894843,0.6187,-0.7705,0.0317,4.82,-0.24,2.20
2203,113899843,0.6172,-0.7725,0.0278,5.12,-0.24,2.20
2204,113904843,0.6089,-0.7612,0.0244,4.94,-0.06,2.26
2205,113909844,0.6045,-0.7559,0.0298,4.15,-0.06,2.32
2206,113914841,0.6152,-0.7715,0.0195,3.23,0.12,2.44
2207,113919843,0.6099,-0.7754,0.0215,2.20,0.12,2.50
2208,113924842,0.6006,-0.7622,0.0269,1.28,0.49,2.44
2209,113929843,0.6201,-0.7700,0.0293,0.43,0.49,2.44
2210,113934841,0.6104,-0.7656,0.0151,0.06,0.73,2.50
2211,113939843,0.6104,-0.7534,0.0273,-0.61,0.91,2.38
2212,113944842,0.6274,-0.7754,0.0264,-0.79,1.10,2.62
2213,113949843,0.6128,-0.7622,0.0210,-1.04,1.16,2.56
2214,113954841,0.6172,-0.7676,0.0259,-1.28,1.28,2.62
2215,113959843,0.6299,-0.7725,0.0156,-1.28,1.52,2.62
2216,113964842,0.6245,-0.7671,0.0142,-1.34,1.52,2.62
2217,113969843,0.6226,-0.7637,0.0244,-1.16,1.71,2.74
2218,113974841,0.6260,-0.7627,0.0308,-1.28,1.83,2.93
2219,113979843,0.6274,-0.7739,0.0225,-1.22,2.07,2.99
2220,113984843,0.6279,-0.7705,0.0151,-1.10,2.26,3.05
2221,113989843,0.6274,-0.7690,0.0264,-0.98,2.26,3.11
2222,113994843,0.6260,-0.7705,0.0332,-0.73,2.50,3.17
2223,113999867,0.6333,-0.7637,0.0312,-0.49,2.62,3.29
2224,114004843,0.6270,-0.7559,0.0303,-0.61,2.50,3.35
2225,114009843,0.6328,-0.7593,0.0278,-0.91,2.80,3.54
2226,114014843,0.6377,-0.7666,0.0337,-1.04,2.87,3.54
2227,114019843,0.6309,-0.7598,0.0449,-1.28,3.05,3.72
2228,114024844,0.6455,-0.7754,0.0415,-1.40,3.05,3.72
2229,114029857,0.6411,-0.7617,0.0361,-1.34,3.05,3.66
2230,114034843,0.6372,-0.7529,0.0444,-1.65,2.99,3.72
2231,114039843,0.6460,-0.7715,0.0425,-1.59,3.17,3.90
2232,114044843,0.6294,-0.7607,0.0425,-1.59,3.11,3.78
2233,114049843,0.6348,-0.7632,0.0459,-1.89,3.05,3.90
2234,114054843,0.6230,-0.7637,0.0435,-2.62,3.05,4.02
2235,114059843,0.6279,-0.7715,0.0444,-3.11,2.99,4.02
2236,114064843,0.6157,-0.7759,0.0454,-3.54,2.87,3.90
2237,114069843,0.6196,-0.7729,0.0410,-3.35,2.68,3.78
