# skilleye imu stream v1
# device=xiao_esp32c6 imu=mpu6050 addr=0x68
# rate_hz=200 accel_range_g=16 gyro_range_dps=2000 dlpf_hz=94
# units: accel in g, gyro in deg/s, t_us in microseconds since boot (monotonic)
# no shared clock with the camera -- tap the racket once before each take
# so both recordings share a spike to align on
seq,t_us,ax,ay,az,gx,gy,gz
0,284105440,-0.9131,0.2354,0.0933,-15.85,3.54,6.65
1,284110449,-0.9106,0.2358,0.0898,-13.35,3.05,6.40
2,284115441,-0.9087,0.2456,0.0869,-10.61,2.32,5.91
3,284120440,-0.9058,0.2471,0.0962,-7.74,1.71,5.49
4,284125444,-0.8940,0.2554,0.0947,-4.70,0.85,5.00
5,284130444,-0.8774,0.2607,0.0962,-1.34,0.00,4.70
6,284135441,-0.8628,0.2651,0.1069,2.01,-0.98,4.09
7,284141102,-0.8521,0.2700,0.1104,6.28,-2.13,3.48
8,284145443,-0.8550,0.2749,0.1084,9.27,-2.93,3.11
9,284150442,-0.8667,0.2793,0.1152,13.29,-4.09,2.68
10,284155442,-0.8711,0.2837,0.1167,17.44,-5.24,2.32
11,284160441,-0.8755,0.2886,0.1104,22.13,-6.77,2.20
12,284165443,-0.9102,0.2866,0.1006,26.95,-8.11,2.13
13,284170442,-0.9795,0.2798,0.1128,32.13,-9.70,2.13
14,284175443,-0.9341,0.3394,0.0815,37.38,-11.34,1.77
15,284180441,-0.8506,0.3467,0.0938,42.32,-13.29,1.16
16,284185443,-0.8364,0.3057,0.1294,46.77,-15.24,0.79
17,284190441,-0.8916,0.3193,0.1460,51.28,-16.40,1.10
18,284195444,-0.9624,0.3320,0.1240,55.67,-17.74,1.28
19,284200518,-0.9766,0.3384,0.1079,60.06,-19.27,1.65
20,284205516,-0.9570,0.3550,0.1279,64.57,-20.55,2.26
21,284210441,-0.9380,0.3496,0.1431,69.39,-21.52,2.80
22,284215443,-0.9233,0.3638,0.1235,72.68,-22.56,3.17
23,284220442,-0.9365,0.3662,0.1343,77.32,-23.96,4.21
24,284225443,-0.9556,0.3857,0.1382,80.61,-24.88,5.12
25,284230441,-0.9600,0.3857,0.1289,82.87,-25.55,5.98
26,284235442,-0.9600,0.3872,0.1260,85.49,-26.59,7.26
27,284240442,-0.9546,0.4048,0.1226,87.68,-27.68,8.72
28,284245442,-0.9658,0.4067,0.1274,89.63,-28.66,10.30
29,284250441,-0.9688,0.4238,0.1206,91.04,-29.57,11.95
30,284255442,-0.9683,0.4414,0.1123,92.32,-30.49,13.72
31,284260442,-0.9707,0.4438,0.1011,93.11,-31.10,15.61
32,284265442,-0.9741,0.4570,0.0933,93.66,-32.20,17.62
33,284270441,-0.9819,0.4634,0.0850,93.90,-33.17,19.63
34,284275442,-0.9780,0.4800,0.0815,93.72,-33.96,21.65
35,284280442,-0.9756,0.4907,0.1094,92.93,-34.88,23.54
36,284285443,-0.9922,0.4136,0.3008,87.38,-36.40,25.00
37,284290441,-1.0430,0.2896,0.5674,55.30,-40.37,23.54
38,284295442,-1.0366,0.3643,0.5718,5.98,-46.40,20.73
39,284300441,-0.9780,0.4897,0.3477,-22.20,-49.63,21.22
40,284305443,-0.9214,0.5098,0.2554,-26.10,-49.57,23.05
41,284310442,-0.8916,0.5376,0.1860,-25.49,-49.39,24.82
42,284315442,-0.9126,0.5532,0.0942,-21.89,-49.15,27.01
43,284320441,-0.9717,0.5581,0.0259,-13.23,-49.15,29.63
44,284325443,-1.0166,0.5444,-0.0039,-2.62,-49.27,32.62
45,284330442,-1.0288,0.5674,0.0005,8.78,-49.09,35.85
46,284335442,-1.0137,0.5713,0.0122,20.73,-48.90,39.09
47,284340441,-0.9961,0.5742,0.0273,33.66,-47.99,42.44
48,284345442,-0.9858,0.5767,0.0332,47.13,-46.71,45.73
49,284350441,-0.9883,0.5928,0.0337,60.98,-44.88,49.02
50,284355443,-0.9902,0.6357,-0.0020,74.82,-43.05,52.13
51,284360442,-0.9990,0.6133,-0.0049,88.66,-41.46,55.37
52,284365442,-1.0083,0.6206,-0.0146,102.38,-39.82,58.54
53,284370796,-1.0020,0.6479,-0.0239,117.50,-37.68,62.20
54,284375443,-0.9971,0.6602,-0.0444,127.01,-36.28,64.39
55,284380442,-0.9902,0.6543,-0.0537,137.80,-34.70,67.13
56,284385442,-0.9971,0.6562,-0.0605,148.05,-32.80,70.18
57,284390526,-1.0088,0.6611,-0.0664,156.89,-31.16,73.05
58,284395444,-1.0005,0.6670,-0.0815,164.21,-29.21,75.85
59,284400442,-1.0015,0.6733,-0.0967,169.76,-27.50,78.54
60,284405443,-1.0000,0.6758,-0.0962,174.02,-25.67,81.28
61,284410440,-0.9985,0.6738,-0.1094,176.71,-23.60,83.72
62,284415442,-0.9917,0.6753,-0.1187,178.23,-21.71,87.13
63,284420442,-0.9878,0.6753,-0.1211,178.54,-19.63,87.99
64,284425440,-0.9800,0.6738,-0.1255,177.93,-17.44,91.22
65,284430442,-0.9736,0.6763,-0.1367,176.59,-15.00,93.66
66,284435441,-0.9736,0.6802,-0.1558,174.45,-12.56,95.98
67,284440442,-0.9707,0.6792,-0.1611,171.52,-10.24,98.29
68,284445441,-0.9727,0.6787,-0.1719,168.48,-7.93,100.30
69,284450442,-0.9624,0.6724,-0.1816,165.30,-5.30,102.38
70,284455442,-0.9580,0.6743,-0.1938,161.95,-2.56,104.45
71,284460442,-0.9624,0.6753,-0.2075,158.48,0.00,106.34
72,284465441,-0.9561,0.6743,-0.2222,155.06,2.80,108.11
73,284470442,-0.9487,0.6685,-0.2354,151.52,5.61,109.88
74,284475441,-0.9580,0.6611,-0.2466,148.23,8.17,111.52
75,284480442,-0.9453,0.6616,-0.2578,145.00,11.10,112.99
76,284485441,-0.9482,0.6621,-0.2671,141.83,14.09,114.39
77,284490440,-0.9590,0.6606,-0.2656,138.84,17.80,115.85
78,284495443,-0.9575,0.6470,-0.2861,137.07,20.43,116.71
79,284500441,-0.9512,0.6426,-0.2910,135.24,23.60,117.74
80,284505444,-0.9551,0.6611,-0.3042,133.23,26.65,118.41
81,284510441,-0.9624,0.6304,-0.3032,131.52,29.94,118.90
82,284515731,-0.9702,0.6372,-0.3120,129.76,32.93,119.21
83,284520443,-0.9795,0.6436,-0.3311,129.21,35.98,119.15
84,284525444,-0.9731,0.6431,-0.3262,129.15,38.84,118.96
85,284530442,-0.9678,0.6299,-0.3354,129.21,42.01,118.78
86,284535441,-0.9746,0.6221,-0.3472,129.27,44.76,118.48
87,284540442,-0.9756,0.6216,-0.3608,129.21,47.62,118.11
88,284545441,-0.9673,0.6182,-0.3618,128.90,50.37,117.50
89,284550442,-0.9634,0.6162,-0.3691,127.74,53.17,116.77
90,284555441,-0.9663,0.6064,-0.3809,126.71,55.85,116.10
91,284560442,-0.9692,0.5967,-0.3848,126.28,58.41,115.55
92,284565441,-0.9717,0.5894,-0.3936,125.73,61.04,114.76
93,284570967,-0.9717,0.5835,-0.3994,124.02,64.15,113.72
94,284575443,-0.9736,0.5791,-0.4072,122.62,66.04,113.11
95,284580442,-0.9717,0.5718,-0.4121,120.43,68.66,112.13
96,284585443,-0.9731,0.5679,-0.4170,117.87,71.04,111.16
97,284590441,-0.9673,0.5605,-0.4277,115.00,73.54,110.18
98,284595442,-0.9604,0.5586,-0.4209,111.89,76.16,108.96
99,284600653,-0.9639,0.5562,-0.4307,108.48,78.66,107.62
100,284605443,-0.9546,0.5601,-0.4336,104.82,81.34,105.98
101,284610441,-0.9409,0.5586,-0.4263,101.16,84.70,104.15
102,284615440,-0.9326,0.5537,-0.4287,97.20,86.22,102.07
103,284620444,-0.9185,0.5522,-0.4253,92.93,89.09,99.33
104,284625443,-0.9146,0.5488,-0.4263,89.94,91.40,97.50
105,284630442,-0.9062,0.5439,-0.4189,86.40,94.21,95.06
106,284635442,-0.8931,0.5410,-0.4243,82.93,97.26,92.56
107,284640441,-0.8892,0.5332,-0.4233,79.51,100.24,90.12
108,284645442,-0.8784,0.5312,-0.4204,76.22,103.23,86.71
109,284650442,-0.8652,0.5254,-0.4189,73.05,106.10,85.37
110,284655442,-0.8599,0.5195,-0.4082,70.06,109.15,82.26
111,284660441,-0.8506,0.5044,-0.4062,67.01,112.26,79.45
112,284665442,-0.8403,0.4966,-0.4067,64.09,115.12,76.77
113,284670442,-0.8306,0.4907,-0.4019,61.16,118.23,74.02
114,284675442,-0.8208,0.4839,-0.3960,58.41,121.10,71.16
115,284680441,-0.8125,0.4814,-0.3892,55.67,123.90,68.29
116,284685442,-0.8105,0.4731,-0.3916,53.11,126.65,65.43
117,284690441,-0.8047,0.4619,-0.3794,50.18,129.70,61.65
118,284695443,-0.8003,0.4585,-0.3726,48.66,131.71,59.21
119,284700442,-0.7939,0.4521,-0.3657,46.59,133.84,55.98
120,284705442,-0.7900,0.4473,-0.3564,44.63,136.16,52.74
121,284710441,-0.7876,0.4453,-0.3613,42.74,137.99,49.51
122,284715778,-0.7837,0.4375,-0.3550,40.85,139.76,46.16
123,284720443,-0.7856,0.4321,-0.3477,39.09,141.28,42.74
124,284725442,-0.7783,0.4258,-0.3389,37.56,142.62,39.33
125,284730442,-0.7666,0.4185,-0.3193,36.10,143.90,35.98
126,284735442,-0.7661,0.4087,-0.3130,34.88,144.88,32.56
127,284740441,-0.7563,0.4048,-0.2993,33.60,145.91,29.02
128,284745443,-0.7510,0.3994,-0.2979,32.50,146.71,25.61
129,284750443,-0.7446,0.3887,-0.2861,31.46,147.44,22.13
130,284755442,-0.7427,0.3833,-0.2676,30.18,147.80,18.72
131,284760442,-0.7393,0.3789,-0.2573,29.02,148.29,15.18
132,284765442,-0.7329,0.3745,-0.2510,27.62,148.60,11.65
133,284770442,-0.7310,0.3696,-0.2441,26.16,148.78,8.05
134,284775442,-0.7246,0.3682,-0.2354,24.33,148.72,4.39
135,284780940,-0.7207,0.3628,-0.2202,22.01,148.66,0.73
136,284785442,-0.7183,0.3569,-0.2192,19.39,148.29,-2.80
137,284790442,-0.7134,0.3525,-0.2100,16.40,147.74,-6.52
138,284795442,-0.7173,0.3506,-0.2144,13.11,147.07,-10.06
139,284800442,-0.7129,0.3359,-0.2134,9.45,146.16,-13.72
140,284805442,-0.7061,0.3379,-0.1919,5.73,145.06,-17.20
141,284810442,-0.7051,0.3384,-0.1890,1.71,143.84,-20.79
142,284815442,-0.7070,0.3389,-0.1914,-2.56,142.50,-24.15
143,284820442,-0.7153,0.3276,-0.1855,-7.26,140.98,-27.68
144,284825442,-0.7227,0.3325,-0.1807,-12.07,139.45,-31.16
145,284830442,-0.7261,0.3315,-0.1685,-17.01,137.74,-34.57
146,284835443,-0.7363,0.3301,-0.1675,-22.13,136.04,-37.93
147,284840442,-0.7441,0.3296,-0.1616,-27.38,134.39,-41.34
148,284845442,-0.7466,0.3276,-0.1553,-32.38,132.38,-44.76
149,284850442,-0.7490,0.3223,-0.1567,-37.38,130.30,-47.99
150,284855443,-0.7534,0.3228,-0.1562,-42.32,128.23,-51.10
151,284860442,-0.7480,0.3135,-0.1602,-46.95,125.91,-54.33
152,284865442,-0.7383,0.3164,-0.1509,-51.52,123.54,-57.38
153,284870442,-0.7368,0.3154,-0.1436,-55.85,121.04,-60.43
154,284875442,-0.7349,0.3184,-0.1416,-60.24,118.35,-63.48
155,284880442,-0.7329,0.3193,-0.1436,-64.33,115.73,-66.65
156,284885443,-0.7314,0.3184,-0.1377,-68.29,112.87,-69.76
157,284890442,-0.7334,0.3223,-0.1318,-72.13,110.06,-72.93
158,284895442,-0.7363,0.3252,-0.1250,-75.73,107.20,-76.10
159,284900442,-0.7412,0.3247,-0.1250,-79.15,104.39,-79.27
160,284905443,-0.7466,0.3286,-0.1128,-82.50,101.71,-82.50
161,284910442,-0.7524,0.3257,-0.1094,-85.79,98.84,-85.67
162,284915442,-0.7593,0.3223,-0.1084,-89.02,95.91,-88.84
163,284920610,-0.7666,0.3208,-0.1182,-92.07,92.87,-92.07
164,284925441,-0.7773,0.3218,-0.1299,-94.76,89.63,-95.12
165,284930442,-0.7856,0.3149,-0.1289,-97.38,85.49,-98.05
166,284935442,-0.7842,0.3149,-0.1372,-99.57,83.29,-101.04
167,284940442,-0.7793,0.3101,-0.1353,-101.10,79.15,-103.96
168,284945441,-0.7656,0.3096,-0.1313,-101.89,75.06,-106.83
169,284950442,-0.7603,0.3057,-0.1328,-102.01,71.22,-109.63
170,284955441,-0.7529,0.3057,-0.1274,-101.28,67.32,-112.44
171,284960442,-0.7490,0.3120,-0.1211,-99.70,63.54,-115.18
172,284965441,-0.7446,0.3120,-0.1113,-97.38,59.57,-118.05
173,284970442,-0.7397,0.3159,-0.1133,-94.63,55.67,-121.22
174,284975441,-0.7393,0.3252,-0.1226,-91.04,51.52,-124.27
175,284980442,-0.7515,0.3325,-0.1309,-87.38,47.32,-127.56
176,284985441,-0.7554,0.3315,-0.1421,-83.48,42.87,-130.91
177,284990442,-0.7617,0.3340,-0.1499,-79.51,37.87,-134.45
178,284995441,-0.7607,0.3462,-0.1631,-75.37,32.80,-138.11
179,285000442,-0.7524,0.3613,-0.1738,-71.28,27.56,-141.89
180,285005441,-0.7300,0.3672,-0.1729,-67.38,22.26,-146.10
181,285010442,-0.7104,0.3687,-0.1792,-63.54,16.71,-150.24
182,285015441,-0.7041,0.3760,-0.1768,-60.00,11.22,-154.33
183,285020441,-0.7129,0.3765,-0.1792,-56.77,5.73,-158.35
184,285025498,-0.7300,0.3867,-0.1909,-53.96,0.24,-162.26
185,285030444,-0.7407,0.3921,-0.1973,-51.71,-5.18,-166.10
186,285035441,-0.7466,0.3979,-0.1978,-50.00,-10.61,-170.00
187,285040442,-0.7544,0.4038,-0.2124,-49.02,-16.04,-173.60
188,285045441,-0.7617,0.4131,-0.2036,-48.78,-21.40,-177.20
189,285050442,-0.7812,0.4199,-0.2173,-49.09,-26.59,-180.73
190,285055441,-0.8096,0.4233,-0.2236,-50.00,-31.71,-183.96
191,285060442,-0.8325,0.4331,-0.2358,-51.46,-37.07,-187.26
192,285065441,-0.8564,0.4512,-0.2402,-53.48,-42.07,-190.73
193,285070442,-0.8750,0.4722,-0.2524,-55.79,-47.07,-194.33
194,285075441,-0.8931,0.5020,-0.2695,-58.96,-52.07,-198.05
195,285080442,-0.9180,0.5244,-0.2754,-62.44,-56.83,-202.26
196,285085441,-0.9492,0.5493,-0.2734,-66.40,-61.52,-206.77
197,285090442,-1.0010,0.5601,-0.2783,-70.55,-65.79,-211.34
198,285095442,-1.0620,0.5737,-0.2842,-74.70,-69.70,-215.73
199,285100442,-1.1123,0.6099,-0.2646,-78.54,-72.87,-220.18
200,285105441,-1.1553,0.6519,-0.2368,-82.62,-75.55,-225.12
201,285110442,-1.1865,0.6743,-0.2173,-86.89,-77.50,-230.06
202,285115441,-1.2100,0.6924,-0.2061,-91.77,-78.35,-235.06
203,285120441,-1.2310,0.7109,-0.2026,-96.83,-79.15,-239.76
204,285125544,-1.2632,0.7217,-0.2148,-103.05,-79.45,-244.09
205,285130532,-1.2900,0.7324,-0.2266,-110.55,-79.88,-248.23
206,285135443,-1.3369,0.7432,-0.2378,-119.39,-80.37,-252.01
207,285140442,-1.3789,0.7598,-0.2568,-129.51,-80.85,-255.30
208,285145443,-1.4180,0.7734,-0.2847,-140.49,-81.77,-258.17
209,285150442,-1.4390,0.7935,-0.2993,-152.07,-83.05,-260.91
210,285155442,-1.4531,0.8149,-0.2988,-163.41,-84.27,-263.35
211,285160442,-1.4829,0.8433,-0.2915,-174.21,-85.37,-265.55
212,285165443,-1.5049,0.8696,-0.2764,-183.72,-86.16,-267.44
213,285170442,-1.5435,0.8799,-0.2505,-191.89,-86.52,-269.02
214,285175442,-1.5332,0.8770,-0.2661,-198.96,-86.77,-270.55
215,285180442,-1.5669,0.9331,-0.1841,-204.27,-86.28,-271.16
216,285185442,-1.6255,0.9492,-0.1582,-207.56,-85.37,-271.28
217,285190441,-1.6538,0.9751,-0.1528,-209.39,-84.57,-271.22
218,285195444,-1.6470,0.9424,-0.1357,-210.30,-83.90,-270.37
219,285200442,-1.6670,0.9644,-0.1055,-209.82,-83.35,-269.09
220,285205442,-1.6846,0.9829,-0.0859,-208.41,-83.11,-267.44
221,285210442,-1.6973,0.9912,-0.0801,-206.95,-83.29,-265.61
222,285215443,-1.7578,0.9878,-0.0713,-204.57,-84.27,-263.11
223,285220442,-1.6709,1.0952,-0.0103,-201.83,-85.37,-260.85
224,285225442,-1.6860,1.0259,-0.0083,-199.51,-86.83,-258.23
225,285230523,-1.6909,0.9487,0.0054,-196.89,-89.39,-254.02
226,285235444,-1.6870,1.0625,0.0078,-195.73,-91.77,-250.91
227,285240442,-1.7183,1.0459,0.0469,-194.21,-94.70,-247.01
228,285245441,-1.7446,1.0361,0.0684,-192.13,-97.68,-242.56
229,285250442,-1.7402,1.0122,0.0981,-189.45,-101.28,-238.05
230,285255441,-1.7686,1.0386,0.1245,-186.28,-104.88,-233.84
231,285260442,-1.7896,1.0649,0.1421,-182.38,-108.78,-229.27
232,285265442,-1.8159,1.0488,0.1528,-178.54,-113.41,-224.82
233,285270643,-1.8320,1.0317,0.1768,-173.66,-119.21,-219.15
234,285275443,-1.8423,1.0366,0.1846,-170.06,-123.78,-215.30
235,285280442,-1.8486,1.0278,0.1978,-165.06,-129.88,-210.43
236,285285443,-1.8496,1.0352,0.2158,-159.02,-136.34,-205.43
237,285290442,-1.8545,1.0552,0.2393,-151.83,-143.41,-200.43
238,285295442,-1.8569,1.0532,0.2603,-143.41,-150.30,-195.49
239,285300442,-1.8462,1.0474,0.2856,-133.48,-157.80,-190.30
240,285305442,-1.8618,1.0508,0.3105,-122.20,-165.30,-184.70
241,285310442,-1.8647,1.0244,0.3115,-110.30,-173.17,-178.72
242,285315443,-1.8701,1.0063,0.3252,-97.80,-181.71,-172.13
243,285320442,-1.8813,1.0010,0.3462,-84.88,-190.61,-165.18
244,285325442,-1.8931,1.0146,0.3521,-71.28,-199.51,-157.99
245,285330574,-1.9014,1.0098,0.3560,-57.32,-209.02,-150.61
246,285335442,-1.8872,1.0098,0.3789,-42.99,-218.84,-142.99
247,285340444,-1.8916,1.0020,0.3765,-28.41,-228.96,-134.76
248,285345441,-1.8818,0.9888,0.3916,-13.84,-239.15,-126.22
249,285350442,-1.8721,0.9819,0.4062,0.61,-249.45,-117.13
250,285355441,-1.8647,0.9858,0.4238,14.57,-259.82,-107.74
251,285360442,-1.8486,0.9849,0.4414,27.80,-269.94,-98.05
252,285365441,-1.8394,0.9712,0.4478,40.00,-280.12,-87.87
253,285370442,-1.8403,0.9683,0.4629,50.85,-290.18,-77.50
254,285375441,-1.8311,0.9595,0.4678,60.30,-299.88,-66.83
255,285380442,-1.8145,0.9517,0.4927,68.54,-309.63,-55.79
256,285385441,-1.7900,0.9375,0.5000,75.37,-318.78,-44.70
257,285390442,-1.7607,0.9277,0.5054,80.85,-327.80,-33.41
258,285395441,-1.7319,0.9185,0.5107,85.06,-336.28,-22.07
259,285400442,-1.7148,0.9077,0.5234,88.41,-344.39,-10.91
260,285405442,-1.7065,0.8965,0.5215,90.49,-352.13,0.18
261,285410442,-1.7148,0.8877,0.5161,91.89,-359.39,11.28
262,285415441,-1.7075,0.8838,0.5103,92.13,-366.34,21.89
263,285420544,-1.6841,0.8682,0.5273,92.07,-372.62,32.32
264,285425442,-1.6895,0.8535,0.5259,91.46,-377.99,42.50
265,285430441,-1.6978,0.8364,0.5269,90.43,-383.05,52.50
266,285435440,-1.6987,0.8271,0.5112,88.96,-387.38,62.20
267,285440444,-1.6865,0.8076,0.5151,86.89,-391.16,71.71
268,285445441,-1.6211,0.8018,0.5015,84.27,-394.51,80.98
269,285450442,-1.7061,0.8384,0.4585,79.88,-397.62,88.35
270,285455441,-1.6240,0.7837,0.4336,74.76,-401.04,96.71
271,285460442,-1.6069,0.7568,0.3823,70.49,-404.45,104.70
272,285465442,-1.6191,0.7651,0.3887,67.32,-407.68,112.68
273,285470442,-1.6255,0.7822,0.3872,65.43,-410.24,120.00
274,285475441,-1.6338,0.7856,0.3599,65.18,-412.50,126.83
275,285480442,-1.6377,0.7881,0.3491,66.10,-414.33,133.29
276,285485441,-1.6406,0.7861,0.3330,67.32,-415.85,139.51
277,285490442,-1.6357,0.7832,0.3228,68.60,-417.01,145.37
278,285495441,-1.6338,0.7773,0.3022,69.45,-418.05,151.16
279,285500442,-1.6211,0.7671,0.2944,69.63,-418.78,156.89
280,285505441,-1.6104,0.7617,0.2769,69.57,-419.21,162.50
281,285510442,-1.6162,0.7568,0.2627,68.90,-419.57,168.17
282,285515441,-1.6279,0.7476,0.2612,68.11,-419.27,173.78
283,285520442,-1.6270,0.7319,0.2505,67.20,-418.96,179.88
284,285525441,-1.6167,0.7212,0.2441,66.34,-418.11,185.73
285,285530443,-1.6074,0.7134,0.2476,65.67,-416.77,191.89
286,285535441,-1.5908,0.7173,0.2656,64.45,-414.76,197.80
287,285540442,-1.5820,0.7271,0.2812,62.44,-412.07,203.35
288,285545442,-1.5527,0.7300,0.2925,58.72,-408.96,208.54
289,285550442,-1.5225,0.7231,0.2881,53.29,-405.55,213.23
290,285555441,-1.5005,0.7119,0.2891,45.43,-401.89,218.05
291,285560442,-1.4634,0.7017,0.2930,35.24,-398.48,222.68
292,285565442,-1.4214,0.6890,0.2905,22.99,-395.24,227.01
293,285570442,-1.3848,0.6812,0.2993,9.51,-392.13,231.28
294,285575441,-1.3501,0.6797,0.3022,-4.70,-389.15,234.94
295,285580442,-1.3120,0.6709,0.3110,-18.78,-386.28,238.48
296,285585441,-1.2812,0.6602,0.3159,-32.07,-383.54,241.77
297,285590442,-1.2529,0.6504,0.3145,-44.02,-380.67,244.82
298,285595441,-1.2095,0.6489,0.3203,-54.45,-378.23,247.68
299,285600442,-1.1797,0.6323,0.3257,-62.99,-375.91,250.67
300,285605441,-1.1523,0.6157,0.3091,-69.45,-373.96,253.41
301,285610744,-1.1035,0.6118,0.3105,-73.66,-372.32,256.10
302,285615443,-1.0234,0.6021,0.3379,-75.30,-370.43,258.84
303,285620442,-0.9541,0.5874,0.3564,-75.06,-368.35,261.59
304,285625442,-0.9058,0.5674,0.3779,-73.66,-365.73,264.33
305,285630440,-0.8525,0.5454,0.3979,-71.89,-363.05,267.44
306,285635441,-0.7998,0.5205,0.4053,-70.91,-360.37,270.73
307,285640442,-0.7363,0.4961,0.4160,-71.22,-357.56,274.45
308,285645442,-0.6611,0.4707,0.4370,-73.54,-355.06,278.11
309,285650444,-0.6016,0.4375,0.4482,-77.99,-352.74,282.13
310,285655441,-0.5713,0.3999,0.4375,-84.70,-350.98,286.16
311,285660442,-0.5547,0.3672,0.4067,-93.11,-350.00,290.43
312,285665441,-0.5317,0.3325,0.4043,-102.20,-349.70,294.82
313,285670442,-0.5015,0.2954,0.3774,-111.28,-350.30,299.15
314,285675441,-0.5137,0.2598,0.3481,-118.72,-351.89,303.41
315,285680442,-0.5278,0.2378,0.3359,-124.02,-353.90,307.68
316,285685441,-0.5474,0.2095,0.3140,-126.65,-355.91,312.01
317,285690442,-0.5708,0.1831,0.2983,-126.46,-357.93,316.04
318,285695441,-0.6167,0.1562,0.2837,-123.48,-360.00,320.24
319,285700442,-0.6333,0.1211,0.2632,-118.11,-361.59,324.63
320,285705442,-0.6592,0.0972,0.2495,-111.10,-363.11,329.21
321,285710442,-0.6978,0.0664,0.2285,-103.05,-364.27,333.90
322,285715441,-0.7500,0.0342,0.1860,-94.45,-365.12,338.78
323,285720442,-0.8159,0.0083,0.1460,-85.85,-366.28,344.09
324,285725441,-0.8882,-0.0103,0.1147,-77.13,-367.26,349.33
325,285730442,-0.9487,-0.0312,0.0674,-68.41,-368.35,355.00
326,285735441,-1.0029,-0.0591,0.0444,-59.33,-369.33,360.79
327,285740440,-1.0537,-0.0811,0.0391,-49.33,-369.94,366.89
328,285745442,-1.1191,-0.1030,0.0068,-37.93,-370.37,373.41
329,285750442,-1.1987,-0.1255,-0.0205,-25.37,-370.18,380.55
330,285755442,-1.2866,-0.1489,-0.0493,-11.28,-369.82,387.93
331,285760444,-1.3525,-0.1748,-0.0723,4.76,-369.02,395.98
332,285765441,-1.3872,-0.2036,-0.0859,22.20,-367.99,404.57
333,285770442,-1.4258,-0.2271,-0.0820,41.04,-366.10,413.72
334,285775442,-1.4873,-0.2529,-0.1035,61.28,-363.23,423.48
335,285780442,-1.5591,-0.2739,-0.1118,82.87,-360.18,433.66
336,285785441,-1.6157,-0.2979,-0.1172,105.24,-355.98,444.63
337,285790442,-1.6616,-0.3105,-0.1113,128.05,-350.73,455.85
338,285795441,-1.7520,-0.3540,-0.1157,150.12,-344.45,467.87
339,285800442,-1.8618,-0.3931,-0.1396,171.95,-337.38,480.55
340,285805441,-1.9585,-0.4219,-0.1328,193.05,-329.15,493.66
341,285810440,-2.0542,-0.4360,-0.1235,212.87,-320.18,507.13
342,285815443,-2.1074,-0.4746,-0.1460,230.30,-310.12,520.55
343,285820442,-2.1772,-0.4746,-0.1318,245.30,-299.27,533.96
344,285825442,-2.2329,-0.5200,-0.0991,258.23,-287.44,547.32
345,285830442,-2.2842,-0.5259,-0.0884,268.05,-274.51,560.37
346,285835442,-2.4170,-0.5518,-0.1328,274.39,-261.65,572.62
347,285840442,-2.5684,-0.5547,-0.1479,277.01,-248.72,583.90
348,285845442,-2.6895,-0.5376,-0.1606,276.59,-235.79,593.78
349,285850442,-2.7417,-0.5205,-0.0825,273.84,-222.56,602.32
350,285855443,-2.9414,-0.3647,-0.1064,269.76,-209.02,608.60
351,285860442,-2.9600,-0.6782,0.0435,266.34,-193.84,615.18
352,285865442,-2.8667,-0.7783,0.0664,261.59,-177.87,623.35
353,285870442,-2.8721,-0.7241,-0.0669,254.88,-162.87,631.10
354,285875442,-2.9448,-0.7041,-0.0293,246.22,-148.66,637.44
355,285880442,-3.0088,-0.7090,-0.0054,235.00,-134.94,642.38
356,285885442,-3.0278,-0.7236,-0.0425,220.98,-122.32,645.91
357,285890442,-2.9458,-0.7417,0.0005,203.23,-110.67,647.80
358,285895443,-2.8110,-0.7656,0.0557,181.04,-99.82,648.17
359,285900442,-2.7222,-0.7471,0.0605,154.27,-90.00,646.77
360,285905442,-2.7422,-0.7451,0.1455,122.20,-81.77,642.68
361,285910442,-2.8335,-0.7769,0.2080,83.54,-75.18,636.40
362,285915442,-2.9155,-0.8081,0.2446,39.57,-70.73,628.35
363,285920442,-2.9253,-0.8232,0.2720,-9.15,-68.48,618.54
364,285925442,-2.9429,-0.8496,0.2988,-61.59,-69.15,607.13
365,285930442,-2.9688,-0.8618,0.2925,-115.30,-72.62,594.57
366,285935443,-3.0132,-0.8579,0.2847,-167.68,-78.96,581.04
367,285940440,-3.0757,-0.8672,0.2876,-215.73,-87.62,566.52
368,285945440,-3.1523,-0.8940,0.2876,-256.28,-97.93,551.71
369,285950442,-3.2227,-0.8975,0.3003,-287.07,-109.21,536.89
370,285955443,-3.2954,-0.8979,0.3276,-306.89,-120.79,521.77
371,285960442,-3.3765,-0.8945,0.3276,-315.49,-131.46,506.71
372,285965442,-3.4502,-0.8999,0.3496,-313.78,-141.16,491.83
373,285970442,-3.5171,-0.9214,0.3579,-303.84,-148.90,477.20
374,285975441,-3.5732,-0.9282,0.3418,-287.74,-155.49,462.68
375,285980442,-3.6074,-0.9331,0.3643,-268.66,-160.91,448.29
376,285985441,-3.6196,-0.9429,0.3540,-249.21,-165.12,433.60
377,285990442,-3.6196,-0.9619,0.3291,-232.38,-168.90,418.35
378,285995441,-3.6177,-0.9897,0.3184,-220.67,-172.26,402.50
379,286000442,-3.6055,-1.0132,0.2979,-215.49,-175.85,385.98
380,286005442,-3.5879,-1.0332,0.2827,-217.56,-179.57,368.48
381,286010440,-3.5615,-1.0400,0.2710,-226.46,-184.09,349.88
382,286015444,-3.5454,-1.0518,0.2524,-240.91,-188.84,330.12
383,286020441,-3.5278,-1.0732,0.2495,-259.02,-193.96,309.45
384,286025444,-3.5249,-1.0747,0.2437,-278.90,-199.51,287.68
385,286030442,-3.4946,-1.0933,0.2261,-298.78,-205.24,265.06
386,286035442,-3.4717,-1.0938,0.2266,-316.95,-210.79,241.77
387,286040440,-3.4546,-1.1030,0.2139,-331.65,-216.28,217.99
388,286045444,-3.4468,-1.1128,0.1899,-342.99,-221.16,193.66
389,286050480,-3.4282,-1.1235,0.1958,-350.37,-225.24,168.84
390,286055442,-3.3911,-1.1318,0.1938,-354.15,-228.35,143.84
391,286060444,-3.3486,-1.1201,0.1846,-355.06,-230.30,118.41
392,286065441,-3.2749,-1.1138,0.1812,-354.09,-231.28,92.80
393,286070442,-3.2017,-1.0728,0.1704,-352.68,-231.16,65.55
394,286075441,-3.0151,-1.0991,0.1396,-350.91,-230.37,38.17
395,286080442,-2.8887,-1.0527,0.1118,-350.00,-229.33,9.94
396,286085441,-2.7471,-1.0229,0.0781,-349.70,-227.62,-19.15
397,286090442,-2.6353,-0.9858,0.0713,-349.76,-225.06,-48.90
398,286095442,-2.5410,-0.9629,0.0723,-350.18,-221.71,-79.21
399,286100442,-2.4663,-0.9312,0.0337,-351.22,-217.44,-110.00
400,286105442,-2.4106,-0.9043,0.0308,-352.93,-212.13,-140.73
401,286110442,-2.3906,-0.8872,0.0225,-354.39,-205.85,-171.77
402,286115441,-2.3770,-0.8657,0.0181,-355.12,-198.29,-202.56
403,286120444,-2.3921,-0.8325,0.0244,-355.49,-189.21,-233.05
404,286125442,-2.4053,-0.8018,0.0127,-355.79,-181.16,-257.13
405,286130442,-2.4185,-0.7471,-0.0117,-356.34,-170.06,-287.13
406,286135441,-2.4380,-0.6807,-0.0356,-357.38,-158.29,-317.13
407,286140442,-2.4531,-0.6089,-0.0742,-358.72,-146.04,-346.83
408,286145441,-2.4712,-0.5337,-0.0986,-360.43,-133.17,-376.40
409,286150440,-2.5049,-0.4390,-0.1450,-361.89,-117.38,-411.28
410,286155442,-2.5322,-0.3809,-0.1719,-362.07,-106.52,-433.96
411,286160444,-2.5610,-0.3047,-0.1973,-360.85,-92.99,-461.59
412,286165441,-2.6006,-0.2339,-0.2402,-357.56,-78.96,-488.48
413,286170442,-2.6665,-0.1509,-0.2646,-351.71,-65.06,-514.27
414,286175441,-2.7588,-0.0830,-0.2812,-343.17,-50.98,-538.60
415,286180442,-2.8701,-0.0142,-0.2866,-332.38,-36.71,-561.65
416,286185441,-2.9985,0.0439,-0.2949,-319.45,-22.56,-583.11
417,286190442,-3.1177,0.0923,-0.3140,-305.37,-8.23,-602.87
418,286195444,-3.2305,0.1421,-0.3325,-290.79,5.73,-621.28
419,286200442,-3.3384,0.2031,-0.3467,-276.65,19.09,-638.48
420,286205442,-3.4248,0.2695,-0.3672,-263.05,31.71,-654.70
421,286210442,-3.5000,0.3242,-0.3721,-250.18,43.78,-669.94
422,286215441,-3.5674,0.3813,-0.3887,-238.11,55.24,-684.57
423,286220445,-3.6191,0.4375,-0.4180,-227.13,65.67,-698.54
424,286225441,-3.6689,0.4956,-0.4268,-217.50,75.98,-712.01
425,286230442,-3.7314,0.5352,-0.4346,-209.09,85.24,-724.94
426,286235442,-3.7983,0.5654,-0.4380,-201.28,94.88,-737.26
427,286240442,-3.8760,0.5854,-0.4277,-193.96,103.90,-748.84
428,286245441,-3.9541,0.6089,-0.4268,-187.07,113.41,-759.51
429,286250441,-4.0205,0.6460,-0.4224,-180.55,122.68,-769.82
430,286255442,-4.1123,0.6895,-0.4214,-174.63,131.71,-779.51
431,286260442,-4.2256,0.7246,-0.4126,-168.84,140.79,-788.78
432,286265443,-4.3452,0.7495,-0.4272,-163.17,149.70,-797.62
433,286270442,-4.4927,0.7822,-0.4507,-158.84,158.29,-805.98
434,286275442,-4.6641,0.8159,-0.4668,-155.61,167.01,-814.15
435,286280440,-4.8423,0.8433,-0.4575,-152.74,175.06,-821.83
436,286285442,-5.0259,0.8516,-0.4658,-150.61,182.87,-828.84
437,286290444,-5.1929,0.8623,-0.4854,-150.06,190.79,-835.06
438,286295441,-5.3579,0.8867,-0.5107,-150.06,198.60,-840.49
439,286300442,-5.5146,0.9287,-0.5347,-149.70,205.85,-845.24
440,286305441,-5.6626,0.9668,-0.5615,-148.96,212.74,-849.70
441,286310442,-5.8203,1.0171,-0.5791,-147.38,219.21,-853.60
442,286315441,-5.9683,1.0693,-0.5947,-143.35,224.76,-857.13
443,286320442,-6.1230,1.1089,-0.6479,-137.74,229.82,-860.37
444,286325441,-6.2642,1.1655,-0.6489,-131.04,234.15,-863.17
445,286330442,-6.3945,1.2192,-0.6587,-122.56,237.87,-865.49
446,286335441,-6.5366,1.2783,-0.6841,-111.16,240.67,-868.05
447,286340442,-6.6885,1.3643,-0.6841,-97.07,242.80,-870.61
448,286345441,-6.7808,1.4199,-0.6880,-80.37,243.78,-873.54
449,286350441,-6.9536,1.5073,-0.7173,-62.68,243.54,-876.71
450,286355440,-7.0728,1.5615,-0.7012,-42.56,242.38,-880.61
451,286360442,-7.2480,1.6250,-0.6748,-19.02,240.55,-885.12
452,286365442,-7.4668,1.7100,-0.6606,5.73,237.50,-890.12
453,286370442,-7.7227,1.7803,-0.6567,30.67,234.21,-895.79
454,286375441,-7.9473,1.8418,-0.6533,56.95,229.94,-901.59
455,286380442,-8.1704,1.8857,-0.6104,82.32,224.63,-907.07
456,286385441,-8.3628,1.8916,-0.6543,106.52,218.48,-911.65
457,286390440,-8.5566,1.8843,-0.7217,125.91,211.59,-914.57
458,286395442,-8.7422,1.9028,-0.7158,141.10,203.60,-915.91
459,286400489,-8.8423,1.9624,-0.7866,150.73,195.30,-915.85
460,286405443,-8.7734,1.9668,-0.8022,151.34,187.87,-914.02
461,286410442,-8.7266,1.9365,-0.8193,143.90,181.46,-909.57
462,286415442,-8.6616,2.0088,-0.8716,126.77,177.01,-902.01
463,286420442,-8.6914,1.9263,-0.9023,96.28,176.04,-891.34
464,286425443,-8.6450,1.9370,-0.9736,57.26,178.54,-877.07
465,286430442,-8.5386,1.9912,-0.9795,3.90,185.12,-860.61
466,286435442,-8.3965,2.0073,-1.0195,-60.06,197.01,-841.52
467,286440442,-8.2148,2.0234,-1.0454,-132.01,214.27,-819.82
468,286445443,-7.9663,2.0645,-0.9834,-212.44,236.46,-796.83
469,286450440,-7.7461,2.0371,-1.0835,-295.79,263.17,-771.65
470,286455441,-7.6626,2.1094,-1.0737,-381.89,293.41,-744.57
471,286460442,-7.5615,2.2031,-1.0005,-464.94,327.62,-716.22
472,286465444,-7.3149,2.3726,-0.8149,-539.02,366.34,-687.07
473,286470442,-7.1948,2.3052,-0.7422,-600.18,407.74,-656.95
474,286475442,-7.1050,2.3198,-0.5503,-647.62,450.06,-622.68
475,286480442,-6.9272,2.2632,-0.5498,-684.39,491.10,-584.70
476,286485443,-6.7651,2.1128,-0.4844,-712.26,528.78,-542.56
477,286490442,-6.6279,1.9893,-0.4146,-732.32,562.50,-496.89
478,286495442,-6.5312,1.8813,-0.4028,-746.28,591.04,-448.11
479,286500442,-6.4839,1.7744,-0.3804,-754.88,613.29,-396.95
480,286505442,-6.4360,1.6943,-0.3174,-759.76,630.18,-344.76
481,286510442,-6.3853,1.6313,-0.2661,-761.52,641.10,-292.56
482,286515443,-6.3223,1.5444,-0.2446,-761.28,646.71,-241.16
483,286520440,-6.2446,1.4502,-0.2109,-759.39,647.07,-190.98
484,286525443,-6.1289,1.3584,-0.1904,-756.52,642.62,-142.44
485,286530442,-5.9785,1.2588,-0.1851,-753.11,634.09,-95.73
486,286535442,-5.8315,1.1592,-0.1460,-749.15,621.83,-50.91
487,286540442,-5.7148,1.0581,-0.1240,-744.57,606.22,-7.93
488,286545442,-5.5889,0.9658,-0.1279,-739.09,587.93,32.87
489,286550442,-5.4590,0.9004,-0.1338,-733.48,566.71,71.46
490,286555442,-5.3105,0.8481,-0.1475,-727.87,543.17,107.20
491,286560440,-5.1509,0.8130,-0.1675,-722.44,517.56,140.06
492,286565442,-5.0024,0.7896,-0.1729,-716.77,490.30,169.57
493,286570444,-4.8633,0.7490,-0.1953,-710.30,462.01,196.22
494,286575441,-4.7554,0.7334,-0.2158,-702.50,432.80,220.06
495,286580442,-4.6299,0.7192,-0.2222,-693.60,402.74,241.34
496,286585441,-4.4956,0.7158,-0.2446,-683.72,371.95,259.82
497,286590442,-4.3730,0.7246,-0.2632,-672.38,341.22,275.73
498,286595441,-4.2480,0.7266,-0.2681,-659.57,310.37,289.02
499,286600442,-4.1216,0.7295,-0.2729,-645.73,280.00,299.94
500,286605442,-4.0264,0.7388,-0.2783,-631.04,250.37,308.72
501,286610443,-3.9434,0.7500,-0.2842,-615.67,221.46,315.37
502,286615441,-3.8804,0.7681,-0.2939,-600.12,193.35,320.06
503,286620442,-3.8418,0.7881,-0.3037,-583.66,166.46,323.05
504,286625442,-3.8115,0.8110,-0.3105,-566.10,140.61,324.39
505,286630440,-3.8008,0.8374,-0.2935,-546.52,116.34,324.33
506,286635593,-3.8506,0.8652,-0.2783,-524.39,93.84,323.35
507,286640444,-3.9087,0.8550,-0.2632,-498.72,73.90,321.83
508,286645441,-3.8882,0.8433,-0.2212,-469.21,55.79,320.37
509,286650442,-3.8364,0.8276,-0.1904,-435.98,40.06,319.51
510,286655537,-3.7808,0.8096,-0.1436,-399.33,26.77,318.78
511,286660441,-3.6865,0.7969,-0.1255,-359.94,15.85,318.35
512,286665442,-3.5601,0.7920,-0.1118,-319.09,6.77,318.05
513,286670442,-3.3716,0.7397,-0.1157,-278.48,-0.79,317.74
514,286675443,-3.1494,0.8809,-0.1953,-240.30,-8.17,316.59
515,286680442,-3.2827,0.9590,-0.1831,-205.18,-14.88,313.05
516,286685442,-3.3687,0.8945,-0.1641,-170.55,-19.94,309.15
517,286690442,-3.2808,0.7915,-0.1265,-135.12,-23.17,307.32
518,286695443,-3.2261,0.7490,-0.0815,-99.70,-24.57,306.95
519,286700442,-3.2095,0.7529,-0.0630,-65.49,-24.15,307.13
520,286705442,-3.1523,0.7466,-0.0469,-32.93,-22.32,307.26
521,286710442,-3.0654,0.7129,-0.0278,-3.29,-19.33,307.56
522,286715442,-3.0005,0.6821,-0.0244,23.17,-15.67,308.11
523,286720442,-2.9390,0.6494,-0.0132,46.04,-11.40,308.78
524,286725442,-2.8652,0.6245,-0.0103,65.24,-6.52,309.57
525,286730442,-2.7896,0.6016,-0.0049,80.85,-1.52,310.12
526,286735442,-2.7026,0.5918,0.0078,92.87,3.78,310.43
527,286740442,-2.6406,0.5591,0.0122,101.22,9.33,310.30
528,286745442,-2.5625,0.5566,0.0078,106.77,15.00,309.94
529,286750442,-2.4897,0.5352,0.0215,109.27,20.55,308.90
530,286755442,-2.4131,0.5122,0.0288,109.51,25.98,307.87
531,286760443,-2.3501,0.5000,0.0293,107.74,31.34,306.28
532,286765442,-2.2832,0.4800,0.0376,104.39,36.28,304.51
533,286770442,-2.2275,0.4663,0.0444,100.06,41.16,302.50
534,286775442,-2.1719,0.4639,0.0371,94.33,45.55,300.00
535,286780442,-2.1138,0.4570,0.0459,88.29,49.70,297.20
536,286785442,-2.0605,0.4326,0.0532,82.13,53.78,294.15
537,286790442,-2.0103,0.4097,0.0586,75.98,57.32,291.10
538,286795441,-1.9629,0.3857,0.0596,69.94,60.55,288.11
539,286800442,-1.9131,0.3657,0.0679,63.96,63.60,285.06
540,286805441,-1.8491,0.3472,0.0884,58.11,66.52,282.01
541,286810442,-1.7764,0.3218,0.0991,52.44,69.39,278.84
542,286815441,-1.7041,0.3208,0.1191,46.65,72.01,275.85
543,286820442,-1.6260,0.2988,0.1235,40.79,74.57,272.38
544,286825442,-1.5430,0.2666,0.1445,34.94,76.83,269.02
545,286830442,-1.4839,0.2515,0.1543,29.39,78.96,265.49
546,286835442,-1.4443,0.2637,0.1641,23.96,81.04,261.71
547,286840440,-1.4058,0.2690,0.1636,18.41,83.17,257.26
548,286845443,-1.3608,0.2695,0.1758,12.99,84.02,252.56
549,286850442,-1.3022,0.2666,0.1855,7.80,85.73,247.20
550,286855443,-1.2412,0.2612,0.2002,2.56,85.73,241.83
551,286860440,-1.1699,0.2456,0.2080,-2.87,85.67,236.22
552,286865443,-1.0918,0.2378,0.2129,-8.41,85.67,230.49
553,286870441,-1.0039,0.2476,0.2310,-14.33,85.61,224.45
554,286875441,-0.9639,0.2812,0.2310,-20.49,85.55,217.93
555,286880444,-1.0508,0.2998,0.2095,-26.28,85.43,210.98
556,286885441,-0.9775,0.2056,0.3569,-31.04,85.55,204.02
557,286890442,-0.7798,0.1807,0.2876,-35.91,85.61,197.74
558,286895441,-0.5996,0.1738,0.2773,-40.98,85.49,191.65
559,286900442,-0.4614,0.1685,0.3540,-47.13,85.24,186.04
560,286905441,-0.3755,0.1577,0.3291,-54.63,83.60,180.12
561,286910442,-0.2593,0.1304,0.3794,-63.35,82.32,174.15
562,286915441,-0.2163,0.1064,0.3569,-73.84,80.73,168.23
563,286920442,-0.1436,0.0791,0.3330,-85.49,78.29,162.32
564,286925441,-0.0771,0.0674,0.3389,-98.72,75.30,156.28
565,286930442,-0.0225,0.0703,0.3828,-112.87,72.01,149.94
566,286935528,0.0234,0.0532,0.4170,-127.74,68.78,143.17
567,286940442,0.0767,-0.0029,0.4541,-143.11,65.85,136.89
568,286945441,0.0918,-0.0298,0.4453,-158.23,62.68,130.79
569,286950442,0.0962,-0.0356,0.4624,-172.80,59.02,124.82
570,286955441,0.1099,-0.0420,0.4756,-186.40,55.55,118.48
571,286960442,0.1445,-0.0503,0.4956,-198.41,52.01,112.13
572,286965441,0.1929,-0.0508,0.5215,-208.17,48.66,105.55
573,286970442,0.2383,-0.0469,0.5498,-215.49,45.37,98.66
574,286975442,0.2769,-0.0581,0.5640,-219.94,42.38,91.28
575,286980442,0.3267,-0.0938,0.5708,-221.95,39.27,84.76
576,286985441,0.3887,-0.1206,0.6289,-221.22,36.83,77.74
577,286990442,0.4077,-0.1411,0.6421,-217.80,34.51,70.91
578,286995441,0.4019,-0.1167,0.6128,-211.95,32.44,64.09
579,287000442,0.3965,-0.2041,0.6831,-204.57,30.85,57.44
580,287005441,0.3794,-0.1333,0.6436,-195.98,29.21,50.55
581,287010442,0.4683,-0.2197,0.6680,-187.38,27.62,43.54
582,287015441,0.4902,-0.2373,0.6689,-177.99,26.40,37.38
583,287020442,0.4912,-0.2373,0.7114,-167.74,25.55,31.34
584,287025441,0.4849,-0.2407,0.7134,-156.59,25.00,25.30
585,287030442,0.4961,-0.2437,0.6987,-144.57,24.63,18.90
586,287035441,0.5039,-0.2485,0.7070,-132.26,24.33,12.62
587,287040442,0.4990,-0.2510,0.7017,-119.39,23.84,6.46
588,287045442,0.4922,-0.2456,0.6978,-106.34,23.60,0.55
589,287050442,0.4717,-0.2437,0.6919,-93.17,23.29,-5.49
590,287055442,0.4526,-0.2461,0.6987,-79.88,22.99,-11.10
591,287060442,0.4341,-0.2368,0.6846,-66.71,22.62,-16.83
592,287065440,0.4106,-0.2295,0.6777,-53.78,22.38,-22.32
593,287070875,0.3950,-0.2085,0.6655,-41.10,22.13,-27.87
594,287075536,0.3931,-0.1885,0.6685,-28.66,21.65,-33.23
595,287080442,0.3867,-0.1592,0.6533,-16.71,20.91,-38.78
596,287085443,0.3887,-0.1455,0.6465,-4.82,20.06,-44.39
597,287090441,0.3877,-0.1309,0.6465,7.01,19.02,-50.00
598,287095446,0.3843,-0.1123,0.6436,19.15,17.80,-55.55
599,287100445,0.3730,-0.0854,0.6436,31.65,16.52,-60.91
600,287105442,0.3677,-0.0693,0.6523,41.52,15.24,-65.37
601,287110440,0.3628,-0.0474,0.6504,54.21,13.84,-70.85
602,287115441,0.3496,-0.0225,0.6533,69.39,12.01,-77.20
603,287120444,0.3389,0.0039,0.6577,81.52,10.49,-82.56
604,287125441,0.3281,0.0186,0.6440,90.61,8.96,-86.89
605,287130442,0.3091,0.0435,0.6323,101.71,7.01,-92.13
606,287135442,0.2959,0.0659,0.6265,113.72,4.57,-98.48
607,287140442,0.2773,0.0835,0.6206,121.22,2.80,-102.50
608,287145441,0.2563,0.1074,0.6055,129.76,0.43,-107.62
609,287150442,0.2461,0.1309,0.5991,137.44,-2.20,-112.62
610,287155441,0.2212,0.1562,0.5806,144.70,-5.00,-117.62
611,287160442,0.1997,0.1777,0.5654,151.22,-7.80,-122.62
612,287165441,0.1802,0.1968,0.5527,157.20,-10.55,-127.56
613,287170441,0.1489,0.2280,0.5254,162.87,-13.54,-132.32
614,287175440,0.1196,0.2485,0.5107,167.62,-16.77,-137.01
615,287180442,0.0898,0.2695,0.4897,172.56,-20.06,-141.77
616,287185441,0.0659,0.2876,0.4795,177.13,-23.41,-146.40
617,287190442,0.0386,0.3086,0.4614,181.71,-26.89,-150.98
618,287195444,0.0205,0.3267,0.4546,186.22,-30.24,-155.30
619,287200444,0.0010,0.3408,0.4375,190.91,-33.84,-159.76
620,287205441,-0.0146,0.3521,0.4375,196.28,-37.87,-165.00
621,287210442,-0.0234,0.3740,0.4248,199.88,-40.61,-168.29
622,287215441,-0.0210,0.3994,0.4341,204.02,-43.78,-172.80
623,287220442,-0.0308,0.4014,0.4351,207.93,-46.83,-177.20
624,287225442,-0.0371,0.4146,0.4287,211.10,-49.76,-181.52
625,287230442,-0.0386,0.4404,0.4194,213.11,-52.62,-186.04
626,287235441,-0.0410,0.4634,0.4053,213.84,-55.61,-190.67
627,287240442,-0.0532,0.4824,0.3843,212.99,-58.72,-195.55
628,287245442,-0.0776,0.5127,0.3384,210.37,-62.13,-200.43
629,287250444,-0.0952,0.5293,0.3096,206.10,-65.91,-205.79
630,287255441,-0.1440,0.5371,0.2666,199.88,-70.24,-210.85
631,287260440,-0.1831,0.5801,0.2261,192.20,-74.82,-216.16
632,287265444,-0.2080,0.5845,0.1924,182.68,-79.45,-221.59
633,287270442,-0.2383,0.5879,0.1729,172.62,-84.45,-226.65
634,287275463,-0.2471,0.6021,0.1626,162.68,-89.09,-231.65
635,287280440,-0.3110,0.5786,0.1460,153.41,-93.66,-236.34
636,287285444,-0.3765,0.6396,0.1113,144.88,-97.80,-240.91
637,287290441,-0.4312,0.6587,0.1128,137.38,-101.65,-245.24
638,287295442,-0.4673,0.6533,0.1025,130.30,-105.18,-249.27
639,287300442,-0.4985,0.6445,0.0811,127.07,-108.41,-252.99
640,287305442,-0.5293,0.6592,0.0688,122.93,-111.28,-256.28
641,287310442,-0.5635,0.6738,0.0522,120.00,-114.15,-259.39
642,287315442,-0.6045,0.6816,0.0317,118.05,-116.89,-262.20
643,287320442,-0.6582,0.6841,0.0054,117.07,-119.57,-264.70
644,287325441,-0.7090,0.6899,-0.0137,116.89,-122.26,-266.77
645,287330442,-0.7549,0.7026,-0.0166,117.56,-124.82,-268.60
646,287335441,-0.7749,0.6934,-0.0737,119.02,-127.62,-270.06
647,287340500,-0.8037,0.6997,-0.0645,120.91,-130.49,-271.04
648,287345442,-0.8511,0.7104,-0.1099,123.35,-133.23,-271.71
649,287350442,-0.9126,0.7065,-0.1318,126.89,-136.40,-272.07
650,287355442,-0.9653,0.7158,-0.1528,130.24,-139.45,-271.83
651,287360441,-1.0098,0.7178,-0.1782,132.99,-142.56,-271.22
652,287365442,-1.0420,0.7222,-0.2139,136.71,-145.67,-270.24
653,287370443,-1.0625,0.7266,-0.2241,140.24,-148.72,-269.02
654,287375442,-1.0806,0.7295,-0.2500,143.96,-151.77,-267.20
655,287380440,-1.1035,0.7378,-0.2764,147.50,-154.88,-265.49
656,287385442,-1.1201,0.7456,-0.3018,151.34,-157.87,-263.54
657,287390442,-1.1353,0.7510,-0.3247,155.00,-161.04,-261.46
658,287395442,-1.1509,0.7368,-0.3438,158.48,-164.15,-258.96
659,287400441,-1.1460,0.7349,-0.3618,161.59,-167.20,-256.46
660,287405442,-1.1602,0.7363,-0.3779,164.57,-170.00,-253.48
661,287410442,-1.1787,0.7285,-0.4224,167.68,-173.17,-250.30
662,287415442,-1.1924,0.7212,-0.4473,170.55,-176.46,-246.89
663,287420441,-1.2217,0.7168,-0.4771,173.35,-180.06,-243.41
664,287425442,-1.2480,0.7358,-0.4980,176.28,-183.66,-239.70
665,287430442,-1.2837,0.7280,-0.5161,179.02,-187.26,-236.10
666,287435442,-1.3179,0.7290,-0.5264,182.13,-190.43,-232.01
667,287440441,-1.3403,0.7422,-0.5337,185.24,-193.35,-227.62
668,287445442,-1.3516,0.7417,-0.5664,188.54,-195.79,-223.11
669,287450442,-1.3643,0.7373,-0.5918,191.65,-198.05,-218.29
670,287455443,-1.3901,0.7388,-0.6128,194.57,-200.37,-213.29
671,287460441,-1.4214,0.7329,-0.6284,197.20,-202.38,-208.05
672,287465442,-1.4443,0.7285,-0.6514,199.94,-204.39,-202.56
673,287470443,-1.4639,0.7402,-0.6626,202.93,-205.98,-196.95
674,287475442,-1.4697,0.7324,-0.6870,206.04,-207.50,-191.22
675,287480441,-1.4893,0.7271,-0.7090,209.21,-208.72,-185.37
676,287485444,-1.5063,0.7183,-0.7261,212.50,-210.06,-179.33
677,287490442,-1.5342,0.7227,-0.7324,216.22,-210.85,-173.23
678,287495441,-1.5552,0.7158,-0.7617,219.63,-211.59,-167.13
679,287500442,-1.5703,0.7065,-0.7827,223.35,-212.07,-160.98
680,287505441,-1.5742,0.6987,-0.7983,226.89,-212.56,-154.63
681,287510444,-1.5957,0.7002,-0.8179,230.12,-212.74,-148.23
682,287515441,-1.5991,0.6958,-0.8174,233.41,-212.93,-142.01
683,287520442,-1.6074,0.7026,-0.8169,236.59,-212.56,-135.79
684,287525441,-1.6001,0.6919,-0.8145,239.88,-211.89,-129.76
685,287530442,-1.5923,0.6797,-0.8091,243.23,-210.49,-124.02
686,287535441,-1.5776,0.6631,-0.8022,246.89,-209.02,-118.11
687,287540444,-1.5630,0.6528,-0.7939,250.37,-207.01,-112.13
688,287545442,-1.5581,0.6338,-0.7842,253.90,-204.82,-106.22
689,287550442,-1.5464,0.6245,-0.7729,256.95,-202.26,-100.37
690,287555441,-1.5352,0.6108,-0.7642,259.21,-199.88,-94.39
691,287560442,-1.5269,0.5889,-0.7554,260.79,-197.01,-88.60
692,287565441,-1.5239,0.5684,-0.7559,261.46,-194.27,-82.80
693,287570442,-1.5200,0.5522,-0.7490,261.28,-191.59,-77.13
694,287575441,-1.5049,0.5327,-0.7339,260.43,-189.09,-71.46
695,287580443,-1.4805,0.5146,-0.7324,259.27,-186.52,-66.04
696,287585441,-1.4819,0.4951,-0.7363,257.80,-184.33,-60.49
697,287590444,-1.4839,0.4766,-0.7363,256.10,-181.71,-55.37
698,287595441,-1.4575,0.4639,-0.7173,253.90,-179.57,-50.24
699,287600442,-1.4199,0.4492,-0.7217,251.46,-177.32,-45.43
700,287605441,-1.3848,0.4409,-0.7041,248.78,-175.00,-40.79
701,287610442,-1.3535,0.4268,-0.7070,245.73,-172.74,-36.59
702,287615441,-1.3364,0.4170,-0.7036,242.26,-170.91,-32.68
703,287620442,-1.3218,0.4038,-0.6895,238.60,-168.96,-28.96
704,287625441,-1.3052,0.3916,-0.6772,235.00,-167.20,-25.55
705,287630442,-1.2959,0.3809,-0.6592,231.65,-165.18,-22.13
706,287635441,-1.2847,0.3687,-0.6367,228.66,-163.29,-18.90
707,287640442,-1.2822,0.3652,-0.6201,225.85,-161.22,-15.85
708,287645441,-1.2905,0.3545,-0.6172,223.17,-159.33,-12.93
709,287650444,-1.2896,0.3403,-0.6030,220.55,-157.56,-10.24
710,287655441,-1.2930,0.3325,-0.5933,218.11,-155.73,-7.74
711,287660442,-1.2827,0.3237,-0.5742,216.10,-153.96,-5.24
712,287665441,-1.2661,0.3145,-0.5620,214.39,-152.44,-2.93
713,287670442,-1.2422,0.3120,-0.5503,213.05,-150.73,-0.67
714,287675441,-1.2192,0.3066,-0.5396,211.83,-149.33,1.22
715,287680444,-1.1982,0.2979,-0.5317,210.73,-148.11,2.99
716,287685441,-1.1831,0.2935,-0.5137,209.33,-147.01,4.39
717,287690442,-1.1772,0.2891,-0.5049,207.80,-145.91,5.85
718,287695441,-1.1743,0.2812,-0.4902,205.85,-145.12,7.07
719,287700442,-1.1694,0.2842,-0.4800,203.35,-144.33,8.29
720,287705441,-1.1606,0.2764,-0.4727,200.55,-143.66,9.27
721,287710442,-1.1582,0.2686,-0.4551,197.32,-142.87,10.30
722,287715441,-1.1479,0.2686,-0.4404,193.78,-142.07,10.98
723,287720444,-1.1362,0.2720,-0.4365,190.06,-141.28,11.71
724,287725441,-1.1406,0.2671,-0.4331,186.28,-140.61,12.13
725,287730442,-1.1343,0.2681,-0.4219,182.20,-139.88,12.44
726,287735441,-1.1304,0.2656,-0.4131,178.35,-139.21,12.44
727,287740442,-1.1152,0.2622,-0.3989,174.94,-138.29,12.50
728,287745441,-1.0991,0.2651,-0.3931,171.77,-137.38,12.32
729,287750442,-1.0874,0.2593,-0.3867,169.21,-136.52,12.07
730,287755441,-1.0718,0.2578,-0.3726,167.44,-135.49,11.95
731,287760442,-1.0601,0.2559,-0.3638,166.10,-134.27,11.65
732,287765441,-1.0513,0.2510,-0.3579,165.18,-133.05,11.40
733,287770442,-1.0430,0.2495,-0.3569,164.57,-131.95,11.22
734,287775441,-1.0376,0.2490,-0.3433,164.45,-130.73,11.10
735,287780440,-1.0430,0.2456,-0.3315,164.45,-129.51,11.04
736,287785440,-1.0454,0.2397,-0.3315,164.33,-128.35,10.91
737,287790440,-1.0527,0.2378,-0.3301,163.90,-127.13,10.98
738,287795442,-1.0664,0.2446,-0.3252,163.84,-125.85,11.10
739,287800441,-1.0752,0.2437,-0.3179,163.72,-124.63,11.04
740,287805442,-1.0752,0.2456,-0.3081,163.66,-123.23,11.10
741,287810442,-1.0742,0.2485,-0.3018,163.60,-121.95,10.85
742,287815441,-1.0674,0.2544,-0.2939,163.78,-120.43,10.73
743,287820442,-1.0532,0.2549,-0.2856,164.21,-118.78,10.61
744,287825441,-1.0391,0.2642,-0.2729,164.76,-117.07,10.24
745,287830442,-1.0210,0.2603,-0.2622,166.10,-115.18,9.76
746,287835441,-1.0112,0.2661,-0.2534,167.56,-112.99,9.51
747,287840442,-0.9917,0.2690,-0.2368,169.39,-111.22,9.02
748,287845441,-0.9746,0.2705,-0.2295,171.46,-108.96,8.48
749,287850442,-0.9697,0.2725,-0.2197,173.72,-106.77,8.11
750,287855441,-0.9629,0.2769,-0.2114,176.22,-104.45,7.56
751,287860442,-0.9604,0.2764,-0.1973,178.66,-102.32,7.13
752,287865441,-0.9629,0.2803,-0.2007,181.16,-100.00,6.89
753,287870442,-0.9561,0.2842,-0.1948,183.66,-97.87,6.59
754,287875441,-0.9497,0.2808,-0.1890,185.85,-95.61,6.46
755,287880444,-0.9443,0.2808,-0.1831,187.74,-93.96,6.16
756,287885441,-0.9399,0.2788,-0.1875,189.45,-92.38,6.16
757,287890442,-0.9517,0.2812,-0.1851,190.67,-90.55,6.10
758,287895442,-0.9536,0.2866,-0.1758,191.59,-88.96,6.10
759,287900442,-0.9536,0.2861,-0.1816,192.20,-87.50,6.10
760,287905441,-0.9556,0.2876,-0.1738,192.50,-86.22,6.16
