# skilleye imu stream v1
# device=xiao_esp32c6 imu=mpu6050 addr=0x68
# rate_hz=200 accel_range_g=16 gyro_range_dps=2000 dlpf_hz=94
# units: accel in g, gyro in deg/s, t_us in microseconds since boot (monotonic)
# no shared clock with the camera -- tap the racket once before each take
# so both recordings share a spike to align on
seq,t_us,ax,ay,az,gx,gy,gz
0,271615442,-0.9849,0.1353,0.0083,43.60,-25.79,-9.76
1,271620445,-1.0005,0.1377,0.0142,42.80,-26.10,-8.60
2,271625441,-1.0220,0.1348,0.0171,41.77,-26.28,-7.50
3,271630442,-1.0396,0.1372,0.0132,40.49,-26.46,-6.28
4,271635440,-1.0615,0.1372,0.0146,38.84,-26.59,-5.18
5,271640442,-1.0781,0.1382,0.0103,36.83,-26.95,-3.96
6,271645441,-1.0913,0.1377,0.0088,34.45,-27.32,-2.74
7,271650440,-1.1045,0.1436,0.0024,31.40,-27.87,-1.34
8,271655442,-1.1079,0.1372,0.0063,29.21,-28.23,-0.37
9,271660443,-1.1143,0.1396,0.0059,26.46,-28.66,1.04
10,271665442,-1.1289,0.1436,0.0156,23.84,-28.96,2.13
11,271670442,-1.1509,0.1509,0.0225,21.40,-29.15,3.35
12,271675442,-1.1777,0.1602,0.0195,19.21,-29.15,4.63
13,271680443,-1.2061,0.1694,0.0332,17.26,-29.02,5.61
14,271685442,-1.2358,0.1782,0.0361,15.67,-28.72,6.77
15,271690442,-1.2725,0.1851,0.0391,14.09,-28.60,7.80
16,271695442,-1.2935,0.1904,0.0430,12.62,-28.35,8.90
17,271700443,-1.3154,0.1943,0.0332,11.16,-27.99,9.94
18,271705442,-1.3262,0.2002,0.0303,9.45,-28.05,11.04
19,271710440,-1.3330,0.2051,0.0229,7.68,-28.11,12.07
20,271715440,-1.3447,0.2075,0.0190,5.61,-28.41,13.17
21,271720442,-1.3545,0.2119,0.0142,3.54,-28.90,14.27
22,271725444,-1.3623,0.2139,0.0156,1.22,-29.45,15.37
23,271730442,-1.3604,0.2217,0.0234,-0.91,-30.00,16.52
24,271735441,-1.3672,0.2280,0.0249,-3.23,-30.67,17.62
25,271740442,-1.3677,0.2393,0.0259,-5.24,-31.22,18.84
26,271746038,-1.3843,0.2476,0.0483,-7.80,-31.65,20.37
27,271750444,-1.3911,0.2563,0.0503,-9.82,-32.07,21.40
28,271755441,-1.4053,0.2700,0.0635,-12.26,-32.44,22.50
29,271760442,-1.4082,0.2803,0.0679,-15.06,-32.74,23.78
30,271765440,-1.4131,0.2876,0.0718,-18.41,-33.05,25.24
31,271770442,-1.4155,0.2896,0.0684,-22.20,-33.54,26.89
32,271775441,-1.4243,0.2969,0.0630,-26.46,-34.21,28.78
33,271780442,-1.4365,0.3047,0.0605,-31.34,-35.30,30.79
34,271785440,-1.4302,0.3188,0.0488,-36.52,-36.65,33.11
35,271790442,-1.4248,0.3384,0.0493,-42.26,-38.23,35.49
36,271795441,-1.4194,0.3574,0.0596,-48.29,-40.06,37.62
37,271800444,-1.4204,0.3721,0.0654,-54.51,-42.13,40.00
38,271805441,-1.4238,0.3936,0.0742,-60.85,-44.39,42.50
39,271810441,-1.4214,0.4097,0.0869,-67.07,-46.71,44.76
40,271815440,-1.4141,0.4326,0.1025,-73.35,-49.09,47.32
41,271820941,-1.4126,0.4404,0.1143,-79.27,-51.71,49.94
42,271825442,-1.4219,0.4556,0.1265,-85.12,-54.45,52.87
43,271830759,-1.4395,0.4614,0.1294,-90.06,-57.38,56.10
44,271835442,-1.4448,0.4761,0.1382,-94.45,-60.67,59.57
45,271840441,-1.4517,0.4990,0.1445,-98.11,-64.15,63.17
46,271845442,-1.4448,0.5234,0.1543,-100.85,-67.99,66.71
47,271850619,-1.4409,0.5420,0.1553,-102.56,-72.01,70.24
48,271855442,-1.4409,0.5562,0.1616,-103.17,-76.52,74.09
49,271860441,-1.4478,0.5786,0.1606,-102.50,-81.40,77.99
50,271865442,-1.4541,0.5933,0.1787,-100.55,-86.46,82.07
51,271870443,-1.4570,0.6006,0.1787,-97.01,-91.83,85.91
52,271875442,-1.4644,0.6230,0.1953,-92.26,-96.89,90.12
53,271880441,-1.4697,0.6270,0.2134,-86.04,-102.13,95.00
54,271885442,-1.4746,0.6426,0.2285,-78.72,-107.50,99.82
55,271890442,-1.4712,0.6592,0.2402,-70.73,-112.44,104.76
56,271895442,-1.4673,0.6660,0.2515,-62.62,-117.87,109.76
57,271900443,-1.4590,0.6807,0.2661,-54.82,-122.93,114.70
58,271905442,-1.4521,0.6904,0.2720,-47.56,-128.29,119.33
59,271910441,-1.4424,0.7051,0.2783,-41.28,-133.48,123.90
60,271915440,-1.4419,0.7168,0.2837,-35.98,-138.84,128.48
61,271921023,-1.4434,0.7295,0.3022,-31.89,-143.96,132.93
62,271925498,-1.4492,0.7295,0.3096,-29.02,-149.02,137.26
63,271930444,-1.4463,0.7319,0.3257,-27.44,-154.15,141.65
64,271935441,-1.4492,0.7363,0.3262,-27.01,-158.84,146.16
65,271940440,-1.4546,0.7402,0.3394,-27.38,-163.84,150.55
66,271945442,-1.4521,0.7490,0.3525,-28.54,-168.23,154.88
67,271950443,-1.4624,0.7568,0.3613,-30.37,-172.56,158.96
68,271955442,-1.4517,0.7607,0.3652,-32.80,-176.77,162.99
69,271960440,-1.4707,0.7661,0.3716,-35.55,-180.73,166.95
70,271965441,-1.4780,0.7734,0.3843,-38.78,-184.45,170.67
71,271970442,-1.4888,0.7808,0.3809,-42.26,-187.99,174.21
72,271975442,-1.4995,0.7842,0.3784,-45.98,-191.22,177.56
73,271980442,-1.5103,0.7935,0.3936,-49.63,-194.15,180.67
74,271985441,-1.5273,0.8032,0.3950,-52.99,-196.71,183.41
75,271990442,-1.5425,0.8037,0.4004,-56.28,-199.33,185.98
76,271995441,-1.5674,0.8013,0.3999,-59.57,-201.59,188.41
77,272000442,-1.5918,0.8008,0.4062,-62.87,-203.66,190.85
78,272005441,-1.5972,0.8066,0.3984,-66.22,-205.67,193.11
79,272010442,-1.6016,0.8101,0.3965,-69.70,-207.50,194.94
80,272015441,-1.6006,0.8110,0.3994,-73.17,-209.27,196.59
81,272020440,-1.5957,0.8164,0.3965,-76.71,-211.16,197.87
82,272025440,-1.5801,0.8213,0.4048,-80.85,-212.87,199.02
83,272030479,-1.5664,0.8237,0.4131,-85.37,-214.63,199.82
84,272035441,-1.5469,0.8228,0.4131,-90.37,-216.28,200.37
85,272040442,-1.5249,0.8237,0.4077,-95.73,-218.05,200.73
86,272045440,-1.5146,0.8179,0.4062,-101.77,-219.82,200.91
87,272050442,-1.4927,0.8149,0.4131,-108.05,-221.59,200.91
88,272055442,-1.4756,0.8125,0.4209,-114.70,-223.54,200.67
89,272060442,-1.4600,0.8125,0.4229,-121.10,-225.49,200.18
90,272065442,-1.4419,0.7988,0.4170,-127.32,-227.26,199.88
91,272070441,-1.4141,0.7832,0.4072,-132.87,-229.09,199.57
92,272075442,-1.3950,0.7778,0.3979,-138.05,-231.10,199.21
93,272080443,-1.3691,0.7666,0.3999,-142.01,-233.23,198.84
94,272085442,-1.3472,0.7573,0.3901,-144.88,-235.30,198.60
95,272090441,-1.3145,0.7397,0.3916,-146.34,-237.38,198.29
96,272095442,-1.2842,0.7300,0.4028,-146.34,-239.15,198.05
97,272100443,-1.2549,0.7266,0.3994,-145.55,-240.55,197.93
98,272105442,-1.2285,0.7246,0.4038,-144.02,-241.89,197.74
99,272110441,-1.1948,0.7109,0.4019,-142.26,-243.17,197.62
100,272115442,-1.1562,0.7002,0.3921,-140.85,-244.33,197.56
101,272120569,-1.1270,0.6914,0.4033,-140.00,-245.67,197.32
102,272125472,-1.1006,0.6807,0.3760,-139.33,-246.95,197.13
103,272130442,-1.0625,0.6758,0.3804,-138.72,-248.29,196.77
104,272135442,-1.0293,0.6777,0.3828,-138.17,-249.21,196.46
105,272140442,-1.0054,0.6816,0.3828,-137.32,-250.12,195.98
106,272145441,-0.9761,0.6787,0.3975,-136.46,-250.67,195.49
107,272150442,-0.9507,0.6689,0.3926,-135.79,-250.85,195.00
108,272155441,-0.9370,0.6567,0.3882,-135.30,-251.10,194.82
109,272160442,-0.9209,0.6445,0.3667,-135.43,-251.52,194.88
110,272165441,-0.9009,0.6392,0.3521,-135.37,-252.01,195.00
111,272170442,-0.8813,0.6284,0.3389,-134.63,-252.68,195.18
112,272175441,-0.8555,0.6260,0.3379,-133.23,-253.35,195.61
113,272180442,-0.8364,0.6343,0.3521,-130.55,-253.54,196.10
114,272185441,-0.8052,0.6235,0.3672,-126.71,-253.41,196.59
115,272190442,-0.7852,0.6143,0.3740,-122.07,-252.62,197.32
116,272195444,-0.7651,0.6128,0.3784,-116.95,-251.52,198.41
117,272200442,-0.7363,0.6172,0.3784,-112.32,-250.12,199.63
118,272205441,-0.7114,0.6274,0.3843,-108.17,-248.78,201.04
119,272210442,-0.6895,0.6279,0.3931,-105.67,-246.89,202.38
120,272215440,-0.6782,0.6230,0.3872,-104.21,-245.55,203.78
121,272220441,-0.6787,0.6138,0.3813,-103.54,-243.35,206.22
122,272225442,-0.6738,0.6089,0.3599,-104.09,-241.89,208.72
123,272230441,-0.6597,0.6060,0.3589,-104.94,-240.55,211.28
124,272235442,-0.6377,0.6143,0.3589,-105.49,-239.27,214.09
125,272240443,-0.6294,0.6201,0.3594,-105.55,-237.99,216.71
126,272245442,-0.6177,0.6167,0.3560,-105.00,-237.07,218.78
127,272250441,-0.6147,0.6235,0.3501,-103.35,-235.79,221.65
128,272255442,-0.5952,0.6362,0.3438,-100.61,-234.39,224.45
129,272260442,-0.5664,0.6411,0.3433,-97.32,-233.11,226.95
130,272265442,-0.5498,0.6382,0.3408,-93.41,-231.65,229.70
131,272270441,-0.5195,0.6406,0.3330,-89.02,-230.18,232.38
132,272275442,-0.4795,0.6504,0.3291,-84.51,-228.90,234.94
133,272280442,-0.4409,0.6479,0.3301,-80.61,-227.56,237.74
134,272285442,-0.4180,0.6343,0.3203,-77.62,-226.10,240.55
135,272290587,-0.4043,0.6304,0.3164,-75.55,-224.51,244.33
136,272295442,-0.3867,0.6069,0.3223,-75.24,-223.72,246.95
137,272300502,-0.3696,0.5908,0.3057,-76.22,-222.56,250.98
138,272305442,-0.3643,0.5830,0.3047,-77.62,-221.89,253.54
139,272310443,-0.3525,0.5688,0.3110,-79.82,-221.16,256.95
140,272315442,-0.3569,0.5444,0.3003,-82.26,-220.43,260.30
141,272320440,-0.3560,0.5312,0.2920,-84.15,-219.94,263.66
142,272325440,-0.3467,0.5205,0.2979,-85.24,-219.33,266.77
143,272330441,-0.3408,0.4980,0.2856,-85.43,-218.84,270.06
144,272335442,-0.3340,0.4639,0.2886,-84.45,-218.17,273.41
145,272340444,-0.3315,0.4380,0.2827,-82.26,-217.56,276.77
146,272345526,-0.3267,0.4077,0.2710,-78.11,-216.65,280.91
147,272350442,-0.3252,0.3818,0.2617,-74.76,-215.91,283.78
148,272355441,-0.3262,0.3525,0.2466,-69.82,-215.24,287.56
149,272360444,-0.3306,0.3262,0.2393,-64.63,-214.51,291.22
150,272365441,-0.3242,0.2944,0.2354,-59.21,-213.66,295.12
151,272370442,-0.3237,0.2666,0.2314,-53.78,-212.50,299.15
152,272375441,-0.3159,0.2222,0.2310,-48.05,-211.34,303.11
153,272380442,-0.3047,0.1982,0.2368,-42.62,-209.94,307.26
154,272385440,-0.3130,0.1509,0.2349,-37.32,-208.66,311.46
155,272390442,-0.3389,0.1196,0.2109,-32.56,-207.07,315.85
156,272395441,-0.3828,0.1016,0.1709,-28.48,-206.04,320.30
157,272400444,-0.3872,0.0757,0.1841,-24.82,-205.18,324.76
158,272405441,-0.3691,0.0454,0.1772,-20.91,-204.09,328.90
159,272410442,-0.3770,0.0142,0.1675,-16.77,-202.99,333.41
160,272415441,-0.4033,-0.0107,0.1709,-12.07,-202.20,337.93
161,272420442,-0.4282,-0.0283,0.1626,-7.32,-201.10,342.38
162,272425440,-0.4507,-0.0522,0.1621,-2.26,-199.94,346.89
163,272430440,-0.4673,-0.0752,0.1665,2.87,-198.35,351.16
164,272435442,-0.4800,-0.0879,0.1636,8.23,-196.83,355.67
165,272440442,-0.4902,-0.1113,0.1680,13.78,-195.12,360.00
166,272445442,-0.5044,-0.1362,0.1646,19.27,-192.99,364.39
167,272450442,-0.5234,-0.1558,0.1724,24.88,-190.73,368.90
168,272455441,-0.5376,-0.1738,0.1743,30.79,-188.54,373.41
169,272460442,-0.5879,-0.2056,0.1753,36.71,-185.85,378.11
170,272465440,-0.6006,-0.2495,0.1655,42.62,-183.05,383.11
171,272470442,-0.6533,-0.2524,0.1694,48.54,-180.12,388.23
172,272475441,-0.7026,-0.2402,0.1670,54.02,-177.20,393.11
173,272480442,-0.7461,-0.2627,0.1631,59.21,-173.78,397.99
174,272485441,-0.7871,-0.2729,0.1484,63.60,-170.49,402.93
175,272490442,-0.8257,-0.2847,0.1499,67.56,-167.20,407.62
176,272495441,-0.8643,-0.3032,0.1504,70.91,-163.78,412.32
177,272500442,-0.9141,-0.3086,0.1597,73.78,-159.94,417.26
178,272505441,-0.9634,-0.3228,0.1655,76.04,-155.98,421.95
179,272510442,-0.9966,-0.3120,0.2100,77.32,-151.71,426.46
180,272515441,-1.0186,-0.3115,0.1948,77.07,-147.07,430.79
181,272520444,-1.0957,-0.3740,0.1421,75.67,-143.11,435.24
182,272525441,-1.1841,-0.3887,0.1455,73.41,-139.09,440.12
183,272530527,-1.2842,-0.3569,0.1655,70.12,-135.43,444.57
184,272535442,-1.4248,-0.2837,0.1489,66.59,-131.65,447.93
185,272540442,-1.4399,-0.3213,0.2026,63.11,-127.26,450.67
186,272545442,-1.4185,-0.3579,0.1943,59.45,-122.87,453.66
187,272550442,-1.4097,-0.3921,0.1450,55.24,-119.15,457.07
188,272555441,-1.4321,-0.4004,0.1392,50.79,-115.79,460.55
189,272560442,-1.5005,-0.3950,0.1729,46.10,-112.26,463.96
190,272565441,-1.5850,-0.3877,0.1562,40.73,-109.02,466.89
191,272570444,-1.6660,-0.3823,0.1582,34.76,-105.67,469.39
192,272575441,-1.7476,-0.3892,0.1851,28.41,-102.38,471.22
193,272580442,-1.8022,-0.4131,0.1992,21.59,-99.02,473.11
194,272585441,-1.8545,-0.4082,0.2017,14.39,-95.61,474.70
195,272590442,-1.9053,-0.4082,0.2227,6.52,-92.38,475.91
196,272595441,-1.9531,-0.4204,0.2100,-1.77,-88.90,476.59
197,272600442,-1.9795,-0.4204,0.2100,-10.55,-85.91,477.07
198,272605441,-1.9990,-0.4272,0.2075,-19.76,-83.29,477.20
199,272610443,-2.0176,-0.4453,0.2061,-29.27,-81.04,476.71
200,272615441,-2.0459,-0.4595,0.2134,-39.63,-79.02,476.10
201,272620442,-2.1089,-0.4868,0.2183,-50.55,-77.56,475.06
202,272625440,-2.2007,-0.4990,0.2329,-62.13,-76.40,473.72
203,272630441,-2.3193,-0.5166,0.2520,-74.27,-75.37,471.95
204,272635441,-2.4438,-0.5430,0.2744,-87.32,-74.33,469.57
205,272640442,-2.5596,-0.5767,0.3032,-100.79,-73.72,466.95
206,272645441,-2.6499,-0.6182,0.3145,-114.51,-72.87,464.27
207,272650444,-2.7134,-0.6729,0.3379,-128.48,-72.44,461.34
208,272655441,-2.7437,-0.6875,0.3643,-142.56,-71.52,457.87
209,272660603,-2.7451,-0.6919,0.3506,-156.59,-71.22,453.72
210,272665442,-2.7549,-0.7148,0.3438,-170.67,-71.16,449.15
211,272670443,-2.7417,-0.7510,0.3359,-184.76,-71.89,443.48
212,272675442,-2.7480,-0.8042,0.3110,-198.05,-73.23,437.32
213,272680441,-2.7852,-0.8521,0.3081,-210.24,-74.94,430.91
214,272685442,-2.8086,-0.9141,0.3091,-221.04,-77.20,424.21
215,272690442,-2.8271,-0.9756,0.2959,-229.88,-79.88,416.89
216,272695442,-2.8408,-1.0234,0.2700,-236.10,-82.99,409.21
217,272700443,-2.9053,-1.0410,0.2236,-240.49,-86.77,400.49
218,272705442,-2.7837,-1.1362,0.2593,-243.35,-90.49,390.79
219,272710442,-2.7920,-1.0933,0.2588,-242.26,-93.96,380.30
220,272715442,-2.4146,-1.2407,0.2705,-237.07,-96.83,369.88
221,272720443,-2.3242,-1.1763,0.2598,-229.39,-99.09,357.99
222,272725442,-2.2202,-1.1782,0.2402,-220.12,-100.85,343.72
223,272730442,-2.0874,-1.2080,0.2183,-210.85,-102.20,328.11
224,272735442,-1.9829,-1.2158,0.2339,-202.44,-102.93,311.22
225,272740442,-1.9111,-1.2593,0.2280,-196.04,-102.99,293.23
226,272745442,-1.8853,-1.3315,0.2422,-191.59,-101.95,274.27
227,272750442,-1.8140,-1.3384,0.2236,-190.55,-100.24,254.82
228,272755442,-1.7344,-1.3628,0.1953,-194.09,-98.72,234.09
229,272760443,-1.6567,-1.3994,0.1548,-201.95,-96.89,212.38
230,272765442,-1.5742,-1.4375,0.1362,-213.41,-95.37,189.76
231,272770442,-1.4780,-1.4668,0.1206,-227.20,-93.96,166.28
232,272775442,-1.3726,-1.5034,0.1294,-241.89,-92.13,141.89
233,272780441,-1.2905,-1.4785,0.1118,-256.22,-89.70,116.71
234,272785442,-1.2305,-1.4746,0.0967,-269.51,-86.46,91.10
235,272790442,-1.1592,-1.4849,0.1025,-281.59,-82.93,64.70
236,272795442,-1.1299,-1.4756,0.0615,-292.07,-78.48,38.29
237,272800442,-1.1274,-1.4536,0.0239,-302.80,-72.56,6.22
238,272805442,-1.1230,-1.4346,0.0122,-308.84,-68.35,-15.00
239,272810442,-1.1587,-1.4014,-0.0278,-314.82,-62.87,-41.46
240,272815442,-1.1895,-1.3877,-0.0542,-318.96,-56.59,-67.50
241,272820441,-1.2236,-1.3579,-0.0776,-321.04,-49.88,-93.05
242,272825442,-1.2373,-1.3101,-0.1074,-320.73,-42.62,-117.99
243,272830442,-1.2593,-1.2651,-0.1152,-318.05,-34.88,-142.20
244,272835442,-1.2744,-1.2158,-0.1460,-313.23,-26.40,-165.85
245,272840440,-1.2925,-1.1680,-0.1797,-306.52,-17.87,-188.90
246,272845442,-1.3179,-1.1196,-0.2056,-298.48,-8.96,-211.10
247,272850442,-1.3540,-1.0781,-0.2261,-289.21,0.06,-232.87
248,272855442,-1.4023,-1.0356,-0.2583,-279.33,9.39,-253.78
249,272860441,-1.4468,-0.9951,-0.2793,-268.90,18.72,-273.78
250,272865442,-1.5039,-0.9585,-0.2988,-258.60,27.93,-293.11
251,272870442,-1.5557,-0.9248,-0.3306,-248.41,37.32,-311.65
252,272875442,-1.6128,-0.8901,-0.3335,-238.35,46.77,-329.57
253,272880441,-1.6650,-0.8521,-0.3394,-228.41,56.40,-346.95
254,272885442,-1.7178,-0.8223,-0.3452,-218.72,66.52,-363.54
255,272890442,-1.7720,-0.7827,-0.3438,-209.02,76.65,-379.63
256,272895442,-1.8247,-0.7505,-0.3428,-199.63,87.13,-394.88
257,272900441,-1.8706,-0.7241,-0.3369,-191.16,97.68,-410.00
258,272905442,-1.9102,-0.6968,-0.3315,-183.72,108.84,-424.57
259,272910442,-1.9404,-0.6685,-0.3296,-177.50,120.06,-438.84
260,272915442,-1.9512,-0.6421,-0.3311,-172.74,131.40,-452.93
261,272920441,-1.9546,-0.6069,-0.3247,-169.39,142.68,-466.83
262,272925442,-1.9512,-0.5747,-0.3252,-166.77,154.39,-480.30
263,272930442,-1.9419,-0.5361,-0.3252,-164.70,165.85,-493.66
264,272935442,-1.9331,-0.5063,-0.3115,-162.93,177.62,-506.95
265,272940441,-1.9312,-0.4751,-0.3032,-160.91,189.39,-519.88
266,272945442,-1.9399,-0.4482,-0.2822,-158.41,201.40,-532.32
267,272950441,-1.9712,-0.4238,-0.2637,-154.82,213.72,-544.45
268,272955442,-2.0059,-0.4014,-0.2476,-150.55,225.85,-556.10
269,272960443,-2.0449,-0.3809,-0.2202,-145.37,238.35,-567.13
270,272965442,-2.0869,-0.3540,-0.2080,-139.63,250.67,-577.68
271,272970442,-2.1333,-0.3184,-0.1904,-133.54,262.93,-587.93
272,272975442,-2.1812,-0.2842,-0.1768,-127.38,275.06,-597.74
273,272980441,-2.2271,-0.2412,-0.1597,-121.10,287.01,-607.26
274,272985442,-2.2705,-0.2017,-0.1411,-115.24,298.90,-616.77
275,272990442,-2.3115,-0.1519,-0.1230,-109.70,310.49,-626.10
276,272995442,-2.3521,-0.1079,-0.1084,-104.82,321.77,-635.30
277,273000441,-2.3887,-0.0566,-0.0947,-100.55,332.62,-644.33
278,273005442,-2.4224,-0.0142,-0.0835,-96.71,343.17,-653.23
279,273010442,-2.4531,0.0215,-0.0693,-93.17,353.41,-661.71
280,273015442,-2.4893,0.0503,-0.0449,-89.51,363.35,-670.06
281,273020443,-2.5264,0.0845,-0.0259,-85.12,372.93,-677.62
282,273025442,-2.5576,0.1108,0.0029,-80.00,382.32,-685.18
283,273030442,-2.5874,0.1235,0.0269,-73.90,391.46,-691.77
284,273035442,-2.6157,0.1416,0.0488,-67.20,400.43,-697.87
285,273040440,-2.6289,0.1514,0.0840,-59.63,409.02,-703.29
286,273045440,-2.6323,0.1685,0.1123,-51.16,417.38,-708.35
287,273050442,-2.6445,0.2007,0.1406,-41.77,425.43,-712.93
288,273055441,-2.6650,0.2495,0.1797,-31.34,432.99,-717.74
289,273060444,-2.7129,0.3218,0.2300,-19.76,440.18,-722.74
290,273065441,-2.7568,0.4102,0.2202,-7.50,446.65,-728.66
291,273070442,-2.8682,0.4741,0.2437,5.12,452.26,-735.91
292,273075441,-3.0005,0.5537,0.2656,17.26,457.07,-744.02
293,273080440,-3.1558,0.6099,0.2368,28.29,460.73,-753.23
294,273085442,-3.3213,0.6333,0.1963,36.89,462.87,-762.68
295,273090443,-3.5098,0.6562,0.1519,42.20,463.35,-772.07
296,273095442,-3.6982,0.6504,0.1050,44.02,462.80,-781.28
297,273100441,-3.9058,0.6489,0.0156,42.44,460.49,-789.63
298,273105442,-4.1118,0.6519,-0.0352,38.60,456.71,-797.20
299,273110442,-4.3140,0.6943,-0.0684,31.59,452.32,-803.29
300,273115442,-4.4087,0.6211,-0.1909,21.46,446.89,-808.11
301,273120444,-4.5127,0.5884,-0.0908,9.76,442.26,-811.46
302,273125442,-4.5962,0.6421,-0.1152,-1.46,439.02,-813.35
303,273130442,-4.7036,0.6846,-0.1094,-11.71,436.65,-814.21
304,273135442,-4.8159,0.7314,-0.0347,-20.18,435.49,-814.88
305,273140440,-4.9380,0.7891,-0.0239,-24.09,435.67,-814.94
306,273145441,-5.0874,0.8413,0.0132,-22.07,436.59,-814.94
307,273150442,-5.2637,0.9160,0.0723,-16.34,437.80,-815.43
308,273155442,-5.4712,1.0068,0.0664,-6.28,439.15,-816.59
309,273160442,-5.6982,1.0918,0.0869,9.63,440.43,-818.17
310,273165441,-5.9751,1.1631,0.1187,30.24,440.55,-820.98
311,273170442,-6.2544,1.2432,0.0776,55.98,438.96,-824.82
312,273175441,-6.5381,1.3174,0.0269,86.22,435.43,-829.39
313,273180444,-6.8057,1.3779,-0.0386,118.84,428.72,-835.00
314,273185441,-7.1147,1.4175,-0.1025,152.56,418.60,-841.22
315,273190982,-7.3965,1.4248,-0.1509,187.93,405.30,-847.68
316,273195443,-7.6489,1.4062,-0.2241,221.83,388.72,-854.09
317,273200443,-7.8662,1.4180,-0.3398,252.62,368.78,-859.94
318,273205442,-8.0557,1.3960,-0.4033,279.82,345.67,-865.18
319,273210441,-8.1240,1.3369,-0.4902,302.32,319.70,-869.21
320,273215442,-8.1289,1.2827,-0.5630,318.78,291.16,-871.83
321,273220919,-8.0928,1.2134,-0.6201,329.09,260.85,-872.87
322,273225442,-7.9595,1.1602,-0.6592,333.54,229.82,-872.13
323,273230441,-7.8057,1.1060,-0.6514,332.50,198.96,-870.24
324,273235442,-7.6963,1.1353,-0.6616,326.77,168.60,-867.26
325,273240442,-7.7510,1.0815,-0.6831,315.49,139.76,-863.66
326,273245441,-7.7832,1.0146,-0.6650,299.45,113.05,-858.66
327,273250440,-7.7300,0.9829,-0.5933,281.59,88.72,-851.95
328,273255442,-7.6670,0.8965,-0.5215,260.73,69.21,-843.29
329,273260444,-7.5405,0.7437,-0.5405,236.34,52.50,-832.74
330,273265441,-7.3032,0.7085,-0.3853,209.45,40.24,-819.88
331,273270442,-7.0396,0.5693,-0.3887,178.35,31.59,-806.22
332,273275441,-6.7285,0.5171,-0.3564,144.70,26.22,-791.04
333,273280444,-6.4404,0.4771,-0.3027,109.21,23.66,-775.00
334,273285441,-6.1943,0.3809,-0.3896,70.67,23.60,-758.17
335,273290442,-5.9131,0.3247,-0.3989,28.60,25.67,-741.34
336,273295441,-5.6611,0.3042,-0.3447,-16.16,30.00,-724.70
337,273300444,-5.4468,0.3115,-0.3950,-60.91,36.16,-707.80
338,273305441,-5.2368,0.3193,-0.3677,-102.80,44.88,-691.22
339,273310442,-4.9922,0.2939,-0.2520,-139.70,57.01,-674.33
340,273315441,-4.7349,0.3193,-0.1689,-168.66,72.26,-657.26
341,273320444,-4.4897,0.3003,-0.1328,-188.11,89.33,-639.45
342,273325441,-4.2764,0.2534,-0.0605,-199.94,107.01,-620.55
343,273330442,-4.0552,0.2021,-0.0742,-206.16,124.70,-600.37
344,273335441,-3.8638,0.1445,-0.1118,-208.54,140.79,-578.48
345,273340442,-3.7085,0.1245,-0.1406,-207.74,154.94,-555.79
346,273345441,-3.5464,0.0874,-0.1929,-204.09,167.01,-532.32
347,273350440,-3.3813,0.0674,-0.2231,-197.07,176.46,-508.41
348,273355442,-3.2212,0.0620,-0.2222,-186.83,183.72,-484.45
349,273360441,-3.0796,0.0552,-0.2080,-173.05,189.27,-460.18
350,273365443,-2.9360,0.0396,-0.1973,-156.04,193.60,-436.34
351,273370441,-2.8076,0.0366,-0.1597,-136.04,196.95,-412.68
352,273375442,-2.6865,0.0317,-0.1294,-113.84,199.45,-389.57
353,273380442,-2.5532,0.0220,-0.0947,-90.67,200.85,-367.01
354,273385442,-2.4473,0.0034,-0.0742,-67.44,201.71,-345.49
355,273390443,-2.3555,0.0137,-0.0679,-44.45,201.71,-324.33
356,273395442,-2.2632,0.0171,-0.0571,-22.62,200.85,-303.66
357,273400442,-2.1860,-0.0010,-0.0479,-2.44,199.15,-283.84
358,273405442,-2.1133,0.0005,-0.0317,15.61,197.32,-264.82
359,273410443,-2.0537,-0.0005,-0.0073,31.83,194.94,-246.77
360,273415442,-2.0059,0.0068,0.0161,46.28,192.68,-229.45
361,273420442,-1.9692,0.0103,0.0308,59.27,190.61,-212.80
362,273425442,-1.9326,0.0151,0.0527,70.43,188.60,-197.07
363,273430443,-1.8984,0.0200,0.0557,80.12,186.89,-181.77
364,273435442,-1.8535,0.0239,0.0566,87.62,185.18,-167.26
365,273440442,-1.8252,0.0220,0.0586,93.48,183.35,-153.41
366,273445442,-1.7959,0.0210,0.0503,97.56,181.40,-140.18
367,273450441,-1.7573,0.0293,0.0405,100.43,179.09,-127.44
368,273455440,-1.7300,0.0430,0.0391,102.07,177.01,-115.49
369,273460441,-1.6953,0.0479,0.0381,103.23,174.63,-104.21
370,273465442,-1.6621,0.0522,0.0454,104.15,172.32,-93.29
371,273470443,-1.6304,0.0605,0.0532,105.37,170.18,-82.99
372,273475442,-1.6050,0.0728,0.0469,106.77,168.05,-73.17
373,273480441,-1.5752,0.0732,0.0552,108.60,166.04,-63.96
374,273485442,-1.5430,0.1162,0.0610,110.91,164.15,-55.37
375,273490442,-1.5288,0.0947,0.0659,113.48,162.32,-47.26
376,273495442,-1.4883,0.0996,0.0586,116.04,160.37,-39.70
377,273500441,-1.4575,0.1143,0.0532,118.54,158.29,-32.50
378,273505442,-1.4272,0.1226,0.0547,120.61,156.16,-25.91
379,273510442,-1.3926,0.1270,0.0552,122.44,153.78,-19.70
380,273515442,-1.3589,0.1270,0.0503,123.96,151.52,-13.90
381,273520443,-1.3311,0.1270,0.0469,125.12,149.02,-8.48
382,273525442,-1.3018,0.1377,0.0488,125.61,146.22,-3.41
383,273530442,-1.2764,0.1411,0.0454,126.28,143.35,1.40
384,273535442,-1.2437,0.1475,0.0488,125.79,140.67,5.85
385,273540445,-1.2163,0.1548,0.0542,125.55,137.62,9.88
386,273545442,-1.1875,0.1602,0.0479,124.82,135.00,12.93
387,273550442,-1.1499,0.1577,0.0547,123.84,131.59,17.20
388,273555442,-1.1240,0.1646,0.0620,123.05,128.96,20.06
389,273560444,-1.1167,0.1665,0.0679,121.59,125.43,23.84
390,273565441,-1.1069,0.1802,0.0576,120.43,123.17,26.16
391,273570442,-1.0815,0.1807,0.0630,118.54,120.00,28.96
392,273575441,-1.0654,0.1841,0.0645,116.04,116.95,31.65
393,273580442,-1.0386,0.1851,0.0547,113.41,113.60,34.15
394,273585441,-1.0137,0.1870,0.0571,110.43,110.37,36.46
395,273590442,-0.9785,0.1958,0.0566,106.83,107.07,38.84
396,273595441,-0.9355,0.1953,0.0640,103.17,103.54,40.98
397,273600444,-0.9087,0.1953,0.0625,99.09,100.18,43.11
398,273605441,-0.8770,0.2021,0.0586,94.94,96.83,45.06
399,273610442,-0.8486,0.1982,0.0664,90.37,93.35,47.20
400,273615441,-0.8125,0.1875,0.0718,85.43,89.70,49.39
401,273620442,-0.7739,0.2119,0.0708,80.61,86.22,51.40
402,273625441,-0.7549,0.1987,0.0762,75.24,84.57,53.66
403,273630442,-0.7349,0.1880,0.0737,69.51,80.37,56.04
404,273635441,-0.7090,0.1802,0.0679,63.05,76.83,58.48
405,273640442,-0.6792,0.1748,0.0664,56.10,73.17,61.22
406,273645441,-0.6509,0.1738,0.0679,48.60,69.51,64.09
407,273650444,-0.6299,0.1699,0.0684,40.85,65.73,67.13
408,273655441,-0.5957,0.1689,0.0806,32.44,62.01,70.12
409,273660440,-0.5703,0.1616,0.0718,23.60,58.29,73.23
410,273665442,-0.5527,0.1479,0.0684,14.70,54.51,76.40
411,273670443,-0.5356,0.1426,0.0728,5.30,50.49,80.06
412,273675442,-0.5186,0.1274,0.0703,-4.33,46.65,83.72
413,273680442,-0.5044,0.1157,0.0659,-14.27,42.38,87.74
414,273685442,-0.4971,0.1079,0.0562,-24.27,38.05,91.34
415,273690443,-0.4790,0.0986,0.0605,-34.15,33.96,95.49
416,273695442,-0.4639,0.0859,0.0605,-44.15,29.51,99.82
417,273700442,-0.4478,0.0757,0.0601,-53.72,25.24,104.27
418,273705442,-0.4321,0.0620,0.0640,-62.74,20.98,108.96
419,273710442,-0.4243,0.0439,0.0635,-71.34,16.59,113.84
420,273715442,-0.4199,0.0244,0.0508,-79.39,12.13,118.78
421,273720443,-0.4214,0.0112,0.0498,-86.83,7.80,123.96
422,273725442,-0.4263,-0.0063,0.0420,-93.41,3.41,129.45
423,273730442,-0.4336,-0.0220,0.0396,-99.21,-1.10,135.12
424,273735442,-0.4473,-0.0376,0.0381,-103.96,-5.67,140.98
425,273740442,-0.4595,-0.0513,0.0303,-107.99,-10.24,146.83
426,273745442,-0.4761,-0.0654,0.0215,-110.61,-14.76,153.05
427,273750443,-0.4980,-0.0767,0.0171,-112.44,-19.45,159.09
428,273755442,-0.5200,-0.0894,0.0063,-113.35,-24.09,165.30
429,273760440,-0.5386,-0.1025,-0.0010,-113.60,-28.78,171.46
430,273765442,-0.5630,-0.1182,-0.0112,-112.74,-33.23,177.87
431,273770442,-0.6011,-0.1318,-0.0293,-111.28,-37.87,184.21
432,273775442,-0.6411,-0.1514,-0.0352,-109.02,-42.56,190.79
433,273780442,-0.6860,-0.1665,-0.0444,-105.98,-47.01,197.50
434,273785441,-0.7368,-0.1777,-0.0659,-102.01,-51.52,204.33
435,273790444,-0.7769,-0.1836,-0.0732,-97.50,-55.79,211.22
436,273795441,-0.8149,-0.1997,-0.0771,-92.26,-59.82,218.11
437,273800442,-0.8638,-0.2065,-0.0820,-86.59,-63.60,225.12
438,273805441,-0.9038,-0.2114,-0.1021,-80.73,-67.20,231.95
439,273810440,-0.9521,-0.2173,-0.1006,-74.57,-70.55,238.54
440,273815442,-1.0029,-0.2178,-0.1152,-68.35,-73.60,245.24
441,273820442,-1.0552,-0.2251,-0.1211,-62.56,-76.28,251.59
442,273825442,-1.1128,-0.2285,-0.1284,-56.83,-78.66,257.74
443,273830440,-1.1680,-0.2314,-0.1343,-51.71,-80.73,263.72
444,273835440,-1.2236,-0.2349,-0.1343,-46.77,-82.56,269.63
445,273840442,-1.2856,-0.2368,-0.1333,-41.89,-83.84,275.30
446,273845442,-1.3521,-0.2456,-0.1362,-37.38,-84.63,281.10
447,273850442,-1.4175,-0.2568,-0.1406,-32.99,-84.94,286.83
448,273855441,-1.4824,-0.2510,-0.1406,-28.78,-84.94,292.56
449,273860441,-1.5625,-0.2617,-0.1313,-24.70,-84.27,298.17
450,273865586,-1.6396,-0.2666,-0.1396,-20.73,-82.99,303.72
451,273870444,-1.7100,-0.2651,-0.1504,-16.95,-81.40,309.15
452,273875440,-1.7661,-0.2607,-0.1479,-13.48,-79.15,314.39
453,273880442,-1.8032,-0.2510,-0.1445,-10.55,-76.83,319.27
454,273885440,-1.8286,-0.2402,-0.1509,-8.05,-74.02,323.72
455,273890444,-1.8574,-0.2227,-0.1553,-6.22,-71.10,327.56
456,273895440,-1.8799,-0.2041,-0.1538,-5.37,-68.05,331.04
457,273900442,-1.9033,-0.1851,-0.1577,-5.24,-64.88,333.78
458,273905440,-1.9512,-0.1558,-0.1519,-6.16,-61.34,335.98
459,273910444,-1.9956,-0.1426,-0.1504,-7.74,-57.93,337.74
460,273915440,-2.0425,-0.1367,-0.1558,-9.76,-54.76,339.27
461,273920442,-2.0977,-0.1201,-0.1523,-11.83,-51.59,340.49
462,273925535,-2.1479,-0.0991,-0.1611,-14.09,-48.66,341.34
463,273930444,-2.1987,-0.0791,-0.1577,-16.40,-45.73,342.20
464,273935440,-2.2534,-0.0625,-0.1694,-18.78,-42.93,342.87
465,273940442,-2.3389,-0.0513,-0.1797,-21.04,-40.30,343.41
466,273945440,-2.4404,-0.0532,-0.1934,-23.11,-38.05,343.96
467,273950444,-2.5122,-0.0396,-0.1997,-25.00,-35.98,344.39
468,273955440,-2.5269,-0.0308,-0.2002,-26.28,-34.27,344.82
469,273960443,-2.4932,-0.0156,-0.1992,-26.89,-32.80,344.94
470,273965440,-2.4473,0.0127,-0.1836,-26.95,-31.28,344.63
471,273970444,-2.4028,0.0312,-0.1758,-25.98,-29.70,343.60
472,273975440,-2.3604,0.0537,-0.1611,-24.02,-27.99,342.44
473,273980442,-2.3208,0.0796,-0.1528,-21.46,-26.34,340.79
474,273985440,-2.3110,0.1025,-0.1509,-18.29,-24.63,338.66
475,273990444,-2.3203,0.1245,-0.1411,-14.63,-22.93,336.10
476,273995440,-2.3242,0.1309,-0.1460,-10.79,-21.34,333.35
477,274000442,-2.3027,0.1362,-0.1455,-7.13,-19.82,330.43
478,274005440,-2.2568,0.1494,-0.1401,-3.72,-18.48,327.26
479,274010444,-2.2021,0.1558,-0.1216,-0.18,-16.95,323.84
480,274015440,-2.1602,0.1621,-0.0996,3.11,-15.06,320.61
481,274020442,-2.1479,0.1748,-0.0908,6.83,-13.41,316.89
482,274025440,-2.1553,0.1816,-0.0815,10.79,-11.16,313.11
483,274030632,-2.1416,0.1748,-0.0586,15.06,-9.09,309.33
484,274035441,-2.0996,0.1699,-0.0659,19.39,-6.77,305.37
485,274040442,-2.0298,0.1597,-0.0591,23.23,-4.70,301.46
486,274045441,-1.9463,0.1724,-0.0591,26.71,-2.56,297.32
487,274050443,-1.8643,0.1890,-0.0542,29.70,-0.61,292.80
488,274055441,-1.7944,0.1953,-0.0459,32.68,1.40,288.05
489,274060440,-1.7314,0.2036,-0.0420,35.30,3.23,282.87
490,274065440,-1.6860,0.2114,-0.0366,38.17,5.06,277.68
491,274070440,-1.6396,0.2119,-0.0454,40.73,6.83,272.20
492,274075442,-1.5952,0.2197,-0.0322,43.78,8.48,266.89
493,274080443,-1.5498,0.2227,-0.0435,46.65,10.00,261.40
494,274085442,-1.5073,0.2266,-0.0249,49.70,11.46,255.98
495,274090442,-1.4644,0.2124,-0.0010,52.56,13.29,250.67
496,274095442,-1.4536,0.2271,-0.0254,55.43,14.82,245.43
497,274100440,-1.4648,0.2285,-0.0190,58.23,16.34,240.18
498,274105442,-1.4717,0.2183,-0.0142,61.28,17.93,235.12
499,274110442,-1.4463,0.2153,-0.0142,64.21,19.45,230.12
500,274115441,-1.4033,0.2075,-0.0215,66.71,20.73,225.00
501,274120444,-1.3569,0.2046,-0.0181,68.78,22.01,220.18
502,274125441,-1.3110,0.2114,-0.0234,70.61,23.17,215.12
503,274130442,-1.2627,0.2114,-0.0215,71.83,24.02,210.00
504,274135532,-1.2261,0.2178,-0.0200,72.74,24.88,204.94
505,274140441,-1.2080,0.2246,-0.0244,73.48,25.61,199.63
506,274145442,-1.1865,0.2349,-0.0254,74.02,26.22,194.21
507,274150443,-1.1670,0.2402,-0.0278,74.09,26.52,188.60
508,274155442,-1.1440,0.2354,-0.0317,74.15,26.89,182.99
509,274160442,-1.1113,0.2339,-0.0337,73.84,26.95,177.50
510,274165442,-1.0811,0.2271,-0.0244,73.29,26.95,172.07
511,274170440,-1.0537,0.2207,-0.0220,72.62,26.95,166.89
512,274175442,-1.0288,0.2148,-0.0122,71.89,27.07,161.71
513,274180442,-1.0107,0.2192,-0.0190,71.04,27.20,156.77
514,274185442,-1.0015,0.2241,-0.0200,70.30,27.01,151.89
515,274190442,-0.9966,0.2217,-0.0171,69.27,26.83,147.07
516,274195444,-0.9883,0.2207,-0.0220,68.05,26.65,142.32
517,274200442,-0.9668,0.2197,-0.0269,66.77,26.52,137.56
518,274205441,-0.9497,0.2241,-0.0142,65.24,26.16,132.93
519,274210442,-0.9238,0.2227,-0.0234,63.41,25.61,128.29
520,274215441,-0.9092,0.2324,-0.0264,61.22,24.94,123.60
521,274220442,-0.8906,0.2319,-0.0303,58.78,24.39,118.90
522,274225441,-0.8735,0.2334,-0.0317,56.34,23.54,114.51
523,274230444,-0.8525,0.2324,-0.0283,53.48,22.38,110.00
524,274235441,-0.8403,0.2314,-0.0283,50.67,21.40,105.73
525,274240442,-0.8281,0.2329,-0.0361,47.68,20.24,101.34
526,274245441,-0.8291,0.2358,-0.0312,44.63,19.27,97.20
527,274250442,-0.8203,0.2393,-0.0317,41.71,17.99,93.11
528,274255441,-0.8120,0.2388,-0.0347,38.66,16.89,89.02
529,274260444,-0.7998,0.2427,-0.0391,35.61,15.67,85.85
530,274265441,-0.7910,0.2476,-0.0361,32.74,14.51,81.34
531,274271015,-0.7837,0.2529,-0.0459,29.82,13.23,77.26
532,274275539,-0.7832,0.2559,-0.0366,27.07,12.07,73.35
533,274280443,-0.7822,0.2578,-0.0444,24.39,10.79,69.45
534,274285442,-0.7773,0.2612,-0.0464,22.01,9.45,65.67
535,274290442,-0.7666,0.2612,-0.0493,19.88,8.17,61.95
536,274295442,-0.7466,0.2607,-0.0508,17.80,6.95,58.29
537,274300443,-0.7285,0.2627,-0.0449,16.34,5.91,54.63
538,274305442,-0.7197,0.2661,-0.0444,14.88,4.82,51.16
539,274310442,-0.7124,0.2739,-0.0400,13.84,3.84,47.74
540,274315442,-0.7017,0.2754,-0.0415,13.05,2.93,44.02
541,274320442,-0.6890,0.2808,-0.0425,12.50,2.20,40.61
542,274325442,-0.6694,0.2803,-0.0361,12.20,1.34,37.20
543,274330442,-0.6543,0.2808,-0.0366,12.20,0.85,33.90
544,274335442,-0.6426,0.2842,-0.0347,12.26,0.30,30.55
545,274340442,-0.6333,0.2847,-0.0308,12.62,-0.12,27.38
546,274345442,-0.6240,0.2881,-0.0381,13.29,-0.43,24.21
547,274350442,-0.6187,0.2876,-0.0317,14.21,-0.55,21.10
548,274355442,-0.6084,0.2896,-0.0273,15.18,-0.79,17.93
549,274360440,-0.6030,0.2954,-0.0356,16.28,-0.79,15.00
550,274365442,-0.5977,0.3027,-0.0254,17.50,-0.67,12.07
551,274370442,-0.5962,0.3052,-0.0288,18.54,-0.67,9.15
552,274375440,-0.5986,0.3125,-0.0371,19.76,-0.55,6.10
553,274380442,-0.6001,0.3120,-0.0356,20.67,-0.43,3.17
554,274385444,-0.5981,0.3174,-0.0430,21.28,-0.55,0.18
555,274390442,-0.5977,0.3208,-0.0444,22.01,-0.55,-2.87
556,274395441,-0.5947,0.3325,-0.0444,22.38,-0.67,-5.91
557,274400444,-0.5874,0.3369,-0.0459,22.74,-0.85,-8.96
558,274405441,-0.5825,0.3369,-0.0566,22.87,-1.04,-11.95
559,274410442,-0.5767,0.3530,-0.0645,22.93,-1.34,-15.00
560,274415441,-0.5801,0.3608,-0.0693,22.80,-1.71,-18.05
561,274420440,-0.5815,0.3667,-0.0688,22.74,-2.13,-20.98
562,274425442,-0.5791,0.3691,-0.0752,22.32,-2.50,-23.96
563,274430443,-0.5801,0.3740,-0.0801,21.83,-3.11,-27.01
564,274435442,-0.5771,0.3823,-0.0791,21.28,-3.60,-29.88
565,274440440,-0.5752,0.3862,-0.0835,20.67,-4.09,-32.80
566,274445442,-0.5762,0.3940,-0.0894,19.88,-4.88,-35.73
567,274450443,-0.5781,0.4009,-0.0918,19.02,-5.24,-38.60
568,274455442,-0.5796,0.4023,-0.0977,17.99,-5.85,-41.34
569,274460442,-0.5854,0.4146,-0.1035,17.07,-6.46,-44.02
570,274465442,-0.5840,0.4116,-0.1001,16.10,-7.07,-46.65
571,274470442,-0.5874,0.4209,-0.1074,15.06,-7.44,-49.33
572,274475442,-0.5894,0.4253,-0.1055,14.02,-8.05,-51.83
573,274480440,-0.5938,0.4331,-0.1118,13.11,-8.72,-54.45
574,274485442,-0.5942,0.4399,-0.1196,12.44,-9.57,-56.77
575,274490443,-0.5977,0.4429,-0.1157,12.13,-10.18,-59.21
576,274495442,-0.6001,0.4565,-0.1221,12.01,-10.91,-61.59
577,274500442,-0.6011,0.4609,-0.1201,12.20,-11.52,-63.96
578,274505442,-0.6040,0.4692,-0.1221,12.68,-12.32,-66.16
579,274510442,-0.6089,0.4736,-0.1230,13.54,-13.23,-68.41
580,274515442,-0.6162,0.4834,-0.1304,14.39,-14.02,-70.55
581,274520443,-0.6182,0.4854,-0.1313,15.43,-14.82,-72.62
582,274525442,-0.6211,0.4941,-0.1392,16.59,-15.67,-74.63
583,274530442,-0.6270,0.4946,-0.1357,17.44,-16.46,-76.59
584,274535442,-0.6357,0.4990,-0.1421,18.54,-17.50,-78.23
585,274540442,-0.6362,0.5103,-0.1431,19.33,-18.23,-79.94
586,274545442,-0.6372,0.5137,-0.1460,19.82,-19.09,-81.52
587,274550440,-0.6450,0.5225,-0.1475,20.06,-20.00,-83.23
588,274555443,-0.6587,0.5283,-0.1465,20.18,-20.73,-84.76
589,274560443,-0.6621,0.5356,-0.1499,20.06,-21.46,-86.28
590,274565442,-0.6714,0.5396,-0.1577,19.70,-22.32,-87.62
591,274570440,-0.6777,0.5488,-0.1611,19.09,-23.11,-88.90
592,274575440,-0.6851,0.5527,-0.1597,18.17,-23.90,-90.24
593,274580440,-0.6958,0.5586,-0.1665,17.20,-24.63,-91.52
594,274585442,-0.7021,0.5674,-0.1719,16.04,-25.30,-92.62
595,274590443,-0.7070,0.5679,-0.1650,14.70,-25.91,-93.54
596,274595442,-0.7144,0.5752,-0.1763,13.11,-26.59,-94.63
597,274600441,-0.7222,0.5762,-0.1782,11.34,-27.20,-95.37
598,274605442,-0.7295,0.5864,-0.1860,9.27,-27.56,-96.10
599,274610442,-0.7407,0.5854,-0.1870,7.38,-28.11,-96.71
600,274615442,-0.7451,0.5923,-0.1885,5.00,-28.54,-97.20
601,274620441,-0.7495,0.5942,-0.1875,2.74,-28.90,-97.68
602,274625442,-0.7568,0.5986,-0.1909,0.30,-29.27,-97.99
603,274630442,-0.7666,0.5991,-0.1948,-2.26,-29.45,-98.11
604,274635442,-0.7710,0.6011,-0.1963,-4.82,-29.45,-98.23
605,274640441,-0.7778,0.6050,-0.2021,-6.95,-29.51,-98.41
606,274645442,-0.7852,0.6123,-0.1982,-9.57,-29.63,-98.35
607,274650442,-0.7964,0.6162,-0.1992,-12.62,-29.45,-98.29
608,274655442,-0.8008,0.6182,-0.2012,-15.73,-29.27,-98.29
609,274660440,-0.8120,0.6221,-0.2080,-18.96,-29.15,-98.41
610,274665442,-0.8198,0.6279,-0.2041,-22.32,-28.84,-98.29
611,274670443,-0.8198,0.6284,-0.2070,-25.55,-28.60,-98.23
612,274675442,-0.8208,0.6313,-0.2109,-29.02,-27.99,-97.99
613,274680601,-0.8301,0.6323,-0.2075,-33.05,-27.32,-97.93
614,274685442,-0.8364,0.6392,-0.2065,-35.79,-26.83,-97.62
615,274690441,-0.8364,0.6406,-0.2017,-39.27,-26.10,-97.44
616,274695442,-0.8447,0.6406,-0.2036,-41.40,-25.37,-97.20
617,274700443,-0.8472,0.6411,-0.2051,-43.84,-24.63,-96.89
618,274705442,-0.8545,0.6387,-0.2036,-45.73,-23.90,-96.52
619,274710441,-0.8569,0.6406,-0.1973,-47.56,-23.29,-96.10
620,274715442,-0.8613,0.6445,-0.2031,-49.27,-22.38,-95.73
621,274720442,-0.8672,0.6436,-0.2017,-50.55,-21.65,-95.30
622,274725442,-0.8721,0.6460,-0.2017,-52.01,-20.98,-94.82
623,274730441,-0.8765,0.6445,-0.1982,-53.05,-20.24,-94.27
624,274735442,-0.8813,0.6475,-0.2026,-54.15,-19.51,-93.84
625,274740442,-0.8877,0.6484,-0.1938,-55.06,-18.78,-93.35
626,274745442,-0.8867,0.6450,-0.1885,-55.91,-18.17,-92.74
627,274750441,-0.8906,0.6484,-0.1904,-56.71,-17.32,-92.13
628,274755442,-0.8882,0.6514,-0.1870,-57.62,-16.65,-91.59
629,274760442,-0.8955,0.6489,-0.1865,-58.41,-15.85,-90.91
630,274765444,-0.8989,0.6475,-0.1860,-59.27,-15.12,-90.37
631,274770441,-0.8994,0.6479,-0.1821,-60.00,-14.39,-89.82
632,274775442,-0.8989,0.6475,-0.1831,-60.55,-13.84,-89.09
633,274780442,-0.9009,0.6484,-0.1812,-61.16,-13.23,-88.48
634,274785442,-0.8989,0.6450,-0.1743,-61.65,-12.62,-87.80
635,274790442,-0.8989,0.6436,-0.1694,-62.01,-12.01,-87.13
636,274795442,-0.9028,0.6401,-0.1709,-62.44,-11.34,-86.40
637,274800443,-0.8999,0.6372,-0.1680,-62.62,-10.79,-85.67
638,274805442,-0.8989,0.6328,-0.1602,-62.68,-10.06,-84.88
639,274810442,-0.9028,0.6353,-0.1597,-62.80,-9.70,-84.09
640,274815442,-0.9062,0.6353,-0.1582,-62.74,-9.09,-83.35
641,274820441,-0.9067,0.6299,-0.1514,-62.62,-8.41,-82.56
642,274825442,-0.9058,0.6299,-0.1455,-62.20,-8.05,-81.83
643,274830443,-0.9043,0.6235,-0.1455,-61.71,-7.50,-80.98
644,274835442,-0.9048,0.6191,-0.1504,-61.10,-7.01,-80.24
645,274840441,-0.9033,0.6167,-0.1396,-60.37,-6.65,-79.45
646,274845442,-0.9019,0.6172,-0.1367,-59.51,-6.22,-78.66
647,274850442,-0.9004,0.6118,-0.1362,-58.66,-5.79,-77.93
648,274855442,-0.9062,0.6094,-0.1343,-57.44,-5.49,-77.13
649,274860441,-0.9106,0.6094,-0.1260,-56.22,-5.12,-76.34
650,274865442,-0.9023,0.6030,-0.1274,-54.82,-4.57,-75.49
651,274870443,-0.9077,0.5996,-0.1255,-53.60,-4.51,-74.57
652,274875442,-0.9092,0.6016,-0.1221,-52.07,-4.33,-73.72
653,274880441,-0.9072,0.5933,-0.1226,-50.49,-3.96,-72.87
654,274885443,-0.9033,0.5879,-0.1157,-49.02,-3.90,-72.01
655,274890442,-0.9087,0.5864,-0.1162,-47.32,-3.60,-71.04
656,274895442,-0.9146,0.5820,-0.1187,-45.67,-3.41,-70.24
657,274900442,-0.9141,0.5781,-0.1064,-44.09,-3.41,-69.39
658,274905442,-0.9092,0.5723,-0.1045,-42.56,-3.35,-68.48
659,274910443,-0.9126,0.5723,-0.1157,-41.10,-3.29,-67.56
660,274915442,-0.9116,0.5669,-0.1104,-39.82,-3.17,-66.71
661,274920442,-0.9170,0.5669,-0.1055,-38.48,-2.99,-65.91
662,274925442,-0.9106,0.5654,-0.1001,-37.07,-3.17,-65.06
663,274930443,-0.9121,0.5610,-0.1025,-35.91,-3.17,-64.27
664,274935442,-0.9077,0.5518,-0.0972,-34.39,-3.05,-63.48
665,274940442,-0.9077,0.5547,-0.0957,-32.99,-3.05,-62.74
666,274945442,-0.9106,0.5493,-0.0889,-31.77,-3.05,-61.89
667,274950443,-0.9131,0.5454,-0.0928,-30.37,-3.11,-61.04
668,274955442,-0.9141,0.5391,-0.0894,-29.02,-3.05,-60.24
669,274960442,-0.9043,0.5317,-0.0894,-27.87,-2.99,-59.33
670,274965442,-0.9116,0.5342,-0.0903,-26.59,-3.05,-58.41
671,274970441,-0.9209,0.5322,-0.0879,-25.43,-2.99,-57.56
672,274975597,-0.9116,0.5264,-0.0811,-24.45,-3.11,-56.77
673,274980527,-0.9033,0.5181,-0.0840,-23.35,-3.05,-55.79
674,274985440,-0.9053,0.5171,-0.0781,-22.62,-3.23,-54.88
675,274990440,-0.9116,0.5161,-0.0801,-21.83,-3.23,-53.90
676,274995444,-0.9131,0.5117,-0.0767,-21.22,-3.11,-53.05
677,275000442,-0.9116,0.5122,-0.0806,-20.55,-3.05,-52.13
678,275005442,-0.9077,0.5063,-0.0791,-19.94,-3.11,-51.16
679,275010441,-0.9077,0.5059,-0.0762,-19.15,-2.87,-50.18
680,275015442,-0.9131,0.5000,-0.0776,-18.54,-2.74,-49.15
681,275020442,-0.9116,0.4956,-0.0771,-17.99,-2.68,-48.11
682,275025442,-0.9170,0.4961,-0.0791,-17.56,-2.68,-46.77
683,275030441,-0.9199,0.4937,-0.0757,-17.38,-2.56,-45.61
684,275035442,-0.9199,0.4922,-0.0767,-17.32,-2.56,-44.39
685,275040442,-0.9204,0.4897,-0.0747,-17.56,-2.32,-43.05
686,275045442,-0.9238,0.4893,-0.0713,-17.87,-2.32,-41.77
687,275050443,-0.9194,0.4839,-0.0713,-18.41,-2.13,-40.55
688,275055442,-0.9238,0.4839,-0.0742,-19.02,-1.95,-39.21
689,275060443,-0.9272,0.4844,-0.0737,-19.57,-1.52,-37.93
690,275065442,-0.9277,0.4780,-0.0708,-20.18,-1.28,-36.52
691,275070441,-0.9292,0.4800,-0.0718,-20.73,-0.98,-35.18
692,275075442,-0.9282,0.4741,-0.0679,-21.16,-0.91,-33.78
693,275080443,-0.9331,0.4746,-0.0693,-21.52,-0.43,-32.38
694,275085442,-0.9351,0.4780,-0.0718,-21.59,-0.18,-30.91
695,275090441,-0.9351,0.4697,-0.0708,-21.65,0.06,-29.39
696,275095442,-0.9321,0.4668,-0.0713,-21.52,0.30,-27.87
697,275100443,-0.9355,0.4668,-0.0698,-21.10,0.49,-26.40
698,275105442,-0.9336,0.4624,-0.0703,-20.43,0.67,-24.82
699,275110441,-0.9341,0.4604,-0.0698,-19.94,0.98,-23.41
700,275115442,-0.9326,0.4614,-0.0737,-19.27,1.22,-21.65
701,275120443,-0.9297,0.4551,-0.0693,-18.54,1.34,-20.18
702,275125442,-0.9331,0.4546,-0.0708,-17.74,1.46,-18.72
703,275130441,-0.9316,0.4546,-0.0728,-17.07,1.95,-17.13
704,275135442,-0.9346,0.4482,-0.0659,-16.52,2.13,-15.73
705,275140442,-0.9346,0.4468,-0.0659,-15.85,2.38,-14.21
706,275145442,-0.9312,0.4438,-0.0654,-15.43,2.62,-12.68
707,275150441,-0.9326,0.4385,-0.0684,-14.70,2.80,-11.28
708,275155442,-0.9312,0.4390,-0.0723,-13.90,3.11,-9.82
709,275160441,-0.9312,0.4321,-0.0708,-13.05,3.35,-8.35
710,275165443,-0.9258,0.4321,-0.0659,-12.26,3.54,-6.95
711,275170442,-0.9375,0.4282,-0.0713,-11.28,3.66,-5.49
