# skilleye imu stream v1
# device=xiao_esp32c6 imu=mpu6050 addr=0x68
# rate_hz=200 accel_range_g=16 gyro_range_dps=2000 dlpf_hz=94
# units: accel in g, gyro in deg/s, t_us in microseconds since boot (monotonic)
# no shared clock with the camera -- tap the racket once before each take
# so both recordings share a spike to align on
seq,t_us,ax,ay,az,gx,gy,gz
0,51811671,-0.2148,0.7319,0.9136,22.74,-25.18,-99.63
1,51816624,-0.2212,0.7295,0.9092,21.04,-25.79,-98.90
2,51821622,-0.2251,0.7314,0.9097,19.21,-26.34,-98.29
3,51826622,-0.2349,0.7324,0.9072,17.32,-26.89,-97.62
4,51831622,-0.2456,0.7324,0.9111,15.55,-27.44,-97.13
5,51837075,-0.2476,0.7310,0.9082,14.21,-27.74,-96.59
6,51841622,-0.2578,0.7300,0.9058,13.05,-28.05,-95.91
7,51846622,-0.2695,0.7339,0.9126,12.38,-28.41,-95.24
8,51852052,-0.2769,0.7358,0.9121,11.95,-28.54,-94.51
9,51856622,-0.2861,0.7324,0.9111,12.01,-28.90,-93.84
10,51861622,-0.2930,0.7383,0.9106,12.26,-29.02,-92.87
11,51866622,-0.3057,0.7388,0.9028,12.99,-29.63,-92.01
12,51871622,-0.3125,0.7339,0.8955,13.84,-29.88,-91.16
13,51876621,-0.3228,0.7319,0.8867,14.88,-30.30,-90.12
14,51881626,-0.3330,0.7363,0.8833,16.28,-30.91,-89.21
15,51886621,-0.3384,0.7373,0.8804,17.68,-31.34,-88.23
16,51891622,-0.3457,0.7388,0.8818,19.09,-32.13,-87.32
17,51897058,-0.3545,0.7402,0.8750,20.55,-32.56,-86.46
18,51901622,-0.3687,0.7456,0.8833,21.95,-32.93,-85.67
19,51906622,-0.3804,0.7456,0.8872,23.17,-33.29,-85.06
20,51911622,-0.3877,0.7446,0.8931,24.09,-33.54,-84.33
21,51916622,-0.3916,0.7451,0.8940,24.76,-33.72,-83.60
22,51921624,-0.3950,0.7446,0.8936,25.06,-33.84,-83.11
23,51926621,-0.3994,0.7520,0.9004,25.00,-33.90,-82.68
24,51931807,-0.3994,0.7490,0.9033,24.51,-33.96,-82.26
25,51936622,-0.4019,0.7510,0.9038,23.72,-33.66,-81.95
26,51941620,-0.4131,0.7476,0.9004,22.62,-33.66,-81.71
27,51946620,-0.4150,0.7437,0.9043,21.46,-33.54,-81.40
28,51951620,-0.4258,0.7422,0.9082,20.18,-33.29,-81.16
29,51956622,-0.4297,0.7422,0.8892,18.90,-33.29,-80.98
30,51961623,-0.4282,0.7310,0.8896,17.74,-33.05,-80.73
31,51966622,-0.4292,0.7314,0.8823,16.65,-32.99,-80.43
32,51971622,-0.4287,0.7231,0.8711,15.55,-32.80,-80.30
33,51977045,-0.4185,0.7148,0.8701,14.70,-32.62,-80.24
34,51981622,-0.4072,0.7046,0.8584,14.21,-32.62,-80.12
35,51986621,-0.3989,0.6934,0.8389,14.21,-32.50,-80.00
36,51991828,-0.3921,0.6860,0.8330,14.82,-32.44,-79.70
37,51996622,-0.3892,0.6733,0.8228,16.16,-32.32,-79.39
38,52001798,-0.3906,0.6621,0.8125,18.11,-32.38,-78.90
39,52006622,-0.3911,0.6562,0.8003,20.79,-32.56,-78.35
40,52011622,-0.3892,0.6470,0.7969,24.02,-32.68,-77.62
41,52017019,-0.3799,0.6406,0.8008,27.74,-32.80,-76.83
42,52021622,-0.3726,0.6328,0.7900,32.01,-33.11,-75.91
43,52026623,-0.3604,0.6221,0.7910,36.65,-33.17,-75.00
44,52031622,-0.3540,0.6162,0.7861,41.65,-33.29,-73.96
45,52036622,-0.3457,0.6123,0.7837,47.07,-33.41,-72.87
46,52041622,-0.3394,0.6069,0.7769,52.44,-33.48,-71.83
47,52047077,-0.3301,0.6040,0.7734,57.99,-33.60,-70.79
48,52051622,-0.3228,0.5972,0.7725,63.66,-33.60,-69.82
49,52056622,-0.3130,0.5933,0.7705,69.15,-33.54,-68.78
50,52061622,-0.3071,0.5957,0.7622,74.45,-33.23,-67.99
51,52067177,-0.3042,0.5942,0.7603,79.51,-32.80,-67.26
52,52071622,-0.2969,0.5903,0.7588,84.21,-32.32,-66.52
53,52076622,-0.2905,0.5938,0.7544,88.23,-31.71,-66.04
54,52081622,-0.2817,0.5957,0.7593,91.83,-30.79,-65.67
55,52086622,-0.2793,0.5996,0.7646,94.76,-29.82,-65.55
56,52091622,-0.2754,0.6001,0.7734,97.26,-28.48,-65.55
57,52097134,-0.2773,0.6030,0.7803,99.21,-27.20,-65.67
58,52101622,-0.2773,0.6064,0.7783,100.61,-25.73,-65.73
59,52106622,-0.2783,0.6133,0.7871,101.52,-24.09,-66.22
60,52111622,-0.2827,0.6123,0.7974,102.07,-22.13,-66.65
61,52116624,-0.2905,0.6172,0.8052,102.38,-20.30,-67.13
62,52122096,-0.2949,0.6196,0.8110,102.38,-18.11,-67.62
63,52126622,-0.2983,0.5576,0.8535,102.01,-15.67,-67.62
64,52131622,-0.3125,0.5635,0.8418,101.10,-12.74,-66.95
65,52136626,-0.3271,0.5698,0.8696,99.21,-9.21,-65.73
66,52141622,-0.3252,0.5552,0.8989,95.79,-5.00,-63.78
67,52146661,-0.3203,0.5132,0.8936,90.79,-0.30,-61.16
68,52151798,-0.3140,0.4639,0.8901,83.84,4.70,-57.44
69,52156622,-0.2896,0.4370,0.9102,74.63,10.67,-52.80
70,52161623,-0.2583,0.4248,0.9312,63.23,17.32,-47.38
71,52166622,-0.2119,0.4341,0.9287,49.76,24.39,-41.40
72,52171631,-0.1851,0.4810,0.8779,34.27,31.34,-35.73
73,52176622,-0.1768,0.5190,0.8623,17.01,37.87,-30.73
74,52181876,-0.1826,0.5396,0.8501,-1.95,43.35,-26.59
75,52186622,-0.1924,0.5552,0.8218,-21.83,48.17,-22.99
76,52191622,-0.2158,0.5527,0.8252,-41.65,51.65,-20.00
77,52196730,-0.2466,0.5459,0.8208,-60.24,54.76,-17.32
78,52201622,-0.2769,0.5435,0.8374,-77.07,57.20,-14.94
79,52206622,-0.3018,0.5376,0.8511,-91.59,59.33,-12.62
80,52211626,-0.3232,0.5464,0.8574,-103.60,61.28,-10.49
81,52216622,-0.3374,0.5527,0.8530,-113.54,62.99,-8.54
82,52221622,-0.3457,0.5625,0.8467,-120.98,64.39,-6.65
83,52226622,-0.3472,0.5698,0.8369,-126.16,65.79,-5.12
84,52231621,-0.3467,0.5747,0.8394,-128.84,67.13,-3.72
85,52236620,-0.3433,0.5884,0.8496,-129.39,68.29,-2.32
86,52241620,-0.3569,0.5845,0.8413,-127.93,69.33,-0.91
87,52246620,-0.3760,0.5728,0.8418,-124.57,70.12,0.49
88,52251620,-0.4014,0.5698,0.8550,-119.70,70.91,2.07
89,52256620,-0.4219,0.5713,0.8550,-112.13,71.65,4.15
90,52261622,-0.4355,0.5640,0.8525,-106.34,72.13,5.61
91,52266622,-0.4399,0.5571,0.8486,-98.60,72.56,7.50
92,52271907,-0.4487,0.5547,0.8550,-90.55,72.68,9.27
93,52276622,-0.4619,0.5601,0.8545,-82.44,72.74,11.10
94,52281622,-0.4707,0.5586,0.8628,-74.27,72.74,12.74
95,52286622,-0.4727,0.5537,0.8643,-66.10,72.68,14.45
96,52291621,-0.4731,0.5493,0.8613,-58.05,72.38,15.91
97,52296622,-0.4736,0.5444,0.8613,-50.49,72.07,17.38
98,52301753,-0.4697,0.5439,0.8647,-43.23,71.71,18.66
99,52306622,-0.4678,0.5454,0.8628,-36.71,71.16,19.88
100,52311622,-0.4644,0.5498,0.8667,-30.98,70.73,20.98
101,52316621,-0.4678,0.5469,0.8564,-26.46,70.00,21.77
102,52322147,-0.4663,0.5483,0.8506,-22.74,69.33,22.44
103,52326622,-0.4653,0.5483,0.8564,-20.06,68.48,22.99
104,52331621,-0.4639,0.5469,0.8599,-18.41,67.93,23.29
105,52336622,-0.4604,0.5518,0.8687,-17.62,67.01,23.54
106,52341622,-0.4663,0.5586,0.8794,-17.68,66.52,23.48
107,52346624,-0.4722,0.5659,0.8896,-18.60,66.16,23.35
108,52351622,-0.4902,0.5757,0.9067,-20.24,65.73,23.05
109,52356622,-0.5029,0.5840,0.9224,-22.56,65.67,22.56
110,52361622,-0.5029,0.5889,0.9321,-25.24,65.61,21.95
111,52366624,-0.5010,0.5923,0.9482,-28.17,65.49,21.46
112,52371622,-0.4995,0.6006,0.9629,-30.91,65.55,20.98
113,52376621,-0.5059,0.6035,0.9805,-33.48,65.61,20.61
114,52381966,-0.5112,0.6064,0.9966,-35.79,65.55,20.37
115,52386623,-0.4844,0.5732,0.9668,-37.68,65.30,20.43
116,52391620,-0.4736,0.5942,1.0586,-37.87,65.24,20.73
117,52396622,-0.5273,0.6211,1.0708,-38.11,65.73,20.85
118,52401622,-0.6099,0.6416,1.0010,-38.90,65.55,21.04
119,52407099,-0.6479,0.6416,1.0195,-39.57,65.00,21.40
120,52411622,-0.6235,0.6382,1.0400,-40.24,64.02,22.01
121,52416622,-0.6230,0.6230,1.0352,-41.10,63.05,22.99
122,52421622,-0.6465,0.6016,1.0186,-41.52,61.77,24.27
123,52426622,-0.6602,0.5801,1.0220,-41.28,60.12,25.79
124,52431622,-0.6748,0.5620,1.0288,-40.43,58.17,27.80
125,52437101,-0.6787,0.5586,1.0103,-39.02,55.91,30.12
126,52441622,-0.6694,0.5508,1.0020,-37.26,53.29,32.74
127,52446622,-0.6475,0.5474,0.9922,-35.18,50.49,35.61
128,52451621,-0.6133,0.5410,0.9849,-32.93,47.07,38.35
129,52456947,-0.5806,0.5288,0.9771,-30.67,43.90,41.10
130,52461622,-0.5625,0.5205,0.9619,-28.60,40.37,44.02
131,52466622,-0.5566,0.5054,0.9634,-26.65,36.71,46.89
132,52471624,-0.5610,0.5024,0.9565,-24.76,33.05,49.63
133,52476622,-0.5732,0.4932,0.9497,-22.93,29.57,52.38
134,52481915,-0.5801,0.4854,0.9497,-21.34,25.98,55.00
135,52486622,-0.5889,0.4790,0.9517,-19.82,22.62,57.74
136,52491622,-0.6011,0.4688,0.9458,-18.41,19.15,60.37
137,52496621,-0.6113,0.4639,0.9458,-17.26,15.98,62.99
138,52501622,-0.6167,0.4609,0.9385,-16.59,12.80,65.37
139,52506622,-0.6289,0.4541,0.9414,-16.16,9.88,67.68
140,52511622,-0.6362,0.4546,0.9438,-15.98,7.20,69.63
141,52516622,-0.6479,0.4614,0.9395,-16.04,4.70,71.40
142,52521626,-0.6621,0.4590,0.9355,-16.22,2.38,72.93
143,52526622,-0.6704,0.4629,0.9517,-16.59,0.37,74.27
144,52531621,-0.6753,0.4595,0.9487,-16.89,-1.10,75.24
145,52536620,-0.6748,0.4629,0.9497,-17.13,-2.87,76.28
146,52541622,-0.6782,0.4683,0.9478,-17.99,-4.57,77.26
147,52546621,-0.6792,0.4731,0.9541,-18.48,-5.61,77.68
148,52551620,-0.6816,0.4727,0.9502,-19.27,-6.89,78.05
149,52556620,-0.6875,0.4839,0.9526,-20.12,-7.99,78.23
150,52561622,-0.6934,0.4810,0.9546,-21.34,-9.09,78.17
151,52566622,-0.6934,0.4780,0.9609,-22.32,-9.94,77.93
152,52571622,-0.6953,0.4741,0.9487,-23.05,-10.61,77.68
153,52576621,-0.6880,0.4810,0.9438,-24.21,-11.40,77.20
154,52581622,-0.6919,0.4766,0.9556,-25.30,-12.44,76.46
155,52586622,-0.6836,0.4834,0.9478,-25.79,-13.05,75.91
156,52591622,-0.6855,0.4844,0.9443,-26.40,-13.66,75.00
157,52596622,-0.6851,0.4834,0.9512,-26.52,-14.39,74.39
158,52601622,-0.6777,0.4814,0.9561,-26.65,-14.88,73.54
159,52606975,-0.6704,0.4839,0.9604,-26.16,-15.49,72.32
160,52611622,-0.6621,0.4780,0.9590,-25.67,-15.79,71.59
161,52616622,-0.6567,0.4771,0.9678,-25.00,-16.04,70.67
162,52622056,-0.6431,0.4761,0.9663,-24.15,-16.34,69.63
163,52626622,-0.6416,0.4829,0.9668,-23.78,-16.46,69.09
164,52631622,-0.6353,0.4795,0.9604,-23.54,-16.89,68.48
165,52636622,-0.6348,0.4863,0.9609,-23.78,-17.80,67.87
166,52641622,-0.6362,0.4868,0.9580,-24.33,-18.35,67.62
167,52646622,-0.6299,0.4893,0.9463,-25.30,-19.39,67.32
168,52652098,-0.6265,0.4917,0.9434,-26.59,-21.04,67.20
169,52656622,-0.6372,0.4902,0.9507,-27.13,-22.38,67.20
170,52661622,-0.6436,0.4888,0.9556,-27.32,-23.90,67.44
171,52667079,-0.6499,0.4849,0.9629,-26.65,-26.04,67.80
172,52671623,-0.6562,0.4888,0.9746,-25.91,-27.26,68.29
173,52676621,-0.6621,0.4902,0.9854,-24.57,-28.90,69.02
174,52681966,-0.6685,0.4922,0.9873,-22.80,-30.85,69.82
175,52686622,-0.6689,0.4927,0.9976,-21.52,-32.01,70.49
176,52691622,-0.6694,0.4893,1.0093,-20.12,-33.41,71.28
177,52696622,-0.6758,0.4941,1.0176,-18.66,-34.94,72.32
178,52701621,-0.6772,0.4927,1.0171,-17.50,-36.22,73.11
179,52706622,-0.6733,0.4941,1.0186,-17.01,-37.50,74.21
180,52711622,-0.6670,0.5063,1.0244,-17.32,-38.90,75.00
181,52716622,-0.6582,0.5186,1.0122,-18.72,-40.30,75.91
182,52721622,-0.6553,0.5234,1.0073,-19.88,-41.46,76.46
183,52726622,-0.6523,0.5396,1.0044,-22.20,-43.29,77.01
184,52731622,-0.6431,0.5386,1.0044,-23.54,-44.51,77.44
185,52736622,-0.6343,0.5400,1.0107,-24.57,-46.16,77.93
186,52741981,-0.6245,0.5435,1.0234,-25.18,-47.93,78.48
187,52746622,-0.6099,0.5347,1.0117,-24.94,-49.09,78.90
188,52751622,-0.6055,0.5498,1.0474,-24.15,-50.18,79.39
189,52757119,-0.6328,0.5620,1.0337,-22.80,-51.52,79.70
190,52761622,-0.6499,0.5723,1.0239,-22.07,-52.26,79.94
191,52766622,-0.6372,0.5693,1.0303,-21.40,-53.60,79.88
192,52772115,-0.6084,0.5732,1.0317,-20.61,-54.94,79.94
193,52776622,-0.5913,0.5708,1.0352,-20.18,-55.98,80.00
194,52781622,-0.5791,0.5708,1.0298,-19.57,-57.20,79.94
195,52786622,-0.5708,0.5776,1.0356,-19.27,-58.29,80.00
196,52791622,-0.5601,0.5806,1.0342,-19.21,-59.63,79.88
197,52796622,-0.5479,0.5845,1.0386,-19.39,-60.73,79.82
198,52801622,-0.5410,0.5894,1.0366,-19.76,-62.07,79.82
199,52806622,-0.5239,0.5962,1.0352,-20.24,-63.78,79.63
200,52811622,-0.5215,0.5977,1.0361,-20.37,-65.00,79.57
201,52816622,-0.5137,0.5986,1.0396,-20.24,-66.77,79.45
202,52821974,-0.4946,0.5957,1.0508,-19.33,-68.60,79.21
203,52826622,-0.4766,0.5894,1.0522,-18.17,-69.76,79.09
204,52831621,-0.4639,0.5898,1.0630,-16.16,-71.34,79.09
205,52836620,-0.4507,0.5845,1.0527,-13.78,-72.87,79.21
206,52841620,-0.4409,0.5781,1.0488,-10.98,-74.27,79.33
207,52846620,-0.4277,0.5747,1.0596,-7.93,-75.79,79.57
208,52851622,-0.4072,0.5684,1.0488,-5.06,-76.89,79.88
209,52856620,-0.3867,0.5649,1.0400,-2.20,-78.41,80.06
210,52861622,-0.3687,0.5688,1.0430,0.37,-79.70,80.24
211,52866622,-0.3545,0.5620,1.0396,2.87,-80.91,80.55
212,52871932,-0.3403,0.5610,1.0352,5.43,-82.56,80.67
213,52876622,-0.3315,0.5630,1.0381,7.20,-83.54,80.79
214,52881622,-0.3135,0.5581,1.0317,9.39,-84.70,80.79
215,52886622,-0.2925,0.5586,1.0356,11.83,-85.73,80.67
216,52891622,-0.2798,0.5566,1.0371,14.88,-86.83,80.61
217,52896622,-0.2651,0.5557,1.0454,16.95,-87.56,80.37
218,52901622,-0.2520,0.5605,1.0566,19.45,-88.17,80.06
219,52906977,-0.2295,0.5552,1.0591,22.07,-88.78,79.39
220,52911622,-0.2085,0.5547,1.0698,23.90,-88.96,78.96
221,52916622,-0.1851,0.5527,1.0742,25.98,-89.27,78.29
222,52921622,-0.1714,0.5522,1.0781,27.01,-89.45,77.80
223,52926622,-0.1582,0.5483,1.0737,28.23,-89.51,77.07
224,52931622,-0.1465,0.5464,1.0840,28.96,-89.63,76.59
225,52936622,-0.1411,0.5493,1.0918,29.21,-89.76,76.04
226,52941758,-0.1284,0.5488,1.0977,29.39,-89.82,75.55
227,52946622,-0.1143,0.5479,1.0928,29.27,-89.76,75.12
228,52951622,-0.1055,0.5562,1.1055,28.78,-89.94,74.57
229,52956622,-0.1001,0.5625,1.1011,27.68,-90.37,74.09
230,52961622,-0.0854,0.5605,1.1074,26.77,-90.73,73.72
231,52966622,-0.0825,0.5625,1.1177,25.49,-91.34,73.05
232,52971622,-0.0737,0.5659,1.1235,23.84,-92.13,72.62
233,52976622,-0.0698,0.5645,1.1309,22.50,-92.80,72.26
234,52981621,-0.0654,0.5645,1.1323,20.85,-93.54,71.83
235,52986622,-0.0645,0.5635,1.1382,18.90,-93.90,71.52
236,52991622,-0.0596,0.5591,1.1274,16.83,-95.00,71.22
237,52996626,-0.0522,0.5576,1.1279,13.84,-96.16,70.85
238,53001622,-0.0488,0.5571,1.1284,11.77,-97.01,70.67
239,53006622,-0.0425,0.5503,1.1323,9.33,-98.11,70.49
240,53011621,-0.0391,0.5430,1.1260,7.01,-99.33,70.55
241,53017010,-0.0391,0.5464,1.1240,4.57,-100.55,70.55
242,53021622,-0.0391,0.5454,1.1328,3.05,-101.34,70.43
243,53026622,-0.0317,0.5439,1.1270,1.65,-102.50,70.43
244,53031622,-0.0342,0.5566,1.1270,0.49,-103.54,70.24
245,53036622,-0.0303,0.5610,1.1255,-0.12,-104.39,70.24
246,53041622,-0.0278,0.5732,1.1299,-0.61,-105.37,70.12
247,53046622,-0.0317,0.5752,1.1396,-1.40,-106.34,69.82
248,53051622,-0.0278,0.5781,1.1270,-2.13,-107.07,69.57
249,53056622,-0.0205,0.5928,1.1157,-3.17,-108.48,69.33
250,53061622,-0.0132,0.5996,1.1162,-3.66,-109.27,68.96
251,53066622,-0.0039,0.6025,1.1030,-4.09,-110.61,68.72
252,53071622,-0.0059,0.5962,1.0942,-3.90,-112.50,68.54
253,53076622,-0.0103,0.5850,1.0942,-3.17,-113.60,68.54
254,53081622,0.0210,0.5723,1.1011,-1.46,-115.06,68.90
255,53087078,0.0308,0.5562,1.0806,1.95,-116.71,69.57
256,53091622,0.0312,0.5483,1.0620,4.82,-117.80,70.37
257,53096620,0.0229,0.5327,1.0664,9.21,-119.33,71.59
258,53102057,0.0190,0.5107,1.0620,15.06,-120.61,73.17
259,53106622,0.0190,0.4927,1.0337,19.15,-121.52,74.39
260,53111622,0.0220,0.4761,1.0278,24.39,-122.44,76.16
261,53116622,0.0312,0.4653,1.0112,29.57,-123.23,77.80
262,53121624,0.0332,0.4551,0.9888,34.94,-124.15,79.70
263,53126622,0.0469,0.4443,0.9746,37.93,-124.45,80.98
264,53131621,0.0674,0.4390,0.9502,41.04,-124.94,82.26
265,53136620,0.0811,0.4351,0.9365,43.17,-125.00,83.23
266,53141620,0.0908,0.4263,0.9189,44.33,-125.00,84.15
267,53146620,0.1021,0.4170,0.9077,44.33,-124.76,84.88
268,53151620,0.1143,0.4150,0.8818,43.17,-124.27,85.18
269,53156620,0.1250,0.4106,0.8667,40.91,-123.78,85.06
270,53161622,0.1421,0.4097,0.8496,37.87,-123.05,84.63
271,53166622,0.1616,0.4067,0.8223,32.99,-122.13,83.78
272,53171622,0.1685,0.4023,0.7944,29.45,-121.46,83.11
273,53176622,0.1646,0.3979,0.7700,24.76,-120.61,82.26
274,53181993,0.1670,0.3804,0.7759,19.21,-119.51,80.98
275,53186622,0.1807,0.3721,0.7397,15.49,-118.72,80.18
276,53191623,0.1836,0.3613,0.7192,10.91,-117.74,79.21
277,53196622,0.1807,0.3516,0.7021,6.65,-116.65,77.99
278,53201621,0.1816,0.3350,0.6748,2.56,-115.55,76.95
279,53206622,0.1836,0.3242,0.6431,-1.34,-114.33,75.67
280,53211620,0.1948,0.3101,0.6216,-5.12,-113.41,74.45
281,53216657,0.2075,0.2969,0.6030,-8.54,-112.32,73.23
282,53221622,0.2031,0.2852,0.5645,-11.46,-111.28,72.01
283,53226622,0.2158,0.2690,0.5664,-13.96,-110.37,70.73
284,53231622,0.2344,0.2524,0.5420,-16.40,-109.09,69.45
285,53236622,0.2397,0.2422,0.5161,-18.48,-107.80,68.17
286,53242026,0.2393,0.2256,0.4976,-20.79,-106.40,66.71
287,53246622,0.2349,0.2202,0.4888,-22.20,-105.18,65.73
288,53251622,0.2329,0.2139,0.4604,-23.90,-103.72,64.39
289,53257112,0.2324,0.1987,0.4336,-25.67,-101.95,62.74
290,53261622,0.2456,0.1958,0.4312,-26.65,-100.73,61.77
291,53266622,0.2510,0.2090,0.4067,-27.80,-99.02,60.37
292,53272080,0.2671,0.2056,0.3989,-28.72,-97.01,58.48
293,53276622,0.2866,0.1807,0.4082,-29.39,-95.61,57.20
294,53281622,0.2920,0.1890,0.4165,-29.94,-93.17,55.79
295,53287001,0.3350,0.2085,0.5186,-30.61,-90.37,53.72
296,53291622,0.4116,0.1719,0.7666,-31.34,-87.50,52.26
297,53296622,0.4678,0.1299,0.8438,-32.87,-83.05,50.98
298,53301622,0.4961,0.0874,0.7554,-34.39,-79.02,49.88
299,53306682,0.5244,0.0718,0.7139,-35.55,-75.30,49.02
300,53311676,0.5249,0.1064,0.6445,-35.98,-72.13,48.35
301,53316622,0.5327,0.1528,0.5625,-35.79,-69.39,47.20
302,53321645,0.5200,0.1934,0.5610,-35.49,-66.71,45.73
303,53326622,0.4893,0.2451,0.5063,-34.57,-63.66,44.02
304,53332031,0.4365,0.2524,0.5684,-32.38,-60.30,41.83
305,53336623,0.3813,0.2544,0.5586,-31.10,-57.74,40.18
306,53341620,0.4033,0.1797,0.5596,-30.24,-54.15,38.11
307,53346622,0.4556,0.1519,0.5762,-29.45,-50.12,36.52
308,53351622,0.5244,0.1562,0.5117,-28.72,-46.46,35.24
309,53356622,0.5879,0.1870,0.4482,-28.05,-42.68,33.54
310,53361622,0.6196,0.2485,0.4438,-27.62,-40.43,32.07
311,53366622,0.6304,0.2949,0.4424,-27.20,-37.26,29.94
312,53371622,0.6245,0.3320,0.3999,-26.59,-33.96,26.89
313,53376622,0.6270,0.2529,0.3193,-26.22,-31.95,24.94
314,53381621,0.6416,0.1543,0.3052,-25.79,-29.57,22.99
315,53387010,0.6343,0.1729,0.3350,-25.18,-26.89,21.46
316,53391622,0.6221,0.2295,0.3750,-24.09,-23.78,19.39
317,53396622,0.6040,0.2202,0.4375,-22.62,-20.18,17.07
318,53401622,0.5962,0.2441,0.5532,-21.65,-15.98,14.76
319,53406622,0.6069,0.2510,0.5859,-20.61,-11.52,12.32
320,53411622,0.6416,0.2666,0.5020,-19.33,-7.93,9.88
321,53416621,0.6782,0.2764,0.4810,-17.44,-4.76,7.56
322,53421622,0.6919,0.2788,0.5239,-15.18,-1.89,5.30
323,53426620,0.6792,0.2969,0.5181,-12.74,0.85,3.23
324,53431622,0.6558,0.3140,0.5000,-9.63,3.29,1.22
325,53436623,0.6343,0.3301,0.5186,-6.16,5.61,-0.55
326,53441620,0.6147,0.3354,0.5273,-2.50,8.11,-2.13
327,53446620,0.6045,0.3335,0.5107,1.46,10.43,-3.54
328,53451620,0.5962,0.3291,0.4868,5.79,12.38,-4.70
329,53456621,0.5933,0.3276,0.4819,10.18,14.27,-5.49
330,53461622,0.5938,0.3188,0.4961,14.94,16.04,-6.16
331,53466908,0.5981,0.3271,0.4854,19.88,17.87,-6.65
332,53471622,0.6016,0.3359,0.4824,25.00,19.63,-7.07
333,53476622,0.6011,0.3521,0.4883,31.28,21.77,-7.38
334,53481622,0.6030,0.3652,0.5059,35.37,23.17,-7.56
335,53486622,0.6147,0.3726,0.5117,40.43,24.82,-7.87
336,53491622,0.6245,0.3804,0.5244,46.28,26.77,-8.17
337,53496623,0.6318,0.3862,0.5342,50.00,28.11,-8.35
338,53501994,0.6377,0.3828,0.5630,54.21,29.45,-8.66
339,53506622,0.6475,0.3906,0.5742,57.87,30.98,-8.90
340,53512063,0.6606,0.3979,0.5889,60.73,32.07,-9.15
341,53516622,0.6665,0.4058,0.6128,62.62,33.17,-9.39
342,53521753,0.6787,0.4121,0.6221,63.48,34.09,-9.70
343,53527030,0.6890,0.4180,0.6270,63.35,34.63,-10.00
344,53531622,0.6924,0.4229,0.6470,62.26,35.30,-10.24
345,53536843,0.6953,0.4263,0.6572,60.12,35.61,-10.49
346,53541622,0.6982,0.4316,0.6660,57.50,35.73,-10.55
347,53546622,0.7090,0.4297,0.6875,54.09,35.85,-10.55
348,53551622,0.7236,0.4312,0.7090,50.24,36.10,-10.43
349,53556622,0.7349,0.4424,0.7437,46.04,36.28,-10.30
350,53562071,0.7505,0.4536,0.7646,41.52,36.46,-10.06
351,53566622,0.7734,0.4736,0.7979,36.59,36.46,-10.06
352,53571622,0.7896,0.4873,0.8369,31.34,36.71,-10.06
353,53577066,0.8115,0.4971,0.8721,25.67,36.89,-10.18
354,53581622,0.8335,0.5083,0.9258,19.88,36.83,-10.24
355,53586622,0.8501,0.5161,0.9585,13.41,36.71,-10.43
356,53591622,0.8652,0.5176,1.0068,6.59,36.16,-10.55
357,53596621,0.8760,0.5288,1.0386,-0.67,35.43,-10.79
358,53601620,0.8828,0.5356,1.0669,-8.23,34.57,-10.85
359,53606620,0.8877,0.5391,1.0913,-15.91,33.35,-10.98
360,53611620,0.8887,0.5400,1.1187,-23.41,31.95,-10.98
361,53616622,0.8926,0.5449,1.1562,-30.67,30.30,-10.85
362,53621621,0.8921,0.5444,1.1772,-37.32,28.41,-10.73
363,53626622,0.8955,0.5488,1.2065,-43.23,26.46,-10.49
364,53631620,0.9009,0.5571,1.2417,-48.17,24.27,-9.94
365,53636622,0.8994,0.5713,1.2729,-52.07,21.71,-9.45
366,53641622,0.8984,0.5752,1.3096,-54.88,18.96,-8.84
367,53647097,0.8921,0.5786,1.3296,-56.83,15.85,-7.99
368,53651622,0.8779,0.5742,1.3760,-57.93,12.44,-6.95
369,53656622,0.8677,0.5649,1.4126,-58.23,8.60,-5.67
370,53662131,0.8516,0.5532,1.4263,-57.99,4.45,-4.27
371,53666622,0.8364,0.5508,1.4497,-57.87,-0.30,-2.68
372,53671622,0.8291,0.5601,1.4819,-57.62,-5.06,-1.04
373,53676622,0.8198,0.5645,1.4849,-57.38,-10.55,0.67
374,53682035,0.8081,0.5542,1.4873,-57.50,-16.28,2.32
375,53686622,0.7964,0.5552,1.5146,-57.56,-22.01,4.15
376,53691622,0.7964,0.5620,1.5342,-57.80,-28.11,6.04
377,53696622,0.7969,0.5708,1.5166,-58.17,-34.45,7.87
378,53701622,0.7905,0.5908,1.5122,-58.54,-40.98,9.82
379,53706621,0.7798,0.5913,1.5396,-58.96,-47.62,11.71
380,53712019,0.7793,0.5874,1.5386,-59.15,-54.45,13.48
381,53716622,0.7656,0.5752,1.5146,-59.02,-61.28,15.49
382,53721622,0.7490,0.5620,1.5225,-58.54,-68.23,17.44
383,53726621,0.7349,0.5586,1.5293,-57.80,-75.37,19.45
384,53731622,0.7173,0.5439,1.5103,-57.07,-82.26,21.46
385,53736620,0.7124,0.5381,1.4800,-56.52,-89.51,23.29
386,53741620,0.7031,0.5293,1.4604,-56.22,-96.40,25.06
387,53746620,0.6768,0.5142,1.4375,-56.10,-103.48,26.77
388,53751624,0.6538,0.5005,1.4087,-56.34,-110.30,28.48
389,53756621,0.6313,0.4888,1.3721,-57.26,-117.07,30.18
390,53761622,0.6074,0.4761,1.3413,-58.66,-123.54,31.59
391,53766765,0.5908,0.4595,1.3135,-60.73,-129.82,32.99
392,53771622,0.5688,0.4429,1.2705,-63.60,-136.04,34.27
393,53776622,0.5459,0.4331,1.2305,-66.95,-142.32,35.43
394,53781622,0.5298,0.4219,1.1948,-71.10,-148.05,36.22
395,53786622,0.5063,0.4160,1.1577,-75.79,-153.84,36.83
396,53791622,0.4902,0.4082,1.1265,-80.98,-159.33,37.07
397,53797083,0.4800,0.3940,1.1084,-86.59,-164.63,37.13
398,53801622,0.4648,0.3916,1.0669,-92.20,-169.76,36.89
399,53806622,0.4458,0.3901,1.0386,-97.50,-174.88,36.40
400,53811622,0.4321,0.3813,1.0054,-102.56,-179.94,35.79
401,53816622,0.4111,0.3789,0.9697,-107.13,-184.76,34.82
402,53821622,0.3965,0.3765,0.9341,-111.16,-189.51,33.72
403,53826621,0.3867,0.3770,0.8862,-114.76,-194.21,32.44
404,53831622,0.3638,0.3721,0.8477,-117.56,-198.90,31.10
405,53836621,0.3423,0.3745,0.8027,-119.51,-203.35,29.39
406,53841742,0.3257,0.3594,0.7705,-120.91,-207.68,27.80
407,53846622,0.3008,0.3535,0.7378,-121.83,-211.83,26.22
408,53851620,0.2812,0.3501,0.6924,-122.26,-215.67,24.45
409,53856622,0.2686,0.3584,0.6470,-122.20,-219.39,22.32
410,53861626,0.2593,0.3179,0.6074,-122.32,-222.93,20.12
411,53866622,0.2554,0.3218,0.5688,-122.32,-226.34,17.80
412,53871622,0.2402,0.3232,0.5312,-122.38,-229.27,15.06
413,53877055,0.2456,0.3101,0.4980,-122.38,-231.89,12.44
414,53881622,0.2393,0.3101,0.4316,-121.95,-234.57,9.76
415,53886622,0.2183,0.2988,0.3916,-120.79,-237.13,7.20
416,53891622,0.2075,0.2930,0.3662,-118.84,-239.51,4.57
417,53896626,0.2056,0.2871,0.3320,-116.34,-241.40,1.95
418,53901622,0.1982,0.2900,0.3022,-113.05,-243.23,-0.79
419,53906623,0.1890,0.2979,0.2734,-108.96,-244.63,-3.54
420,53911622,0.1865,0.2964,0.2407,-104.45,-245.79,-6.46
421,53916622,0.1909,0.2920,0.2104,-99.27,-246.65,-9.33
422,53921622,0.1860,0.3076,0.1729,-93.84,-247.32,-12.26
423,53926622,0.1709,0.2983,0.1362,-88.66,-247.74,-15.49
424,53931624,0.1797,0.2749,0.0938,-83.66,-248.05,-18.48
425,53936622,0.1768,0.2788,0.0557,-78.66,-248.48,-21.34
426,53941622,0.1367,0.2925,-0.0005,-73.72,-248.29,-24.51
427,53946711,0.1064,0.2881,-0.0547,-69.15,-248.17,-27.56
428,53951622,0.0923,0.2773,-0.1016,-65.12,-247.87,-30.37
429,53956622,0.1074,0.2656,-0.1353,-61.46,-247.07,-33.35
430,53962027,0.1255,0.2666,-0.1665,-58.60,-246.16,-36.28
431,53966622,0.1299,0.2583,-0.2183,-56.22,-245.00,-39.33
432,53971622,0.1284,0.2573,-0.2617,-54.33,-243.78,-42.44
433,53977111,0.1226,0.2593,-0.2822,-53.23,-241.83,-45.61
434,53981622,0.1255,0.2676,-0.3120,-52.68,-240.06,-49.02
435,53986621,0.1187,0.2671,-0.3369,-52.80,-237.68,-52.44
436,53991849,0.1138,0.2646,-0.3750,-53.17,-234.88,-55.91
437,53996622,0.1113,0.2671,-0.4062,-53.90,-232.07,-59.45
438,54001622,0.1128,0.2681,-0.4336,-54.63,-228.78,-62.87
439,54006622,0.1167,0.2695,-0.4570,-55.30,-225.37,-66.34
440,54011677,0.1128,0.2759,-0.4971,-55.67,-221.89,-69.70
441,54016622,0.1133,0.2876,-0.5210,-55.61,-218.23,-73.05
442,54021622,0.0977,0.2935,-0.5464,-55.43,-214.39,-76.40
443,54026621,0.0845,0.3052,-0.5840,-54.88,-210.37,-79.70
444,54031621,0.0752,0.3086,-0.6162,-53.90,-206.22,-82.93
445,54036620,0.0659,0.3188,-0.6592,-53.05,-201.95,-86.22
446,54041620,0.0781,0.3135,-0.6792,-52.13,-197.74,-89.57
447,54046621,0.0840,0.3149,-0.7129,-51.40,-193.29,-92.93
448,54051620,0.0850,0.3208,-0.7388,-50.91,-188.84,-96.40
449,54056620,0.0796,0.3364,-0.7480,-50.37,-184.09,-100.18
450,54061625,0.0762,0.3374,-0.7607,-49.70,-178.96,-104.09
451,54066622,0.0737,0.3613,-0.7632,-49.27,-173.35,-108.35
452,54071622,0.0806,0.3813,-0.7666,-49.09,-167.32,-112.99
453,54076624,0.0869,0.3813,-0.7920,-49.27,-160.73,-117.80
454,54081816,0.0850,0.3901,-0.8071,-49.70,-154.09,-122.74
455,54086622,0.0811,0.3975,-0.8276,-50.49,-147.07,-127.87
456,54092081,0.0806,0.3984,-0.8608,-51.59,-139.76,-133.23
457,54096622,0.0552,0.3970,-0.8877,-52.56,-132.38,-138.48
458,54101622,0.0479,0.4160,-0.9082,-53.60,-124.82,-143.90
459,54107060,0.0425,0.4194,-0.9224,-54.51,-117.20,-149.33
460,54111622,0.0205,0.4341,-0.9556,-55.18,-109.57,-154.70
461,54116624,0.0088,0.4478,-0.9839,-55.43,-101.89,-160.24
462,54121622,-0.0156,0.4731,-1.0088,-55.61,-94.21,-165.91
463,54126622,-0.0322,0.5044,-1.0337,-55.37,-86.59,-171.71
464,54131622,-0.0459,0.5435,-1.0571,-55.30,-79.02,-177.87
465,54136621,-0.0605,0.5830,-1.0894,-55.30,-71.46,-184.27
466,54141665,-0.0537,0.6196,-1.1226,-55.61,-63.60,-191.04
467,54146702,-0.0752,0.6499,-1.1494,-56.04,-55.85,-198.17
468,54151622,-0.0967,0.6885,-1.1714,-57.07,-47.62,-205.55
469,54156622,-0.1255,0.7158,-1.1885,-57.99,-39.21,-213.23
470,54161975,-0.1611,0.7451,-1.2173,-58.60,-30.43,-220.85
471,54166622,-0.2036,0.7783,-1.2446,-58.48,-21.28,-228.66
472,54171622,-0.2427,0.7969,-1.2720,-57.07,-11.83,-236.40
473,54176622,-0.2891,0.8335,-1.3032,-54.09,-2.20,-243.96
474,54181622,-0.3252,0.8618,-1.3193,-49.27,7.80,-251.65
475,54186623,-0.3579,0.9058,-1.3345,-42.87,17.80,-259.09
476,54192103,-0.4224,0.9453,-1.3677,-34.82,28.05,-266.52
477,54196628,-0.4609,0.9834,-1.4116,-25.00,37.99,-273.90
478,54201621,-0.5049,1.0361,-1.4458,-13.96,47.74,-281.10
479,54206622,-0.5825,1.0806,-1.5059,-1.28,57.01,-288.29
480,54211621,-0.6064,1.0845,-1.5659,12.74,65.43,-295.24
481,54216686,-0.6597,1.1484,-1.6367,27.20,73.41,-301.83
482,54221620,-0.6938,1.2334,-1.6738,41.95,80.98,-308.60
483,54226622,-0.7461,1.2651,-1.7202,57.07,87.93,-315.18
484,54231622,-0.7554,1.3423,-1.7812,71.40,95.43,-321.59
485,54236958,-0.8062,1.3818,-1.8066,85.55,102.93,-328.23
486,54241622,-0.8354,1.4434,-1.8638,99.02,110.79,-334.51
487,54246621,-0.8838,1.5225,-1.9160,111.77,119.15,-340.91
488,54251622,-0.9834,1.6011,-1.9580,123.66,128.23,-347.13
489,54256622,-1.0317,1.6470,-2.0029,135.61,138.17,-353.17
490,54261622,-1.0918,1.7231,-2.0396,147.56,149.15,-359.02
491,54266752,-1.1562,1.7993,-2.0850,158.72,161.40,-364.76
492,54271622,-1.2285,1.8584,-2.1147,169.39,174.70,-370.24
493,54276622,-1.3032,1.9155,-2.1445,179.45,189.21,-375.30
494,54281937,-1.3462,1.9800,-2.1992,188.48,204.88,-379.82
495,54286622,-1.4175,2.0654,-2.2593,196.52,221.28,-383.54
496,54291622,-1.5288,2.1367,-2.2905,203.60,238.48,-386.83
497,54296622,-1.6489,2.2065,-2.3320,209.88,256.46,-389.21
498,54301622,-1.7476,2.2793,-2.3564,215.30,275.12,-390.85
499,54306622,-1.8628,2.3906,-2.3721,219.57,294.70,-391.65
500,54311622,-1.9624,2.5024,-2.3853,222.80,314.76,-392.01
501,54316622,-2.0713,2.6143,-2.3687,225.61,335.43,-391.46
502,54321622,-2.1426,2.6904,-2.3491,228.05,356.40,-390.12
503,54326622,-2.2251,2.7993,-2.3789,230.00,377.38,-388.05
504,54331621,-2.3154,2.8799,-2.3462,230.91,398.23,-385.30
505,54336623,-2.3911,2.9751,-2.3374,231.04,419.27,-381.46
506,54341726,-2.5098,3.0425,-2.2998,230.98,440.12,-376.65
507,54346709,-2.7212,3.0156,-2.2783,229.27,460.85,-369.57
508,54351620,-2.7563,3.3003,-2.1855,225.85,481.77,-361.89
509,54356620,-2.8198,3.3989,-2.1387,224.15,502.62,-354.82
510,54361622,-2.9077,3.3853,-1.9956,222.32,522.99,-346.52
511,54366624,-2.8003,3.4824,-1.8672,219.57,543.35,-336.52
512,54371912,-2.8442,3.4497,-1.7402,215.98,562.87,-325.98
513,54376622,-2.7363,3.2983,-1.5161,210.37,581.89,-313.90
514,54381622,-2.8657,3.3774,-1.3481,203.84,600.24,-301.16
515,54387113,-2.9126,3.3423,-1.1797,192.99,617.26,-287.38
516,54391622,-2.7720,3.3999,-1.0122,178.41,632.20,-272.01
517,54397044,-2.8770,3.4482,-0.8145,162.50,645.67,-256.34
518,54401622,-2.8252,3.4263,-0.5278,143.90,657.20,-239.88
519,54406624,-2.7153,3.3906,-0.3188,122.32,667.01,-222.62
520,54411622,-2.6274,3.3140,-0.1348,97.38,674.94,-204.70
521,54416850,-2.5576,3.2090,0.1426,69.76,680.98,-185.73
522,54421622,-2.5181,3.1216,0.3442,40.79,685.30,-165.61
523,54426622,-2.5537,3.0552,0.5049,11.28,686.89,-144.45
524,54431622,-2.5063,3.0693,0.7930,-16.16,686.46,-122.87
525,54436622,-2.3594,2.9448,1.0464,-39.63,683.48,-101.71
526,54442021,-2.3105,2.6733,1.1787,-60.91,676.83,-78.84
527,54446622,-2.3188,2.5791,1.2744,-82.13,665.79,-55.61
528,54451621,-2.2637,2.4917,1.4121,-102.50,650.49,-32.13
529,54456622,-2.1987,2.3833,1.5298,-121.04,631.34,-8.48
530,54461620,-2.1279,2.2529,1.5610,-136.77,607.99,15.43
531,54466751,-2.0688,2.1411,1.7549,-148.54,581.28,39.51
532,54471622,-2.0200,2.0317,1.9556,-154.82,552.56,63.35
533,54476622,-1.9058,1.9487,2.1304,-155.00,523.29,86.46
534,54481622,-1.7451,1.8926,2.2622,-148.72,494.63,108.29
535,54486626,-1.6040,1.7910,2.2661,-138.11,466.04,128.23
536,54491622,-1.5244,1.6587,2.2168,-125.37,436.46,146.40
537,54496622,-1.4717,1.5332,2.2803,-111.28,406.40,162.74
538,54502101,-1.3926,1.4268,2.3511,-96.34,376.95,177.32
539,54506622,-1.3179,1.3462,2.3530,-83.41,353.29,187.50
540,54511622,-1.1895,1.2300,2.4033,-62.50,318.72,200.55
541,54516911,-1.0640,1.1338,2.4409,-44.45,290.85,209.33
542,54521638,-0.9448,1.0415,2.4102,-26.40,263.54,216.28
543,54526621,-0.8428,0.9619,2.3413,-9.27,237.50,221.83
544,54531624,-0.7549,0.8794,2.2935,6.28,212.38,225.67
545,54536626,-0.6704,0.8145,2.2207,20.24,188.60,228.35
546,54541622,-0.5908,0.7544,2.1592,29.88,170.61,229.70
547,54547008,-0.4014,0.7041,1.9609,41.65,145.37,230.73
548,54551622,-0.5801,0.7681,1.9810,48.54,129.39,230.12
549,54556621,-0.4639,0.6816,1.9658,55.67,111.52,229.02
550,54561623,-0.2622,0.5957,1.8564,62.50,91.10,227.20
551,54566620,-0.1914,0.4829,1.7529,65.49,77.99,225.67
552,54571622,-0.1367,0.4595,1.7202,67.68,62.87,223.17
553,54576813,-0.0693,0.4028,1.6401,68.23,45.91,219.63
554,54581622,-0.0254,0.4248,1.5229,67.32,35.00,217.01
555,54586622,0.0347,0.3906,1.5020,65.24,22.50,213.48
556,54592006,0.1006,0.3535,1.4512,61.52,8.72,208.90
557,54596622,0.1289,0.2900,1.3945,59.02,0.43,205.85
558,54601622,0.1748,0.2964,1.3101,54.76,-11.65,200.85
559,54606622,0.2114,0.3047,1.3047,51.83,-19.09,197.38
560,54611622,0.2773,0.2798,1.2515,47.68,-29.33,191.83
561,54616622,0.3120,0.2749,1.2026,44.94,-35.73,188.05
562,54621622,0.3320,0.2661,1.1719,41.71,-42.87,183.35
563,54626622,0.3774,0.2329,1.1401,39.02,-49.27,178.60
564,54631622,0.4185,0.2217,1.1016,36.83,-55.00,173.90
565,54636621,0.4272,0.2090,1.0605,35.79,-59.94,169.09
566,54641620,0.5010,0.1743,1.0225,35.49,-64.27,164.39
567,54646620,0.5317,0.1851,0.9614,35.24,-68.17,159.76
568,54651620,0.5249,0.2349,0.8853,35.37,-71.77,154.82
569,54656621,0.5474,0.2056,0.8599,36.16,-74.88,149.94
570,54661879,0.6187,0.1714,0.8125,36.71,-78.17,144.39
571,54666623,0.6167,0.1753,0.7622,36.59,-80.00,140.73
572,54671713,0.6187,0.1836,0.6802,37.01,-83.11,135.06
573,54676622,0.6426,0.1562,0.6689,36.59,-84.94,131.46
574,54682112,0.6426,0.1729,0.6221,35.12,-87.38,126.10
575,54686622,0.6440,0.2007,0.5518,33.84,-88.90,122.56
576,54691900,0.6753,0.1812,0.5107,32.01,-91.04,117.32
577,54696622,0.7090,0.1543,0.5498,30.24,-91.77,114.09
578,54701967,0.7183,0.1812,0.5127,26.95,-92.99,109.21
579,54706622,0.7095,0.1665,0.4619,24.94,-93.54,105.85
580,54711626,0.7446,0.1284,0.4272,21.28,-94.57,101.10
581,54716622,0.7422,0.1304,0.4121,18.35,-94.94,98.17
582,54721623,0.7012,0.1157,0.3760,13.35,-94.94,94.09
583,54726622,0.6616,0.1460,0.3350,9.70,-94.45,91.04
584,54731621,0.6968,0.1436,0.3115,5.24,-94.33,87.93
585,54736931,0.7524,0.1406,0.2715,-0.67,-93.72,83.29
586,54741622,0.7798,0.1089,0.2739,-4.82,-93.41,80.49
587,54746622,0.8149,0.0850,0.2510,-10.43,-92.93,77.44
588,54751621,0.8174,0.0967,0.2090,-16.04,-92.56,74.27
589,54756622,0.8086,0.0996,0.1948,-21.04,-91.71,70.91
590,54761693,0.8276,0.0938,0.1987,-25.67,-91.46,67.87
591,54766622,0.8379,0.0938,0.1689,-30.18,-90.73,64.70
592,54771622,0.8374,0.0986,0.1431,-34.57,-89.82,61.71
593,54776622,0.8472,0.1094,0.1353,-38.54,-88.90,58.66
594,54782000,0.8628,0.1035,0.1201,-42.80,-87.74,55.37
595,54786622,0.8735,0.0977,0.0967,-45.18,-86.77,53.11
596,54791620,0.8838,0.0869,0.0757,-48.17,-85.79,50.55
597,54796624,0.8838,0.0850,0.0630,-50.85,-84.57,48.05
598,54801622,0.8877,0.0864,0.0415,-53.41,-83.35,45.67
599,54806964,0.8760,0.0869,0.0098,-55.91,-81.95,42.99
600,54811622,0.8711,0.0889,-0.0068,-57.20,-80.85,41.28
601,54816622,0.8774,0.0962,-0.0195,-58.84,-79.21,38.72
602,54821622,0.8804,0.0952,-0.0200,-59.70,-77.93,37.07
603,54826868,0.8843,0.0981,-0.0278,-60.61,-75.85,34.57
604,54831622,0.8809,0.1025,-0.0264,-61.04,-74.27,32.99
605,54836621,0.8760,0.1021,-0.0195,-61.59,-72.20,30.98
606,54841960,0.8765,0.1040,-0.0088,-62.26,-69.45,28.66
607,54846622,0.8706,0.1074,-0.0054,-62.62,-67.50,27.13
608,54851620,0.8779,0.1040,0.0000,-63.29,-64.76,25.18
609,54856622,0.8726,0.1045,0.0117,-64.21,-62.01,23.35
610,54861621,0.8662,0.0903,-0.0044,-65.12,-59.15,21.71
611,54866627,0.8677,0.0874,0.0010,-65.91,-56.52,20.30
612,54871621,0.8682,0.0874,-0.0078,-66.52,-53.48,19.02
613,54876621,0.8721,0.0884,-0.0093,-67.13,-50.79,17.74
614,54882188,0.8794,0.0962,-0.0229,-67.56,-47.38,16.28
615,54886624,0.8853,0.0977,-0.0322,-67.87,-45.30,15.37
616,54891621,0.8994,0.0923,-0.0391,-67.99,-42.62,14.33
617,54896622,0.9224,0.0850,-0.0454,-68.05,-40.12,13.48
618,54901622,0.9189,0.0688,-0.0518,-67.62,-37.68,12.74
619,54907099,0.9097,0.0698,-0.0498,-66.52,-34.82,12.07
620,54911622,0.8892,0.0889,-0.0220,-65.43,-32.68,11.59
621,54916673,0.8882,0.0933,-0.0342,-63.35,-30.18,10.98
622,54921731,0.9131,0.0977,-0.0605,-60.49,-27.32,10.30
623,54926621,0.9258,0.1099,-0.0620,-58.60,-25.61,9.76
624,54931622,0.9438,0.1123,-0.0371,-56.28,-23.41,9.15
625,54936621,0.9790,0.1167,-0.0190,-53.96,-20.98,8.48
626,54941622,0.9790,0.1182,-0.0337,-51.83,-18.66,7.74
627,54946622,0.9741,0.1309,-0.0151,-50.67,-16.40,6.77
628,54951620,0.9878,0.1240,0.0186,-50.12,-14.02,5.85
629,54956621,0.9771,0.1294,0.0308,-50.30,-11.52,4.94
630,54961620,0.9736,0.1177,0.0166,-51.52,-9.33,3.84
631,54966622,0.9590,0.1157,-0.0117,-53.23,-6.52,2.62
632,54971622,0.9556,0.0981,0.0376,-54.94,-4.94,1.83
633,54977061,0.9478,0.1016,0.0352,-57.99,-2.56,0.49
634,54981622,0.9429,0.0840,-0.0132,-60.55,-1.40,-0.43
635,54986621,0.9253,0.0923,-0.0317,-64.02,-0.12,-1.59
636,54991622,0.9233,0.1157,0.0171,-68.05,1.40,-3.05
637,54997028,0.9438,0.1318,0.0361,-73.84,3.05,-5.06
638,55001622,0.9604,0.1445,0.0068,-77.93,4.02,-6.46
639,55006948,0.9653,0.1567,0.0098,-84.57,5.79,-8.96
640,55011622,0.9604,0.1558,0.0498,-89.21,6.95,-10.61
641,55017027,0.9492,0.1621,0.0547,-96.65,8.41,-13.23
642,55021622,0.9429,0.1670,0.0093,-101.77,9.33,-14.94
643,55026622,0.9263,0.1665,0.0239,-108.54,10.37,-17.38
644,55031623,0.9189,0.1665,0.0352,-117.20,11.71,-20.18
645,55036622,0.9116,0.1743,0.0361,-122.99,12.68,-21.95
646,55041621,0.8994,0.1821,0.0117,-130.43,13.60,-24.33
647,55046956,0.8848,0.1953,0.0151,-139.33,14.57,-27.20
648,55051622,0.8779,0.1968,0.0537,-145.24,15.37,-29.21
649,55056620,0.8696,0.2065,0.0464,-152.32,16.46,-31.65
650,55061622,0.8672,0.2197,0.0396,-159.39,17.56,-34.15
651,55066622,0.8589,0.2295,0.0654,-166.10,18.78,-36.65
652,55071941,0.8501,0.2363,0.0801,-173.78,20.24,-39.70
653,55076622,0.8452,0.2422,0.0708,-178.60,21.34,-41.83
654,55081622,0.8325,0.2573,0.0625,-184.15,22.62,-44.27
655,55086882,0.8271,0.2651,0.0732,-190.55,24.21,-47.32
656,55091622,0.8213,0.2715,0.0967,-194.63,25.30,-49.21
657,55096622,0.8066,0.2788,0.0864,-199.63,26.77,-51.71
658,55101622,0.8013,0.2803,0.0654,-204.39,28.11,-54.27
659,55106622,0.7798,0.2847,0.0620,-209.27,29.51,-57.07
660,55111624,0.7646,0.2891,0.0820,-212.44,30.49,-59.02
661,55116622,0.7529,0.2949,0.0649,-216.10,31.65,-61.28
662,55121871,0.7305,0.3008,0.0615,-220.06,32.93,-63.84
663,55126622,0.7197,0.3135,0.0898,-222.50,33.84,-65.55
664,55131621,0.7153,0.3169,0.0864,-225.24,35.00,-67.74
665,55137040,0.7036,0.3286,0.0845,-228.11,36.28,-70.30
666,55141622,0.6934,0.3364,0.0908,-229.88,37.13,-71.95
667,55146622,0.6821,0.3511,0.1104,-231.83,38.29,-74.09
668,55151622,0.6743,0.3628,0.1143,-233.54,39.51,-76.22
669,55156620,0.6660,0.3755,0.1147,-235.06,40.85,-78.35
670,55161739,0.6582,0.3916,0.1382,-236.34,42.07,-80.61
671,55166622,0.6479,0.4082,0.1543,-237.32,43.60,-82.62
672,55171622,0.6460,0.4277,0.1636,-238.11,45.37,-85.24
673,55176622,0.6509,0.4434,0.1479,-238.41,46.59,-87.01
674,55181955,0.6602,0.4751,0.1660,-238.66,48.35,-90.06
675,55186622,0.6694,0.5005,0.1855,-238.66,49.57,-92.01
676,55192027,0.6768,0.5278,0.1987,-238.54,51.52,-95.43
677,55196624,0.6821,0.5464,0.1953,-238.11,52.62,-97.74
678,55201622,0.6802,0.5664,0.2114,-237.50,54.21,-100.91
679,55207006,0.6670,0.5815,0.2295,-236.34,56.04,-104.57
680,55211622,0.6636,0.5869,0.2163,-235.30,57.13,-107.13
681,55216622,0.6475,0.5942,0.2329,-233.29,58.54,-110.91
682,55221622,0.6323,0.5977,0.2422,-231.89,59.57,-113.29
683,55226622,0.6099,0.5981,0.2437,-229.94,60.55,-116.16
684,55231621,0.5806,0.5991,0.2432,-227.74,61.40,-118.78
685,55236621,0.5527,0.5918,0.2554,-225.61,62.07,-121.28
686,55241620,0.5225,0.5928,0.2661,-223.29,62.62,-123.48
687,55246622,0.4966,0.5952,0.2769,-220.79,62.74,-125.61
688,55251621,0.4761,0.5952,0.2783,-218.17,63.05,-127.50
689,55256620,0.4453,0.5981,0.3018,-215.30,63.17,-129.45
690,55261621,0.4180,0.5942,0.3193,-212.26,63.54,-131.04
691,55266622,0.3867,0.5874,0.3213,-209.09,63.66,-132.44
692,55271622,0.3594,0.5908,0.3262,-205.79,63.60,-133.66
693,55276811,0.3311,0.5835,0.3501,-202.44,63.72,-134.57
694,55281622,0.3096,0.5854,0.3672,-199.21,64.02,-135.30
695,55286993,0.2959,0.5962,0.3867,-195.73,64.27,-135.91
696,55291622,0.2861,0.6035,0.3901,-193.60,64.39,-136.34
697,55296622,0.2876,0.6270,0.4219,-191.10,64.76,-137.07
698,55301622,0.2886,0.6494,0.4380,-189.94,64.94,-137.68
699,55306622,0.3115,0.6909,0.4521,-189.15,65.30,-138.90
700,55311622,0.3198,0.7124,0.4551,-189.21,65.30,-140.06
701,55316622,0.3306,0.7363,0.4580,-189.82,65.37,-142.01
702,55321623,0.3296,0.7393,0.4639,-190.49,64.94,-143.41
703,55326622,0.3291,0.7402,0.4556,-191.04,64.45,-145.12
704,55331622,0.3267,0.7300,0.4570,-191.04,64.02,-146.71
705,55336623,0.3213,0.7144,0.4673,-190.12,63.54,-148.05
706,55341749,0.3057,0.6938,0.4668,-188.05,63.11,-149.15
707,55346622,0.2905,0.6709,0.4668,-184.76,62.74,-150.00
708,55351622,0.2817,0.6523,0.4717,-179.94,62.80,-150.79
709,55356622,0.2681,0.6499,0.4907,-172.62,63.23,-151.40
710,55361622,0.2637,0.6445,0.5181,-166.83,63.78,-151.71
711,55366765,0.2598,0.6426,0.5356,-159.21,64.70,-152.26
712,55371622,0.2397,0.6201,0.5337,-151.28,65.55,-152.56
713,55377065,0.2085,0.6216,0.5498,-142.32,66.52,-152.68
714,55381623,0.1909,0.6382,0.5674,-137.01,67.07,-152.87
715,55386622,0.1699,0.6626,0.5923,-131.52,67.50,-153.48
716,55391846,0.1704,0.6943,0.6118,-127.56,68.11,-154.09
717,55396622,0.1763,0.7222,0.6362,-125.06,68.48,-155.30
718,55401622,0.1826,0.7510,0.6392,-123.96,68.78,-157.26
719,55406622,0.1890,0.7642,0.6431,-124.27,68.96,-158.72
720,55411622,0.1890,0.7759,0.6426,-125.43,68.84,-160.73
721,55416622,0.1841,0.7798,0.6475,-127.07,68.78,-162.93
722,55422101,0.1816,0.7783,0.6548,-129.02,68.72,-165.55
723,55426622,0.1748,0.7783,0.6567,-130.00,69.02,-167.44
724,55431622,0.1792,0.7808,0.6562,-130.49,69.45,-170.18
725,55436622,0.1851,0.7803,0.6714,-129.82,70.18,-172.07
726,55441623,0.1860,0.7808,0.6841,-127.50,71.28,-174.94
727,55446622,0.1846,0.7725,0.6792,-124.88,72.38,-176.83
728,55451622,0.1724,0.7803,0.6992,-120.55,73.78,-178.84
729,55456748,0.1533,0.7852,0.7197,-115.73,75.06,-180.73
730,55461622,0.1255,0.7754,0.7310,-110.55,76.52,-182.38
731,55466622,0.0957,0.7715,0.7349,-105.55,77.38,-183.78
732,55471622,0.0601,0.7798,0.7490,-101.10,77.87,-184.88
733,55476622,0.0142,0.7910,0.7617,-96.46,78.17,-186.04
734,55481623,-0.0103,0.7998,0.7622,-93.72,77.93,-186.83
735,55486622,-0.0312,0.8032,0.7769,-90.55,77.68,-187.74
736,55491622,-0.0488,0.8047,0.7886,-87.26,77.44,-188.72
737,55496621,-0.0615,0.7910,0.7852,-83.78,77.26,-189.63
738,55501857,-0.0713,0.7900,0.7891,-79.76,77.07,-190.49
739,55506622,-0.0742,0.7842,0.7949,-75.18,77.13,-191.52
740,55511622,-0.0728,0.7842,0.7939,-69.94,77.50,-192.74
741,55516622,-0.0703,0.7871,0.8022,-62.80,78.23,-194.45
742,55521622,-0.0723,0.7905,0.8066,-57.44,78.78,-195.79
743,55526622,-0.0771,0.7954,0.8057,-50.06,79.82,-197.56
744,55531623,-0.0894,0.8071,0.8247,-42.38,80.79,-199.45
745,55536621,-0.1025,0.8184,0.8555,-34.70,81.95,-201.52
746,55541621,-0.1235,0.8208,0.8657,-27.44,82.44,-203.60
747,55546620,-0.1479,0.8301,0.8740,-21.34,82.62,-205.37
748,55551620,-0.1763,0.8535,0.8818,-16.34,82.68,-207.38
749,55556620,-0.2070,0.8672,0.8931,-12.74,81.71,-209.39
750,55561780,-0.2344,0.8789,0.8970,-10.12,80.61,-211.46
751,55566622,-0.2593,0.8833,0.9150,-8.60,79.09,-213.54
752,55571622,-0.2764,0.8872,0.9111,-7.56,77.56,-215.55
753,55576622,-0.2964,0.8857,0.9229,-6.40,75.79,-217.87
754,55581622,-0.3086,0.8760,0.9380,-5.43,74.70,-219.51
755,55586622,-0.3232,0.8745,0.9355,-3.72,73.29,-221.22
756,55592002,-0.3335,0.8701,0.9346,-1.04,72.38,-223.05
757,55596622,-0.3442,0.8667,0.9438,2.26,71.59,-224.88
758,55601622,-0.3613,0.8564,0.9492,7.32,71.10,-227.07
759,55606622,-0.3755,0.8530,0.9487,11.22,70.73,-228.54
760,55611622,-0.3984,0.8545,0.9595,16.40,70.30,-230.06
761,55616904,-0.4214,0.8623,0.9717,21.46,69.63,-231.71
762,55621622,-0.4458,0.8569,0.9790,26.22,68.90,-232.93
763,55626622,-0.4800,0.8540,0.9766,30.24,67.56,-233.90
764,55632130,-0.5176,0.8623,0.9780,34.21,65.37,-234.82
765,55636622,-0.5420,0.8701,0.9912,36.46,63.72,-235.30
766,55641622,-0.5762,0.8730,0.9907,39.33,60.98,-235.79
767,55646623,-0.5957,0.8745,0.9888,41.10,58.90,-236.04
768,55652056,-0.6113,0.8760,0.9971,43.11,56.22,-236.28
769,55656624,-0.6323,0.8726,0.9971,44.94,53.41,-236.34
770,55661827,-0.6479,0.8696,0.9971,46.65,50.55,-236.46
771,55666622,-0.6538,0.8667,0.9878,48.41,47.56,-236.34
772,55671622,-0.6733,0.8667,0.9907,50.24,44.70,-236.46
773,55676622,-0.6846,0.8613,0.9814,52.20,41.89,-236.28
774,55681622,-0.6890,0.8535,0.9722,54.70,39.39,-236.46
775,55686800,-0.7012,0.8550,0.9678,57.74,36.83,-236.65
776,55691622,-0.7085,0.8506,0.9624,61.40,34.45,-236.77
777,55696622,-0.7158,0.8530,0.9634,65.37,32.26,-236.89
778,55701622,-0.7217,0.8486,0.9697,70.24,29.45,-236.83
779,55706623,-0.7275,0.8452,0.9570,73.35,27.20,-236.65
780,55711622,-0.7109,0.8442,0.9629,76.52,24.27,-236.04
781,55716769,-0.7476,0.8481,0.9653,78.84,21.16,-235.37
782,55721622,-0.7666,0.8384,0.9526,80.73,17.80,-234.33
783,55726623,-0.7915,0.8394,0.9766,81.83,14.33,-232.93
784,55731622,-0.8135,0.8359,0.9717,82.68,10.98,-231.40
785,55736622,-0.8281,0.8335,0.9761,83.05,7.74,-229.45
786,55741626,-0.8452,0.8296,0.9785,83.17,3.84,-226.89
787,55746622,-0.8486,0.8267,0.9795,83.11,1.46,-224.94
788,55751622,-0.8574,0.8262,0.9854,82.99,-1.40,-222.32
789,55756622,-0.8657,0.8218,0.9800,82.80,-4.45,-218.84
790,55761622,-0.8662,0.8198,0.9736,82.50,-6.16,-216.22
791,55766625,-0.8740,0.8140,0.9780,81.89,-8.48,-212.07
792,55771622,-0.8701,0.8101,0.9775,81.34,-9.88,-209.21
793,55776622,-0.8677,0.8047,0.9814,80.18,-11.40,-205.43
794,55781939,-0.8525,0.8115,0.9683,78.78,-12.93,-201.46
795,55786623,-0.8340,0.8101,0.9565,77.13,-14.21,-197.26
796,55791621,-0.8203,0.8101,0.9502,75.00,-15.49,-193.05
797,55796869,-0.8062,0.8096,0.9424,72.56,-16.40,-188.90
798,55801622,-0.8003,0.8174,0.9336,69.63,-17.62,-184.82
799,55806622,-0.7988,0.8228,0.9229,66.40,-18.66,-180.85
800,55811622,-0.8003,0.8237,0.9155,63.23,-19.63,-176.95
801,55816622,-0.8135,0.8345,0.9121,59.82,-20.61,-173.29
802,55821622,-0.8174,0.8301,0.9077,56.52,-21.89,-169.70
803,55826622,-0.8252,0.8379,0.8940,53.72,-22.99,-166.28
804,55831621,-0.8208,0.8359,0.8848,50.98,-24.02,-163.11
805,55836622,-0.8110,0.8340,0.8687,48.66,-25.18,-160.06
806,55841620,-0.7563,0.8516,0.8672,46.46,-26.22,-157.20
807,55846620,-0.7939,0.8481,0.8550,44.27,-27.13,-154.70
808,55851621,-0.8276,0.8418,0.8301,42.50,-28.11,-152.20
809,55856621,-0.8521,0.8350,0.8403,41.52,-29.02,-149.63
810,55861736,-0.8535,0.8247,0.8418,41.04,-29.88,-146.59
811,55866622,-0.8496,0.8125,0.8306,41.46,-30.37,-144.57
812,55871622,-0.8491,0.8105,0.8223,42.56,-30.85,-141.65
813,55876622,-0.8398,0.8091,0.8159,44.33,-31.52,-138.66
814,55881622,-0.8237,0.8062,0.8096,46.83,-32.20,-135.55
815,55886622,-0.8149,0.7969,0.7998,49.63,-32.99,-132.20
816,55891621,-0.8037,0.7881,0.7847,52.93,-33.78,-128.72
817,55896622,-0.7974,0.7822,0.7773,56.77,-34.82,-125.00
818,55901622,-0.7847,0.7739,0.7744,60.98,-35.79,-121.16
819,55906622,-0.7812,0.7754,0.7588,65.61,-36.71,-117.07
820,55911622,-0.7798,0.7661,0.7573,70.67,-37.99,-113.11
821,55916622,-0.7749,0.7671,0.7456,76.16,-38.90,-108.90
822,55921621,-0.7769,0.7637,0.7441,81.71,-39.88,-104.57
823,55926622,-0.7676,0.7583,0.7354,87.44,-40.98,-100.37
824,55931621,-0.7612,0.7510,0.7295,93.35,-41.89,-95.91
825,55936622,-0.7563,0.7461,0.7305,99.09,-42.74,-91.52
826,55941620,-0.7446,0.7397,0.7192,104.76,-43.48,-87.20
827,55946620,-0.7388,0.7383,0.7129,110.24,-44.02,-82.93
828,55951621,-0.7275,0.7373,0.7148,115.43,-44.70,-78.78
829,55956700,-0.7241,0.7412,0.7051,120.30,-45.00,-74.63
830,55961622,-0.7188,0.7324,0.7002,124.88,-45.49,-70.73
831,55966622,-0.7168,0.7363,0.6919,129.09,-45.85,-66.95
832,55971622,-0.7134,0.7295,0.6821,131.95,-46.16,-63.05
833,55977107,-0.7153,0.7197,0.6704,135.12,-46.52,-59.45
834,55981622,-0.7129,0.7017,0.6602,137.68,-46.71,-55.79
835,55986622,-0.7124,0.7114,0.6475,139.76,-47.07,-52.50
836,55991914,-0.7148,0.7070,0.6445,141.22,-47.50,-49.02
837,55996622,-0.7065,0.7012,0.6255,141.89,-47.68,-45.98
838,56001622,-0.7017,0.7061,0.6191,142.07,-47.87,-42.99
839,56006696,-0.6968,0.7007,0.6108,141.52,-48.05,-40.24
840,56011621,-0.6938,0.6899,0.6040,140.37,-48.11,-37.74
841,56016620,-0.6899,0.6836,0.5913,138.54,-48.23,-35.30
842,56021622,-0.6934,0.6675,0.5879,136.40,-48.23,-33.11
843,56026622,-0.6860,0.6748,0.5781,133.60,-47.99,-31.04
844,56031621,-0.6875,0.6675,0.5825,130.91,-47.68,-29.09
845,56036915,-0.6870,0.6704,0.5659,127.50,-47.38,-27.38
846,56041622,-0.6851,0.6914,0.5542,123.54,-47.07,-25.91
