# skilleye imu stream v1
# device=xiao_esp32c6 imu=mpu6050 addr=0x68
# rate_hz=200 accel_range_g=16 gyro_range_dps=2000 dlpf_hz=94
# units: accel in g, gyro in deg/s, t_us in microseconds since boot (monotonic)
# no shared clock with the camera -- tap the racket once before each take
# so both recordings share a spike to align on
seq,t_us,ax,ay,az,gx,gy,gz
0,49258046,0.8867,0.2095,0.5498,1.22,1.04,-7.93
1,49262984,0.8843,0.2100,0.5532,1.52,0.91,-8.35
2,49267981,0.8857,0.2144,0.5464,1.46,0.79,-8.72
3,49272980,0.8848,0.2129,0.5479,1.52,0.91,-8.96
4,49277980,0.8848,0.2148,0.5493,1.59,0.73,-9.39
5,49282982,0.8877,0.2231,0.5464,1.40,0.79,-9.76
6,49287981,0.8833,0.2266,0.5557,1.40,0.73,-10.24
7,49292981,0.8843,0.2271,0.5542,1.34,0.61,-10.49
8,49297981,0.8882,0.2354,0.5557,1.34,0.61,-10.67
9,49302984,0.8833,0.2344,0.5483,1.22,0.61,-10.98
10,49307981,0.8804,0.2363,0.5513,1.10,0.73,-11.40
11,49312982,0.8813,0.2407,0.5508,1.04,0.67,-11.52
12,49317980,0.8794,0.2437,0.5488,0.85,0.43,-11.83
13,49322982,0.8794,0.2437,0.5459,0.61,0.43,-12.13
14,49327981,0.8779,0.2476,0.5459,0.37,0.49,-12.38
15,49333204,0.8818,0.2515,0.5513,0.24,0.55,-12.56
16,49337982,0.8789,0.2500,0.5488,0.12,0.43,-12.68
17,49342982,0.8774,0.2510,0.5508,-0.12,0.30,-12.74
18,49347981,0.8765,0.2563,0.5464,-0.24,0.30,-12.99
19,49352982,0.8750,0.2617,0.5435,-0.37,0.30,-13.05
20,49357980,0.8711,0.2598,0.5444,-0.55,0.06,-13.11
21,49362982,0.8735,0.2607,0.5396,-0.67,0.06,-13.23
22,49367981,0.8716,0.2622,0.5430,-0.85,-0.12,-13.29
23,49372980,0.8672,0.2671,0.5415,-1.22,-0.12,-13.35
24,49377982,0.8677,0.2661,0.5366,-1.46,-0.43,-13.35
25,49382982,0.8638,0.2690,0.5400,-1.52,-0.37,-13.35
26,49387981,0.8623,0.2705,0.5352,-1.59,-0.43,-13.23
27,49392981,0.8652,0.2700,0.5381,-1.95,-0.55,-13.29
28,49397982,0.8579,0.2720,0.5352,-2.01,-0.79,-13.11
29,49402984,0.8604,0.2715,0.5410,-2.13,-0.85,-13.05
30,49407981,0.8569,0.2754,0.5381,-2.13,-0.85,-13.05
31,49412982,0.8550,0.2759,0.5430,-2.07,-1.10,-12.80
32,49417980,0.8560,0.2769,0.5439,-2.07,-1.04,-12.74
33,49422982,0.8564,0.2827,0.5439,-1.77,-1.28,-12.50
34,49427981,0.8560,0.2866,0.5361,-1.71,-1.28,-12.44
35,49432982,0.8569,0.2861,0.5444,-1.59,-1.46,-12.20
36,49437982,0.8540,0.2896,0.5410,-1.16,-1.52,-12.13
37,49442982,0.8550,0.2876,0.5454,-1.04,-1.59,-11.95
38,49447980,0.8564,0.2837,0.5439,-0.67,-1.83,-11.71
39,49452982,0.8604,0.2856,0.5347,-0.43,-2.01,-11.46
40,49457981,0.8569,0.2866,0.5371,-0.24,-2.07,-11.28
41,49462984,0.8564,0.2871,0.5356,-0.06,-2.32,-11.04
42,49468004,0.8535,0.2852,0.5381,0.12,-2.32,-10.79
43,49472980,0.8501,0.2896,0.5405,0.37,-2.56,-10.49
44,49477982,0.8516,0.2861,0.5420,0.61,-2.68,-10.37
45,49483531,0.8423,0.2876,0.5396,0.79,-2.99,-10.00
46,49487982,0.8447,0.2886,0.5396,0.79,-2.87,-9.76
47,49492981,0.8408,0.2881,0.5425,0.98,-3.05,-9.45
48,49497982,0.8418,0.2886,0.5435,1.04,-3.05,-9.15
49,49502981,0.8428,0.2837,0.5483,1.10,-3.11,-8.90
50,49507982,0.8389,0.2822,0.5366,1.16,-3.29,-8.60
51,49512982,0.8398,0.2847,0.5537,1.16,-3.11,-8.29
52,49517982,0.8379,0.2852,0.5488,1.22,-3.35,-8.05
53,49522981,0.8413,0.2822,0.5518,1.22,-3.23,-7.56
54,49527981,0.8379,0.2861,0.5498,1.16,-3.29,-7.50
55,49532984,0.8413,0.2881,0.5483,1.22,-3.23,-7.26
56,49537981,0.8413,0.2910,0.5547,1.16,-3.29,-7.01
57,49542980,0.8452,0.2881,0.5518,1.16,-3.23,-6.77
58,49547982,0.8467,0.2896,0.5522,1.16,-3.17,-6.59
59,49552982,0.8467,0.2900,0.5596,1.28,-3.29,-6.34
60,49557981,0.8447,0.2896,0.5586,1.46,-3.11,-6.22
61,49562980,0.8457,0.2905,0.5537,1.65,-3.11,-5.91
62,49567982,0.8350,0.2920,0.5625,1.89,-2.93,-5.91
63,49572981,0.8325,0.2871,0.5630,2.20,-2.80,-5.73
64,49577982,0.8320,0.2876,0.5596,2.44,-2.62,-5.61
65,49582982,0.8228,0.2866,0.5640,2.56,-2.56,-5.43
66,49587982,0.8218,0.2817,0.5605,2.50,-2.32,-5.37
67,49592992,0.8179,0.2739,0.5630,2.44,-2.26,-5.18
68,49597982,0.8140,0.2769,0.5659,2.38,-2.07,-5.18
69,49603158,0.8140,0.2749,0.5698,2.13,-1.71,-5.00
70,49607982,0.8076,0.2725,0.5659,1.89,-1.52,-5.12
71,49612984,0.8101,0.2690,0.5708,1.28,-1.16,-4.94
72,49617982,0.8076,0.2725,0.5698,0.79,-0.98,-4.88
73,49622982,0.8032,0.2715,0.5664,0.12,-0.67,-4.94
74,49627981,0.8091,0.2695,0.5649,-0.67,-0.24,-4.94
75,49632987,0.8081,0.2686,0.5693,-1.65,-0.06,-5.06
76,49637983,0.8091,0.2676,0.5679,-2.38,0.30,-5.06
77,49643023,0.8140,0.2666,0.5693,-3.35,0.55,-5.12
78,49647981,0.8164,0.2695,0.5635,-4.15,0.91,-5.18
79,49652982,0.8218,0.2710,0.5713,-4.94,0.98,-5.37
80,49657981,0.8247,0.2744,0.5718,-5.67,1.52,-5.61
81,49662982,0.8286,0.2754,0.5820,-6.28,1.65,-5.85
82,49667981,0.8311,0.2759,0.5713,-6.71,1.95,-6.10
83,49672982,0.8379,0.2798,0.5815,-7.07,2.26,-6.34
84,49677982,0.8418,0.2793,0.5801,-7.20,2.87,-6.71
85,49682982,0.8403,0.2827,0.5835,-7.13,3.05,-7.13
86,49687981,0.8423,0.2861,0.5869,-7.07,3.35,-7.56
87,49692982,0.8428,0.2881,0.5938,-6.52,4.02,-8.11
88,49697982,0.8486,0.2925,0.5952,-6.10,4.51,-8.48
89,49702981,0.8462,0.2891,0.5967,-5.24,5.00,-9.09
90,49707983,0.8418,0.2920,0.5981,-4.45,5.55,-9.76
91,49712982,0.8364,0.2915,0.5991,-3.48,6.16,-10.24
92,49717982,0.8374,0.2944,0.5981,-2.32,6.77,-10.85
93,49722982,0.8311,0.2910,0.6045,-1.10,7.44,-11.65
94,49727982,0.8335,0.2915,0.6064,0.06,8.05,-12.26
95,49732983,0.8271,0.2920,0.6108,1.10,8.78,-12.93
96,49737982,0.8267,0.2866,0.6172,2.26,9.57,-13.72
97,49742982,0.8276,0.2900,0.6191,3.17,10.37,-14.45
98,49747982,0.8232,0.2954,0.6279,4.39,11.16,-15.18
99,49752982,0.8247,0.3003,0.6216,5.37,11.89,-16.10
100,49757982,0.8262,0.3032,0.6167,6.52,12.74,-16.95
101,49762982,0.8252,0.3066,0.6196,7.50,13.60,-17.80
102,49767982,0.8232,0.3169,0.6201,8.48,14.33,-18.84
103,49772984,0.8218,0.3242,0.6167,9.63,15.12,-19.82
104,49777981,0.8164,0.3237,0.6099,10.79,15.79,-20.79
105,49782980,0.8149,0.3286,0.5986,12.01,16.52,-21.95
106,49787982,0.8159,0.3311,0.5967,13.35,17.13,-22.99
107,49793089,0.8120,0.3286,0.5977,14.51,17.93,-24.02
108,49797982,0.8105,0.3311,0.5864,15.91,18.48,-25.18
109,49802981,0.8066,0.3223,0.5820,17.13,19.15,-26.22
110,49807982,0.8057,0.3262,0.5830,18.41,19.51,-27.32
111,49812984,0.7993,0.3267,0.5894,19.57,20.18,-28.29
112,49817981,0.7939,0.3335,0.5869,20.85,20.61,-29.57
113,49822982,0.7939,0.3379,0.5874,21.89,21.16,-30.61
114,49827982,0.7915,0.3452,0.5923,23.17,21.46,-31.77
115,49832980,0.7930,0.3496,0.5854,24.21,22.07,-33.05
116,49837982,0.7900,0.3594,0.5879,25.37,22.62,-34.27
117,49842986,0.7886,0.3652,0.5908,26.52,22.87,-35.49
118,49847982,0.7861,0.3745,0.5830,27.74,23.48,-36.89
119,49852982,0.7793,0.3833,0.5874,28.96,23.90,-38.23
120,49857982,0.7793,0.3906,0.5796,30.06,24.33,-39.63
121,49862982,0.7671,0.3950,0.5791,31.22,24.57,-40.98
122,49867982,0.7651,0.3989,0.5767,32.44,25.06,-42.38
123,49873048,0.7588,0.4082,0.5649,33.48,25.18,-43.72
124,49877980,0.7603,0.4082,0.5576,34.33,25.49,-45.12
125,49882982,0.7573,0.4146,0.5547,35.12,25.67,-46.40
126,49887981,0.7559,0.4209,0.5532,35.73,25.85,-47.68
127,49892984,0.7544,0.4229,0.5542,36.04,25.91,-49.15
128,49897981,0.7520,0.4287,0.5396,36.34,26.04,-50.24
129,49902980,0.7476,0.4341,0.5410,36.28,25.91,-51.52
130,49907983,0.7471,0.4409,0.5347,35.73,25.91,-52.80
131,49913065,0.7446,0.4482,0.5376,35.00,25.73,-53.96
132,49917983,0.7407,0.4595,0.5205,33.78,25.55,-55.18
133,49922982,0.7358,0.4663,0.5264,32.26,25.49,-56.34
134,49927982,0.7368,0.4673,0.5303,30.91,25.43,-57.32
135,49932982,0.7397,0.4771,0.5249,28.84,25.24,-58.35
136,49937982,0.7402,0.4849,0.5142,26.59,25.06,-59.39
137,49942982,0.7510,0.4922,0.5068,24.21,24.82,-60.37
138,49947983,0.7461,0.5098,0.5068,21.22,24.51,-61.59
139,49952982,0.7510,0.5283,0.5225,19.15,24.39,-62.32
140,49957982,0.7520,0.5444,0.5107,16.22,24.09,-63.23
141,49962982,0.7534,0.5596,0.4863,13.17,23.66,-64.15
142,49967982,0.7573,0.5732,0.4717,9.94,23.29,-65.06
143,49972982,0.7549,0.5825,0.4629,6.52,22.74,-65.91
144,49977982,0.7505,0.5874,0.4614,2.80,22.32,-66.65
145,49982982,0.7461,0.5864,0.4531,-1.04,21.83,-67.38
146,49987982,0.7388,0.5864,0.4458,-4.76,21.34,-67.93
147,49992982,0.7383,0.5898,0.4473,-8.60,20.91,-68.35
148,49998218,0.7344,0.5913,0.4453,-13.11,20.37,-68.84
149,50002982,0.7300,0.5869,0.4497,-16.16,20.12,-69.15
150,50007981,0.7261,0.5991,0.4546,-19.82,19.76,-69.45
151,50012982,0.7217,0.6069,0.4585,-23.35,19.57,-69.70
152,50017982,0.7173,0.6118,0.4639,-26.40,19.39,-69.94
153,50022982,0.7314,0.6567,0.4736,-29.51,19.21,-70.06
154,50027981,0.6426,0.6240,0.3823,-31.52,19.21,-71.16
155,50032982,0.6631,0.4731,0.3638,-33.84,18.66,-70.98
156,50037980,0.6851,0.4980,0.5156,-36.04,18.66,-70.91
157,50042982,0.6904,0.5938,0.5342,-38.05,18.90,-70.73
158,50047981,0.6890,0.6660,0.4692,-39.33,18.78,-70.85
159,50052982,0.6665,0.7046,0.4824,-40.61,18.90,-70.67
160,50057982,0.6455,0.6963,0.5391,-41.65,19.33,-70.55
161,50062982,0.6953,0.7866,0.2842,-41.89,17.56,-70.98
162,50067982,0.9932,1.3062,-1.0244,-38.72,-0.49,-78.05
163,50072982,1.2446,0.4624,0.3242,-32.99,-25.24,-86.46
164,50077980,1.2671,0.0337,0.7837,-27.32,-39.88,-87.13
165,50082982,1.0591,0.1226,0.7036,-22.38,-48.11,-84.21
166,50087981,0.7559,0.3394,0.6206,-17.38,-53.35,-81.04
167,50092982,0.4839,0.5435,0.6172,-12.01,-56.46,-78.54
168,50097980,0.3330,0.6719,0.5825,-6.10,-58.11,-76.77
169,50102982,0.2993,0.7515,0.5664,-0.12,-58.84,-75.49
170,50107981,0.3652,0.7759,0.5586,5.79,-58.72,-74.57
171,50113477,0.4678,0.7744,0.5776,11.16,-58.35,-73.60
172,50117984,0.5488,0.7705,0.5898,15.73,-57.32,-72.68
173,50122982,0.5869,0.7734,0.5811,19.57,-56.04,-71.95
174,50127981,0.5947,0.7891,0.5762,22.56,-54.57,-71.22
175,50132982,0.5132,0.6987,0.5615,24.70,-52.87,-70.18
176,50137980,0.4414,0.5957,0.6001,26.65,-50.61,-66.22
177,50142982,0.3833,0.7026,0.4888,28.29,-48.48,-61.83
178,50147981,0.3379,0.6719,0.4941,29.88,-46.34,-57.44
179,50152982,0.3379,0.6924,0.5122,31.77,-43.84,-52.38
180,50157980,0.3589,0.7344,0.5088,33.84,-41.22,-47.38
181,50162984,0.3960,0.7642,0.4839,35.55,-38.84,-42.56
182,50168033,0.4414,0.7822,0.4663,36.77,-36.77,-38.11
183,50172982,0.4961,0.7900,0.4854,37.99,-35.00,-34.33
184,50177980,0.5312,0.7959,0.4912,38.66,-33.54,-31.16
185,50182983,0.5674,0.8018,0.4771,38.78,-32.38,-28.29
186,50187982,0.5898,0.8232,0.4819,38.78,-31.34,-26.10
187,50192984,0.6265,0.9014,0.5122,38.05,-30.12,-24.94
188,50197984,0.6851,1.0776,0.5713,36.83,-27.99,-26.52
189,50202982,0.7422,0.9702,0.5815,34.33,-25.18,-30.43
190,50208005,0.7603,0.7412,0.4897,30.73,-22.56,-32.50
191,50212981,0.7119,0.7339,0.4644,26.34,-21.10,-32.80
192,50217982,0.6655,0.7622,0.4702,20.98,-19.94,-33.23
193,50222980,0.6416,0.7407,0.4575,16.04,-19.33,-33.60
194,50227982,0.6436,0.7012,0.4087,7.68,-18.96,-34.02
195,50232982,0.6685,0.6792,0.3755,-0.18,-18.84,-34.15
196,50237983,0.6816,0.6504,0.3579,-8.48,-19.15,-33.90
197,50242982,0.6875,0.6348,0.3721,-17.26,-19.70,-33.41
198,50247982,0.6919,0.6255,0.3833,-24.39,-19.88,-32.99
199,50252982,0.7036,0.6191,0.4102,-33.29,-20.12,-32.44
200,50257983,0.6904,0.6089,0.4058,-41.89,-20.00,-32.20
201,50262982,0.6611,0.6055,0.4160,-49.63,-19.76,-31.83
202,50267982,0.6123,0.5967,0.4351,-56.65,-19.02,-31.71
203,50272983,0.6143,0.5903,0.4526,-62.56,-17.93,-31.46
204,50277980,0.5630,0.5884,0.4473,-67.50,-16.59,-31.40
205,50282981,0.5361,0.5879,0.4233,-72.01,-15.24,-31.52
206,50287982,0.5562,0.5820,0.4297,-76.04,-13.78,-31.83
207,50292981,0.5503,0.5996,0.4229,-79.51,-12.01,-32.13
208,50297980,0.5503,0.6133,0.4175,-82.68,-10.18,-32.80
209,50302984,0.5684,0.6255,0.4385,-85.67,-8.48,-33.66
210,50307982,0.5688,0.6304,0.4478,-88.11,-6.52,-34.45
211,50313081,0.5581,0.6401,0.4443,-90.24,-4.94,-35.37
212,50317981,0.5527,0.6396,0.4541,-92.20,-3.23,-36.28
213,50322981,0.5449,0.6470,0.4834,-94.27,-1.71,-37.01
214,50327982,0.5386,0.6514,0.4878,-96.16,-0.06,-37.87
215,50332981,0.5186,0.6577,0.4961,-97.74,1.10,-38.54
216,50337982,0.5063,0.6812,0.5762,-99.39,2.50,-39.21
217,50342981,0.4932,0.6821,0.5840,-101.40,3.78,-39.76
218,50347982,0.5093,0.6782,0.5752,-103.29,4.57,-40.00
219,50352981,0.5117,0.6641,0.5972,-104.76,5.12,-40.18
220,50357980,0.5146,0.6367,0.5894,-106.22,5.61,-39.88
221,50362980,0.5342,0.5698,0.5928,-108.29,6.10,-39.57
222,50367982,0.5513,0.5747,0.6104,-111.10,6.65,-39.33
223,50372982,0.5269,0.6226,0.6567,-114.45,7.68,-39.39
224,50377982,0.5181,0.6650,0.6553,-118.29,8.90,-39.63
225,50382981,0.5273,0.6826,0.6782,-122.74,10.24,-40.00
226,50387984,0.5532,0.6562,0.6865,-128.23,11.95,-40.73
227,50392981,0.5630,0.6284,0.6587,-134.39,13.23,-41.52
228,50397980,0.5610,0.6099,0.6787,-140.79,14.76,-42.20
229,50402982,0.5537,0.6099,0.7202,-147.07,16.40,-42.93
230,50407982,0.5498,0.6255,0.7285,-153.23,17.80,-43.60
231,50412982,0.5503,0.6396,0.7437,-158.78,19.21,-44.21
232,50417981,0.5464,0.6455,0.7686,-163.54,20.49,-44.70
233,50422982,0.5396,0.6338,0.7808,-167.50,21.65,-44.94
234,50427983,0.5254,0.6113,0.7920,-170.55,22.44,-45.00
235,50432982,0.5151,0.5894,0.8237,-172.68,23.41,-44.82
236,50437981,0.5063,0.5684,0.8413,-174.15,24.45,-44.39
237,50442982,0.5054,0.5576,0.8574,-174.70,25.24,-43.96
238,50447982,0.4922,0.5503,0.8804,-174.57,25.85,-43.54
239,50452982,0.4888,0.5420,0.8994,-173.84,26.59,-42.87
240,50457981,0.4834,0.5356,0.9194,-172.38,27.20,-42.26
241,50463016,0.4839,0.5308,0.9360,-170.49,27.80,-41.65
242,50467989,0.4790,0.5098,0.9565,-167.93,28.29,-41.22
243,50472982,0.4761,0.4883,0.9800,-164.57,28.72,-40.67
244,50478090,0.4692,0.4673,0.9980,-160.43,29.21,-40.37
245,50482982,0.4912,0.4526,1.0425,-155.37,29.70,-40.12
246,50487982,0.5127,0.4634,1.1050,-148.48,30.06,-39.88
247,50492982,0.5400,0.4458,1.1553,-139.21,30.18,-39.82
248,50497981,0.5674,0.4346,1.1626,-127.62,29.82,-39.57
249,50502982,0.5659,0.4297,1.1499,-114.21,29.02,-39.02
250,50507982,0.5488,0.4258,1.1348,-100.30,28.05,-38.78
251,50512982,0.5312,0.4302,1.1235,-86.77,27.20,-38.54
252,50517980,0.5122,0.4263,1.1177,-73.78,26.52,-38.48
253,50522983,0.4932,0.4141,1.0991,-61.52,25.61,-38.29
254,50527982,0.4893,0.4043,1.0791,-50.18,24.45,-38.17
255,50532981,0.4897,0.3950,1.0562,-39.88,23.48,-37.93
256,50537982,0.5044,0.3862,1.0464,-30.91,22.62,-37.80
257,50542981,0.5122,0.3755,1.0400,-22.74,21.83,-37.74
258,50547982,0.5093,0.3555,1.0552,-15.24,20.73,-37.56
259,50552981,0.5073,0.3398,1.0562,-8.29,19.70,-37.38
260,50557982,0.5000,0.3276,1.0513,-2.13,18.60,-37.56
261,50562981,0.4917,0.3174,1.0542,3.11,17.32,-37.68
262,50567982,0.4873,0.3164,1.0459,6.71,16.22,-37.56
263,50572981,0.4888,0.3135,1.0381,10.24,14.76,-37.74
264,50577982,0.4839,0.3008,1.0376,12.87,13.11,-38.05
265,50582981,0.4805,0.2988,1.0273,14.39,11.52,-38.23
266,50587982,0.4463,0.2705,1.0317,14.94,10.06,-38.41
267,50592982,0.4399,0.2651,1.0107,14.76,8.41,-38.54
268,50597982,0.4058,0.2583,1.0054,13.35,7.13,-38.84
269,50602981,0.4185,0.2632,0.9941,10.79,5.79,-39.09
270,50607982,0.4575,0.2759,0.9795,7.26,4.76,-39.15
271,50612981,0.5010,0.2710,0.9673,2.99,3.48,-39.27
272,50617982,0.5293,0.2627,0.9746,-1.83,2.26,-39.39
273,50622982,0.5425,0.2500,0.9927,-6.71,0.98,-39.33
274,50627981,0.5410,0.2451,0.9941,-11.95,0.18,-39.15
275,50632982,0.5249,0.2437,1.0005,-17.32,-0.49,-38.84
276,50637982,0.5127,0.2485,1.0103,-22.80,-1.10,-38.72
277,50642981,0.4932,0.2588,1.0303,-28.23,-1.59,-38.48
278,50647982,0.4780,0.2998,1.0347,-33.17,-1.77,-38.66
279,50652981,0.4922,0.3062,1.0444,-37.99,-1.83,-38.84
280,50657982,0.5103,0.3096,1.0483,-42.38,-1.83,-39.39
281,50662980,0.5269,0.2993,1.0586,-46.52,-1.71,-39.76
282,50667980,0.5464,0.2998,1.0718,-50.00,-1.59,-40.00
283,50673379,0.5171,0.4170,1.1060,-53.54,-1.22,-40.73
284,50677982,0.5171,0.3374,1.0864,-55.98,-1.04,-41.59
285,50682982,0.5200,0.3237,1.0884,-58.29,-1.16,-42.13
286,50687982,0.5254,0.3291,1.1069,-60.12,-1.16,-42.38
287,50692981,0.5293,0.3394,1.1133,-60.98,-1.28,-42.38
288,50697982,0.5283,0.3467,1.1162,-61.28,-1.71,-42.13
289,50702981,0.5298,0.3550,1.1182,-61.04,-1.95,-41.59
290,50707980,0.5215,0.3481,1.1279,-60.24,-2.13,-40.67
291,50712987,0.5166,0.3413,1.1416,-59.15,-2.32,-39.57
292,50717980,0.5166,0.3462,1.1406,-57.07,-2.50,-38.29
293,50722980,0.5093,0.3555,1.1406,-54.63,-2.56,-36.95
294,50727980,0.5049,0.3667,1.1489,-51.95,-2.93,-35.67
295,50732981,0.5068,0.3735,1.1553,-48.90,-2.99,-34.39
296,50737982,0.5029,0.3730,1.1509,-46.04,-3.17,-33.23
297,50742982,0.5005,0.3735,1.1504,-43.05,-3.41,-32.20
298,50747980,0.4961,0.3691,1.1548,-40.24,-3.60,-31.28
299,50752982,0.4927,0.3726,1.1562,-37.50,-3.84,-30.43
300,50757982,0.4878,0.3696,1.1636,-35.12,-4.09,-29.63
301,50762982,0.4751,0.3682,1.1685,-33.11,-4.33,-29.09
302,50767980,0.4741,0.3706,1.1797,-31.95,-4.15,-28.48
303,50772984,0.4717,0.3667,1.1753,-31.16,-4.27,-27.99
304,50777982,0.4668,0.3613,1.1675,-30.98,-4.27,-27.68
305,50782981,0.4702,0.3569,1.1655,-31.40,-4.15,-27.26
306,50787980,0.4668,0.3516,1.1626,-32.44,-4.27,-26.89
307,50792983,0.4658,0.3550,1.1523,-33.96,-4.39,-26.52
308,50797982,0.4692,0.3530,1.1406,-35.85,-4.63,-26.16
309,50802982,0.4688,0.3516,1.1338,-38.23,-5.24,-25.67
310,50807980,0.4453,0.3496,1.1387,-40.73,-5.67,-25.18
311,50812980,0.4404,0.3560,1.1289,-43.66,-5.91,-24.51
312,50817984,0.4346,0.3784,1.1074,-46.52,-6.71,-23.90
313,50822981,0.4409,0.3848,1.1104,-49.39,-7.13,-23.35
314,50827981,0.4399,0.3770,1.1035,-51.95,-7.99,-22.93
315,50832982,0.4331,0.3716,1.0991,-54.45,-8.60,-22.26
316,50837981,0.4272,0.3813,1.0884,-57.01,-9.70,-21.77
317,50842981,0.4150,0.3770,1.0850,-59.27,-10.73,-21.28
318,50847984,0.4033,0.3755,1.0884,-61.46,-11.95,-20.79
319,50852981,0.3984,0.3667,1.0859,-62.93,-13.23,-20.67
320,50857982,0.3906,0.3589,1.0850,-64.27,-14.76,-20.61
321,50862981,0.3745,0.3208,1.0820,-65.30,-16.59,-20.49
322,50867982,0.3794,0.2769,1.0640,-66.40,-18.29,-20.37
323,50872981,0.3848,0.2231,1.0537,-68.05,-20.37,-20.43
324,50877982,0.3994,0.2500,1.0698,-70.24,-22.68,-20.85
325,50882981,0.4121,0.3022,1.0962,-72.50,-24.39,-21.34
326,50887982,0.4067,0.3145,1.0947,-74.33,-26.28,-22.01
327,50892982,0.3838,0.2979,1.0811,-75.79,-28.29,-22.56
328,50897980,0.3721,0.2402,1.0850,-77.20,-29.94,-22.93
329,50902982,0.3696,0.2329,1.0796,-79.02,-31.83,-23.35
330,50907984,0.3750,0.2485,1.0669,-81.34,-33.78,-23.84
331,50912981,0.3862,0.2617,1.0728,-83.60,-35.61,-24.63
332,50917982,0.4019,0.2646,1.0957,-85.79,-37.38,-25.49
333,50923042,0.4126,0.2637,1.1201,-87.44,-39.15,-26.59
334,50927980,0.3916,0.2695,1.1445,-88.48,-40.73,-27.68
335,50932984,0.4004,0.2446,1.1748,-89.02,-42.20,-28.66
336,50937981,0.4141,0.2188,1.1895,-89.21,-43.60,-29.45
337,50942984,0.4321,0.2012,1.2231,-88.90,-45.18,-30.00
338,50947981,0.4390,0.1748,1.2690,-88.05,-46.28,-30.49
339,50952983,0.4380,0.1558,1.3115,-86.95,-47.56,-30.98
340,50957981,0.4375,0.1357,1.3315,-85.61,-48.96,-31.59
341,50962983,0.4429,0.1216,1.3755,-84.27,-50.12,-32.26
342,50967981,0.4355,0.1060,1.3931,-82.87,-51.34,-33.23
343,50973015,0.4365,0.0762,1.3906,-82.13,-53.05,-34.09
344,50977982,0.4268,0.0625,1.4087,-81.40,-54.76,-35.30
345,50982983,0.4116,0.0337,1.4404,-81.40,-56.65,-36.46
346,50987981,0.4004,0.0068,1.4155,-82.38,-58.48,-37.80
347,50992982,0.4258,0.0063,1.4141,-83.66,-60.49,-39.09
348,50997982,0.4336,-0.0020,1.4170,-85.73,-62.26,-40.37
349,51002984,0.4243,-0.0186,1.4292,-88.23,-64.02,-41.46
350,51007983,0.4263,-0.0156,1.4048,-91.04,-65.61,-42.62
351,51012982,0.4263,-0.0054,1.4097,-94.21,-67.32,-43.72
352,51018044,0.4209,-0.0063,1.4312,-97.62,-68.60,-44.76
353,51022984,0.4185,-0.0059,1.4341,-101.34,-69.70,-45.73
354,51027982,0.4243,-0.0190,1.4219,-105.00,-70.85,-46.65
355,51032982,0.4243,-0.0283,1.4360,-108.48,-72.01,-47.32
356,51037982,0.4263,-0.0449,1.4556,-111.83,-72.93,-47.93
357,51042981,0.4312,-0.0664,1.4556,-114.76,-74.15,-48.35
358,51047982,0.4233,-0.0840,1.4614,-117.50,-75.43,-48.48
359,51052982,0.4014,-0.0923,1.4917,-119.70,-76.65,-48.72
360,51057982,0.3838,-0.0952,1.4937,-121.77,-77.93,-48.90
361,51062981,0.3687,-0.0967,1.4961,-123.60,-79.57,-48.96
362,51067980,0.3486,-0.0933,1.5098,-125.49,-81.16,-49.09
363,51072984,0.3398,-0.0796,1.5166,-127.56,-83.17,-49.21
364,51077982,0.3379,-0.0645,1.5068,-129.88,-85.06,-49.51
365,51082982,0.3325,-0.0474,1.4995,-132.32,-87.07,-49.76
366,51087982,0.3252,-0.0361,1.4976,-135.06,-89.15,-50.12
367,51092982,0.3188,-0.0176,1.5049,-137.80,-91.52,-50.49
368,51097982,0.3193,-0.0122,1.4858,-140.49,-93.54,-50.79
369,51102983,0.3438,-0.0234,1.4893,-142.93,-95.91,-51.16
370,51107982,0.3438,-0.0161,1.4893,-145.00,-98.23,-51.34
371,51112982,0.3486,-0.0103,1.4907,-147.01,-100.30,-51.46
372,51118279,0.3281,-0.0156,1.4849,-148.41,-102.38,-51.59
373,51122982,0.3330,-0.0190,1.4785,-149.15,-104.33,-51.65
374,51127982,0.3350,-0.0044,1.4668,-149.39,-106.40,-51.83
375,51132982,0.3496,0.0103,1.4639,-148.96,-108.23,-51.95
376,51137982,0.3545,0.0171,1.4653,-148.29,-110.18,-51.89
377,51142982,0.3599,0.0205,1.4561,-147.07,-112.01,-51.77
378,51147982,0.3501,0.0186,1.4482,-145.55,-113.78,-51.59
379,51152983,0.3457,0.0288,1.4414,-143.84,-115.61,-51.28
380,51157982,0.3564,0.0405,1.4336,-142.13,-117.26,-50.85
381,51162982,0.3628,0.0503,1.4058,-140.73,-118.96,-50.43
382,51167982,0.3613,0.0771,1.4082,-139.63,-120.61,-50.12
383,51172981,0.3599,0.0879,1.3979,-139.33,-122.32,-49.76
384,51177982,0.3579,0.0991,1.3784,-139.82,-124.02,-49.33
385,51182981,0.3569,0.1030,1.3481,-141.22,-125.85,-49.09
386,51187983,0.3564,0.1079,1.3325,-143.35,-127.80,-48.90
387,51192983,0.3594,0.1143,1.3159,-146.28,-129.70,-48.78
388,51197984,0.3618,0.1230,1.3003,-149.57,-131.46,-48.84
389,51202982,0.3662,0.1328,1.2847,-153.29,-133.41,-48.84
390,51207982,0.3760,0.1440,1.2783,-156.89,-135.06,-49.02
391,51212984,0.3848,0.1499,1.2554,-160.30,-136.71,-49.33
392,51218251,0.3828,0.1543,1.2339,-163.41,-138.11,-49.57
393,51222982,0.3818,0.1611,1.2236,-165.79,-139.27,-49.70
394,51227982,0.3848,0.1704,1.2021,-168.54,-140.61,-49.94
395,51232982,0.3882,0.1836,1.1851,-171.10,-141.46,-49.94
396,51237982,0.3975,0.2021,1.1626,-173.41,-142.32,-50.12
397,51242982,0.4019,0.2144,1.1372,-175.73,-143.05,-50.43
398,51247982,0.4121,0.2266,1.1157,-177.68,-143.54,-50.55
399,51252983,0.4229,0.2397,1.0913,-179.51,-143.72,-50.73
400,51257982,0.4316,0.2534,1.0576,-181.10,-143.96,-50.85
401,51262982,0.4355,0.2686,1.0273,-182.56,-144.02,-50.98
402,51267982,0.4385,0.2822,0.9927,-183.90,-143.84,-51.04
403,51272983,0.4429,0.2910,0.9531,-184.88,-143.54,-51.10
404,51277980,0.4536,0.2993,0.9175,-185.61,-143.35,-51.16
405,51282982,0.4624,0.3032,0.8809,-185.91,-142.93,-51.16
406,51287982,0.4756,0.2783,0.8418,-185.98,-142.20,-51.28
407,51292981,0.4756,0.2798,0.8257,-185.98,-141.59,-51.10
408,51298135,0.4858,0.2935,0.7856,-185.91,-140.67,-51.16
409,51302983,0.4990,0.2827,0.7451,-185.30,-139.57,-51.10
410,51308101,0.5107,0.2744,0.7290,-184.51,-138.29,-50.98
411,51312982,0.5249,0.2744,0.7051,-183.48,-136.59,-50.98
412,51317982,0.5415,0.2817,0.6714,-182.01,-134.94,-50.91
413,51322982,0.5596,0.2739,0.6465,-180.30,-133.05,-50.73
414,51327982,0.5713,0.2671,0.6328,-178.23,-130.85,-50.67
415,51332982,0.5859,0.2593,0.6079,-176.04,-128.72,-50.30
416,51337980,0.5889,0.2568,0.5791,-173.66,-126.65,-50.12
417,51342983,0.5977,0.2432,0.5527,-171.28,-124.27,-49.82
418,51347982,0.6147,0.2354,0.5391,-169.09,-121.95,-49.45
419,51352983,0.6133,0.2124,0.5093,-166.95,-119.70,-49.15
420,51357982,0.6201,0.2095,0.4956,-165.43,-117.32,-48.72
421,51362982,0.6362,0.1851,0.4922,-164.21,-114.82,-48.48
422,51368109,0.6523,0.1665,0.4512,-163.17,-112.01,-48.35
423,51372983,0.6699,0.1445,0.4189,-162.32,-109.45,-48.11
424,51377982,0.6831,0.1284,0.4028,-161.46,-106.77,-47.93
425,51382982,0.6919,0.1221,0.3828,-160.61,-103.90,-47.56
426,51388036,0.7017,0.1133,0.3584,-159.63,-100.85,-47.38
427,51392982,0.7100,0.1118,0.3433,-158.84,-97.74,-46.89
428,51397984,0.7319,0.1074,0.3281,-157.80,-94.63,-46.52
429,51402980,0.7480,0.1055,0.2998,-156.95,-91.16,-46.04
430,51407982,0.7578,0.1104,0.2769,-155.91,-87.74,-45.49
431,51412982,0.7725,0.1074,0.2642,-155.30,-84.21,-45.00
432,51417982,0.7910,0.1084,0.2432,-154.82,-80.55,-44.45
433,51422982,0.8042,0.1099,0.2329,-154.82,-76.83,-43.96
434,51427982,0.8228,0.1055,0.2173,-154.88,-72.99,-43.54
435,51432982,0.8638,0.0459,0.2290,-155.85,-69.09,-43.11
436,51437982,0.8765,0.0068,0.2236,-157.93,-65.30,-42.93
437,51442982,0.8804,0.0259,0.2231,-160.55,-61.59,-42.68
438,51447982,0.8896,0.0361,0.2197,-163.05,-57.87,-42.68
439,51452981,0.8970,0.0303,0.1899,-165.85,-54.63,-42.68
440,51457982,0.8970,0.0146,0.1743,-168.96,-51.28,-42.56
441,51462982,0.8945,0.0015,0.1880,-172.80,-48.11,-42.56
442,51467980,0.8892,-0.0049,0.1816,-176.65,-44.76,-42.56
443,51472984,0.8901,-0.0225,0.1626,-180.67,-41.65,-42.44
444,51477982,0.9004,-0.0371,0.1729,-184.94,-38.48,-42.50
445,51482982,0.9019,-0.0435,0.1602,-189.39,-35.37,-42.32
446,51487980,0.9038,-0.0469,0.1558,-194.15,-32.20,-42.32
447,51492982,0.9009,-0.0400,0.1460,-198.96,-29.39,-42.38
448,51497982,0.8970,-0.0439,0.1597,-203.48,-26.52,-42.38
449,51503057,0.8970,-0.0405,0.1611,-207.26,-23.60,-42.38
450,51507982,0.8896,-0.0366,0.1606,-210.79,-20.85,-42.26
451,51512982,0.8887,-0.0332,0.1724,-213.78,-18.23,-42.13
452,51517982,0.8853,-0.0132,0.1816,-216.65,-15.67,-42.20
453,51522981,0.8813,-0.0088,0.1816,-219.15,-12.99,-42.20
454,51528076,0.8833,-0.0010,0.1860,-221.34,-10.73,-42.13
455,51532984,0.8784,0.0088,0.1880,-223.41,-8.48,-42.44
456,51537982,0.8706,0.0229,0.1943,-225.18,-6.22,-42.62
457,51542982,0.8701,0.0381,0.1997,-226.89,-3.84,-42.99
458,51547981,0.8589,0.0464,0.2007,-228.54,-1.83,-43.48
459,51552982,0.8457,0.0586,0.1987,-229.76,-0.06,-43.90
460,51557980,0.8833,0.0713,0.2129,-230.73,1.83,-44.39
461,51563195,0.8799,0.0884,0.2080,-231.52,4.27,-45.24
462,51567984,0.8682,0.0820,0.2061,-231.71,5.79,-45.79
463,51572981,0.8535,0.0869,0.1997,-231.59,7.50,-46.40
464,51577982,0.8486,0.1006,0.2026,-230.98,9.02,-47.01
465,51582981,0.8447,0.1099,0.2192,-230.00,10.61,-47.62
466,51587980,0.8550,0.1245,0.2148,-228.66,12.13,-48.29
467,51592980,0.8623,0.1372,0.2266,-226.95,13.78,-49.21
468,51597982,0.8647,0.1538,0.2285,-225.43,15.37,-50.12
469,51602982,0.8657,0.1646,0.2290,-223.41,16.89,-51.10
470,51607982,0.8633,0.1768,0.2153,-221.16,18.29,-52.20
471,51612982,0.8623,0.1885,0.2178,-218.90,19.63,-53.11
472,51618307,0.8477,0.1958,0.2085,-215.61,20.85,-54.51
473,51622983,0.8389,0.2031,0.2134,-213.35,21.65,-55.43
474,51627981,0.8325,0.2109,0.2178,-210.30,22.44,-56.40
475,51632982,0.8242,0.2236,0.2158,-207.01,23.23,-57.56
476,51637983,0.8140,0.2207,0.2139,-203.41,23.66,-58.78
477,51642982,0.8086,0.2285,0.2109,-199.70,24.21,-59.76
478,51647981,0.7930,0.2266,0.2075,-195.49,24.45,-60.61
479,51652982,0.7861,0.2295,0.2012,-191.22,24.57,-61.46
480,51657982,0.7773,0.2397,0.2153,-186.77,24.76,-62.38
481,51662982,0.7656,0.2402,0.2271,-182.20,25.18,-63.17
482,51667982,0.7549,0.2500,0.2241,-177.56,25.37,-64.09
483,51672981,0.7476,0.2598,0.2319,-172.87,25.43,-64.88
484,51677982,0.7456,0.2617,0.2256,-168.11,25.49,-65.55
485,51682982,0.7290,0.2666,0.2310,-163.66,25.43,-66.46
486,51687980,0.7153,0.2705,0.2324,-159.15,25.43,-67.26
487,51692980,0.7124,0.2812,0.2368,-155.12,25.37,-67.99
488,51697980,0.7168,0.2891,0.2510,-151.04,25.43,-68.78
489,51702982,0.7324,0.3018,0.2544,-147.62,25.49,-69.94
490,51707982,0.7485,0.3120,0.2563,-144.33,25.43,-71.04
491,51712983,0.7666,0.3203,0.2686,-141.34,25.43,-72.20
492,51717982,0.7832,0.3247,0.2651,-138.72,25.49,-73.54
493,51722982,0.7969,0.3340,0.2671,-136.16,25.49,-74.63
494,51727982,0.7979,0.3330,0.2749,-133.72,25.49,-75.85
495,51732982,0.7959,0.3325,0.2832,-131.65,25.61,-77.20
496,51737982,0.7983,0.3276,0.2896,-129.33,25.37,-78.35
497,51742982,0.7910,0.3291,0.2954,-127.32,25.61,-79.51
498,51747981,0.7808,0.3291,0.2954,-125.49,25.67,-80.55
499,51752982,0.7686,0.3291,0.3027,-123.90,25.37,-81.65
500,51757982,0.7617,0.3364,0.2969,-122.26,25.24,-82.87
501,51762982,0.7524,0.3413,0.3008,-120.85,25.06,-84.09
502,51768017,0.7490,0.3428,0.3008,-119.70,24.45,-85.37
503,51772981,0.7446,0.3486,0.3154,-118.48,24.33,-86.77
504,51777982,0.7402,0.3506,0.3057,-117.20,23.66,-88.29
505,51782981,0.7393,0.3530,0.3169,-115.98,23.17,-89.88
506,51787982,0.7319,0.3501,0.3120,-114.82,22.87,-91.34
507,51792981,0.7358,0.3525,0.3188,-113.48,22.38,-93.17
508,51797980,0.7358,0.3511,0.3130,-112.20,21.95,-94.76
509,51802980,0.7417,0.3550,0.3188,-110.79,21.46,-96.71
510,51807982,0.7505,0.3599,0.3247,-109.51,21.10,-98.66
511,51812982,0.7559,0.3647,0.3208,-107.99,20.85,-100.85
512,51817982,0.7622,0.3711,0.3276,-106.28,20.49,-102.99
513,51822982,0.7549,0.3794,0.3218,-104.63,20.24,-105.18
514,51827982,0.7485,0.3789,0.3174,-102.74,20.18,-107.50
515,51832982,0.7471,0.3867,0.3223,-100.79,19.82,-109.88
516,51837982,0.7378,0.3867,0.3149,-98.29,19.51,-112.26
517,51842983,0.7314,0.3848,0.3154,-95.18,19.33,-114.51
518,51847982,0.7236,0.3813,0.3223,-91.95,19.09,-116.77
519,51852982,0.7178,0.3760,0.3164,-87.99,18.72,-118.84
520,51857982,0.7114,0.3730,0.3057,-83.48,18.48,-120.79
521,51862983,0.7051,0.3721,0.3071,-78.54,18.23,-122.62
522,51867982,0.6953,0.3691,0.3008,-73.41,17.74,-124.45
523,51872982,0.6943,0.3687,0.2959,-69.27,17.56,-125.73
524,51877982,0.6807,0.3662,0.2930,-64.21,17.32,-127.56
525,51882982,0.6797,0.3745,0.2920,-59.15,17.01,-129.33
526,51888243,0.6699,0.3887,0.2891,-53.54,16.52,-131.52
527,51892983,0.6724,0.3892,0.2861,-50.18,16.59,-133.11
528,51897980,0.6689,0.4038,0.2842,-46.46,16.34,-135.06
529,51902982,0.6655,0.4175,0.2856,-43.17,16.04,-137.26
530,51907982,0.6587,0.4326,0.2803,-40.61,15.98,-139.57
531,51912981,0.6621,0.4365,0.2832,-38.60,15.85,-141.89
532,51917982,0.6538,0.4429,0.2686,-37.01,15.61,-144.09
533,51922982,0.6479,0.4512,0.2656,-35.91,15.43,-146.22
534,51927982,0.6411,0.4492,0.2500,-35.24,15.37,-148.29
535,51932982,0.6362,0.4546,0.2539,-34.82,15.12,-150.24
536,51938037,0.6309,0.4595,0.2412,-34.82,14.76,-152.20
537,51942981,0.6260,0.4658,0.2280,-35.12,14.63,-154.15
538,51947982,0.6152,0.4746,0.2222,-35.73,14.70,-155.79
539,51952982,0.6133,0.4883,0.2163,-36.65,14.63,-157.68
540,51957984,0.6123,0.4976,0.2090,-37.80,14.63,-159.45
541,51962982,0.6016,0.5112,0.1978,-38.96,14.70,-161.46
542,51967984,0.5947,0.5254,0.1938,-40.06,14.76,-163.35
543,51972981,0.5928,0.5405,0.1860,-40.91,15.00,-165.30
544,51977982,0.5894,0.5547,0.1816,-41.59,15.30,-167.13
545,51982981,0.5801,0.5698,0.1719,-41.89,15.73,-168.90
546,51987984,0.5659,0.5864,0.1626,-41.83,16.16,-170.55
547,51992982,0.5527,0.5991,0.1538,-41.52,16.59,-172.07
548,51997980,0.5405,0.6133,0.1504,-40.67,17.13,-173.54
549,52003508,0.5249,0.6362,0.1533,-39.33,17.74,-175.06
550,52007984,0.5186,0.6514,0.1504,-37.99,18.17,-176.22
551,52013550,0.5093,0.6753,0.1431,-35.98,18.96,-177.68
552,52017984,0.4927,0.6860,0.1440,-34.45,19.76,-178.66
553,52022982,0.4775,0.7041,0.1284,-32.32,20.37,-179.57
554,52027980,0.4624,0.7231,0.1235,-29.82,21.22,-180.67
555,52032983,0.4497,0.7490,0.1470,-28.17,22.01,-181.40
556,52037981,0.4507,0.7646,0.1299,-26.40,23.11,-182.20
557,52042981,0.4316,0.7666,0.1030,-24.70,24.02,-182.50
558,52047984,0.4028,0.7695,0.1104,-23.05,25.06,-182.62
559,52052981,0.3853,0.7944,0.1206,-21.59,26.22,-182.56
560,52057981,0.3770,0.8228,0.1221,-20.43,27.44,-182.62
561,52062982,0.3784,0.8608,0.1226,-19.63,28.84,-182.68
562,52067982,0.3745,0.8999,0.1450,-19.33,30.55,-182.80
563,52072982,0.3608,0.9321,0.1465,-19.39,32.20,-182.99
564,52077982,0.3511,0.9551,0.1577,-19.70,34.21,-183.23
565,52082981,0.3208,0.9683,0.1792,-20.12,36.28,-183.29
566,52087982,0.3027,1.0093,0.1670,-20.61,38.17,-183.05
567,52092982,0.2710,1.0117,0.1470,-20.85,39.94,-182.80
568,52097980,0.2358,1.0288,0.1646,-21.34,41.52,-182.01
569,52102980,0.2070,1.0557,0.1646,-21.65,42.99,-181.04
570,52107980,0.1875,1.0693,0.1665,-21.71,44.51,-179.88
571,52112984,0.1733,1.0947,0.1982,-21.65,45.98,-178.48
572,52117983,0.1499,1.1133,0.2012,-21.22,47.74,-177.07
573,52122982,0.1353,1.1372,0.1914,-20.61,49.45,-175.49
574,52127981,0.1138,1.1611,0.2119,-19.82,50.98,-173.96
575,52132982,0.0928,1.1802,0.2212,-19.09,52.68,-172.38
576,52137982,0.0693,1.2061,0.2344,-17.99,54.33,-170.85
577,52142982,0.0469,1.2227,0.2412,-17.01,55.98,-169.02
578,52147981,0.0068,1.2490,0.2603,-16.16,57.56,-167.44
579,52152982,-0.0288,1.2705,0.2563,-15.49,58.90,-165.67
580,52157981,-0.0596,1.2915,0.2573,-14.88,60.12,-163.90
581,52163181,-0.0923,1.3071,0.2720,-14.57,61.34,-161.95
582,52167982,-0.1226,1.3135,0.2729,-14.45,62.38,-159.88
583,52172981,-0.1470,1.3252,0.2788,-14.27,63.05,-158.11
584,52177980,-0.1685,1.3296,0.2910,-13.96,64.27,-155.67
585,52182983,-0.1973,1.3428,0.3042,-13.90,65.73,-153.29
586,52187982,-0.2173,1.3467,0.3140,-13.66,67.20,-150.67
587,52192984,-0.2358,1.3564,0.3101,-13.11,68.72,-147.93
588,52197982,-0.2529,1.3740,0.3276,-12.26,70.49,-145.18
589,52202981,-0.2715,1.3823,0.3398,-11.10,72.26,-142.38
590,52208438,-0.2915,1.3950,0.3438,-9.39,74.63,-138.96
591,52212982,-0.3052,1.4097,0.3467,-8.05,76.34,-136.71
592,52218029,-0.3169,1.4150,0.3550,-5.79,78.78,-133.96
593,52222983,-0.3237,1.4287,0.3652,-3.66,81.77,-131.22
594,52227982,-0.3364,1.4375,0.3691,-1.34,84.70,-128.29
595,52232982,-0.3569,1.4448,0.3701,0.98,86.10,-125.49
596,52238019,-0.3696,1.4468,0.3755,3.11,89.27,-122.56
597,52242983,-0.3843,1.4531,0.3867,5.12,92.50,-119.51
598,52247982,-0.4111,1.4551,0.3789,7.26,95.55,-116.65
599,52252982,-0.4248,1.4604,0.3823,9.21,98.84,-113.72
600,52257980,-0.4478,1.4575,0.3794,11.28,102.13,-110.67
601,52262981,-0.4688,1.4521,0.3779,13.29,105.43,-107.74
602,52268519,-0.4927,1.4468,0.3765,15.98,109.39,-104.02
603,52272982,-0.5117,1.4482,0.3784,17.87,112.20,-101.65
604,52277982,-0.5400,1.4370,0.3882,20.49,115.49,-98.60
605,52282983,-0.5596,1.4331,0.3857,23.11,119.02,-95.61
606,52287981,-0.5825,1.4268,0.3755,25.73,122.68,-92.68
607,52292982,-0.6099,1.4214,0.3721,28.29,126.16,-89.51
608,52297982,-0.6318,1.4053,0.3716,30.79,129.88,-86.46
609,52302987,-0.6543,1.3945,0.3716,33.17,133.48,-83.29
610,52308001,-0.6738,1.3896,0.3701,35.85,137.93,-79.33
611,52312982,-0.6885,1.3901,0.3643,37.44,141.04,-76.83
612,52317980,-0.7017,1.3911,0.3662,38.96,145.06,-73.48
613,52322984,-0.7178,1.3916,0.3589,40.24,149.02,-70.37
614,52327982,-0.7236,1.3965,0.3716,40.91,153.29,-67.13
615,52332981,-0.7310,1.3940,0.3706,40.98,157.50,-64.15
616,52337982,-0.7456,1.3911,0.3716,40.79,162.01,-60.91
617,52342981,-0.7549,1.3828,0.3779,40.06,166.46,-57.74
618,52347982,-0.7666,1.3828,0.3774,39.09,171.16,-54.45
619,52352980,-0.7803,1.3799,0.3838,37.93,175.91,-50.85
620,52357982,-0.7944,1.3745,0.3892,36.46,180.55,-47.44
621,52362981,-0.8066,1.3613,0.3896,34.70,185.61,-43.78
622,52367980,-0.8286,1.3584,0.3955,32.93,190.37,-40.18
623,52372984,-0.8564,1.3491,0.3994,31.10,195.18,-36.40
624,52377982,-0.8779,1.3438,0.4053,29.33,199.94,-32.56
625,52382981,-0.9009,1.3379,0.4111,27.68,204.70,-28.84
626,52387982,-0.9229,1.3301,0.4224,26.28,209.51,-25.00
627,52392982,-0.9502,1.3262,0.4224,24.82,214.21,-21.34
628,52397982,-0.9731,1.3325,0.4370,23.72,219.02,-17.80
629,52402982,-0.9932,1.3359,0.4492,22.32,223.66,-14.45
630,52407980,-1.0088,1.3369,0.4653,21.34,228.60,-11.10
631,52412980,-1.0273,1.3496,0.4761,20.61,233.17,-8.05
632,52417980,-1.0439,1.3472,0.4922,20.12,237.99,-4.76
633,52422981,-1.0576,1.3413,0.4995,19.82,242.68,-1.59
634,52427982,-1.0708,1.3472,0.5044,19.82,247.20,1.52
635,52432981,-1.0894,1.3467,0.5127,20.12,251.46,4.76
636,52437982,-1.1157,1.3379,0.5166,20.61,255.67,7.99
637,52442981,-1.1445,1.3359,0.5195,21.04,259.57,11.46
638,52447982,-1.1689,1.3311,0.5215,21.52,263.23,15.06
639,52452981,-1.1987,1.3271,0.5283,21.77,267.07,18.66
640,52457982,-1.2251,1.3296,0.5332,21.95,270.49,22.32
641,52462981,-1.2524,1.3325,0.5498,21.65,273.90,25.79
642,52467981,-1.2759,1.3350,0.5635,21.04,277.20,29.21
643,52472984,-1.2891,1.3462,0.5840,20.37,280.61,32.50
644,52477980,-1.2969,1.3540,0.5947,19.51,283.29,34.88
645,52482982,-1.3125,1.3599,0.6025,18.11,287.38,38.35
646,52487982,-1.3169,1.3613,0.6187,17.26,289.94,40.49
647,52492982,-1.3271,1.3691,0.6323,16.22,293.05,43.17
648,52497981,-1.3345,1.3726,0.6411,15.55,296.10,45.73
649,52502982,-1.3481,1.3799,0.6445,14.94,299.09,48.29
650,52507982,-1.3657,1.3896,0.6592,15.18,301.77,50.79
651,52512982,-1.3857,1.4038,0.6670,15.85,304.45,53.29
652,52517982,-1.4180,1.4092,0.6729,17.20,306.89,55.43
653,52522982,-1.4526,1.4268,0.6836,18.96,309.33,57.74
654,52527982,-1.4824,1.4385,0.6948,21.52,311.59,60.12
655,52532982,-1.5078,1.4443,0.7080,24.51,313.84,62.38
656,52537980,-1.5371,1.4561,0.7319,27.99,316.34,64.88
657,52542984,-1.5669,1.4683,0.7485,31.52,319.09,67.01
658,52547982,-1.5981,1.4824,0.7612,34.82,321.77,69.15
659,52552982,-1.6318,1.4985,0.7822,37.80,324.70,70.98
660,52557981,-1.6626,1.5049,0.8057,40.24,327.44,72.87
661,52562982,-1.6914,1.5234,0.8237,42.32,330.30,74.51
662,52567981,-1.7197,1.5386,0.8340,44.15,333.05,75.98
663,52572995,-1.7534,1.5518,0.8374,46.04,335.73,77.50
664,52577984,-1.7974,1.5640,0.8438,48.11,338.11,79.09
665,52582981,-1.8403,1.5703,0.8428,50.61,340.49,80.67
666,52587982,-1.8809,1.5791,0.8418,53.41,342.62,82.56
667,52592981,-1.9248,1.5884,0.8447,56.83,344.82,84.76
668,52598047,-1.9590,1.5918,0.8472,60.30,346.89,87.38
669,52602981,-1.9922,1.5977,0.8511,64.09,349.33,88.66
670,52607982,-2.0317,1.6069,0.8496,67.74,351.89,91.83
671,52612980,-2.0620,1.6187,0.8574,71.22,354.57,94.57
672,52617980,-2.0762,1.6353,0.8608,74.15,357.68,97.13
673,52622982,-2.0767,1.6489,0.8657,76.71,361.10,99.88
674,52627983,-2.0674,1.6548,0.8696,78.48,365.06,102.62
675,52632982,-2.0522,1.6729,0.8833,79.76,369.39,105.12
676,52638267,-2.0366,1.6816,0.8877,80.43,373.78,107.62
677,52642982,-2.0303,1.6851,0.8887,80.73,378.41,110.18
678,52648151,-2.0337,1.6929,0.8970,80.91,382.99,112.99
679,52652982,-2.0625,1.6958,0.8965,81.10,387.44,115.91
680,52657981,-2.0864,1.6841,0.8853,81.52,391.52,118.84
681,52662982,-2.0918,1.6753,0.8916,82.13,395.18,122.20
682,52667981,-2.1001,1.6709,0.9009,83.05,399.02,125.73
683,52672983,-2.1113,1.6699,0.9082,84.27,402.56,129.39
684,52678078,-2.1221,1.6655,0.9199,85.30,406.04,133.29
685,52682982,-2.1387,1.6567,0.9404,86.59,409.33,137.20
686,52687981,-2.1655,1.6582,0.9487,87.50,412.93,141.10
687,52692982,-2.1904,1.6699,0.9683,87.87,416.22,144.94
688,52697982,-2.2197,1.6797,0.9819,87.68,419.45,148.54
689,52702982,-2.2393,1.6875,0.9932,87.07,422.56,152.13
690,52707981,-2.2554,1.6831,1.0112,86.52,425.55,155.67
691,52712982,-2.2524,1.6899,1.0410,86.22,428.23,159.33
692,52717980,-2.2539,1.6948,1.0654,86.10,430.98,163.05
693,52722982,-2.2480,1.6914,1.0669,86.52,433.35,166.65
694,52727984,-2.2368,1.6934,1.0908,87.50,435.49,170.43
695,52732981,-2.2285,1.6895,1.1084,89.09,437.50,174.09
696,52737982,-2.2065,1.6855,1.1240,91.16,439.09,178.17
697,52742981,-2.1836,1.6890,1.1436,93.48,440.61,182.07
698,52748295,-2.1572,1.6890,1.1719,95.98,441.77,186.10
699,52752982,-2.1250,1.6963,1.1831,98.48,443.17,189.88
700,52757982,-2.1094,1.6963,1.2178,101.22,444.21,193.60
701,52762981,-2.0986,1.6846,1.2349,103.66,444.94,197.26
702,52767980,-2.0874,1.6929,1.2773,105.61,445.55,200.79
703,52772982,-2.0845,1.7065,1.3120,107.38,445.73,204.09
704,52777982,-2.0806,1.7271,1.3389,109.21,445.61,207.13
705,52782982,-2.0781,1.7432,1.3711,111.34,444.88,210.06
706,52787982,-2.0576,1.7515,1.4111,113.72,443.84,212.74
707,52792981,-2.0312,1.7676,1.4478,117.07,442.44,215.43
708,52797982,-2.0020,1.7759,1.4883,121.16,440.30,217.99
709,52802981,-1.9634,1.7939,1.5210,124.88,438.66,220.06
710,52807982,-1.9233,1.7959,1.5645,130.12,436.34,222.62
711,52812981,-1.8765,1.7939,1.5996,136.34,433.66,225.12
712,52817980,-1.8315,1.7852,1.6240,142.68,430.85,227.93
713,52822980,-1.7852,1.7803,1.6509,148.78,427.99,230.91
714,52827984,-1.7490,1.7622,1.6724,154.33,424.82,233.90
715,52832981,-1.7163,1.7705,1.6997,158.35,421.77,237.13
716,52837980,-1.6860,1.7783,1.7148,160.30,418.35,240.24
717,52842982,-1.6675,1.7754,1.7368,160.18,415.30,243.60
718,52847982,-1.6533,1.7729,1.7490,157.87,412.07,247.07
719,52852982,-1.6460,1.7710,1.7651,153.29,408.96,250.85
720,52857981,-1.6382,1.7617,1.7983,146.95,405.91,255.00
721,52862982,-1.6357,1.7563,1.8193,139.09,402.74,259.57
722,52867982,-1.6553,1.7476,1.8271,130.61,399.39,264.76
723,52872983,-1.6768,1.7329,1.8457,120.00,395.55,270.55
724,52878286,-1.6611,1.6997,1.8306,106.89,390.18,278.60
725,52882983,-1.6567,1.6826,1.8794,97.68,386.28,284.63
726,52887982,-1.7358,1.6514,1.8760,84.70,381.22,292.56
727,52892981,-1.7896,1.6182,1.8843,71.16,375.73,301.52
728,52897982,-1.7788,1.5801,1.9160,57.13,369.94,311.04
729,52902981,-1.7563,1.5439,1.9175,42.44,364.02,321.40
730,52907982,-1.7676,1.5029,1.9180,26.65,357.38,332.44
731,52912982,-1.7891,1.4492,1.9106,9.88,350.30,344.21
732,52917980,-1.7974,1.3867,1.8970,-8.23,342.93,356.52
733,52922982,-1.8169,1.3218,1.9092,-27.80,334.70,369.57
734,52927982,-1.8403,1.2446,1.8926,-48.84,325.91,382.99
735,52932982,-1.8696,1.1665,1.8818,-71.46,316.10,396.77
736,52937981,-1.9150,1.1025,1.8652,-95.06,305.49,410.91
737,52942982,-1.9463,1.0127,1.8555,-118.96,293.60,425.24
738,52947995,-1.9785,0.9419,1.8345,-143.90,280.85,439.63
739,52952982,-2.0127,0.8564,1.8179,-170.12,266.89,453.84
740,52957982,-2.0278,0.7695,1.7954,-196.28,251.83,467.99
741,52962982,-2.0503,0.6831,1.7671,-221.34,235.67,481.89
742,52967982,-2.0566,0.5903,1.7349,-245.49,218.17,495.73
743,52972982,-2.0728,0.4917,1.6934,-268.78,200.00,509.02
744,52977982,-2.1001,0.4097,1.6572,-290.18,180.61,521.52
745,52982981,-2.1201,0.3315,1.6167,-309.33,160.12,533.60
746,52987984,-2.1509,0.2544,1.5581,-326.65,138.60,544.76
747,52992981,-2.1816,0.1953,1.4976,-342.26,115.73,555.06
748,52997982,-2.2236,0.1440,1.4277,-358.60,87.07,565.98
749,53002984,-2.2866,0.0542,1.5356,-368.11,68.23,573.11
750,53008230,-2.3682,0.0752,1.6167,-378.90,44.63,581.95
751,53012983,-2.3940,0.0034,1.5269,-388.11,20.30,590.55
752,53017982,-2.4004,-0.0615,1.4297,-395.49,-5.12,598.54
753,53022982,-2.3291,-0.1367,1.7915,-404.15,-29.76,605.37
754,53027982,-2.1763,-0.2925,1.9600,-415.55,-54.82,611.22
755,53032982,-1.8916,-0.7314,2.4751,-428.60,-80.55,616.10
756,53037983,-1.7305,-0.9165,2.1401,-442.56,-108.48,620.00
757,53042982,-2.1924,-0.6685,2.1167,-456.40,-138.60,619.57
758,53047980,-2.6060,-0.4751,1.7568,-468.78,-166.65,615.24
759,53052982,-2.8657,-0.3247,1.3213,-478.78,-194.21,608.05
760,53057982,-2.9482,-0.2788,1.0508,-486.46,-220.61,597.80
761,53062981,-2.9458,-0.2539,0.8408,-490.37,-246.16,585.24
762,53067982,-2.9697,-0.2549,0.6270,-490.00,-270.79,571.40
763,53072981,-3.0332,-0.2246,0.4946,-485.24,-294.76,556.46
764,53077982,-3.0483,-0.3765,0.4067,-477.26,-317.26,540.73
765,53082981,-3.0073,-1.1826,0.2197,-466.89,-338.66,526.46
766,53087984,-2.9839,-1.7769,0.1899,-456.40,-359.02,513.84
767,53092982,-3.0234,-2.0518,0.3462,-450.00,-376.04,498.96
768,53097982,-2.9468,-1.6885,0.5322,-449.63,-389.02,479.09
769,53102983,-2.6797,-1.3936,0.4580,-452.44,-398.96,453.29
770,53108101,-2.3047,-1.4160,0.1880,-452.80,-409.94,425.30
771,53112983,-2.1255,-1.5366,0.1030,-446.40,-422.01,396.77
772,53118050,-2.2456,-1.5171,0.0547,-432.80,-432.38,367.62
773,53123055,-2.3389,-1.4346,-0.0850,-411.52,-440.61,338.17
774,53127982,-2.2910,-1.4092,-0.1270,-389.45,-445.12,315.06
775,53132982,-2.3252,-1.2676,-0.3594,-355.67,-449.02,287.07
776,53137982,-2.2471,-1.3374,-0.4614,-314.21,-451.10,261.46
777,53142982,-2.2065,-1.2612,-0.5459,-267.38,-450.00,238.17
778,53147982,-2.2534,-1.2070,-0.6377,-218.48,-445.79,216.71
779,53152982,-2.3418,-1.1514,-0.8433,-172.93,-439.94,197.20
780,53157983,-2.3511,-1.2114,-1.0039,-135.67,-433.11,179.02
781,53162982,-2.2837,-1.2485,-1.1274,-108.23,-424.82,162.20
782,53167982,-2.3979,-1.2456,-1.1743,-90.37,-415.12,146.28
783,53172982,-2.4976,-1.3643,-1.3457,-80.85,-404.51,130.85
784,53177982,-2.4487,-1.4141,-1.4634,-76.71,-393.66,116.65
785,53182983,-2.5708,-1.4067,-1.5645,-77.32,-382.13,102.32
786,53187981,-2.5342,-1.5029,-1.6201,-81.83,-369.57,88.05
787,53192984,-2.5991,-1.5488,-1.6802,-87.38,-356.40,74.70
788,53197981,-2.7085,-1.6177,-1.7461,-93.72,-342.56,61.16
789,53202982,-2.7866,-1.6382,-1.7241,-100.06,-327.80,48.11
790,53207982,-2.8096,-1.6157,-1.7471,-105.49,-312.38,35.79
791,53212982,-2.7959,-1.5879,-1.7471,-108.54,-296.52,24.09
792,53217980,-2.6396,-1.5435,-1.7134,-108.23,-280.12,13.29
793,53222982,-2.3706,-1.5254,-1.6973,-104.45,-262.80,3.23
794,53228145,-2.1997,-1.7266,-1.9946,-99.88,-244.63,-6.40
795,53232984,-1.9082,-1.9409,-2.2705,-100.18,-224.39,-15.85
796,53237982,-1.5825,-2.0356,-2.4741,-108.17,-199.51,-27.32
797,53242982,-1.4341,-1.8745,-2.4854,-120.37,-171.40,-40.55
798,53247982,-1.2959,-1.5986,-2.2886,-126.10,-142.56,-53.96
799,53252981,-1.1562,-1.3418,-1.9775,-118.96,-115.91,-65.24
800,53257982,-1.0166,-1.1611,-1.6997,-99.70,-92.38,-73.29
801,53262982,-0.8623,-1.0483,-1.4868,-73.35,-71.04,-79.33
802,53267982,-0.7114,-0.9927,-1.3105,-46.28,-51.40,-84.27
803,53272982,-0.5879,-0.9761,-1.2129,-22.74,-32.87,-89.02
804,53277982,-0.4839,-0.9619,-1.1538,-5.12,-15.55,-93.72
805,53282981,-0.4062,-0.9448,-1.1001,6.10,0.49,-98.41
806,53287981,-0.3330,-0.9312,-1.0229,12.50,15.24,-103.05
807,53292984,-0.3223,-0.8911,-0.9766,14.76,29.09,-107.68
808,53297982,-0.3193,-0.8472,-0.9355,13.66,41.83,-112.26
809,53302981,-0.3228,-0.8149,-0.8682,10.06,53.48,-116.71
810,53308409,-0.3252,-0.7876,-0.8052,5.61,64.39,-121.16
811,53312983,-0.3481,-0.7617,-0.7524,1.34,74.63,-124.94
812,53317982,-0.3760,-0.7407,-0.6934,-1.83,83.54,-128.60
813,53322982,-0.4033,-0.7329,-0.6436,-3.72,92.20,-132.07
814,53327980,-0.4365,-0.7295,-0.5972,-3.90,100.12,-135.00
815,53332980,-0.4727,-0.7354,-0.5640,-2.44,106.89,-137.80
816,53337982,-0.4971,-0.7378,-0.5225,0.55,113.11,-140.43
817,53342982,-0.5068,-0.7339,-0.4785,5.30,118.41,-142.99
818,53347982,-0.5376,-0.7588,-0.4453,11.95,122.99,-145.49
819,53352981,-0.5630,-0.7754,-0.4204,19.33,126.71,-147.62
820,53357984,-0.5796,-0.7876,-0.3906,27.26,129.39,-149.76
821,53362981,-0.5820,-0.8042,-0.3604,35.06,131.59,-152.13
822,53367980,-0.5903,-0.8203,-0.3315,42.50,133.11,-154.45
823,53372982,-0.5947,-0.8364,-0.2944,49.27,134.15,-156.95
824,53378467,-0.5933,-0.8525,-0.2627,55.55,134.39,-159.33
825,53382982,-0.5918,-0.8638,-0.2402,60.98,134.27,-161.89
826,53387982,-0.5854,-0.8833,-0.2109,65.79,133.60,-164.45
827,53392982,-0.5850,-0.8955,-0.1831,70.00,132.68,-167.20
828,53397983,-0.5664,-0.9146,-0.1509,73.66,131.40,-169.70
829,53402982,-0.5620,-0.9336,-0.1265,76.65,129.82,-172.13
830,53408195,-0.5625,-0.9526,-0.1035,79.15,128.11,-174.76
831,53412982,-0.5581,-0.9731,-0.0757,81.16,126.16,-177.20
832,53417982,-0.5518,-0.9878,-0.0630,83.17,123.90,-179.70
833,53422982,-0.5391,-0.9976,-0.0332,84.70,121.40,-182.26
834,53427982,-0.5161,-1.0137,-0.0132,86.34,118.78,-184.76
835,53432982,-0.4961,-1.0278,0.0005,88.29,116.22,-187.20
836,53437980,-0.4849,-1.0371,0.0127,89.88,113.90,-189.09
837,53442984,-0.4678,-1.0400,0.0239,92.50,110.43,-191.83
838,53447982,-0.4536,-1.0312,0.0386,94.27,107.99,-193.48
839,53452982,-0.4429,-1.0210,0.0488,96.40,104.94,-195.67
840,53457980,-0.4194,-1.0137,0.0620,98.78,101.59,-197.93
841,53463030,-0.4058,-0.9985,0.0693,101.04,98.23,-200.24
842,53467982,-0.3853,-0.9917,0.0791,103.72,94.70,-202.44
843,53472980,-0.3594,-0.9932,0.0845,106.59,91.10,-204.63
844,53477982,-0.3394,-0.9854,0.0952,109.94,88.11,-206.65
845,53482982,-0.3154,-0.9834,0.1040,113.72,85.00,-208.54
846,53487980,-0.2944,-0.9814,0.1021,117.50,81.04,-210.24
847,53492982,-0.2705,-0.9722,0.1064,121.40,77.38,-211.89
848,53497984,-0.2480,-0.9624,0.1157,125.98,73.90,-213.41
849,53502981,-0.2339,-0.9463,0.1216,128.35,70.37,-214.76
850,53507982,-0.2188,-0.9331,0.1206,132.68,66.95,-216.04
851,53512982,-0.2036,-0.9131,0.1226,136.40,63.48,-217.20
852,53517982,-0.1870,-0.8965,0.1353,140.00,60.30,-218.29
853,53522981,-0.1665,-0.8765,0.1357,143.35,57.13,-219.33
854,53527982,-0.1372,-0.8643,0.1392,146.65,53.90,-220.18
855,53532982,-0.1069,-0.8472,0.1582,149.45,50.67,-220.91
856,53537982,-0.0791,-0.8306,0.1523,151.95,47.74,-221.59
857,53542981,-0.0557,-0.8232,0.1470,154.63,44.51,-222.01
858,53547982,-0.0366,-0.8101,0.1685,156.52,41.34,-222.26
859,53552981,-0.0122,-0.8057,0.1606,158.23,38.17,-222.26
860,53557982,0.0122,-0.7979,0.1641,159.57,35.06,-222.07
861,53562982,0.0327,-0.7861,0.1675,160.49,31.95,-221.52
862,53567982,0.0498,-0.7739,0.1572,160.85,28.96,-220.79
863,53572982,0.0708,-0.7578,0.1606,160.79,26.16,-220.06
864,53577982,0.0845,-0.7373,0.1597,160.00,23.48,-219.15
865,53583003,0.0952,-0.7222,0.1489,158.84,21.04,-218.11
866,53588027,0.1104,-0.6997,0.1548,157.07,18.90,-217.20
867,53592981,0.1313,-0.6782,0.1538,154.88,17.13,-216.28
868,53597999,0.1553,-0.6597,0.1538,152.44,15.61,-215.49
869,53602982,0.1914,-0.6353,0.1528,149.51,14.63,-214.63
870,53607982,0.2236,-0.6211,0.1528,146.40,13.78,-213.96
871,53612981,0.2534,-0.6045,0.1533,142.99,13.17,-213.23
872,53617982,0.2847,-0.5859,0.1621,139.51,12.62,-212.50
873,53622981,0.2925,-0.5815,0.1504,136.16,12.13,-211.77
874,53627984,0.3091,-0.5728,0.1675,131.65,11.65,-210.98
875,53632981,0.3271,-0.5645,0.1699,129.76,11.52,-210.30
876,53637982,0.3413,-0.5488,0.1821,124.82,11.40,-209.45
877,53642981,0.3677,-0.5479,0.1851,120.67,11.34,-208.54
878,53647984,0.3911,-0.5479,0.2061,116.71,11.40,-207.50
879,53652981,0.4072,-0.5327,0.2256,112.87,11.83,-206.28
880,53657982,0.4150,-0.5146,0.2305,109.39,12.32,-205.24
881,53662981,0.4351,-0.4399,0.3032,106.71,12.99,-204.27
882,53668141,0.4326,-0.4795,0.2251,105.24,13.54,-203.11
883,53672983,0.4468,-0.4902,0.2446,103.78,14.02,-201.83
884,53677981,0.4326,-0.4556,0.3037,102.01,15.18,-200.79
885,53682984,0.4575,-0.4404,0.2886,100.24,16.46,-199.70
886,53687980,0.4844,-0.4170,0.2759,98.29,17.20,-198.60
887,53692982,0.5029,-0.3965,0.2905,95.91,18.35,-197.68
888,53697984,0.5283,-0.3867,0.3081,93.35,19.51,-196.71
889,53702981,0.5415,-0.3779,0.3037,90.55,20.30,-195.61
890,53707980,0.5288,-0.3496,0.3076,87.50,21.10,-194.33
891,53712982,0.4087,-0.3315,0.3091,85.12,21.95,-193.60
892,53717982,0.4663,-0.3115,0.2827,83.60,22.87,-192.44
893,53722981,0.4985,-0.2705,0.2681,82.20,23.48,-191.10
894,53727982,0.5073,-0.2432,0.2915,80.79,24.21,-189.94
895,53732981,0.4609,-0.2139,0.2964,79.15,24.94,-188.84
896,53738119,0.4678,-0.1948,0.2881,77.44,25.91,-187.68
897,53742982,0.4282,-0.1758,0.2847,75.61,26.59,-186.52
898,53747982,0.4395,-0.1460,0.2842,73.41,27.32,-185.37
899,53752982,0.4624,-0.1450,0.2847,70.91,28.05,-184.15
900,53757980,0.4663,-0.1201,0.2798,67.80,28.90,-183.05
901,53762984,0.4673,-0.1099,0.2749,64.15,29.76,-181.83
902,53767982,0.4751,-0.1021,0.2666,60.61,30.55,-180.91
903,53772982,0.4873,-0.0952,0.2681,55.98,31.34,-179.88
904,53777980,0.4878,-0.0781,0.2671,50.98,32.13,-178.90
905,53782982,0.4961,-0.0688,0.2710,45.67,33.17,-177.99
906,53787984,0.5044,-0.0532,0.2617,40.30,34.15,-177.07
907,53792981,0.5146,-0.0381,0.2588,34.82,35.18,-176.28
908,53798051,0.5479,0.0298,0.2515,28.66,36.40,-175.18
909,53802982,0.5610,0.0430,0.2598,24.57,37.32,-174.45
910,53807984,0.5449,0.0708,0.2573,20.00,38.60,-173.29
911,53812981,0.5640,0.1191,0.2651,16.04,40.00,-172.44
912,53817982,0.5737,0.1538,0.2783,12.20,41.40,-171.16
913,53822982,0.5776,0.1816,0.2842,8.90,42.93,-170.00
914,53827982,0.5679,0.1992,0.2969,5.85,44.27,-168.78
915,53832981,0.5586,0.2075,0.3096,3.17,46.04,-167.56
916,53837980,0.5630,0.2256,0.3135,0.67,47.38,-166.22
917,53842980,0.5718,0.2363,0.3340,-1.59,48.84,-164.94
918,53848494,0.5996,0.2500,0.3394,-4.15,50.49,-163.35
919,53852982,0.6172,0.2661,0.3477,-5.73,51.40,-162.01
920,53858225,0.6411,0.2847,0.3730,-7.68,52.68,-160.37
921,53862983,0.6567,0.3037,0.3896,-9.76,53.78,-158.54
922,53867982,0.6572,0.3076,0.4189,-11.89,54.82,-156.77
923,53872982,0.6650,0.3062,0.4551,-14.15,55.85,-154.88
924,53877982,0.6812,0.3042,0.4932,-16.52,56.83,-152.93
925,53882982,0.7026,0.3008,0.5415,-19.27,57.74,-151.10
926,53887982,0.7334,0.2856,0.6001,-22.32,58.72,-149.27
927,53892982,0.7578,0.2725,0.6587,-25.79,59.27,-147.26
928,53897982,0.7793,0.2520,0.7188,-29.63,59.57,-145.30
929,53902981,0.7954,0.2178,0.7812,-33.90,59.88,-143.35
930,53907984,0.8389,0.1738,0.8418,-38.17,59.76,-141.22
931,53912981,0.8770,0.1240,0.8872,-42.87,59.27,-139.09
932,53917982,0.9131,0.0815,0.9272,-48.05,58.23,-136.95
933,53922981,0.8989,0.0737,0.9272,-53.96,57.20,-135.00
934,53928341,0.8477,0.1084,0.9155,-59.63,56.34,-133.29
935,53932982,0.7158,0.1592,0.8374,-64.70,55.12,-131.89
936,53937982,0.5776,0.2632,0.7700,-67.99,54.02,-130.61
937,53942982,0.4985,0.3398,0.7471,-69.45,53.41,-129.51
938,53947984,0.4771,0.4253,0.7100,-69.45,53.23,-128.23
939,53952981,0.5068,0.4912,0.7075,-68.23,53.17,-126.65
940,53957982,0.5459,0.5239,0.6865,-66.10,52.62,-124.76
941,53962981,0.5967,0.5312,0.6743,-63.23,52.26,-122.44
942,53967980,0.6299,0.5542,0.6763,-59.70,51.71,-120.06
943,53972984,0.6675,0.5742,0.6982,-55.85,51.22,-117.38
944,53977982,0.6997,0.5957,0.7222,-51.95,50.85,-114.82
945,53982982,0.7222,0.6060,0.7441,-48.05,50.98,-112.26
946,53987982,0.7427,0.6099,0.7500,-44.21,50.91,-109.57
947,53992981,0.7637,0.6182,0.7954,-40.67,50.98,-106.77
948,53997982,0.7749,0.6309,0.8052,-37.07,51.40,-103.78
949,54002981,0.7881,0.6460,0.8159,-33.78,52.01,-100.61
950,54008371,0.8022,0.6646,0.8418,-30.85,52.68,-97.38
951,54012982,0.8252,0.6782,0.8687,-27.80,53.41,-93.84
952,54017982,0.8491,0.6890,0.8774,-25.12,54.51,-90.24
953,54022982,0.8623,0.7061,0.8828,-22.62,55.55,-86.71
954,54027982,0.8838,0.7217,0.8853,-20.61,56.65,-83.11
955,54032982,0.8950,0.7300,0.8926,-18.84,57.62,-79.39
956,54037982,0.9146,0.7275,0.9165,-17.32,58.60,-75.79
957,54042982,0.9282,0.7939,0.9565,-15.61,60.00,-72.80
958,54047980,0.9590,0.7725,0.9165,-13.84,61.28,-70.12
959,54052980,0.9639,0.7290,0.9292,-13.05,62.56,-67.44
960,54057980,0.9785,0.6982,0.9648,-12.87,63.84,-64.70
961,54063426,0.9028,0.7090,0.9336,-12.93,64.88,-61.46
962,54067982,0.9531,0.6851,0.9302,-13.17,65.61,-58.29
963,54072981,0.9907,0.6733,0.9434,-13.78,66.04,-54.88
964,54077980,0.9614,0.7056,0.8872,-14.21,66.22,-51.83
965,54082982,0.9893,0.6724,0.9419,-15.00,65.98,-48.72
966,54087982,0.9780,0.7529,0.9849,-14.76,66.46,-46.71
967,54092982,0.9639,0.6431,0.8677,-12.99,66.59,-45.06
968,54097980,0.9839,0.7080,0.8804,-9.27,65.98,-45.30
969,54102984,1.0674,0.5923,1.0176,-4.88,65.79,-45.67
970,54107982,1.0659,0.5493,0.9604,-0.61,65.79,-44.57
971,54112983,0.9824,0.5430,0.9121,4.09,65.43,-42.68
972,54117981,0.9282,0.4653,0.9292,7.32,65.30,-41.16
973,54122984,0.8911,0.4448,0.9385,11.59,65.49,-38.60
974,54127981,0.8696,0.4404,0.8896,16.16,65.55,-35.67
975,54132982,0.8662,0.4512,0.8726,20.61,65.18,-32.20
976,54138339,0.8716,0.4546,0.8789,25.73,65.18,-27.44
977,54142982,0.8711,0.5073,0.8906,29.09,65.12,-24.21
978,54147981,0.8589,0.5059,0.8716,33.23,64.82,-20.18
979,54152982,0.8491,0.5234,0.8506,37.38,64.57,-16.04
980,54157982,0.8564,0.5728,0.8423,40.98,64.15,-12.20
981,54162982,0.8687,0.5742,0.8179,43.11,62.99,-9.39
982,54167980,0.8770,0.5386,0.8452,44.33,61.71,-6.59
983,54172982,0.8657,0.5488,0.8618,45.12,60.49,-3.96
984,54177981,0.8672,0.5771,0.8545,44.70,59.27,-1.89
985,54182983,0.8779,0.6157,0.8413,43.05,57.68,-0.91
986,54187982,0.8892,0.6074,0.8652,39.82,55.91,-1.10
987,54192981,0.9082,0.5571,0.8896,34.88,54.02,-1.52
988,54197982,0.9082,0.5063,0.8984,29.45,52.32,-2.01
989,54202984,0.8809,0.4868,0.8950,23.60,50.55,-2.20
990,54207981,0.8501,0.4863,0.8823,17.56,48.72,-2.56
991,54213571,0.8276,0.4829,0.8789,10.73,46.34,-2.56
992,54218085,0.8213,0.4785,0.8745,6.04,44.70,-2.74
993,54222982,0.8135,0.4658,0.8716,0.67,42.56,-2.93
994,54228523,0.7979,0.4575,0.8667,-5.61,39.82,-3.17
995,54232982,0.7866,0.4502,0.8564,-10.06,37.62,-3.35
996,54237987,0.7734,0.4526,0.8501,-13.41,35.73,-3.54
997,54242982,0.7588,0.4434,0.8511,-17.01,33.17,-3.78
998,54247981,0.7485,0.4380,0.8438,-19.76,30.61,-4.02
999,54252982,0.7393,0.4331,0.8452,-21.89,27.99,-4.33
1000,54257982,0.7344,0.4224,0.8306,-23.17,25.30,-4.57
1001,54262982,0.7275,0.4160,0.8296,-23.90,22.50,-4.88
1002,54267982,0.7163,0.4131,0.8389,-23.84,19.82,-5.18
1003,54272982,0.7100,0.4131,0.8320,-23.05,17.01,-5.49
1004,54278135,0.6816,0.4121,0.8359,-21.71,14.51,-5.79
1005,54282982,0.6694,0.4248,0.8418,-19.33,11.52,-6.22
1006,54287981,0.6958,0.4268,0.8491,-16.28,8.84,-6.71
1007,54292982,0.6968,0.4297,0.8467,-12.50,6.28,-7.13
1008,54297982,0.6772,0.4414,0.8491,-8.23,3.72,-7.62
1009,54302982,0.6602,0.4502,0.8525,-3.35,0.98,-8.11
1010,54307981,0.6489,0.4487,0.8442,1.83,-1.46,-8.60
1011,54312982,0.6455,0.4521,0.8438,7.07,-3.96,-9.15
1012,54317982,0.6406,0.4531,0.8433,12.74,-6.52,-9.63
1013,54322981,0.6377,0.4556,0.8340,18.23,-9.02,-10.06
1014,54327980,0.6284,0.4536,0.8281,23.54,-11.52,-10.55
1015,54332984,0.6230,0.4482,0.8223,28.54,-14.02,-10.67
1016,54337981,0.6147,0.4482,0.8232,33.48,-16.34,-10.85
1017,54342982,0.6084,0.4458,0.8154,37.99,-18.60,-10.91
1018,54347981,0.6055,0.4424,0.8125,42.26,-20.91,-10.85
1019,54352982,0.6011,0.4434,0.8066,46.34,-23.05,-10.73
1020,54357981,0.5947,0.4438,0.8071,50.00,-25.24,-10.43
1021,54362982,0.5938,0.4448,0.8062,53.48,-27.20,-10.12
1022,54367981,0.5889,0.4463,0.8042,56.40,-29.02,-9.63
1023,54372982,0.5859,0.4448,0.8047,59.27,-30.79,-9.21
1024,54377981,0.5894,0.4473,0.8071,61.65,-32.50,-8.72
1025,54382982,0.5854,0.4478,0.7998,63.84,-33.90,-8.11
1026,54387982,0.5815,0.4517,0.8027,65.73,-35.37,-7.50
1027,54392982,0.5850,0.4531,0.7944,67.38,-36.77,-6.89
1028,54397981,0.5874,0.4590,0.7886,68.84,-38.17,-6.28
1029,54402982,0.5918,0.4580,0.7915,70.12,-39.09,-5.73
1030,54407980,0.6011,0.4619,0.7910,71.52,-40.12,-5.06
1031,54412981,0.6035,0.4673,0.7974,72.74,-41.16,-4.45
1032,54417988,0.6069,0.4727,0.8062,74.15,-42.01,-3.60
1033,54422981,0.6079,0.4780,0.7998,75.49,-42.50,-2.87
1034,54427983,0.6108,0.4805,0.8052,76.77,-43.23,-2.07
1035,54432982,0.6172,0.4868,0.8027,78.29,-43.66,-1.28
1036,54437982,0.6221,0.4917,0.7905,79.45,-44.21,-0.61
1037,54442982,0.6323,0.4888,0.7900,80.91,-44.76,0.18
1038,54447983,0.6401,0.4961,0.7866,81.89,-45.18,0.79
1039,54452981,0.6509,0.4946,0.7793,82.80,-45.73,1.46
1040,54457980,0.6606,0.5024,0.7690,83.54,-46.40,2.07
1041,54462982,0.6758,0.5054,0.7622,84.27,-46.95,2.62
1042,54467983,0.6831,0.5059,0.7588,84.76,-47.50,3.23
1043,54472982,0.6899,0.5117,0.7529,85.49,-47.99,3.66
1044,54477982,0.6992,0.5146,0.7534,85.91,-48.35,4.09
1045,54482982,0.7051,0.5186,0.7407,86.22,-48.72,4.57
1046,54487982,0.7104,0.5190,0.7339,86.40,-49.15,5.12
1047,54492982,0.7153,0.5200,0.7349,86.46,-49.45,5.55
1048,54497982,0.7266,0.5273,0.7314,86.34,-49.88,5.91
1049,54502982,0.7319,0.5269,0.7300,86.16,-50.12,6.34
1050,54507982,0.7412,0.5312,0.7124,85.85,-50.43,6.59
1051,54513042,0.7412,0.5396,0.7134,85.30,-50.49,6.95
1052,54518261,0.7471,0.5400,0.7075,84.70,-50.73,7.32
1053,54522982,0.7461,0.5449,0.6924,83.90,-50.85,7.50
1054,54527983,0.7485,0.5449,0.6890,82.93,-51.04,7.68
1055,54532982,0.7490,0.5508,0.6846,81.89,-51.16,7.99
1056,54537982,0.7520,0.5513,0.6772,80.73,-51.16,8.17
1057,54542982,0.7505,0.5425,0.6729,79.39,-51.40,8.54
1058,54547982,0.7510,0.5410,0.6602,77.80,-51.59,8.84
1059,54552982,0.7515,0.5386,0.6631,76.34,-51.52,9.09
1060,54557982,0.7510,0.5352,0.6626,74.57,-51.34,9.45
1061,54562982,0.7437,0.5342,0.6509,73.17,-51.34,9.88
1062,54567982,0.7446,0.5322,0.6489,71.28,-51.22,10.24
1063,54572982,0.7373,0.5293,0.6401,69.45,-51.04,10.55
1064,54577982,0.7344,0.5303,0.6348,67.62,-50.79,10.98
1065,54582982,0.7305,0.5254,0.6313,65.79,-50.79,11.40
1066,54587980,0.7261,0.5269,0.6270,63.84,-50.18,11.71
1067,54592982,0.7275,0.5283,0.6245,62.13,-50.00,12.26
1068,54597981,0.7236,0.5308,0.6250,60.30,-49.63,12.50
1069,54602982,0.7207,0.5293,0.6177,58.48,-49.09,12.99
1070,54607980,0.7114,0.5273,0.6221,56.71,-48.60,13.35
1071,54612980,0.7090,0.5293,0.6147,54.88,-48.05,13.72
1072,54617984,0.7080,0.5220,0.6152,53.11,-47.50,14.15
1073,54622981,0.7061,0.5239,0.6118,51.28,-46.95,14.51
1074,54627984,0.7046,0.5249,0.6050,49.70,-46.28,14.94
1075,54632982,0.7021,0.5234,0.5981,48.05,-45.61,15.30
1076,54637981,0.6997,0.5239,0.5981,46.40,-44.94,15.73
1077,54642982,0.6987,0.5215,0.6016,44.82,-44.27,16.16
1078,54647982,0.6938,0.5205,0.5898,43.29,-43.60,16.52
1079,54652982,0.6938,0.5210,0.5796,42.20,-42.99,16.89
1080,54657980,0.6938,0.5210,0.5791,40.67,-42.26,17.20
1081,54663069,0.6919,0.5210,0.5713,39.45,-41.52,17.32
1082,54667982,0.6870,0.5225,0.5728,38.41,-40.67,17.80
1083,54672982,0.6885,0.5195,0.5610,37.38,-40.18,18.17
1084,54677981,0.6860,0.5225,0.5649,36.40,-39.51,18.54
1085,54682982,0.6895,0.5210,0.5513,35.43,-38.66,18.66
1086,54688040,0.6885,0.5210,0.5571,34.70,-37.93,18.84
1087,54692982,0.6851,0.5186,0.5483,33.84,-37.20,19.02
1088,54697980,0.6914,0.5215,0.5430,33.05,-36.59,19.27
1089,54702984,0.6899,0.5234,0.5435,32.20,-35.73,19.45
1090,54707981,0.6948,0.5249,0.5361,31.59,-35.30,19.51
1091,54712984,0.6943,0.5298,0.5352,30.98,-34.51,19.63
1092,54717981,0.6982,0.5337,0.5234,30.12,-33.84,19.70
1093,54722982,0.7017,0.5356,0.5205,29.45,-33.05,19.57
1094,54727981,0.7056,0.5366,0.5171,28.84,-32.56,19.51
1095,54732982,0.7158,0.5435,0.5122,28.29,-31.77,19.33
1096,54737980,0.7139,0.5459,0.5054,27.62,-31.22,19.15
1097,54742995,0.7241,0.5459,0.5005,27.13,-30.61,18.90
1098,54747982,0.7300,0.5479,0.4937,26.59,-30.00,18.72
1099,54752981,0.7383,0.5532,0.4819,26.16,-29.45,18.23
1100,54757983,0.7437,0.5552,0.4810,25.79,-29.02,17.87
1101,54762982,0.7480,0.5557,0.4722,25.37,-28.23,17.62
1102,54767986,0.7554,0.5547,0.4653,25.00,-27.87,17.07
1103,54772984,0.7612,0.5527,0.4614,24.63,-27.56,16.65
1104,54777981,0.7676,0.5562,0.4502,24.27,-27.07,16.16
1105,54782980,0.7783,0.5527,0.4390,23.78,-26.59,15.67
1106,54787980,0.7793,0.5488,0.4355,23.35,-26.28,15.18
1107,54792982,0.7905,0.5503,0.4219,22.74,-25.91,14.70
1108,54798398,0.7964,0.5444,0.4185,22.13,-25.67,13.96
1109,54802982,0.8003,0.5469,0.4087,21.77,-25.49,13.48
1110,54807981,0.8062,0.5459,0.4077,21.16,-25.12,13.11
1111,54812982,0.8125,0.5435,0.3945,20.49,-24.94,12.50
1112,54817981,0.8125,0.5400,0.3940,20.00,-24.82,11.89
1113,54822982,0.8149,0.5371,0.3901,19.70,-24.45,11.40
1114,54827981,0.8228,0.5391,0.3804,19.09,-24.21,10.79
1115,54832982,0.8267,0.5386,0.3784,18.48,-24.09,10.37
1116,54837982,0.8286,0.5356,0.3721,18.11,-23.72,9.76
1117,54842982,0.8389,0.5352,0.3711,17.56,-23.72,9.21
1118,54847981,0.8394,0.5400,0.3579,17.20,-23.41,8.78
1119,54852982,0.8384,0.5459,0.3584,16.83,-23.41,8.17
1120,54857981,0.8433,0.5474,0.3540,16.40,-23.23,7.62
1121,54862982,0.8438,0.5537,0.3423,16.04,-23.17,6.95
1122,54867982,0.8496,0.5493,0.3345,15.49,-22.99,6.34
1123,54872981,0.8486,0.5498,0.3359,15.12,-23.05,5.73
1124,54877982,0.8540,0.5503,0.3286,14.76,-22.99,5.06
1125,54882982,0.8525,0.5503,0.3276,14.21,-23.05,4.51
1126,54887982,0.8535,0.5498,0.3223,13.60,-23.05,3.90
1127,54892982,0.8550,0.5493,0.3169,13.17,-22.99,3.35
1128,54897982,0.8564,0.5513,0.3145,12.68,-22.93,2.74
1129,54902982,0.8579,0.5474,0.3071,12.07,-22.99,2.13
1130,54907982,0.8584,0.5474,0.2979,11.59,-22.93,1.71
1131,54912982,0.8594,0.5479,0.3013,11.16,-22.93,1.04
1132,54917985,0.8555,0.5508,0.2979,10.85,-22.93,0.67
1133,54922981,0.8540,0.5508,0.2896,10.37,-22.99,0.24
1134,54927980,0.8584,0.5498,0.2822,10.18,-22.93,-0.24
1135,54932982,0.8511,0.5518,0.2837,9.88,-22.93,-0.67
1136,54937981,0.8535,0.5459,0.2832,9.70,-22.93,-1.04
1137,54942984,0.8491,0.5449,0.2803,9.63,-22.87,-1.34
1138,54947982,0.8486,0.5483,0.2803,9.63,-22.80,-1.59
1139,54952982,0.8462,0.5483,0.2783,9.63,-22.68,-1.89
1140,54957982,0.8423,0.5537,0.2808,9.76,-22.62,-2.07
1141,54962981,0.8394,0.5503,0.2812,10.06,-22.50,-2.32
1142,54967981,0.8335,0.5527,0.2788,10.30,-22.32,-2.50
1143,54972980,0.8369,0.5464,0.2817,10.61,-22.20,-2.62
1144,54978372,0.8340,0.5522,0.2808,10.91,-22.01,-2.80
1145,54982982,0.8262,0.5464,0.2749,11.40,-21.65,-2.80
1146,54987982,0.8281,0.5479,0.2783,11.83,-21.65,-2.87
1147,54992980,0.8252,0.5479,0.2778,12.13,-21.46,-2.74
1148,54997981,0.8213,0.5518,0.2773,12.74,-20.98,-2.62
1149,55002982,0.8203,0.5464,0.2803,13.11,-20.79,-2.74
1150,55007982,0.8188,0.5532,0.2764,13.84,-20.24,-2.68
1151,55012982,0.8169,0.5537,0.2773,14.33,-19.88,-2.62
1152,55017980,0.8076,0.5508,0.2734,15.06,-19.45,-2.62
1153,55022982,0.8105,0.5527,0.2822,15.79,-18.90,-2.44
1154,55027982,0.8076,0.5562,0.2847,16.59,-18.35,-2.26
1155,55033047,0.8037,0.5586,0.2891,17.44,-17.74,-2.13
1156,55037984,0.8022,0.5537,0.2891,18.29,-17.20,-1.95
1157,55042982,0.7993,0.5566,0.2905,19.21,-16.46,-1.71
1158,55047982,0.7979,0.5547,0.2905,20.06,-16.04,-1.46
1159,55052981,0.7949,0.5518,0.2856,20.73,-15.18,-1.22
1160,55057982,0.7949,0.5615,0.2847,21.40,-14.51,-0.91
1161,55062982,0.7964,0.5615,0.2847,22.20,-13.84,-0.67
1162,55067980,0.7920,0.5625,0.2866,22.74,-13.05,-0.43
1163,55072980,0.7935,0.5601,0.2954,23.05,-12.38,-0.12
1164,55077982,0.7935,0.5684,0.2939,23.41,-11.52,0.18
1165,55082982,0.7905,0.5664,0.2949,23.72,-10.85,0.37
1166,55087982,0.7900,0.5718,0.2935,23.78,-10.12,0.61
1167,55092982,0.7915,0.5703,0.2915,23.78,-9.27,0.91
1168,55097982,0.7891,0.5679,0.2939,23.54,-8.54,1.16
1169,55102982,0.7905,0.5684,0.2910,23.17,-7.80,1.52
1170,55107982,0.7920,0.5703,0.2944,22.68,-7.07,1.65
1171,55112982,0.7896,0.5674,0.2954,22.20,-6.28,1.83
1172,55117982,0.7949,0.5674,0.2910,21.28,-5.61,2.07
1173,55122984,0.7974,0.5693,0.2925,20.43,-5.00,2.38
1174,55127983,0.8013,0.5718,0.2910,19.51,-4.27,2.44
1175,55132981,0.8076,0.5757,0.2847,18.35,-3.66,2.74
1176,55138385,0.7974,0.5723,0.2876,17.07,-3.05,2.87
1177,55142982,0.8047,0.5742,0.2856,15.91,-2.44,2.99
1178,55147981,0.8076,0.5786,0.2852,14.63,-2.01,3.11
1179,55152984,0.8115,0.5771,0.2861,13.17,-1.52,3.05
1180,55157982,0.8076,0.5737,0.2866,11.83,-0.85,3.29
1181,55162982,0.8091,0.5767,0.2920,10.24,-0.37,3.35
1182,55167982,0.8105,0.5752,0.2891,8.84,0.06,3.23
1183,55172982,0.8115,0.5757,0.2910,7.56,0.43,3.35
1184,55178047,0.8086,0.5742,0.2876,6.34,0.91,3.41
1185,55182982,0.8149,0.5737,0.2915,5.06,1.46,3.48
1186,55187984,0.8130,0.5698,0.2925,3.78,2.01,3.41
1187,55192985,0.8105,0.5688,0.2949,2.87,2.38,3.41
1188,55197982,0.8086,0.5718,0.2871,1.95,2.93,3.48
1189,55202981,0.8125,0.5669,0.2964,0.98,3.35,3.48
1190,55208490,0.8110,0.5679,0.2949,0.37,3.84,3.35
1191,55212982,0.8115,0.5698,0.2988,-0.30,4.27,3.41
1192,55217982,0.8086,0.5698,0.2969,-0.85,4.70,3.35
1193,55222982,0.8105,0.5703,0.2979,-1.34,5.06,3.17
1194,55227980,0.8101,0.5693,0.3013,-1.71,5.55,3.17
1195,55232983,0.8120,0.5664,0.3037,-2.13,5.85,3.05
1196,55237981,0.8120,0.5679,0.2993,-2.32,6.28,2.99
1197,55242983,0.8130,0.5591,0.3003,-2.62,6.59,2.93
1198,55248487,0.8101,0.5581,0.3120,-2.68,7.01,2.80
1199,55252984,0.8115,0.5547,0.3052,-2.74,7.44,2.68
1200,55257984,0.8130,0.5571,0.3066,-2.93,7.68,2.62
1201,55262981,0.8115,0.5557,0.3003,-2.87,7.74,2.38
1202,55267982,0.8145,0.5522,0.3018,-3.17,8.05,2.38
1203,55272980,0.8145,0.5557,0.3105,-3.17,8.35,2.20
1204,55277981,0.8193,0.5542,0.3047,-3.17,8.48,2.01
1205,55282982,0.8203,0.5537,0.3052,-3.29,8.66,1.77
1206,55288276,0.8145,0.5571,0.3071,-3.35,9.02,1.52
1207,55292982,0.8149,0.5566,0.3091,-3.29,9.02,1.34
1208,55297982,0.8184,0.5557,0.3110,-3.29,9.21,1.10
1209,55302983,0.8174,0.5581,0.3145,-3.35,9.27,0.73
1210,55307980,0.8159,0.5581,0.3135,-3.35,9.39,0.55
1211,55312980,0.8125,0.5552,0.3125,-3.29,9.45,0.30
1212,55317981,0.8159,0.5552,0.3154,-3.48,9.51,0.00
1213,55322982,0.8179,0.5586,0.3169,-3.60,9.70,-0.24
1214,55327982,0.8140,0.5591,0.3213,-3.60,9.63,-0.67
1215,55332982,0.8159,0.5566,0.3159,-3.60,9.76,-0.85
1216,55337981,0.8145,0.5586,0.3120,-3.60,9.70,-1.16
1217,55342982,0.8149,0.5566,0.3164,-3.66,9.88,-1.52
1218,55347982,0.8145,0.5542,0.3164,-3.66,9.70,-1.77
1219,55352982,0.8120,0.5562,0.3179,-3.78,9.88,-1.95
1220,55357981,0.8115,0.5527,0.3213,-3.66,9.63,-2.32
1221,55362982,0.8125,0.5562,0.3184,-3.72,9.63,-2.56
