# skilleye imu stream v1
# device=xiao_esp32c6 imu=mpu6050 addr=0x68
# rate_hz=200 accel_range_g=16 gyro_range_dps=2000 dlpf_hz=94
# units: accel in g, gyro in deg/s, t_us in microseconds since boot (monotonic)
# no shared clock with the camera -- tap the racket once before each take
# so both recordings share a spike to align on
seq,t_us,ax,ay,az,gx,gy,gz
0,255137498,-0.8291,-0.0894,-0.3833,-2.74,-15.61,8.96
1,255142504,-0.8369,-0.0781,-0.3838,-2.50,-14.94,8.84
2,255147497,-0.8789,-0.0693,-0.4038,-2.38,-14.21,8.48
3,255152501,-0.8872,-0.0771,-0.4053,-2.26,-13.90,8.05
4,255157501,-0.8867,-0.0757,-0.3999,-1.95,-13.29,7.87
5,255162516,-0.8853,-0.0669,-0.3862,-1.52,-12.56,7.50
6,255167498,-0.8813,-0.0620,-0.3955,-0.91,-11.95,7.07
7,255172499,-0.8711,-0.0645,-0.4038,-0.30,-11.46,6.71
8,255177498,-0.8652,-0.0684,-0.3999,0.24,-11.10,6.28
9,255182806,-0.8706,-0.0591,-0.3989,0.98,-10.61,5.98
10,255187499,-0.8647,-0.0625,-0.3970,1.71,-10.12,5.49
11,255192499,-0.8696,-0.0625,-0.4019,2.50,-9.70,5.12
12,255197502,-0.8667,-0.0615,-0.3970,3.17,-9.21,4.70
13,255202498,-0.8706,-0.0635,-0.3970,3.96,-8.84,4.33
14,255207499,-0.8623,-0.0625,-0.3994,4.57,-8.54,3.90
15,255212501,-0.8613,-0.0596,-0.3960,5.00,-8.17,3.72
16,255217499,-0.8628,-0.0581,-0.3960,5.55,-7.74,3.35
17,255222500,-0.8628,-0.0615,-0.3975,5.79,-7.20,3.05
18,255227499,-0.8579,-0.0610,-0.3931,6.16,-7.01,2.68
19,255232500,-0.8574,-0.0581,-0.4004,6.40,-6.71,2.38
20,255237499,-0.8550,-0.0591,-0.3921,6.59,-6.10,2.13
21,255242498,-0.8579,-0.0581,-0.3975,6.77,-5.73,1.77
22,255247499,-0.8511,-0.0542,-0.4009,6.71,-5.30,1.34
23,255252499,-0.8530,-0.0571,-0.3936,6.71,-4.82,1.10
24,255257556,-0.8521,-0.0522,-0.4023,6.59,-4.33,0.67
25,255262498,-0.8564,-0.0537,-0.3926,6.28,-3.78,0.24
26,255267499,-0.8535,-0.0527,-0.3892,5.98,-3.29,-0.18
27,255272499,-0.8525,-0.0532,-0.3916,5.55,-2.74,-0.67
28,255277796,-0.8525,-0.0532,-0.3896,5.06,-2.01,-1.04
29,255282499,-0.8545,-0.0513,-0.3838,4.39,-1.52,-1.46
30,255287798,-0.8574,-0.0503,-0.3906,3.84,-0.85,-2.01
31,255292499,-0.8647,-0.0493,-0.3882,3.17,-0.30,-2.44
32,255297499,-0.8643,-0.0508,-0.3911,2.56,0.24,-3.05
33,255302499,-0.8691,-0.0542,-0.3901,1.95,0.85,-3.41
34,255307499,-0.8716,-0.0474,-0.3926,1.40,1.34,-3.90
35,255312499,-0.8721,-0.0435,-0.3940,0.91,1.83,-4.39
36,255317498,-0.8740,-0.0479,-0.3926,0.61,2.50,-4.82
37,255322499,-0.8745,-0.0415,-0.3901,0.24,3.05,-5.18
38,255327499,-0.8750,-0.0430,-0.3872,-0.06,3.60,-5.61
39,255332583,-0.8726,-0.0449,-0.3818,-0.37,4.15,-5.85
40,255337500,-0.8711,-0.0415,-0.3838,-0.55,4.63,-6.16
41,255342499,-0.8740,-0.0435,-0.3872,-0.73,5.12,-6.28
42,255347499,-0.8726,-0.0449,-0.3833,-0.91,5.61,-6.52
43,255352498,-0.8760,-0.0425,-0.3882,-1.16,6.40,-6.71
44,255357499,-0.8730,-0.0435,-0.3857,-1.40,6.77,-6.83
45,255362498,-0.8779,-0.0454,-0.3784,-1.71,7.26,-6.95
46,255367567,-0.8789,-0.0469,-0.3794,-1.95,7.80,-7.01
47,255372501,-0.8833,-0.0415,-0.3813,-2.07,8.41,-7.20
48,255377498,-0.8848,-0.0444,-0.3853,-2.44,8.84,-7.32
49,255382499,-0.8887,-0.0420,-0.3862,-2.80,9.27,-7.32
50,255387919,-0.8911,-0.0410,-0.3896,-3.11,9.82,-7.50
51,255392499,-0.8901,-0.0366,-0.3901,-3.48,10.30,-7.62
52,255397590,-0.8887,-0.0376,-0.3931,-3.84,10.85,-7.87
53,255402499,-0.8906,-0.0366,-0.3906,-3.96,11.46,-8.17
54,255407638,-0.8828,-0.0327,-0.3862,-4.21,11.89,-8.48
55,255412720,-0.8848,-0.0293,-0.3882,-4.33,12.68,-8.72
56,255417499,-0.8848,-0.0293,-0.3857,-4.33,13.60,-8.96
57,255422830,-0.8843,-0.0298,-0.3877,-4.39,14.15,-9.45
58,255427499,-0.8901,-0.0303,-0.3916,-4.57,14.94,-9.76
59,255432499,-0.8882,-0.0312,-0.3940,-4.63,15.91,-10.12
60,255437501,-0.8872,-0.0312,-0.3936,-4.76,16.71,-10.61
61,255442498,-0.8872,-0.0332,-0.3901,-4.70,17.62,-11.04
62,255447497,-0.8892,-0.0342,-0.3994,-4.51,18.90,-11.40
63,255452499,-0.8926,-0.0322,-0.4033,-4.45,19.57,-11.77
64,255457498,-0.8970,-0.0361,-0.4004,-4.15,20.55,-12.07
65,255462499,-0.9019,-0.0366,-0.4082,-3.78,21.40,-12.32
66,255467499,-0.9053,-0.0371,-0.4053,-3.23,22.26,-12.56
67,255472498,-0.9126,-0.0410,-0.4053,-2.62,23.23,-12.74
68,255477499,-0.9160,-0.0400,-0.4102,-1.89,24.27,-12.99
69,255482499,-0.9204,-0.0449,-0.4189,-1.10,25.18,-13.17
70,255487499,-0.9268,-0.0503,-0.4180,-0.37,26.16,-13.29
71,255492499,-0.9287,-0.0522,-0.4229,0.43,27.01,-13.35
72,255497604,-0.9268,-0.0566,-0.4292,1.40,27.99,-13.35
73,255502499,-0.9326,-0.0581,-0.4277,2.44,28.96,-13.35
74,255507499,-0.9375,-0.0649,-0.4360,3.60,30.00,-13.29
75,255512500,-0.9365,-0.0708,-0.4409,4.70,31.04,-13.11
76,255517610,-0.9399,-0.0767,-0.4443,5.85,31.83,-12.93
77,255522713,-0.9365,-0.0801,-0.4468,7.01,32.80,-12.74
78,255527499,-0.9346,-0.0830,-0.4478,8.17,33.72,-12.68
79,255532603,-0.9355,-0.0869,-0.4507,9.39,34.76,-12.32
80,255537499,-0.9419,-0.0884,-0.4570,10.91,35.67,-12.20
81,255542500,-0.9375,-0.0869,-0.4629,12.44,36.52,-11.95
82,255547499,-0.9409,-0.0894,-0.4712,14.27,37.50,-11.89
83,255552499,-0.9414,-0.0967,-0.4834,16.16,38.35,-11.83
84,255557499,-0.9385,-0.1001,-0.4893,18.23,39.27,-11.71
85,255562498,-0.9390,-0.1050,-0.5000,20.37,39.82,-11.77
86,255567499,-0.9341,-0.0957,-0.5112,22.74,40.98,-11.83
87,255572499,-0.9341,-0.0972,-0.5024,25.00,42.01,-12.01
88,255577500,-0.9253,-0.0962,-0.5137,27.87,43.60,-12.32
89,255582499,-0.9287,-0.0942,-0.5132,30.61,45.06,-12.74
90,255587498,-0.9170,-0.0986,-0.5220,33.54,46.71,-13.11
91,255592499,-0.9043,-0.1030,-0.5239,36.46,48.60,-13.48
92,255597499,-0.8896,-0.1045,-0.5161,39.51,50.55,-13.72
93,255602499,-0.8789,-0.1025,-0.5093,42.74,52.56,-14.02
94,255607498,-0.8389,-0.0952,-0.5151,46.46,54.63,-14.39
95,255612694,-0.8579,-0.1104,-0.5537,50.61,56.22,-14.63
96,255617798,-0.9106,-0.1226,-0.5386,54.33,57.74,-14.76
97,255622499,-0.9272,-0.1323,-0.5376,57.44,59.51,-14.76
98,255627503,-0.9170,-0.1392,-0.5366,59.94,61.34,-14.70
99,255632500,-0.8926,-0.1440,-0.5425,61.95,62.93,-14.57
100,255637498,-0.8726,-0.1411,-0.5415,63.96,64.63,-14.51
101,255642578,-0.8608,-0.1387,-0.5498,66.16,66.10,-14.39
102,255647498,-0.8599,-0.1343,-0.5547,68.54,67.50,-14.39
103,255652786,-0.8589,-0.1372,-0.5596,71.10,68.78,-14.39
104,255657499,-0.8623,-0.1367,-0.5557,73.84,69.94,-14.39
105,255662499,-0.8569,-0.1377,-0.5601,76.71,70.91,-14.33
106,255667861,-0.8569,-0.1396,-0.5610,79.39,72.20,-14.27
107,255672499,-0.8452,-0.1440,-0.5601,82.20,73.11,-14.21
108,255677499,-0.8389,-0.1450,-0.5566,84.94,73.96,-14.09
109,255682499,-0.8296,-0.1519,-0.5625,87.74,74.76,-13.90
110,255687655,-0.8296,-0.1523,-0.5596,90.67,75.55,-13.78
111,255692499,-0.8228,-0.1572,-0.5625,93.54,76.28,-13.54
112,255697502,-0.8188,-0.1626,-0.5630,96.52,76.89,-13.17
113,255702499,-0.8184,-0.1685,-0.5674,99.63,77.50,-12.99
114,255707499,-0.8198,-0.1709,-0.5732,102.56,77.99,-12.80
115,255712499,-0.8145,-0.1733,-0.5728,105.37,78.54,-12.44
116,255717499,-0.8105,-0.1797,-0.5840,108.29,78.96,-12.32
117,255722499,-0.8027,-0.1890,-0.5806,111.10,79.27,-12.20
118,255727499,-0.7983,-0.1987,-0.5830,113.84,79.57,-12.07
119,255732964,-0.7969,-0.2080,-0.5952,116.77,79.76,-11.83
120,255737499,-0.7949,-0.2217,-0.6074,119.76,79.82,-11.71
121,255742498,-0.7998,-0.2344,-0.6089,122.68,79.94,-11.52
122,255747501,-0.7974,-0.2461,-0.6143,125.98,80.00,-11.40
123,255752498,-0.7988,-0.2559,-0.6221,129.51,80.24,-11.40
124,255757497,-0.7900,-0.2651,-0.6182,132.87,80.43,-11.59
125,255762497,-0.7817,-0.2725,-0.6196,136.95,80.61,-12.01
126,255768076,-0.7739,-0.2808,-0.6245,141.34,81.10,-12.68
127,255772499,-0.7759,-0.2822,-0.6357,146.04,81.77,-13.35
128,255777499,-0.7759,-0.2832,-0.6362,150.91,82.20,-14.33
129,255782499,-0.7778,-0.2891,-0.6406,155.98,82.80,-15.55
130,255787498,-0.7695,-0.2969,-0.6460,161.10,82.87,-16.89
131,255792696,-0.7603,-0.3062,-0.6514,165.67,82.93,-18.35
132,255797499,-0.7559,-0.3101,-0.6558,169.70,82.93,-19.88
133,255802499,-0.7573,-0.3247,-0.6543,173.05,82.87,-21.40
134,255807694,-0.7559,-0.3359,-0.6592,175.79,82.87,-22.80
135,255812499,-0.7544,-0.3486,-0.6562,177.56,82.74,-24.33
136,255817499,-0.7456,-0.3594,-0.6572,178.60,81.89,-25.61
137,255822499,-0.7378,-0.3706,-0.6577,178.60,81.34,-27.01
138,255827499,-0.7256,-0.3896,-0.6577,178.05,80.98,-28.29
139,255832499,-0.7178,-0.4097,-0.6484,176.83,80.43,-29.39
140,255837500,-0.7124,-0.4180,-0.6514,175.12,79.76,-30.49
141,255842498,-0.7085,-0.4263,-0.6440,173.17,79.33,-31.59
142,255847988,-0.6909,-0.4419,-0.6436,170.98,78.72,-32.68
143,255852499,-0.6904,-0.4526,-0.6426,168.66,78.17,-33.78
144,255857850,-0.6802,-0.4683,-0.6338,166.28,77.74,-35.00
145,255862499,-0.6763,-0.4771,-0.6377,163.90,77.44,-36.10
146,255867816,-0.6753,-0.4858,-0.6357,161.65,77.13,-37.32
147,255872499,-0.6699,-0.4961,-0.6299,159.51,76.83,-38.66
148,255877499,-0.6504,-0.5063,-0.6260,157.56,76.71,-39.94
149,255882499,-0.6440,-0.5269,-0.6372,155.98,76.65,-41.34
150,255887534,-0.6509,-0.5405,-0.6304,154.51,76.40,-42.68
151,255892499,-0.6567,-0.5547,-0.6328,152.74,76.28,-44.21
152,255897974,-0.6528,-0.5688,-0.6235,150.79,76.22,-45.73
153,255902499,-0.6392,-0.5693,-0.6172,148.60,76.40,-47.26
154,255907499,-0.6270,-0.5786,-0.6187,146.46,76.46,-48.90
155,255912499,-0.6152,-0.5898,-0.6094,144.09,76.65,-50.49
156,255917499,-0.6167,-0.6025,-0.6138,141.77,76.83,-52.20
157,255922498,-0.6118,-0.6128,-0.6064,139.76,77.13,-53.78
158,255927501,-0.6094,-0.6250,-0.6006,137.80,77.38,-55.55
159,255932730,-0.6128,-0.6367,-0.5991,136.40,77.68,-57.13
160,255937525,-0.6035,-0.6465,-0.6040,135.06,77.99,-58.66
161,255942502,-0.6016,-0.6567,-0.6069,133.90,77.99,-60.18
162,255947499,-0.6011,-0.6694,-0.6079,133.17,78.05,-61.65
163,255952498,-0.5977,-0.6797,-0.6123,132.32,77.93,-63.05
164,255957499,-0.5869,-0.6909,-0.6162,131.65,77.68,-64.45
165,255962499,-0.5781,-0.7017,-0.6084,130.85,77.62,-65.85
166,255967614,-0.5771,-0.7124,-0.6050,130.06,77.32,-67.20
167,255972499,-0.5723,-0.7188,-0.6030,129.27,77.07,-68.48
168,255977499,-0.5615,-0.7280,-0.6030,128.78,76.83,-69.82
169,255982602,-0.5488,-0.7334,-0.5986,127.20,76.52,-71.16
170,255987717,-0.5386,-0.7422,-0.5977,126.10,76.34,-72.56
171,255992499,-0.5381,-0.7485,-0.5864,124.88,76.16,-73.96
172,255998023,-0.5396,-0.7563,-0.5928,123.66,76.10,-75.49
173,256002501,-0.5444,-0.7671,-0.5869,122.68,76.16,-77.01
174,256007499,-0.5356,-0.7729,-0.5796,121.77,76.40,-78.41
175,256012499,-0.5317,-0.7896,-0.5791,121.04,76.52,-79.94
176,256017499,-0.5176,-0.8037,-0.5728,120.49,76.83,-81.40
177,256022499,-0.5063,-0.8159,-0.5723,119.88,77.20,-82.80
178,256027498,-0.5044,-0.8267,-0.5669,119.45,77.50,-84.15
179,256032499,-0.5005,-0.8330,-0.5654,119.15,77.62,-85.37
180,256037498,-0.4946,-0.8384,-0.5649,119.09,77.93,-86.71
181,256042498,-0.4937,-0.8408,-0.5439,118.90,78.35,-87.93
182,256047497,-0.4854,-0.8403,-0.5454,118.72,78.66,-89.15
183,256052958,-0.4839,-0.8428,-0.5439,118.29,79.02,-90.43
184,256057499,-0.4819,-0.8496,-0.5376,117.38,79.33,-91.77
185,256062499,-0.4771,-0.8496,-0.5283,116.22,79.57,-93.05
186,256067503,-0.4595,-0.8677,-0.5625,114.57,80.00,-94.39
187,256072499,-0.4321,-0.8726,-0.5933,112.26,79.63,-95.55
188,256077506,-0.4468,-0.8721,-0.5640,109.94,80.43,-96.77
189,256082499,-0.4458,-0.8774,-0.5566,107.50,80.61,-97.93
190,256087499,-0.4302,-0.8799,-0.5542,104.94,80.43,-99.15
191,256092686,-0.4165,-0.8877,-0.5776,102.01,80.37,-100.24
192,256097499,-0.3931,-0.8921,-0.5796,98.96,80.43,-101.28
193,256102499,-0.3813,-0.9448,-0.5933,95.73,80.43,-102.38
194,256107878,-0.3804,-0.9204,-0.5781,92.38,79.94,-103.29
195,256112499,-0.3906,-0.9248,-0.5498,89.57,80.30,-104.39
196,256117501,-0.3794,-0.9033,-0.5410,87.62,80.61,-105.61
197,256122499,-0.3735,-0.8911,-0.5088,86.22,80.85,-106.95
198,256127499,-0.3657,-0.8774,-0.4990,85.18,81.10,-108.41
199,256132499,-0.3491,-0.8848,-0.4917,84.33,81.28,-109.88
200,256137499,-0.3335,-0.8755,-0.4800,83.11,81.22,-111.22
201,256142499,-0.3315,-0.8643,-0.4604,81.40,81.46,-112.44
202,256147499,-0.3296,-0.8530,-0.4458,79.63,81.40,-113.78
203,256152499,-0.3267,-0.8477,-0.4238,77.56,81.46,-115.00
204,256157499,-0.3169,-0.8369,-0.4038,75.18,81.34,-116.10
205,256162500,-0.3071,-0.8257,-0.3813,72.68,81.46,-117.01
206,256167688,-0.2842,-0.8115,-0.3652,69.88,81.22,-117.87
207,256172499,-0.2681,-0.8018,-0.3540,66.83,81.04,-118.54
208,256177497,-0.2583,-0.7920,-0.3398,63.60,80.61,-119.15
209,256182499,-0.2476,-0.7734,-0.3257,60.18,80.18,-119.45
210,256187498,-0.2290,-0.7588,-0.3027,56.65,79.94,-119.76
211,256192499,-0.2134,-0.7451,-0.2871,53.05,79.63,-120.06
212,256197500,-0.1934,-0.7373,-0.2642,49.27,79.21,-120.06
213,256202499,-0.1787,-0.7222,-0.2466,45.30,78.78,-119.88
214,256207606,-0.1758,-0.7095,-0.2417,41.65,78.35,-119.63
215,256212501,-0.1709,-0.6978,-0.2227,37.87,77.87,-119.27
216,256217498,-0.1655,-0.6880,-0.2080,34.27,77.20,-118.60
217,256222499,-0.1582,-0.6724,-0.2061,30.85,76.65,-117.93
218,256227582,-0.1436,-0.6567,-0.1909,27.74,75.98,-117.13
219,256232500,-0.1304,-0.6440,-0.1768,24.70,75.12,-116.28
220,256237617,-0.1177,-0.6182,-0.1704,22.01,74.45,-115.37
221,256242499,-0.1030,-0.6021,-0.1562,19.51,73.23,-114.45
222,256247559,-0.0771,-0.5928,-0.1616,16.95,72.26,-113.29
223,256252728,-0.0103,-0.5908,-0.1851,13.84,70.49,-111.83
224,256257501,0.0386,-0.5444,-0.2017,9.57,68.05,-110.00
225,256262498,0.0127,-0.4468,-0.1235,5.12,65.85,-108.60
226,256267499,-0.0024,-0.3960,-0.0947,0.43,63.96,-107.50
227,256272498,-0.0054,-0.3691,-0.1260,-4.51,62.20,-106.46
228,256277499,0.0015,-0.3398,-0.1304,-10.18,60.24,-105.30
229,256282498,0.0420,-0.3857,-0.0005,-16.71,58.41,-103.72
230,256287499,0.0806,-0.3667,0.0088,-24.15,57.26,-101.77
231,256292501,0.0898,-0.3555,0.0073,-31.95,55.61,-99.88
232,256297907,0.1152,-0.3545,0.0571,-39.70,54.21,-97.87
233,256302499,0.1362,-0.3794,0.1099,-47.38,53.17,-95.73
234,256307502,0.1602,-0.4258,0.1382,-54.76,52.44,-93.66
235,256312499,0.1484,-0.4043,0.1284,-62.01,51.77,-91.77
236,256317908,0.1538,-0.4038,0.1235,-69.09,51.16,-90.06
237,256322499,0.1851,-0.4507,0.1279,-76.16,50.49,-88.23
238,256327499,0.2124,-0.5039,0.1094,-83.35,49.88,-86.34
239,256332814,0.2510,-0.5259,0.0889,-90.85,49.09,-84.15
240,256337499,0.2710,-0.5562,0.0659,-98.48,48.11,-82.07
241,256342498,0.2627,-0.6226,0.0396,-105.73,47.13,-79.82
242,256347501,0.2729,-0.6963,0.0151,-112.74,45.67,-77.13
243,256352498,0.2793,-0.6621,0.0596,-118.54,44.27,-74.02
244,256357497,0.2642,-0.6431,0.0034,-123.78,43.60,-71.59
245,256362497,0.2017,-0.6484,-0.0493,-128.72,42.32,-69.27
246,256367498,0.0815,-0.6318,-0.0840,-133.48,40.49,-67.13
247,256372667,0.0332,-0.6538,-0.1294,-137.68,38.17,-64.88
248,256377499,0.0342,-0.6782,-0.1680,-141.40,35.18,-62.50
249,256382499,0.0176,-0.7192,-0.1602,-144.45,32.20,-59.76
250,256387499,0.0146,-0.7344,-0.1436,-147.20,29.27,-56.28
251,256392499,0.0620,-0.7134,-0.1504,-149.15,26.40,-52.68
252,256397644,0.1187,-0.7026,-0.1704,-150.73,22.99,-48.78
253,256402498,0.1782,-0.6709,-0.1514,-151.59,19.57,-45.06
254,256407503,0.2720,-0.6489,-0.1240,-152.50,16.34,-41.46
255,256412499,0.3486,-0.6401,-0.1118,-153.11,12.80,-37.93
256,256417499,0.4375,-0.6880,-0.1152,-153.66,9.21,-34.51
257,256422499,0.5122,-0.7329,-0.1084,-153.90,5.55,-30.85
258,256427499,0.5605,-0.7705,-0.0928,-154.09,1.59,-26.89
259,256432499,0.6357,-0.7993,-0.1284,-153.84,-2.62,-22.80
260,256437499,0.6606,-0.8276,-0.1758,-153.17,-7.50,-18.66
261,256442989,0.6572,-0.8208,-0.1948,-152.07,-13.05,-14.63
262,256447499,0.6655,-0.8428,-0.1934,-150.49,-18.54,-10.85
263,256452500,0.6328,-0.8872,-0.1870,-147.99,-24.09,-6.83
264,256457568,0.5918,-0.8911,-0.1719,-144.57,-29.63,-2.62
265,256462781,0.5571,-0.8628,-0.1523,-140.24,-34.88,1.16
266,256467499,0.5278,-0.8130,-0.1426,-135.24,-39.94,4.27
267,256472499,0.5288,-0.7725,-0.1387,-129.70,-44.76,6.65
268,256477839,0.5205,-0.7437,-0.1426,-124.02,-49.45,8.29
269,256482499,0.5220,-0.7261,-0.1519,-117.99,-53.72,9.21
270,256487499,0.5029,-0.7178,-0.1665,-111.77,-57.56,9.51
271,256492499,0.4868,-0.6895,-0.1929,-105.30,-61.77,9.51
272,256497499,0.4614,-0.7134,-0.2466,-98.48,-65.67,9.02
273,256502501,0.4712,-0.7095,-0.2769,-91.28,-70.12,8.60
274,256507499,0.4756,-0.7280,-0.3018,-83.78,-74.51,7.87
275,256512726,0.4844,-0.7266,-0.3062,-76.28,-78.72,7.44
276,256517499,0.4795,-0.7310,-0.2676,-69.02,-82.32,6.65
277,256522974,0.4888,-0.7275,-0.2671,-61.89,-85.30,5.79
278,256527499,0.4839,-0.7124,-0.2544,-54.63,-87.44,4.45
279,256532498,0.4819,-0.6855,-0.2412,-47.32,-88.48,2.74
280,256537648,0.4834,-0.6587,-0.1948,-39.76,-88.23,0.49
281,256542499,0.4858,-0.6538,-0.1978,-31.52,-86.28,-2.20
282,256547503,0.4688,-0.6479,-0.2485,-22.87,-82.87,-5.12
283,256552499,0.4609,-0.6465,-0.3433,-13.48,-79.57,-7.87
284,256557500,0.4482,-0.6304,-0.4263,-3.41,-76.89,-10.73
285,256563004,0.4434,-0.6143,-0.4897,7.50,-75.06,-13.35
286,256567501,0.4375,-0.5957,-0.5239,19.21,-73.35,-15.91
287,256572499,0.4170,-0.5708,-0.5449,30.85,-72.01,-18.35
288,256577791,0.4023,-0.5498,-0.5493,42.26,-71.22,-20.85
289,256582499,0.4106,-0.5269,-0.5649,53.17,-70.55,-23.29
290,256587502,0.4224,-0.5083,-0.5869,63.35,-69.76,-25.55
291,256592499,0.4146,-0.5020,-0.6001,72.56,-69.51,-28.11
292,256597608,0.3687,-0.5059,-0.5938,80.61,-69.57,-30.67
293,256602500,0.3623,-0.5186,-0.6196,87.68,-69.33,-33.11
294,256607648,0.3584,-0.5273,-0.6353,93.78,-68.96,-35.43
295,256612499,0.3794,-0.5503,-0.6582,98.60,-68.84,-37.56
296,256617498,0.3745,-0.5708,-0.6714,102.07,-68.35,-39.33
297,256622671,0.3706,-0.5967,-0.6797,103.96,-67.32,-40.79
298,256627499,0.3613,-0.6191,-0.7012,104.51,-66.22,-42.01
299,256632499,0.3862,-0.6475,-0.7202,103.41,-64.76,-42.87
300,256637499,0.3911,-0.6665,-0.7246,100.73,-63.11,-43.48
301,256642498,0.3906,-0.6709,-0.7446,96.16,-60.79,-43.78
302,256647498,0.3857,-0.6665,-0.7456,90.00,-58.72,-43.96
303,256652499,0.3828,-0.6704,-0.7539,82.44,-55.98,-43.90
304,256658085,0.3931,-0.6631,-0.7588,73.84,-53.11,-43.54
305,256662499,0.3936,-0.6548,-0.7915,64.51,-50.24,-42.93
306,256667499,0.4072,-0.6597,-0.8047,54.76,-47.44,-42.13
307,256672664,0.4385,-0.6665,-0.8120,44.94,-44.51,-40.98
308,256677499,0.4253,-0.6836,-0.8066,35.67,-41.59,-39.63
309,256682873,0.3994,-0.6758,-0.8369,27.20,-38.48,-38.23
310,256687499,0.4160,-0.6533,-0.8184,19.94,-35.43,-36.83
311,256692499,0.4136,-0.6450,-0.8110,13.78,-32.32,-35.55
312,256697499,0.4019,-0.6562,-0.8315,9.21,-29.51,-34.39
313,256702500,0.3970,-0.6699,-0.8091,5.98,-27.20,-33.05
314,256707499,0.4097,-0.6948,-0.7871,4.21,-25.43,-31.65
315,256712543,0.4155,-0.6880,-0.7759,3.60,-23.78,-29.94
316,256717499,0.3950,-0.7217,-0.7739,3.72,-22.56,-28.17
317,256722698,0.3506,-0.6880,-0.7451,3.72,-22.13,-26.40
318,256727499,0.3809,-0.7837,-0.6606,3.48,-21.10,-24.51
319,256732876,0.4312,-0.8516,-0.6079,3.96,-19.76,-21.89
320,256737499,0.4517,-0.8467,-0.6206,4.27,-17.56,-18.84
321,256742498,0.4346,-0.8433,-0.5459,2.44,-15.98,-15.98
322,256747497,0.4756,-0.9082,-0.5156,0.24,-13.96,-12.80
323,256752498,0.5005,-0.9126,-0.5205,-2.99,-11.34,-9.51
324,256757499,0.4839,-0.8799,-0.5249,-7.07,-8.29,-6.34
325,256762498,0.4414,-0.8423,-0.5220,-12.20,-5.12,-3.35
326,256767499,0.4097,-0.8105,-0.5474,-17.56,-1.95,-0.73
327,256772499,0.3809,-0.7881,-0.5767,-22.99,1.52,1.83
328,256777499,0.3540,-0.7715,-0.5859,-27.99,5.18,4.21
329,256782711,0.3477,-0.7554,-0.5903,-32.38,8.72,6.52
330,256787499,0.3564,-0.7422,-0.5986,-35.73,12.13,8.78
331,256792839,0.3726,-0.7261,-0.5825,-38.11,15.61,10.98
332,256797499,0.3765,-0.7271,-0.5703,-39.09,19.02,13.05
333,256802649,0.3765,-0.7183,-0.5454,-38.66,22.32,15.06
334,256807499,0.3804,-0.7129,-0.5229,-36.95,25.49,17.07
335,256812499,0.3853,-0.7021,-0.4990,-33.84,28.11,18.60
336,256817499,0.3809,-0.6958,-0.4688,-29.70,30.67,20.24
337,256822499,0.3862,-0.6855,-0.4370,-24.45,33.11,21.52
338,256827499,0.3940,-0.6719,-0.4038,-18.78,35.12,22.68
339,256832820,0.4004,-0.6646,-0.3735,-12.50,37.07,23.60
340,256837520,0.4141,-0.6587,-0.3340,-6.22,38.66,24.57
341,256842498,0.4243,-0.6523,-0.2969,0.00,40.30,25.24
342,256847614,0.4307,-0.6533,-0.2583,5.85,41.59,25.91
343,256852695,0.4341,-0.6597,-0.2246,11.04,42.80,26.71
344,256857499,0.4409,-0.6680,-0.1909,15.37,43.78,27.50
345,256862987,0.4385,-0.6611,-0.1538,18.60,44.27,28.29
346,256867499,0.4434,-0.6523,-0.1313,21.04,44.76,28.78
347,256872499,0.4351,-0.6445,-0.1133,22.87,45.18,29.21
348,256877664,0.4321,-0.6460,-0.0825,24.45,45.37,29.45
349,256882499,0.4229,-0.6533,-0.0723,26.10,45.67,29.57
350,256887499,0.4561,-0.6270,-0.0850,27.68,45.61,29.39
351,256892499,0.4243,-0.6362,-0.0591,30.00,45.49,29.02
352,256897681,0.3877,-0.6548,-0.0405,32.26,45.30,28.54
353,256902499,0.3682,-0.6553,-0.0332,34.57,45.30,27.93
354,256907498,0.3804,-0.6382,-0.0347,36.65,45.37,27.26
355,256912499,0.3882,-0.6313,-0.0034,38.96,45.43,26.28
356,256917498,0.3730,-0.6396,0.0151,41.22,46.28,25.67
357,256922618,0.3682,-0.6426,0.0010,42.87,47.44,25.12
358,256927841,0.3726,-0.6396,0.0117,44.02,48.60,24.82
359,256932499,0.3774,-0.6401,0.0044,44.45,49.88,24.57
360,256937498,0.3687,-0.6431,-0.0176,44.33,51.28,24.45
361,256942499,0.3413,-0.6431,-0.0469,43.66,52.62,24.39
362,256947503,0.3135,-0.6396,-0.0776,42.56,53.66,24.51
363,256952503,0.3135,-0.6333,-0.1069,40.98,54.45,24.70
364,256957497,0.3003,-0.6318,-0.1499,39.15,55.06,25.06
365,256962497,0.2817,-0.6387,-0.1821,36.95,55.24,25.49
366,256967843,0.2539,-0.6421,-0.2148,34.57,55.18,26.04
367,256972499,0.2725,-0.6470,-0.2407,32.20,54.82,26.83
368,256977499,0.3003,-0.6533,-0.2710,29.94,54.09,27.50
369,256982854,0.3267,-0.6602,-0.2959,27.56,53.17,28.11
370,256987499,0.3608,-0.6743,-0.3062,25.37,52.26,28.72
371,256992767,0.3857,-0.6987,-0.3159,23.11,51.04,29.27
372,256997499,0.4053,-0.7144,-0.3198,21.04,49.76,29.76
373,257002499,0.4263,-0.7339,-0.3257,19.15,48.23,30.24
374,257007498,0.4448,-0.7490,-0.3257,17.32,46.77,30.61
375,257012616,0.4614,-0.7627,-0.3330,15.79,45.12,30.85
376,257017652,0.4604,-0.7725,-0.3237,14.63,43.23,30.91
377,257022499,0.4551,-0.7827,-0.3271,13.84,41.22,30.85
378,257027498,0.4390,-0.7871,-0.3237,13.29,39.15,30.67
379,257032641,0.4194,-0.7852,-0.3208,13.05,36.77,30.37
380,257037499,0.4014,-0.7905,-0.3252,12.93,34.33,30.00
381,257042889,0.3809,-0.7832,-0.3325,13.35,31.77,29.45
382,257047499,0.3662,-0.7754,-0.3530,14.02,28.66,28.96
383,257052499,0.3477,-0.7715,-0.3613,15.24,25.61,28.29
384,257057703,0.3242,-0.7769,-0.3774,17.13,22.44,27.50
385,257062499,0.3086,-0.7920,-0.3955,19.70,19.45,26.83
386,257067499,0.2969,-0.8130,-0.4136,22.93,16.65,26.40
387,257072660,0.2925,-0.8296,-0.4253,26.10,14.15,25.91
388,257077499,0.2949,-0.8442,-0.4409,29.63,11.89,25.49
389,257082498,0.3115,-0.8496,-0.4639,32.80,9.94,25.18
390,257087617,0.3311,-0.8472,-0.4731,35.73,8.60,24.82
391,257092499,0.3496,-0.8423,-0.4927,38.17,7.44,24.51
392,257097499,0.3638,-0.8447,-0.5117,40.18,6.52,23.90
393,257102848,0.3755,-0.8481,-0.5415,41.77,5.67,23.41
394,257107499,0.3823,-0.8555,-0.5679,43.05,4.88,22.93
395,257112498,0.3862,-0.8618,-0.5845,43.96,3.78,22.32
396,257117789,0.4004,-0.8701,-0.6021,44.70,2.74,21.71
397,257122499,0.4077,-0.8809,-0.6133,44.94,1.59,20.98
398,257127907,0.4219,-0.8882,-0.6128,45.06,0.49,20.18
399,257132499,0.4370,-0.9038,-0.6235,44.94,-1.04,19.39
400,257137499,0.4468,-0.9175,-0.6108,44.63,-2.26,18.35
401,257142499,0.4614,-0.9326,-0.6006,44.15,-3.60,17.44
402,257147499,0.4761,-0.9497,-0.5986,43.72,-4.88,16.34
403,257152900,0.4863,-0.9668,-0.5991,43.29,-5.85,15.24
404,257157499,0.4873,-0.9741,-0.5894,42.74,-6.83,14.21
405,257162815,0.4800,-0.9937,-0.5854,42.01,-7.80,13.11
406,257167499,0.4736,-0.9980,-0.5679,41.28,-8.66,12.07
407,257172499,0.4526,-1.0098,-0.5728,40.37,-9.51,11.16
408,257177672,0.4395,-1.0078,-0.5581,39.09,-10.55,10.18
409,257182500,0.4331,-1.0078,-0.5415,37.62,-11.46,9.33
410,257187499,0.4331,-1.0059,-0.5444,35.98,-12.38,8.48
411,257192522,0.4204,-0.9990,-0.5220,34.15,-13.35,7.68
412,257197502,0.4272,-0.9907,-0.5122,31.83,-14.57,6.89
413,257202499,0.4053,-0.9795,-0.4951,29.63,-15.73,5.98
414,257207499,0.3857,-0.9692,-0.4683,27.13,-16.65,5.18
415,257212499,0.3716,-0.9512,-0.4429,24.51,-17.56,4.45
416,257217541,0.3643,-0.9424,-0.4214,21.77,-18.23,3.66
417,257222498,0.3555,-0.9302,-0.4004,19.21,-18.84,2.68
418,257227499,0.3379,-0.9189,-0.3843,16.83,-19.45,1.77
419,257232499,0.3193,-0.9082,-0.3789,14.70,-20.00,0.73
420,257237499,0.2998,-0.8872,-0.3784,12.87,-20.30,-0.43
421,257242501,0.2837,-0.8696,-0.3643,11.34,-20.55,-1.65
422,257247498,0.2690,-0.8477,-0.3574,10.00,-20.55,-3.11
423,257252497,0.2578,-0.8271,-0.3545,9.09,-20.43,-4.70
424,257257497,0.2432,-0.8120,-0.3447,8.23,-20.06,-6.28
425,257262497,0.2349,-0.7979,-0.3423,7.62,-19.45,-7.93
426,257267499,0.2310,-0.7910,-0.3291,7.13,-18.66,-9.51
427,257272498,0.2183,-0.7822,-0.3228,6.95,-17.62,-11.16
428,257277499,0.2104,-0.7720,-0.3101,6.89,-16.59,-12.68
429,257282499,0.2061,-0.7568,-0.3062,6.95,-15.67,-14.27
430,257287499,0.2056,-0.7520,-0.2954,7.07,-14.63,-15.79
431,257292617,0.2114,-0.7471,-0.2896,7.44,-14.02,-17.13
432,257297749,0.2207,-0.7402,-0.2808,7.93,-13.48,-18.29
433,257302499,0.2231,-0.7236,-0.2788,8.41,-13.60,-19.51
434,257307499,0.2319,-0.7173,-0.2598,8.96,-14.09,-20.49
435,257312499,0.2412,-0.7114,-0.2529,9.45,-14.70,-21.40
436,257317499,0.2383,-0.7109,-0.2476,9.88,-15.61,-22.32
437,257322499,0.2344,-0.7036,-0.2334,10.12,-16.83,-23.11
438,257327499,0.2349,-0.6987,-0.2222,10.00,-18.17,-23.90
439,257332515,0.2432,-0.7007,-0.2241,9.76,-19.76,-24.45
440,257337798,0.2529,-0.6997,-0.2271,9.15,-21.34,-25.00
441,257342499,0.2603,-0.7012,-0.2324,8.48,-23.05,-25.49
442,257347499,0.2666,-0.7085,-0.2383,7.44,-24.82,-25.79
443,257352499,0.2622,-0.7231,-0.2451,6.22,-26.40,-25.98
444,257357499,0.2544,-0.7368,-0.2510,4.63,-27.50,-25.98
445,257362499,0.2495,-0.7422,-0.2534,2.62,-28.41,-25.98
446,257367719,0.2451,-0.7490,-0.2534,0.30,-28.84,-25.85
447,257372499,0.2485,-0.7568,-0.2529,-2.32,-28.84,-25.79
448,257377499,0.2593,-0.7671,-0.2549,-5.18,-28.72,-25.55
449,257382499,0.2627,-0.7720,-0.2705,-8.05,-28.29,-25.06
450,257387923,0.2676,-0.7769,-0.2837,-10.91,-27.56,-24.51
451,257392499,0.2754,-0.7817,-0.2925,-13.96,-27.01,-23.78
452,257397499,0.2842,-0.7852,-0.3042,-16.83,-26.52,-22.80
453,257402966,0.2871,-0.7925,-0.3115,-19.33,-25.85,-21.89
454,257407499,0.2915,-0.8008,-0.3203,-21.34,-25.30,-20.73
455,257412499,0.2930,-0.8140,-0.3208,-22.80,-24.76,-19.45
456,257417499,0.2886,-0.8184,-0.3291,-23.66,-24.39,-17.99
457,257422862,0.2822,-0.8257,-0.3281,-23.78,-23.90,-16.59
458,257427499,0.2798,-0.8311,-0.3330,-23.35,-23.29,-15.06
459,257432499,0.2749,-0.8384,-0.3477,-22.26,-23.11,-13.54
460,257437498,0.2749,-0.8325,-0.3506,-20.61,-22.56,-11.89
461,257442499,0.2803,-0.8247,-0.3413,-18.66,-22.07,-10.30
462,257447499,0.2832,-0.8169,-0.3506,-16.59,-21.65,-8.84
463,257452500,0.2886,-0.8076,-0.3525,-14.21,-21.16,-7.38
464,257457499,0.2925,-0.7959,-0.3462,-11.95,-20.55,-5.91
465,257462709,0.2930,-0.7778,-0.3442,-9.57,-20.12,-4.57
466,257467499,0.2935,-0.7681,-0.3418,-7.13,-19.51,-3.17
467,257472803,0.2930,-0.7563,-0.3364,-4.82,-18.96,-1.95
468,257477500,0.2920,-0.7446,-0.3369,-2.50,-18.48,-0.79
469,257482499,0.2925,-0.7358,-0.3354,-0.24,-17.87,0.18
470,257487500,0.2930,-0.7202,-0.3276,2.07,-17.44,1.16
471,257492499,0.2891,-0.7070,-0.3325,4.33,-16.95,1.95
472,257497634,0.2876,-0.6987,-0.3281,6.52,-16.40,2.56
473,257502499,0.2886,-0.6978,-0.3311,8.66,-15.73,3.11
474,257507500,0.2925,-0.6948,-0.3398,10.79,-14.94,3.60
475,257512499,0.2949,-0.6973,-0.3438,12.87,-14.27,4.21
476,257517499,0.3013,-0.7012,-0.3589,15.00,-13.48,4.63
477,257522665,0.3096,-0.6987,-0.3657,16.95,-12.50,5.12
478,257527499,0.3213,-0.7061,-0.3638,18.96,-11.59,5.61
479,257532499,0.3315,-0.7056,-0.3633,20.79,-10.67,6.04
480,257537561,0.3462,-0.7124,-0.3711,22.26,-9.70,6.52
481,257542735,0.3462,-0.7183,-0.3691,23.60,-8.60,6.95
482,257547499,0.3521,-0.7246,-0.3647,24.51,-7.74,7.38
483,257552498,0.3550,-0.7251,-0.3638,25.00,-6.71,7.74
484,257557497,0.3584,-0.7290,-0.3589,25.00,-5.55,8.11
485,257562499,0.3530,-0.7256,-0.3481,24.63,-4.57,8.35
486,257567498,0.3501,-0.7222,-0.3433,23.90,-3.48,8.54
487,257572967,0.3379,-0.7227,-0.3389,22.74,-2.50,8.66
488,257577499,0.3335,-0.7222,-0.3467,21.52,-1.71,8.66
489,257582499,0.3369,-0.7227,-0.3345,20.00,-0.85,8.72
490,257587499,0.3389,-0.7300,-0.3452,18.23,0.06,8.78
491,257592790,0.3384,-0.7383,-0.3379,16.40,0.67,8.84
492,257597499,0.3438,-0.7427,-0.3389,14.57,1.10,8.96
493,257602499,0.3545,-0.7534,-0.3364,12.87,1.83,9.21
494,257607499,0.3618,-0.7637,-0.3413,11.46,2.20,9.57
495,257612499,0.3794,-0.7778,-0.3467,10.37,2.50,10.00
496,257617499,0.3887,-0.7871,-0.3452,9.51,2.87,10.43
497,257622499,0.4048,-0.7983,-0.3462,9.09,2.87,10.98
498,257627499,0.4165,-0.8105,-0.3462,8.96,2.99,11.46
499,257632756,0.4214,-0.8223,-0.3442,9.15,3.05,12.07
500,257637499,0.4336,-0.8325,-0.3481,9.57,3.11,12.74
501,257642500,0.4390,-0.8374,-0.3423,10.49,2.93,13.29
502,257647795,0.4458,-0.8423,-0.3418,11.46,2.99,13.84
503,257652499,0.4448,-0.8418,-0.3384,12.62,2.87,14.33
504,257657499,0.4395,-0.8457,-0.3247,13.90,2.68,14.76
505,257662499,0.4312,-0.8477,-0.3301,15.24,2.50,15.12
506,257667674,0.4243,-0.8540,-0.3169,16.52,2.44,15.30
507,257672499,0.4136,-0.8613,-0.3208,17.87,2.32,15.55
508,257677968,0.4062,-0.8652,-0.3174,19.21,2.56,15.67
509,257682499,0.3989,-0.8779,-0.3359,20.49,2.56,15.79
510,257687499,0.4009,-0.8833,-0.3389,21.65,2.50,15.91
511,257692499,0.3989,-0.8921,-0.3447,22.74,2.56,16.10
512,257697500,0.4043,-0.8955,-0.3569,23.48,2.56,16.10
513,257702844,0.4072,-0.9019,-0.3599,24.09,2.56,16.10
514,257707499,0.4170,-0.8999,-0.3711,24.45,2.50,16.16
515,257712518,0.4116,-0.8999,-0.3789,24.51,2.26,16.22
516,257717599,0.4126,-0.8955,-0.3818,24.15,2.07,16.16
517,257722498,0.4106,-0.8950,-0.3833,23.54,1.89,16.04
518,257727499,0.4014,-0.8906,-0.3833,22.68,1.65,15.91
519,257732499,0.3965,-0.8916,-0.3862,21.46,1.65,15.85
520,257737499,0.4004,-0.8867,-0.3813,20.00,1.65,15.61
521,257742926,0.3916,-0.8887,-0.3823,18.35,1.65,15.30
522,257747499,0.3872,-0.8882,-0.3940,16.59,1.83,15.00
523,257752499,0.3818,-0.8940,-0.4004,14.88,1.95,14.82
524,257757499,0.3716,-0.8955,-0.3936,13.05,2.13,14.51
525,257762501,0.3643,-0.8984,-0.4019,11.40,2.50,14.27
526,257767838,0.3589,-0.9043,-0.4004,10.06,2.87,13.84
527,257772499,0.3506,-0.9023,-0.4067,8.90,3.35,13.54
528,257777502,0.3501,-0.9009,-0.4106,8.11,3.72,13.05
529,257782502,0.3452,-0.9048,-0.4146,7.74,4.15,12.62
530,257787497,0.3486,-0.8999,-0.4136,7.80,4.57,11.95
531,257792501,0.3560,-0.9019,-0.4082,8.11,4.82,11.52
532,257797920,0.3516,-0.9033,-0.4082,8.66,5.18,10.73
533,257802499,0.3545,-0.9004,-0.4077,9.33,5.67,10.18
534,257807886,0.3525,-0.8984,-0.4014,10.06,5.98,9.57
535,257812499,0.3457,-0.8975,-0.3940,10.98,6.10,8.72
536,257817499,0.3403,-0.8955,-0.3833,11.89,6.40,7.87
537,257822499,0.3345,-0.8950,-0.3809,12.62,6.59,6.95
538,257827499,0.3252,-0.8862,-0.3809,13.41,6.83,5.85
539,257832532,0.3130,-0.8853,-0.3706,14.15,7.01,4.88
540,257837498,0.3047,-0.8784,-0.3687,14.70,7.44,3.72
541,257842499,0.2910,-0.8784,-0.3618,15.24,7.62,2.62
542,257847499,0.2808,-0.8750,-0.3584,15.24,7.99,1.46
543,257852498,0.2764,-0.8774,-0.3535,15.00,8.29,0.37
544,257857499,0.2715,-0.8711,-0.3501,14.57,8.66,-0.67
545,257862500,0.2715,-0.8672,-0.3477,13.90,8.96,-1.59
546,257867802,0.2700,-0.8608,-0.3491,12.93,9.57,-2.44
547,257872499,0.2656,-0.8525,-0.3472,12.07,9.70,-3.23
548,257877499,0.2637,-0.8413,-0.3452,11.04,9.94,-4.02
549,257882974,0.2607,-0.8374,-0.3374,10.06,10.06,-4.70
550,257887499,0.2607,-0.8237,-0.3301,9.02,10.37,-5.37
551,257892499,0.2539,-0.8203,-0.3169,8.17,10.18,-5.91
552,257897499,0.2539,-0.8105,-0.3154,7.38,10.18,-6.52
553,257902501,0.2524,-0.7969,-0.3164,6.65,9.76,-7.07
554,257907670,0.2427,-0.7871,-0.3062,5.91,9.51,-7.56
555,257912499,0.2432,-0.7739,-0.3022,5.30,9.02,-8.05
556,257917499,0.2319,-0.7642,-0.3003,4.70,8.29,-8.48
557,257922499,0.2285,-0.7563,-0.2993,4.21,7.44,-8.96
558,257927499,0.2236,-0.7534,-0.3018,3.78,6.59,-9.21
559,257932500,0.2158,-0.7402,-0.3032,3.35,5.55,-9.45
560,257937498,0.2085,-0.7324,-0.3013,2.99,4.76,-9.63
561,257942499,0.2056,-0.7212,-0.3057,2.74,3.72,-9.76
562,257947982,0.2026,-0.7114,-0.3174,2.62,2.80,-9.82
563,257952499,0.1987,-0.6992,-0.3232,2.44,1.77,-9.88
564,257957500,0.1953,-0.6943,-0.3408,2.13,0.79,-9.76
565,257962501,0.1899,-0.6895,-0.3433,1.83,0.06,-9.70
566,257967624,0.1987,-0.6865,-0.3564,1.34,-0.85,-9.45
567,257972589,0.1973,-0.6851,-0.3608,0.73,-1.71,-9.27
568,257977719,0.2031,-0.6865,-0.3721,0.12,-2.56,-8.78
569,257982499,0.2080,-0.6836,-0.4023,-0.79,-3.17,-8.35
570,257987811,0.2124,-0.6816,-0.4287,-1.83,-4.09,-7.93
571,257992499,0.2153,-0.6846,-0.4536,-2.93,-5.00,-7.56
572,257997499,0.2168,-0.6855,-0.4712,-4.09,-5.85,-7.01
573,258002499,0.2129,-0.6919,-0.4990,-5.49,-6.65,-6.34
574,258007499,0.2139,-0.7041,-0.5283,-6.95,-7.56,-5.79
575,258012499,0.2188,-0.7188,-0.5522,-8.54,-8.48,-5.12
576,258017499,0.2183,-0.7329,-0.5776,-10.18,-9.33,-4.39
577,258022499,0.2231,-0.7544,-0.5957,-11.65,-10.18,-3.66
578,258027497,0.2207,-0.7715,-0.6211,-13.17,-10.91,-2.93
579,258032499,0.2314,-0.7817,-0.6426,-14.63,-11.77,-2.32
580,258037498,0.2285,-0.7998,-0.6699,-15.85,-12.26,-1.83
581,258042710,0.2266,-0.8130,-0.6870,-16.89,-12.74,-1.28
582,258047498,0.2227,-0.8315,-0.7031,-18.17,-12.74,-1.04
583,258052978,0.2271,-0.8408,-0.7290,-19.21,-12.87,-0.98
584,258057499,0.2266,-0.8599,-0.7515,-20.43,-12.68,-0.85
585,258062499,0.2222,-0.8779,-0.7886,-21.77,-12.26,-0.91
586,258067499,0.2148,-0.8872,-0.8096,-23.35,-11.59,-0.91
587,258072499,0.2158,-0.8950,-0.8389,-25.24,-10.61,-1.16
588,258077499,0.2295,-0.9028,-0.8726,-27.38,-9.15,-1.22
589,258082499,0.2314,-0.9136,-0.9131,-29.63,-7.38,-1.40
590,258087940,0.2310,-0.9214,-0.9487,-31.89,-5.24,-1.59
591,258092499,0.2407,-0.9365,-0.9780,-34.02,-3.11,-1.71
592,258097499,0.2466,-0.9644,-1.0312,-37.07,0.30,-1.83
593,258102499,0.2637,-0.9839,-1.0698,-39.51,3.54,-1.83
594,258107499,0.2764,-1.0005,-1.1099,-41.52,6.83,-1.89
595,258112728,0.2866,-1.0132,-1.1479,-42.99,10.37,-1.95
596,258117545,0.2905,-1.0215,-1.1831,-44.15,14.09,-1.89
597,258122605,0.3003,-1.0361,-1.2056,-44.76,17.80,-2.13
598,258127585,0.3042,-1.0503,-1.2266,-45.18,21.89,-2.32
599,258132498,0.2939,-1.0537,-1.2407,-45.30,25.06,-2.62
600,258137497,0.3018,-1.0620,-1.2461,-45.06,29.51,-3.17
601,258142497,0.2769,-1.0728,-1.2583,-44.76,34.21,-3.96
602,258147499,0.2583,-1.0918,-1.2524,-44.33,40.12,-5.18
603,258152500,0.2393,-1.1079,-1.2549,-44.33,45.37,-6.59
604,258157499,0.2290,-1.1172,-1.2559,-44.33,50.85,-8.05
605,258162963,0.2163,-1.1177,-1.2466,-44.70,56.65,-9.70
606,258167499,0.2085,-1.1240,-1.2354,-45.12,61.46,-11.10
607,258172499,0.1899,-1.1191,-1.2354,-46.46,68.90,-13.41
608,258177698,0.1875,-1.1128,-1.2295,-48.05,75.37,-15.37
609,258182500,0.1743,-1.0991,-1.2202,-50.12,82.20,-17.62
610,258187499,0.1621,-1.0825,-1.2085,-52.68,88.11,-19.76
611,258192499,0.1519,-1.0664,-1.2036,-55.73,95.12,-22.13
612,258197499,0.1455,-1.0479,-1.1929,-58.90,101.83,-24.51
613,258202499,0.1265,-1.0410,-1.1782,-62.74,108.54,-26.89
614,258207499,0.1089,-1.0269,-1.1680,-66.59,115.30,-29.15
615,258212499,0.0972,-1.0205,-1.1445,-69.76,120.85,-30.91
616,258217613,0.0815,-1.0151,-1.1167,-74.51,129.02,-33.60
617,258222589,0.0605,-1.0093,-1.0806,-78.05,135.61,-35.67
618,258227693,0.0459,-1.0015,-1.0513,-81.22,142.07,-37.44
619,258232498,0.0293,-0.9941,-1.0171,-83.35,147.38,-38.84
620,258237502,0.0083,-0.9766,-0.9785,-85.85,154.94,-40.61
621,258242981,-0.0103,-0.9551,-0.9482,-87.20,160.79,-42.07
622,258247499,-0.0195,-0.9463,-0.9204,-87.99,165.49,-43.11
623,258252500,-0.0376,-0.9209,-0.8721,-88.54,172.26,-44.27
624,258257866,-0.0498,-0.8970,-0.8345,-88.84,177.50,-45.12
625,258262499,-0.0596,-0.8828,-0.8003,-88.84,181.40,-45.61
626,258267499,-0.0757,-0.8584,-0.7520,-88.60,187.32,-46.22
627,258272499,-0.0840,-0.8418,-0.7192,-88.35,191.04,-46.52
628,258277499,-0.0879,-0.8232,-0.6807,-87.99,195.55,-46.77
629,258282562,-0.0918,-0.8013,-0.6260,-87.20,200.49,-46.89
630,258287713,-0.0879,-0.7876,-0.5918,-86.34,204.45,-46.89
631,258292499,-0.0874,-0.7769,-0.5557,-85.49,207.38,-46.83
632,258297979,-0.0811,-0.7573,-0.5000,-84.09,211.52,-46.83
633,258302499,-0.0845,-0.7500,-0.4702,-83.11,214.27,-46.71
634,258307499,-0.0942,-0.7383,-0.4204,-81.46,217.32,-46.71
635,258312499,-0.1001,-0.7231,-0.3823,-79.94,220.30,-46.65
636,258317624,-0.1138,-0.6968,-0.3306,-77.50,223.78,-46.59
637,258322499,-0.1138,-0.6846,-0.3052,-76.04,226.04,-46.52
638,258327499,-0.1230,-0.6660,-0.2598,-73.48,228.84,-46.46
639,258332499,-0.1265,-0.6465,-0.2285,-71.83,230.73,-46.40
640,258337501,-0.1279,-0.6255,-0.1851,-70.00,232.93,-46.28
641,258342499,-0.1323,-0.6064,-0.1558,-68.17,235.12,-46.22
642,258347799,-0.1260,-0.5894,-0.1157,-66.22,237.56,-46.10
643,258352499,-0.1206,-0.5767,-0.0796,-65.06,239.27,-45.91
644,258357499,-0.0859,-0.5605,-0.0640,-63.84,241.10,-45.67
645,258362530,-0.0820,-0.5430,-0.0200,-62.32,243.29,-45.37
646,258367645,-0.1069,-0.5303,0.0186,-61.04,245.24,-44.94
647,258372499,-0.1187,-0.5239,0.0522,-59.94,246.65,-44.57
648,258377499,-0.1226,-0.5112,0.0977,-58.60,248.60,-44.09
649,258382499,-0.1309,-0.5068,0.1309,-57.32,250.43,-43.66
650,258387700,-0.1294,-0.4961,0.1689,-55.79,252.56,-43.11
651,258392499,-0.1323,-0.4902,0.1958,-54.94,253.90,-42.56
652,258397567,-0.1343,-0.4673,0.2349,-53.54,256.04,-41.95
653,258402498,-0.1299,-0.4614,0.2642,-52.50,257.74,-41.34
654,258407997,-0.1299,-0.4556,0.2954,-51.71,259.21,-40.67
655,258412499,-0.1260,-0.4551,0.3262,-51.16,260.55,-39.94
656,258417502,-0.1147,-0.4556,0.3589,-50.43,262.44,-38.84
657,258422499,-0.1147,-0.4648,0.3711,-50.06,263.96,-37.99
658,258427958,-0.1045,-0.4766,0.4194,-49.94,265.43,-36.34
659,258432499,-0.1157,-0.4805,0.4404,-50.00,266.89,-35.18
660,258437501,-0.1133,-0.4868,0.4590,-50.12,268.41,-33.41
661,258442498,-0.1074,-0.4922,0.4707,-50.43,269.70,-31.34
662,258447497,-0.0967,-0.5029,0.4863,-50.61,270.85,-29.15
663,258452497,-0.1035,-0.5229,0.5073,-51.16,271.89,-26.59
664,258457497,-0.1084,-0.5259,0.5410,-51.71,272.80,-23.72
665,258462497,-0.1045,-0.5244,0.5742,-52.44,273.78,-20.43
666,258467499,-0.1040,-0.5215,0.5776,-53.48,274.70,-17.01
667,258472498,-0.0850,-0.5186,0.6045,-55.00,275.37,-13.11
668,258477499,-0.0767,-0.5400,0.6470,-56.77,276.22,-8.96
669,258482499,-0.0649,-0.5474,0.6865,-58.72,276.89,-4.27
670,258487499,-0.0669,-0.5728,0.7031,-61.04,277.62,0.67
671,258492498,-0.0830,-0.5840,0.7300,-63.23,278.11,6.04
672,258497499,-0.1079,-0.5894,0.7847,-65.30,278.78,11.77
673,258502499,-0.1294,-0.6006,0.8364,-67.01,279.51,17.56
674,258507499,-0.1465,-0.6094,0.8818,-68.41,280.12,23.60
675,258512499,-0.1548,-0.6221,0.9316,-69.70,280.73,29.51
676,258517499,-0.1689,-0.6387,0.9917,-70.49,281.59,35.67
677,258522764,-0.1821,-0.6611,1.0322,-70.79,282.62,42.80
678,258527499,-0.2007,-0.6724,1.0620,-70.30,282.99,47.68
679,258532824,-0.2261,-0.6919,1.1138,-68.72,283.72,54.88
680,258537499,-0.2480,-0.6968,1.1401,-66.83,283.90,59.57
681,258542499,-0.2676,-0.6865,1.1680,-63.90,284.21,65.30
682,258547499,-0.2964,-0.6729,1.2021,-60.12,283.90,70.73
683,258552499,-0.3291,-0.6763,1.2510,-55.43,283.41,75.85
684,258557540,-0.3716,-0.6675,1.3115,-48.54,282.38,81.95
685,258562498,-0.4009,-0.6675,1.3638,-43.35,281.71,85.55
686,258567499,-0.4531,-0.6533,1.4155,-36.59,280.91,90.00
687,258572666,-0.5122,-0.6504,1.4888,-28.35,279.70,95.00
688,258577499,-0.5415,-0.6519,1.5391,-22.87,278.66,98.05
689,258582499,-0.5991,-0.6753,1.6328,-15.18,277.26,102.32
690,258587499,-0.6479,-0.7085,1.6895,-10.00,276.10,105.18
691,258592500,-0.7192,-0.7417,1.7856,-3.29,274.63,108.54
692,258597980,-0.7910,-0.7715,1.8599,4.27,272.62,112.26
693,258602499,-0.8169,-0.7686,1.8955,9.09,271.10,114.51
694,258607575,-0.8037,-0.7256,1.9160,15.00,267.74,117.26
695,258612499,-0.7734,-0.7007,1.9175,17.68,264.57,118.60
696,258617993,-0.7031,-0.6738,1.8901,20.61,258.54,120.24
697,258622500,-0.7246,-0.6519,1.8975,21.46,253.17,121.16
698,258627608,-0.7148,-0.6523,1.9414,21.65,243.54,122.93
699,258632499,-0.7578,-0.6460,1.9609,21.10,236.22,124.33
700,258637499,-0.7710,-0.6660,2.0215,20.06,225.43,126.71
701,258642499,-0.8540,-0.6914,2.1704,18.66,213.66,129.94
702,258647499,-0.9580,-0.7095,2.2998,16.28,201.04,134.09
703,258652722,-1.0713,-0.7163,2.4385,12.80,184.39,139.76
704,258657499,-1.1353,-0.7031,2.5107,10.37,172.50,143.96
705,258662499,-1.2246,-0.6597,2.6221,7.50,157.20,149.45
706,258667500,-1.2725,-0.6069,2.6665,5.55,136.83,156.22
707,258672499,-1.2739,-0.5625,2.6650,5.85,122.07,161.10
708,258677553,-1.3345,-0.5342,2.6973,9.27,97.62,168.90
709,258682499,-1.3257,-0.5347,2.7407,13.29,80.30,174.76
710,258687499,-1.3555,-0.5479,2.7949,20.61,52.87,184.70
711,258692500,-1.3750,-0.5659,2.8223,25.79,33.84,192.20
712,258697499,-1.3940,-0.5630,2.8745,32.07,9.15,202.20
713,258702499,-1.4365,-0.5366,2.9419,38.84,-21.40,215.30
714,258707500,-1.6025,-0.5596,2.9985,44.09,-47.50,226.59
715,258712499,-1.6284,-0.5576,3.0127,47.74,-68.90,236.34
716,258717499,-1.7534,-0.5693,3.0625,52.01,-96.22,249.09
717,258722499,-1.8428,-0.5835,3.1001,56.04,-124.33,262.50
718,258727499,-1.9575,-0.6108,3.1133,60.43,-153.29,276.65
719,258732498,-2.0610,-0.6665,3.1211,65.43,-183.05,291.89
720,258737913,-2.3169,-0.7432,3.0762,72.87,-219.15,311.28
721,258742499,-2.3730,-0.7866,3.1211,78.41,-243.29,325.12
722,258747499,-2.5332,-0.8813,3.0732,85.61,-273.41,343.48
723,258752499,-2.6816,-0.9893,3.0059,93.72,-302.99,363.48
724,258757498,-2.8340,-1.0913,2.9536,102.80,-331.95,384.88
725,258762499,-2.9731,-1.1958,2.8867,112.80,-359.82,407.68
726,258767499,-3.2085,-1.3267,2.8169,125.79,-390.85,436.46
727,258772499,-3.4102,-1.4219,2.7397,135.12,-409.82,456.46
728,258777499,-3.6475,-1.5234,2.6484,146.83,-431.77,481.52
729,258782499,-3.8892,-1.6284,2.5645,158.05,-451.34,506.65
730,258787499,-4.1138,-1.7456,2.4624,170.06,-469.33,531.65
731,258792525,-4.3579,-1.8589,2.3291,183.60,-485.24,556.71
732,258797499,-4.6182,-2.0679,2.2432,197.68,-500.24,581.89
733,258802499,-4.8027,-2.2388,2.1567,211.71,-513.29,607.20
734,258807498,-5.0034,-2.4292,2.0332,225.91,-525.00,632.50
735,258812499,-5.1660,-2.6250,1.8999,238.60,-535.55,657.62
736,258817741,-5.3867,-2.8667,1.7368,251.83,-546.40,686.95
737,258822499,-5.4727,-3.0830,1.6689,258.60,-553.35,705.85
738,258827499,-5.4941,-3.3657,1.5649,264.88,-559.70,729.21
739,258832500,-5.6636,-3.5474,1.4238,269.51,-564.63,751.04
740,258837502,-5.8223,-3.6743,1.2988,270.98,-568.05,770.61
741,258842680,-5.9785,-3.7388,1.2095,264.02,-570.30,788.72
742,258847499,-6.0322,-3.6138,1.0625,250.67,-570.30,798.11
743,258852499,-6.1074,-3.6289,0.9844,235.24,-576.65,799.88
744,258857567,-6.1729,-3.5493,0.9556,210.24,-571.89,799.09
745,258862673,-6.2183,-3.2988,1.0200,172.68,-569.88,789.27
746,258867499,-6.0640,-3.5264,0.8579,144.76,-576.28,776.40
747,258872585,-5.9639,-3.7305,0.5352,109.51,-574.94,756.95
748,258877753,-5.8833,-3.8047,0.5542,70.06,-576.28,728.84
749,258882499,-5.7510,-3.7222,0.6338,44.27,-579.76,706.46
750,258887499,-5.5884,-3.8452,0.3086,12.13,-581.40,674.57
751,258892499,-5.3555,-3.9644,0.1479,-17.74,-580.30,639.70
752,258897499,-5.1548,-4.0562,0.1899,-45.00,-581.04,601.83
753,258902499,-4.9575,-4.0938,0.0000,-69.27,-580.43,560.61
754,258907849,-4.6865,-4.0942,-0.2456,-94.09,-577.38,506.95
755,258912569,-4.5190,-4.0996,-0.3491,-108.54,-574.63,469.27
756,258917501,-4.2935,-4.0581,-0.4624,-123.29,-572.38,420.37
757,258922499,-4.0591,-3.9570,-0.6567,-133.96,-568.84,370.12
758,258927899,-3.7549,-3.8711,-0.7686,-143.66,-561.65,308.78
759,258932499,-3.5273,-3.7832,-0.8037,-149.70,-555.85,267.80
760,258937499,-3.2305,-3.6621,-0.9907,-157.20,-546.89,206.65
761,258942499,-3.0884,-3.5820,-1.0967,-159.94,-538.90,166.71
762,258947499,-2.8711,-3.5386,-1.1182,-161.65,-527.74,118.29
763,258952499,-2.6812,-3.4521,-1.1523,-160.91,-514.63,72.07
764,258957606,-2.5356,-3.3369,-1.3047,-157.13,-498.72,28.41
765,258962712,-2.2959,-3.1987,-1.3447,-149.70,-477.38,-20.37
766,258967499,-2.1377,-3.1089,-1.2515,-143.41,-463.84,-50.55
767,258972499,-1.9766,-2.9751,-1.2837,-135.18,-446.10,-85.37
768,258977499,-1.8281,-2.8037,-1.3501,-127.68,-426.95,-117.38
769,258982592,-1.7041,-2.6250,-1.3018,-121.10,-408.35,-146.40
770,258987498,-1.5684,-2.4502,-1.2476,-115.49,-390.79,-172.80
771,258992499,-1.4204,-2.2900,-1.2998,-110.79,-372.99,-196.22
772,258997657,-1.2690,-2.1162,-1.3179,-105.49,-352.01,-220.73
773,259002499,-1.1851,-2.0054,-1.2563,-101.34,-337.93,-234.82
774,259007840,-1.0908,-1.8818,-1.2314,-93.48,-317.07,-252.56
775,259012499,-0.9961,-1.7793,-1.2607,-86.77,-303.72,-262.38
776,259017502,-0.8374,-1.6562,-1.2212,-74.63,-283.17,-274.27
777,259022499,-0.7393,-1.5649,-1.1538,-65.24,-270.43,-280.49
778,259027500,-0.6719,-1.4912,-1.1123,-52.56,-253.96,-286.46
779,259032499,-0.6118,-1.4009,-1.0044,-39.21,-238.72,-290.49
780,259037499,-0.5000,-1.2910,-0.9414,-26.22,-224.57,-293.05
781,259042497,-0.4014,-1.1646,-0.9512,-14.27,-211.34,-294.51
782,259047497,-0.3369,-1.0684,-0.9277,-3.54,-198.35,-294.88
783,259052499,-0.3052,-0.9995,-0.8228,5.85,-186.65,-294.27
784,259057497,-0.2690,-0.9429,-0.7407,13.48,-176.40,-292.62
785,259062497,-0.2358,-0.8931,-0.7417,19.15,-165.91,-290.49
786,259067499,-0.2285,-0.8335,-0.7095,23.23,-155.61,-287.62
787,259072499,-0.1768,-0.7529,-0.6416,25.91,-146.40,-284.21
788,259077499,-0.0820,-0.6860,-0.5996,27.38,-136.22,-279.45
789,259082499,-0.0225,-0.6309,-0.6104,27.44,-129.33,-275.85
790,259087979,0.0361,-0.6025,-0.5776,26.95,-119.39,-269.70
791,259092499,0.0640,-0.5757,-0.5605,26.16,-112.74,-265.06
792,259097499,0.0815,-0.5381,-0.5288,24.51,-104.27,-258.78
793,259102502,0.1465,-0.5234,-0.5591,21.71,-94.51,-250.55
794,259107499,0.2017,-0.5005,-0.5835,19.39,-88.29,-244.82
795,259112499,0.2427,-0.4585,-0.5229,15.73,-80.55,-237.20
796,259117499,0.3042,-0.4126,-0.5273,11.10,-72.99,-229.51
797,259122693,0.3247,-0.3369,-0.6006,5.49,-64.88,-220.18
798,259127499,0.3481,-0.3809,-0.5117,2.56,-59.94,-213.96
799,259132499,0.3823,-0.3286,-0.5371,-1.40,-53.96,-206.16
800,259137498,0.4067,-0.2393,-0.4448,-5.61,-48.05,-198.29
801,259142501,0.4312,-0.1636,-0.3823,-10.00,-42.38,-190.61
802,259147677,0.4507,-0.1230,-0.3926,-15.30,-36.52,-181.46
803,259152499,0.4580,-0.1367,-0.3970,-18.84,-33.35,-175.55
804,259157647,0.5020,-0.0479,-0.3628,-23.66,-28.48,-166.71
805,259162729,0.5039,-0.0566,-0.3193,-27.32,-24.88,-159.57
806,259167499,0.4766,-0.0303,-0.3398,-29.76,-22.44,-153.60
807,259172672,0.4468,-0.0112,-0.3076,-31.95,-19.09,-144.82
808,259177499,0.4180,0.0298,-0.2402,-32.87,-16.95,-139.09
809,259182499,0.4663,0.0498,-0.2666,-33.90,-14.94,-132.07
810,259187681,0.5010,0.0459,-0.2725,-33.41,-12.87,-123.78
811,259192497,0.4878,0.0386,-0.2202,-32.44,-11.89,-118.11
812,259197502,0.5444,0.0718,-0.2061,-31.16,-10.61,-111.65
813,259202498,0.5649,0.0586,-0.2241,-28.60,-9.63,-105.55
814,259207501,0.5503,0.0269,-0.1821,-25.55,-8.60,-99.45
815,259212554,0.5806,0.0752,-0.1655,-22.87,-7.44,-93.60
816,259217500,0.6201,0.0835,-0.1743,-20.00,-7.01,-88.29
817,259222936,0.6108,0.0791,-0.1670,-16.40,-6.28,-81.95
818,259227499,0.6060,0.0654,-0.1216,-14.27,-5.85,-77.80
819,259232499,0.5898,0.0977,-0.1250,-12.62,-4.94,-72.74
820,259237499,0.6235,0.1265,-0.1265,-11.59,-4.33,-68.11
821,259242499,0.6333,0.1260,-0.0942,-10.73,-3.78,-63.35
822,259247500,0.6177,0.1030,-0.0742,-10.06,-2.99,-58.66
823,259252498,0.6045,0.1313,-0.0713,-8.66,-2.38,-54.15
824,259257810,0.6738,0.1650,-0.0688,-7.32,-1.65,-49.27
825,259262499,0.6763,0.1714,-0.0332,-6.77,-1.22,-46.34
826,259267499,0.6182,0.1436,-0.0166,-5.79,-0.73,-42.62
827,259272689,0.6597,0.1758,-0.0181,-4.27,-0.37,-38.41
828,259277499,0.6812,0.1221,-0.0034,-3.60,-0.55,-35.49
829,259282499,0.6445,0.0713,0.0298,-2.87,-0.79,-31.22
830,259287499,0.6489,0.0762,0.0166,-2.13,-1.10,-28.11
831,259292985,0.7051,0.0688,0.0137,-1.34,-2.07,-23.84
832,259297499,0.6836,0.1440,-0.0029,-0.85,-2.68,-20.98
833,259302498,0.7080,0.1494,0.0308,-0.91,-3.72,-17.50
834,259307497,0.7217,0.1084,0.0503,-1.59,-4.82,-13.84
835,259312499,0.7036,0.0420,0.0332,-3.17,-6.10,-10.12
836,259317499,0.6816,0.0122,0.0396,-5.00,-7.50,-6.34
837,259322499,0.6895,0.0239,0.0913,-7.13,-8.84,-2.68
838,259327499,0.6987,0.0396,0.1069,-9.82,-10.12,0.61
839,259332499,0.7026,0.0493,0.0771,-12.87,-11.46,3.96
840,259337499,0.7090,0.0474,0.0884,-15.91,-12.99,7.26
841,259342498,0.7124,0.0391,0.1182,-19.15,-14.21,10.24
842,259347497,0.7207,0.0195,0.1108,-22.13,-15.55,13.11
843,259352497,0.7324,0.0068,0.0952,-25.12,-17.01,16.04
844,259357497,0.7393,0.0068,0.0986,-28.17,-18.29,18.78
845,259362497,0.7437,0.0044,0.1152,-31.16,-19.57,21.46
846,259368010,0.7363,0.0024,0.1152,-34.63,-20.98,24.51
847,259372498,0.7339,0.0103,0.0991,-37.01,-21.95,26.52
848,259377869,0.7339,0.0068,0.1016,-40.49,-23.11,29.45
849,259382499,0.7271,-0.0015,0.0981,-42.99,-23.78,31.40
850,259387499,0.7163,-0.0039,0.0835,-45.85,-24.88,33.78
851,259392595,0.7075,-0.0146,0.0737,-48.72,-25.91,36.34
852,259397498,0.6987,-0.0220,0.0635,-51.52,-27.01,38.78
853,259402499,0.6885,-0.0269,0.0493,-54.09,-27.99,41.22
854,259407499,0.6772,-0.0283,0.0430,-56.71,-29.09,43.84
855,259412903,0.6665,-0.0356,0.0312,-59.45,-30.55,46.95
856,259417499,0.6660,-0.0317,0.0371,-61.10,-31.28,48.96
857,259422500,0.6646,-0.0322,0.0366,-63.11,-32.38,51.40
858,259427502,0.6641,-0.0356,0.0264,-65.06,-33.48,54.33
859,259432499,0.6758,-0.0327,0.0190,-66.10,-34.09,56.16
860,259437499,0.6890,-0.0249,0.0132,-67.44,-35.18,58.29
861,259442704,0.6924,-0.0361,0.0151,-68.96,-36.40,60.67
862,259447499,0.6973,-0.0420,0.0044,-69.88,-37.07,62.32
863,259452499,0.6963,-0.0479,0.0044,-70.98,-37.93,64.21
864,259457499,0.6943,-0.0610,-0.0068,-72.07,-38.78,66.10
865,259462500,0.6992,-0.0732,-0.0068,-73.17,-39.70,67.87
866,259467499,0.6978,-0.0830,-0.0151,-74.33,-40.49,69.76
867,259472943,0.6987,-0.0942,-0.0254,-75.85,-41.34,72.07
868,259477499,0.6982,-0.0962,-0.0264,-76.83,-42.07,73.54
869,259482499,0.6899,-0.0967,-0.0308,-78.48,-42.68,75.37
870,259487502,0.6753,-0.0894,-0.0371,-80.73,-43.41,77.38
871,259492499,0.6694,-0.0903,-0.0400,-82.62,-43.84,78.72
872,259497882,0.6514,-0.0723,-0.0596,-85.98,-44.33,80.61
873,259502499,0.6606,-0.0791,-0.0815,-89.39,-45.00,82.26
874,259507499,0.6655,-0.0742,-0.0869,-92.32,-45.49,83.60
875,259512499,0.6670,-0.0664,-0.0874,-96.22,-45.73,85.37
876,259517498,0.6333,-0.0869,-0.1079,-100.06,-45.91,87.07
877,259522499,0.5684,-0.0776,-0.1055,-103.05,-46.34,89.33
878,259527499,0.6045,-0.0532,-0.0508,-105.61,-46.28,90.79
879,259532499,0.6323,-0.0708,-0.0513,-108.05,-45.85,92.38
880,259537500,0.6646,-0.0913,-0.1201,-110.49,-45.79,94.15
881,259542499,0.6997,-0.0884,-0.1328,-113.35,-45.55,96.40
882,259547500,0.6860,-0.1211,-0.0400,-115.18,-45.18,97.93
883,259552499,0.6753,-0.1382,-0.0947,-117.62,-44.76,100.12
884,259557500,0.6968,-0.1421,-0.1450,-119.76,-44.88,102.44
885,259562499,0.6963,-0.1436,-0.1104,-121.77,-44.94,104.76
886,259567556,0.6851,-0.1450,-0.0908,-123.41,-44.57,107.20
887,259572498,0.6870,-0.1567,-0.1343,-124.70,-44.63,109.70
888,259577501,0.6802,-0.1772,-0.1470,-125.61,-44.51,112.13
889,259582499,0.6646,-0.1885,-0.1235,-126.40,-44.39,114.76
890,259587881,0.6479,-0.1987,-0.1216,-127.20,-44.15,117.87
891,259592499,0.6519,-0.2080,-0.1455,-127.68,-44.15,120.06
892,259597499,0.6567,-0.1943,-0.1680,-128.29,-44.15,122.80
893,259602651,0.6611,-0.1973,-0.1499,-128.66,-44.15,125.55
894,259607860,0.6597,-0.2212,-0.1919,-129.88,-44.33,129.02
895,259612499,0.6543,-0.2412,-0.1943,-131.46,-44.63,131.16
896,259617499,0.6963,-0.3066,-0.1841,-134.70,-44.76,134.27
897,259622499,0.6860,-0.2861,-0.2021,-140.06,-44.88,137.68
898,259627499,0.6860,-0.2852,-0.1978,-145.00,-44.94,140.06
899,259632499,0.6812,-0.3047,-0.1753,-148.78,-44.76,142.01
900,259637499,0.6577,-0.3105,-0.1504,-153.29,-44.51,144.21
901,259642499,0.6377,-0.3364,-0.1528,-157.26,-44.33,146.52
902,259647645,0.6270,-0.3608,-0.1401,-160.85,-44.57,149.21
903,259652499,0.6172,-0.3877,-0.1333,-164.02,-45.18,152.13
904,259657499,0.6255,-0.3999,-0.1206,-166.52,-45.91,155.18
905,259662499,0.6162,-0.4106,-0.1167,-168.23,-46.65,158.48
906,259667498,0.6177,-0.4375,-0.1362,-168.72,-47.68,161.89
907,259672501,0.6104,-0.4614,-0.1284,-168.72,-48.84,165.37
908,259677502,0.5869,-0.4614,-0.1323,-167.56,-50.18,169.70
909,259682499,0.5693,-0.4668,-0.1353,-166.22,-51.04,172.56
910,259687501,0.5503,-0.4722,-0.1421,-163.96,-52.26,176.04
911,259692565,0.5337,-0.4756,-0.1528,-161.46,-53.60,179.51
912,259697502,0.5093,-0.4819,-0.1709,-157.80,-55.30,183.60
913,259702499,0.5073,-0.4800,-0.1733,-155.30,-56.34,186.16
914,259707789,0.5059,-0.4824,-0.2026,-151.28,-57.80,189.82
915,259712499,0.5029,-0.4883,-0.2183,-148.35,-58.78,192.20
916,259717499,0.5010,-0.4912,-0.2334,-144.27,-60.00,195.12
917,259722911,0.4902,-0.5122,-0.2461,-139.45,-60.98,198.60
918,259727499,0.4795,-0.5259,-0.2588,-136.28,-61.77,200.98
919,259732581,0.4619,-0.5420,-0.2661,-132.56,-62.44,204.02
920,259737498,0.4497,-0.5493,-0.2739,-129.02,-62.80,207.07
921,259742499,0.4292,-0.5615,-0.2827,-125.30,-63.29,210.55
922,259747499,0.4175,-0.5703,-0.2866,-123.05,-63.54,212.99
923,259752503,0.3906,-0.5732,-0.2939,-120.00,-63.54,216.22
924,259757499,0.3711,-0.5898,-0.3096,-117.99,-63.54,218.84
925,259762499,0.3608,-0.6016,-0.3164,-116.77,-63.35,220.85
926,259767499,0.3462,-0.6211,-0.3311,-115.67,-63.17,223.41
927,259772500,0.3325,-0.6377,-0.3423,-115.18,-62.87,225.98
928,259777499,0.3135,-0.6543,-0.3550,-115.37,-62.50,228.35
929,259782499,0.2983,-0.6689,-0.3657,-115.98,-61.95,230.67
930,259787719,0.2729,-0.6855,-0.3784,-116.95,-61.52,232.99
931,259792499,0.2490,-0.7017,-0.3779,-118.48,-60.91,235.12
932,259797499,0.2349,-0.7070,-0.3979,-119.94,-60.43,237.26
933,259802500,0.2144,-0.7100,-0.3979,-121.52,-59.82,239.21
934,259807499,0.1870,-0.7104,-0.3999,-123.17,-59.33,240.91
935,259812499,0.1646,-0.7183,-0.4165,-124.39,-58.96,242.44
936,259817607,0.1392,-0.7241,-0.4282,-125.61,-58.66,243.96
937,259822499,0.1162,-0.7314,-0.4360,-126.40,-58.29,245.24
938,259827497,0.0981,-0.7334,-0.4458,-126.95,-57.99,246.40
939,259832499,0.0815,-0.7485,-0.4541,-126.95,-57.80,247.62
940,259837499,0.0669,-0.7520,-0.4585,-126.52,-57.74,248.72
941,259842690,0.0596,-0.7671,-0.4678,-125.98,-57.68,249.70
942,259847499,0.0474,-0.7812,-0.4761,-124.88,-57.38,250.67
943,259852499,0.0366,-0.7886,-0.4824,-123.41,-57.38,251.77
944,259857630,0.0308,-0.7964,-0.4868,-121.71,-57.20,253.05
945,259862499,0.0195,-0.8164,-0.5000,-119.51,-57.32,254.33
946,259867499,0.0142,-0.8267,-0.5029,-117.13,-57.50,255.85
947,259872499,0.0166,-0.8403,-0.4995,-114.45,-57.68,257.50
948,259877898,0.0117,-0.8516,-0.5044,-110.85,-58.11,259.70
949,259882499,0.0088,-0.8662,-0.5063,-108.35,-58.54,261.22
950,259887754,0.0073,-0.8799,-0.5166,-105.12,-58.96,263.35
951,259892499,0.0020,-0.8921,-0.5229,-101.52,-59.39,265.61
952,259897499,-0.0059,-0.9072,-0.5303,-96.71,-60.12,268.48
953,259902499,-0.0171,-0.9131,-0.5327,-93.23,-60.49,270.30
954,259907499,-0.0303,-0.9136,-0.5332,-88.48,-60.91,272.74
955,259912499,-0.0527,-0.9204,-0.5381,-83.54,-61.40,275.12
956,259917843,-0.0757,-0.9258,-0.5410,-77.26,-61.83,277.99
957,259922499,-0.0933,-0.9277,-0.5430,-73.11,-62.13,279.94
958,259927499,-0.1177,-0.9292,-0.5483,-67.56,-62.38,282.32
959,259932500,-0.1348,-0.9321,-0.5547,-62.20,-62.62,284.57
960,259937680,-0.1646,-0.9307,-0.5552,-57.13,-62.74,286.59
961,259942500,-0.1909,-0.9258,-0.5615,-52.38,-62.80,288.54
962,259947499,-0.2202,-0.9321,-0.5659,-47.99,-62.62,290.18
963,259952499,-0.2388,-0.9458,-0.5693,-44.21,-62.74,292.07
964,259957499,-0.2700,-0.9629,-0.5850,-40.24,-62.74,294.21
965,259962499,-0.2861,-0.9746,-0.5884,-37.99,-62.80,295.73
966,259967788,-0.3096,-0.9897,-0.6001,-35.61,-62.93,297.56
967,259972499,-0.3237,-0.9937,-0.6089,-33.29,-63.11,299.70
968,259977499,-0.3423,-0.9946,-0.5991,-30.98,-63.23,302.01
969,259982499,-0.3652,-0.9902,-0.6016,-28.60,-63.54,304.21
970,259987498,-0.3926,-0.9805,-0.6040,-25.85,-63.90,306.59
971,259992499,-0.4238,-0.9731,-0.5981,-22.99,-64.39,308.84
972,259997498,-0.4512,-0.9624,-0.5913,-19.82,-64.82,311.46
973,260002499,-0.4800,-0.9463,-0.5840,-16.10,-65.43,313.90
974,260007566,-0.5127,-0.9346,-0.5762,-12.38,-66.10,316.46
975,260012498,-0.5488,-0.9219,-0.5776,-8.41,-66.83,319.15
976,260017503,-0.5801,-0.9155,-0.5605,-4.02,-67.50,322.01
977,260022498,-0.6138,-0.9004,-0.5566,0.37,-68.41,324.76
978,260027499,-0.6670,-0.8813,-0.5410,5.98,-69.39,328.41
979,260032499,-0.6934,-0.8750,-0.5371,10.12,-70.18,330.73
980,260037499,-0.7417,-0.8892,-0.5552,16.65,-70.98,334.57
981,260042499,-0.7686,-0.8984,-0.5684,21.10,-71.65,337.32
982,260047499,-0.7993,-0.8940,-0.5542,27.13,-72.01,340.43
983,260052499,-0.8276,-0.8804,-0.5513,33.17,-71.71,343.05
984,260057576,-0.8765,-0.8711,-0.5615,39.51,-70.79,345.18
985,260062502,-0.9634,-0.8687,-0.5757,47.44,-69.02,347.38
986,260067499,-1.0225,-0.8569,-0.5835,52.80,-67.80,348.54
987,260072880,-1.1040,-0.8447,-0.5918,61.04,-65.49,350.37
988,260077499,-1.1479,-0.8350,-0.6040,66.59,-63.96,351.34
989,260082499,-1.1958,-0.8184,-0.6006,73.54,-61.83,352.56
990,260087904,-1.2539,-0.7969,-0.6025,81.89,-59.21,353.84
991,260092499,-1.2959,-0.7915,-0.5991,87.32,-57.38,354.70
992,260097499,-1.3579,-0.7803,-0.6001,95.12,-54.88,355.98
993,260102499,-1.3896,-0.7681,-0.5991,100.00,-52.99,356.83
994,260107499,-1.4209,-0.7563,-0.5884,105.98,-50.79,357.74
995,260112499,-1.4487,-0.7446,-0.5840,111.46,-48.48,358.84
996,260117500,-1.4839,-0.7437,-0.5757,116.52,-46.04,360.06
997,260122499,-1.5156,-0.7510,-0.5718,121.16,-43.48,361.22
998,260127499,-1.5425,-0.7549,-0.5649,125.49,-40.91,362.74
999,260132499,-1.5640,-0.7554,-0.5513,129.33,-37.93,364.02
1000,260137499,-1.5806,-0.7510,-0.5532,132.62,-34.70,365.30
1001,260142498,-1.5967,-0.7393,-0.5454,136.10,-31.10,366.46
1002,260147497,-1.5757,-0.7266,-0.5396,139.33,-27.20,367.13
1003,260152599,-1.6055,-0.7051,-0.5161,142.20,-22.74,367.68
1004,260157688,-1.6304,-0.7026,-0.5381,145.00,-18.23,367.99
1005,260162499,-1.6606,-0.7236,-0.5391,147.13,-13.54,368.35
1006,260167499,-1.7139,-0.7046,-0.5488,148.78,-9.02,368.72
1007,260172878,-1.7563,-0.6660,-0.5498,150.85,-3.17,368.48
1008,260177500,-1.7666,-0.6582,-0.5576,152.32,0.91,367.93
1009,260182928,-1.7939,-0.6309,-0.5566,155.37,7.01,366.77
1010,260187501,-1.8027,-0.5933,-0.5479,157.80,11.34,365.55
1011,260192499,-1.8140,-0.6094,-0.5630,161.52,17.44,363.60
1012,260197501,-1.8271,-0.5474,-0.5342,165.85,22.99,361.04
1013,260202499,-1.8452,-0.5000,-0.5234,171.10,29.15,357.74
1014,260207742,-1.8149,-0.5098,-0.5513,176.77,35.79,354.27
1015,260212499,-1.7485,-0.5127,-0.5405,183.11,42.13,350.98
1016,260217593,-1.6504,-0.4907,-0.5063,191.77,48.96,347.13
1017,260222499,-1.5938,-0.5107,-0.4990,198.41,53.78,344.27
1018,260227882,-1.5210,-0.5005,-0.4912,209.02,61.10,339.88
1019,260232499,-1.4834,-0.5015,-0.4819,216.59,65.85,336.89
1020,260237501,-1.4375,-0.4844,-0.4717,226.65,71.71,332.87
1021,260242499,-1.3999,-0.4600,-0.4790,237.13,77.50,328.48
1022,260247499,-1.3711,-0.4390,-0.4736,247.87,83.66,323.96
1023,260252499,-1.3501,-0.4453,-0.4722,258.72,88.29,319.15
1024,260257499,-1.3350,-0.4438,-0.4668,269.57,93.96,314.09
1025,260262500,-1.3169,-0.4688,-0.4775,280.24,99.27,308.96
1026,260267499,-1.3027,-0.4800,-0.5132,290.43,104.15,303.78
1027,260272554,-1.3071,-0.4731,-0.5298,300.06,108.11,298.35
1028,260277499,-1.2759,-0.4585,-0.5327,309.45,111.59,292.56
1029,260282499,-1.2319,-0.4355,-0.5288,318.84,115.00,286.28
1030,260287683,-1.1914,-0.3994,-0.5176,327.87,117.93,279.63
1031,260292499,-1.1504,-0.3711,-0.4971,337.01,120.67,272.50
1032,260297501,-1.1099,-0.3506,-0.4922,346.04,123.05,264.82
1033,260302500,-1.0708,-0.3408,-0.4678,355.06,125.30,256.65
1034,260307499,-1.0347,-0.3418,-0.4604,363.96,126.89,248.23
1035,260312558,-0.9893,-0.3486,-0.4438,372.20,128.23,239.76
1036,260317499,-0.9302,-0.3643,-0.4316,379.76,129.21,231.10
1037,260322503,-0.8799,-0.3877,-0.4243,386.52,129.63,222.56
1038,260327498,-0.8364,-0.3887,-0.4155,392.62,129.70,214.39
1039,260332501,-0.8008,-0.3838,-0.3994,398.29,129.51,206.40
1040,260337499,-0.7686,-0.3857,-0.3823,403.72,129.15,198.66
1041,260342499,-0.7466,-0.4077,-0.3687,409.09,128.54,191.34
1042,260347499,-0.7256,-0.4155,-0.3730,414.15,127.62,184.39
1043,260352499,-0.7056,-0.4170,-0.3638,418.96,126.46,177.74
1044,260357500,-0.6841,-0.4272,-0.3579,423.11,124.76,171.34
1045,260362501,-0.6631,-0.4302,-0.3779,426.59,122.80,165.06
1046,260367901,-0.6470,-0.4312,-0.3877,429.88,120.12,158.17
1047,260372499,-0.6401,-0.4106,-0.3589,431.22,117.99,153.78
1048,260377499,-0.6367,-0.4067,-0.3457,431.95,115.24,148.72
1049,260382499,-0.6274,-0.4067,-0.3623,431.22,112.56,143.84
1050,260387501,-0.6323,-0.4106,-0.3472,428.84,109.88,139.15
1051,260392499,-0.6377,-0.4253,-0.3223,425.06,107.01,134.63
1052,260397771,-0.6426,-0.4351,-0.3149,419.94,104.27,130.43
1053,260402499,-0.6445,-0.4292,-0.3149,413.41,101.52,126.40
1054,260407823,-0.6509,-0.4199,-0.2935,405.67,98.78,122.62
1055,260412499,-0.6553,-0.3994,-0.2681,397.20,96.34,118.96
1056,260417499,-0.6636,-0.3916,-0.2554,387.62,94.21,115.55
1057,260422500,-0.6694,-0.3970,-0.2471,377.26,92.01,112.13
1058,260427499,-0.6743,-0.4014,-0.2197,366.10,90.00,108.84
1059,260432499,-0.6802,-0.4121,-0.2139,354.15,87.87,105.85
1060,260437499,-0.6909,-0.4185,-0.2134,341.52,85.30,103.11
1061,260442499,-0.6934,-0.4131,-0.2051,328.11,85.00,100.37
1062,260447498,-0.6943,-0.4092,-0.1836,314.02,82.80,97.80
1063,260452499,-0.6968,-0.4043,-0.1704,299.27,81.40,95.37
1064,260457499,-0.6909,-0.4106,-0.1763,283.72,79.70,93.05
1065,260462707,-0.6875,-0.4214,-0.1694,267.68,77.93,90.79
1066,260467499,-0.6841,-0.4370,-0.1650,251.10,76.10,88.78
1067,260472499,-0.6875,-0.4395,-0.1685,231.04,73.78,87.01
1068,260477500,-0.6846,-0.4512,-0.1816,217.44,72.07,85.98
1069,260482501,-0.6802,-0.4551,-0.1748,200.73,69.94,84.21
1070,260487728,-0.6729,-0.4536,-0.1724,184.27,67.80,82.80
1071,260492498,-0.6753,-0.4565,-0.1763,168.17,65.49,81.59
1072,260497499,-0.6787,-0.4551,-0.1709,152.68,62.87,80.49
1073,260502499,-0.6787,-0.4546,-0.1631,138.05,60.49,79.63
1074,260507522,-0.6733,-0.4604,-0.1543,124.21,57.93,78.84
1075,260512554,-0.6655,-0.4590,-0.1572,111.16,55.67,78.05
1076,260517585,-0.6597,-0.4556,-0.1548,99.21,53.11,77.32
1077,260522498,-0.6606,-0.4595,-0.1479,88.35,50.49,76.65
1078,260527666,-0.6567,-0.4546,-0.1533,78.66,47.80,76.04
1079,260532498,-0.6587,-0.4517,-0.1646,69.94,44.94,75.37
1080,260537499,-0.6548,-0.4551,-0.1758,60.85,41.46,74.76
1081,260542499,-0.6523,-0.4629,-0.1792,55.73,38.84,74.39
1082,260547500,-0.6489,-0.4536,-0.1865,49.15,34.94,73.78
1083,260552499,-0.6504,-0.4604,-0.1929,45.55,32.13,73.41
1084,260557499,-0.6543,-0.4600,-0.1914,41.89,28.72,72.93
1085,260562499,-0.6538,-0.4551,-0.1904,39.27,25.43,72.38
1086,260567499,-0.6675,-0.4561,-0.1777,37.44,22.38,71.71
1087,260572499,-0.6646,-0.4561,-0.1802,36.46,19.15,71.04
1088,260577650,-0.6680,-0.4663,-0.1890,36.28,16.10,70.49
1089,260582499,-0.6699,-0.4702,-0.1899,36.83,13.17,69.88
1090,260587497,-0.6743,-0.4712,-0.1909,37.87,10.12,69.33
1091,260592499,-0.6729,-0.4741,-0.1943,39.57,7.32,68.78
1092,260597499,-0.6821,-0.4741,-0.1997,41.59,4.45,68.17
1093,260602500,-0.6914,-0.4771,-0.1929,44.09,1.89,67.62
1094,260607499,-0.6978,-0.4795,-0.1978,46.77,-0.55,67.13
1095,260612499,-0.7002,-0.4873,-0.1978,49.76,-3.17,66.59
1096,260617848,-0.6987,-0.4912,-0.2046,52.93,-5.61,66.22
1097,260622499,-0.7002,-0.4937,-0.1958,55.98,-7.87,65.79
1098,260627499,-0.6992,-0.4888,-0.1987,59.15,-10.00,65.43
1099,260632522,-0.7021,-0.4937,-0.1924,62.26,-12.01,65.06
1100,260637499,-0.7041,-0.4927,-0.1968,65.24,-13.90,64.76
1101,260642498,-0.7021,-0.4907,-0.1978,68.11,-15.85,64.33
1102,260647499,-0.6987,-0.4937,-0.2134,70.61,-17.93,63.84
1103,260652607,-0.6992,-0.4976,-0.2192,72.80,-19.94,63.48
1104,260657499,-0.6934,-0.4946,-0.2163,74.76,-22.01,62.93
1105,260662499,-0.6909,-0.4971,-0.2231,76.28,-24.15,62.62
1106,260667499,-0.6948,-0.4980,-0.2197,77.32,-26.04,62.07
1107,260672499,-0.7012,-0.4995,-0.2100,77.87,-27.99,61.65
1108,260677549,-0.6997,-0.5015,-0.2212,77.80,-29.63,61.22
1109,260682605,-0.7012,-0.5112,-0.2217,77.32,-31.34,60.79
1110,260687789,-0.6919,-0.5137,-0.2246,76.16,-33.11,60.37
1111,260692914,-0.6904,-0.5181,-0.2271,74.63,-34.76,59.94
1112,260697499,-0.6924,-0.5181,-0.2295,72.56,-36.46,59.51
1113,260702894,-0.6895,-0.5112,-0.2319,70.06,-38.11,59.15
1114,260707499,-0.6890,-0.5127,-0.2236,67.20,-39.82,58.54
1115,260712855,-0.6982,-0.5117,-0.2236,63.78,-41.28,57.68
1116,260717499,-0.6982,-0.5098,-0.2217,60.30,-42.50,57.01
1117,260722499,-0.7080,-0.5024,-0.2183,56.52,-43.78,56.16
1118,260727498,-0.7085,-0.5034,-0.2192,52.32,-45.00,55.12
1119,260732499,-0.7144,-0.5039,-0.2217,47.99,-45.98,54.15
1120,260737499,-0.7197,-0.5112,-0.2285,43.29,-47.20,53.05
1121,260742498,-0.7246,-0.5137,-0.2383,38.54,-48.11,51.89
1122,260747499,-0.7275,-0.5225,-0.2476,33.48,-49.45,50.91
1123,260752499,-0.7397,-0.5361,-0.2544,28.17,-50.73,49.94
1124,260757498,-0.7446,-0.5464,-0.2583,22.93,-51.95,48.96
1125,260762499,-0.7500,-0.5537,-0.2656,17.44,-53.17,48.11
1126,260767499,-0.7559,-0.5605,-0.2661,12.01,-54.51,47.20
1127,260772499,-0.7642,-0.5674,-0.2632,6.71,-55.55,46.40
1128,260777499,-0.7734,-0.5728,-0.2646,1.59,-56.40,45.55
1129,260782499,-0.7861,-0.5767,-0.2725,-3.29,-57.20,44.76
1130,260787568,-0.7920,-0.5757,-0.2729,-7.68,-57.74,43.72
1131,260792499,-0.7964,-0.5757,-0.2676,-11.77,-58.17,42.56
1132,260797499,-0.8042,-0.5684,-0.2690,-15.30,-58.41,41.46
1133,260802499,-0.8076,-0.5620,-0.2690,-18.54,-58.35,40.00
1134,260807630,-0.8096,-0.5684,-0.2656,-21.16,-58.29,38.72
1135,260812499,-0.8135,-0.5664,-0.2778,-23.35,-57.99,37.13
1136,260817499,-0.8174,-0.5688,-0.2769,-25.12,-57.50,35.67
1137,260822499,-0.8169,-0.5718,-0.2749,-26.52,-57.20,34.15
1138,260827500,-0.8218,-0.5693,-0.2817,-27.62,-56.52,32.50
1139,260832499,-0.8169,-0.5693,-0.2827,-28.41,-55.79,30.73
1140,260837499,-0.8179,-0.5718,-0.2812,-28.96,-54.88,29.02
1141,260842499,-0.8228,-0.5737,-0.2778,-29.45,-54.09,27.32
