# skilleye imu stream v1
# device=xiao_esp32c6 imu=mpu6050 addr=0x68
# rate_hz=200 accel_range_g=16 gyro_range_dps=2000 dlpf_hz=94
# units: accel in g, gyro in deg/s, t_us in microseconds since boot (monotonic)
# no shared clock with the camera -- tap the racket once before each take
# so both recordings share a spike to align on
seq,t_us,ax,ay,az,gx,gy,gz
0,29046982,1.0132,0.1680,-0.0010,-62.20,15.00,-19.45
1,29051986,1.0156,0.1699,0.0049,-62.74,15.49,-19.45
2,29056982,1.0161,0.1646,0.0093,-63.17,15.79,-19.51
3,29061982,1.0127,0.1729,0.0151,-63.54,16.22,-19.51
4,29066985,1.0098,0.1685,0.0254,-63.66,16.52,-19.51
5,29072173,1.0078,0.1758,0.0332,-63.66,16.95,-19.33
6,29077384,1.0063,0.1802,0.0591,-63.72,17.32,-19.33
7,29081984,1.0020,0.1963,0.0708,-64.63,17.56,-19.09
8,29086982,0.9941,0.2129,0.1011,-66.89,17.38,-18.90
9,29091984,0.9849,0.2383,0.1338,-70.61,17.13,-18.60
10,29096982,0.9805,0.2588,0.1611,-76.10,16.65,-18.41
11,29101982,0.9712,0.2817,0.1797,-82.50,15.67,-18.17
12,29106984,0.9604,0.2988,0.1997,-89.63,14.57,-17.87
13,29111984,0.9463,0.3130,0.2129,-96.83,13.48,-17.68
14,29117149,0.9424,0.3120,0.2256,-103.60,12.13,-17.44
15,29122259,0.9429,0.3062,0.2349,-109.51,11.10,-17.32
16,29126984,0.9409,0.2891,0.2114,-114.51,10.06,-17.20
17,29131984,0.9336,0.2847,0.2134,-116.22,9.15,-17.26
18,29136984,0.9268,0.2715,0.2070,-116.46,8.54,-17.44
19,29141984,0.9268,0.2529,0.1948,-114.88,7.87,-17.56
20,29146984,0.9316,0.2373,0.1958,-111.46,7.44,-17.68
21,29151984,0.9380,0.2251,0.1904,-106.89,7.13,-17.68
22,29156983,0.9316,0.2163,0.1924,-101.10,6.77,-17.74
23,29161982,0.9355,0.2114,0.1899,-94.82,6.65,-17.80
24,29166984,0.9297,0.2095,0.1953,-88.17,6.59,-17.68
25,29172486,0.9268,0.2095,0.2017,-81.34,6.65,-17.50
26,29176984,0.9302,0.2070,0.2212,-74.76,6.59,-17.20
27,29181984,0.9302,0.2095,0.2271,-68.54,6.65,-16.71
28,29187060,0.9297,0.2100,0.2339,-63.23,6.65,-16.10
29,29192429,0.9312,0.2139,0.2422,-58.35,6.40,-15.43
30,29196985,0.9375,0.2144,0.2529,-54.45,6.28,-14.45
31,29201985,0.9355,0.2168,0.2593,-51.52,5.91,-13.35
32,29206984,0.9438,0.2178,0.2705,-49.27,5.55,-12.32
33,29211982,0.9434,0.2271,0.2817,-47.62,5.30,-11.16
34,29216984,0.9434,0.2271,0.2817,-46.34,4.88,-10.06
35,29221984,0.9404,0.2207,0.2881,-45.24,4.70,-8.72
36,29226983,0.9409,0.2202,0.2847,-43.96,4.39,-7.56
37,29231984,0.9492,0.2217,0.2827,-42.32,4.02,-6.46
38,29237397,0.9424,0.2246,0.2798,-40.24,3.78,-5.49
39,29242435,0.9370,0.2217,0.2725,-37.74,3.78,-4.51
40,29246984,0.9341,0.2241,0.2720,-34.88,3.54,-3.54
41,29251984,0.9380,0.2241,0.2646,-31.59,3.35,-2.68
42,29256982,0.9385,0.2197,0.2632,-27.99,3.11,-1.95
43,29261984,0.9448,0.2192,0.2573,-24.21,2.99,-1.16
44,29266984,0.9478,0.2192,0.2471,-20.30,2.87,-0.49
45,29271984,0.9478,0.2192,0.2480,-16.28,2.87,0.06
46,29276984,0.9443,0.2183,0.2466,-12.20,2.68,0.61
47,29281983,0.9458,0.2251,0.2456,-8.23,2.44,1.04
48,29286984,0.9409,0.2251,0.2437,-4.39,2.56,1.28
49,29291984,0.9399,0.2256,0.2432,-0.85,2.56,1.52
50,29296984,0.9395,0.2222,0.2456,2.32,2.44,1.77
51,29301984,0.9385,0.2231,0.2407,5.18,2.56,2.07
52,29306984,0.9419,0.2246,0.2310,7.13,2.44,2.32
53,29311984,0.9404,0.2290,0.2261,8.72,2.50,2.44
54,29316984,0.9399,0.2246,0.2280,9.70,2.50,2.80
55,29322337,0.9365,0.2197,0.2266,10.24,2.50,3.05
56,29327330,0.9438,0.2285,0.2373,10.30,2.56,3.35
57,29331984,0.9399,0.2261,0.2373,9.94,2.62,3.60
58,29336984,0.9360,0.2285,0.2310,9.27,2.80,3.90
59,29341983,0.9380,0.2280,0.2271,8.54,3.05,4.15
60,29346982,0.9419,0.2266,0.2231,7.56,3.11,4.33
61,29351982,0.9414,0.2285,0.2202,6.83,3.17,4.57
62,29356982,0.9399,0.2300,0.2178,6.10,3.29,4.76
63,29361982,0.9424,0.2314,0.2090,5.43,3.23,5.06
64,29366982,0.9419,0.2305,0.2183,4.94,3.23,5.06
65,29372336,0.9434,0.2358,0.2197,4.39,3.17,5.12
66,29377335,0.9434,0.2305,0.2188,4.09,3.05,5.30
67,29382394,0.9380,0.2393,0.2134,3.84,3.11,5.37
68,29387195,0.9429,0.2358,0.2188,3.78,2.87,5.37
69,29391984,0.9448,0.2402,0.2163,3.78,2.74,5.43
70,29397131,0.9385,0.2427,0.2202,3.96,2.56,5.43
71,29402352,0.9390,0.2471,0.2227,4.21,2.38,5.37
72,29407392,0.9390,0.2515,0.2241,4.57,2.13,5.30
73,29412371,0.9414,0.2510,0.2197,4.70,1.89,5.30
74,29416985,0.9458,0.2510,0.2222,5.12,1.83,5.30
75,29421984,0.9458,0.2534,0.2256,5.49,1.46,5.18
76,29427359,0.9448,0.2524,0.2212,5.79,1.40,5.12
77,29432404,0.9473,0.2559,0.2202,6.16,0.91,5.24
78,29436984,0.9448,0.2554,0.2188,6.46,0.55,5.30
79,29442471,0.9478,0.2549,0.2222,6.52,0.24,5.30
80,29447326,0.9468,0.2563,0.2144,6.71,0.06,5.37
81,29452233,0.9492,0.2549,0.2153,6.83,-0.30,5.43
82,29456984,0.9497,0.2607,0.2183,6.83,-0.73,5.43
83,29461984,0.9463,0.2559,0.2231,6.89,-1.04,5.55
84,29466984,0.9536,0.2593,0.2144,6.77,-1.22,5.61
85,29472183,0.9531,0.2593,0.2114,6.52,-1.46,5.61
86,29477382,0.9526,0.2612,0.2109,6.28,-1.71,5.73
87,29481985,0.9551,0.2612,0.2144,5.98,-2.07,5.73
88,29486984,0.9551,0.2617,0.2178,5.49,-2.07,5.91
89,29491984,0.9575,0.2554,0.2144,4.94,-2.32,6.04
90,29497032,0.9546,0.2573,0.2075,4.45,-2.50,6.10
91,29502250,0.9551,0.2559,0.2144,3.90,-2.68,6.28
92,29507261,0.9536,0.2593,0.2144,3.66,-2.68,6.28
93,29512491,0.9487,0.2578,0.2178,3.17,-2.74,6.46
94,29516984,0.9487,0.2593,0.2119,2.99,-2.74,6.52
95,29521983,0.9546,0.2573,0.2139,2.93,-2.93,6.59
96,29526983,0.9595,0.2583,0.2075,2.99,-3.05,6.71
97,29532340,0.9546,0.2549,0.2109,3.23,-3.05,6.83
98,29536984,0.9546,0.2559,0.2153,3.60,-3.41,6.83
99,29541984,0.9541,0.2568,0.2075,4.15,-3.41,7.01
100,29546984,0.9595,0.2559,0.2026,4.70,-3.54,7.07
101,29552361,0.9590,0.2554,0.2051,5.37,-3.84,7.13
102,29557338,0.9614,0.2549,0.2036,6.10,-3.96,7.01
103,29561984,0.9585,0.2549,0.2051,6.59,-4.21,7.13
104,29566984,0.9595,0.2529,0.2036,7.32,-4.33,7.13
105,29571988,0.9609,0.2485,0.2012,8.11,-4.45,7.13
106,29577376,0.9663,0.2485,0.2002,8.72,-4.51,7.20
107,29582362,0.9614,0.2485,0.2002,9.33,-4.63,7.20
108,29587261,0.9604,0.2476,0.2007,9.94,-4.70,7.20
109,29592392,0.9585,0.2451,0.1992,10.55,-4.76,7.13
110,29597292,0.9624,0.2432,0.1973,11.10,-4.76,7.13
111,29602361,0.9575,0.2407,0.2026,11.46,-4.76,7.20
112,29607306,0.9565,0.2407,0.2056,11.77,-4.88,7.13
113,29612397,0.9575,0.2393,0.1987,12.13,-4.88,7.32
114,29617490,0.9531,0.2310,0.1938,12.44,-5.06,7.38
115,29621984,0.9565,0.2290,0.1929,12.74,-5.24,7.50
116,29627434,0.9531,0.2285,0.1914,12.87,-5.30,7.56
117,29632367,0.9517,0.2300,0.1895,13.11,-5.49,7.74
118,29636984,0.9497,0.2285,0.1895,13.23,-5.49,7.80
119,29641984,0.9531,0.2285,0.1909,13.41,-5.61,7.93
120,29646982,0.9517,0.2305,0.1870,13.48,-5.61,8.05
121,29651982,0.9487,0.2266,0.1909,13.41,-5.67,8.05
122,29656982,0.9575,0.2275,0.1890,13.29,-5.98,8.11
123,29661983,0.9644,0.2236,0.1890,12.93,-5.73,8.17
124,29666982,0.9604,0.2256,0.1846,12.68,-5.67,8.05
125,29672702,0.9595,0.2310,0.1953,12.38,-5.73,8.11
126,29676984,0.9585,0.2314,0.1914,12.13,-5.55,8.17
127,29681984,0.9629,0.2266,0.1919,12.01,-5.43,8.17
128,29687308,0.9653,0.2217,0.1919,11.83,-5.24,8.17
129,29692465,0.9712,0.2222,0.1875,11.65,-5.24,8.29
130,29697311,0.9722,0.2192,0.1846,11.65,-4.94,8.35
131,29702445,0.9712,0.2173,0.1821,11.71,-5.06,8.60
132,29706985,0.9795,0.2173,0.1807,11.71,-4.82,8.72
133,29711984,0.9775,0.2119,0.1807,12.01,-4.76,8.96
134,29717468,0.9829,0.2168,0.1675,12.56,-4.76,9.15
135,29722408,0.9780,0.2188,0.1768,13.11,-5.06,9.21
136,29727425,0.9834,0.2222,0.1763,13.72,-4.82,9.33
137,29731984,0.9863,0.2256,0.1709,14.39,-4.88,9.45
138,29737461,0.9897,0.2290,0.1665,14.94,-4.82,9.39
139,29741984,0.9888,0.2280,0.1704,15.37,-4.88,9.45
140,29746984,0.9844,0.2266,0.1694,16.04,-4.76,9.27
141,29751984,0.9873,0.2231,0.1631,16.40,-4.76,9.27
142,29756984,0.9868,0.2275,0.1660,16.65,-4.70,9.27
143,29762485,0.9907,0.2256,0.1631,16.77,-4.82,9.39
144,29766984,0.9897,0.2261,0.1602,16.71,-4.76,9.39
145,29771983,0.9907,0.2261,0.1611,16.77,-4.76,9.39
146,29776984,0.9902,0.2227,0.1548,16.52,-4.57,9.39
147,29782392,0.9951,0.2261,0.1479,16.40,-4.70,9.33
148,29787403,0.9956,0.2285,0.1455,16.16,-4.63,9.39
149,29791984,0.9980,0.2261,0.1484,15.79,-4.70,9.33
150,29796987,1.0020,0.2231,0.1465,15.37,-4.51,9.21
151,29802293,1.0015,0.2256,0.1450,14.70,-4.70,9.21
152,29806984,1.0015,0.2256,0.1367,14.02,-4.70,9.21
153,29812273,1.0005,0.2256,0.1357,13.48,-5.00,9.27
154,29817350,1.0020,0.2227,0.1348,12.74,-4.94,9.21
155,29822354,0.9971,0.2246,0.1343,12.01,-5.00,9.09
156,29826984,0.9971,0.2207,0.1367,11.65,-5.06,9.09
157,29832046,0.9990,0.2202,0.1274,11.04,-5.30,9.02
158,29837214,0.9980,0.2261,0.1255,10.43,-5.37,8.90
159,29842423,0.9951,0.2236,0.1196,10.00,-5.37,8.78
160,29846984,0.9941,0.2207,0.1118,9.82,-5.49,8.72
161,29851984,0.9907,0.2192,0.1143,9.51,-5.55,8.48
162,29856984,0.9849,0.2192,0.1138,9.09,-5.61,8.23
163,29862460,0.9863,0.2168,0.1182,8.78,-5.49,7.99
164,29866984,0.9814,0.2144,0.1216,8.48,-5.30,7.80
165,29871984,0.9839,0.2114,0.1172,7.93,-5.06,7.56
166,29876984,0.9771,0.2100,0.1133,7.56,-4.88,7.32
167,29881985,0.9780,0.2061,0.1162,7.20,-4.70,7.26
168,29887050,0.9780,0.2051,0.1133,6.83,-4.57,7.07
169,29891984,0.9814,0.2036,0.1177,6.52,-4.39,6.89
170,29896984,0.9824,0.2021,0.1108,6.16,-4.27,6.83
171,29902444,0.9844,0.2061,0.1118,5.91,-4.21,6.65
172,29907356,0.9839,0.2007,0.1099,5.67,-4.21,6.65
173,29912382,0.9858,0.2031,0.1118,5.37,-4.15,6.52
174,29916984,0.9907,0.2012,0.1055,5.12,-4.09,6.52
175,29922278,0.9922,0.1978,0.1050,4.57,-4.02,6.52
176,29927444,0.9912,0.1958,0.1050,4.15,-4.09,6.83
177,29931985,0.9888,0.1934,0.1040,3.60,-4.15,6.83
178,29936984,0.9819,0.1924,0.1035,2.99,-4.21,7.01
179,29941984,0.9849,0.1924,0.1045,2.38,-4.09,7.26
180,29946984,0.9854,0.1895,0.1025,1.65,-4.02,7.38
181,29951982,0.9839,0.1899,0.1035,1.10,-4.02,7.44
182,29956984,0.9771,0.1851,0.0981,0.49,-3.96,7.62
183,29961984,0.9717,0.1846,0.0957,0.06,-4.09,7.74
184,29966982,0.9702,0.1846,0.0962,-0.06,-4.02,7.87
185,29971984,0.9722,0.1851,0.0957,0.00,-3.84,7.93
186,29976984,0.9673,0.1851,0.0972,0.06,-3.84,8.05
187,29981984,0.9673,0.1855,0.0947,0.43,-3.72,7.93
188,29986984,0.9663,0.1885,0.0933,0.91,-3.84,7.87
189,29992367,0.9668,0.1836,0.0942,1.59,-3.60,7.74
190,29996984,0.9707,0.1841,0.0962,2.07,-3.60,7.80
191,30001983,0.9717,0.1772,0.0957,2.74,-3.54,7.68
192,30007462,0.9707,0.1787,0.0957,3.48,-3.66,7.62
193,30011984,0.9756,0.1816,0.0918,4.09,-3.54,7.68
194,30016984,0.9780,0.1807,0.0972,4.51,-3.41,7.62
195,30022112,0.9731,0.1812,0.0977,4.88,-3.54,7.50
196,30027425,0.9731,0.1816,0.0908,5.12,-3.60,7.44
197,30032464,0.9746,0.1787,0.0923,5.12,-3.72,7.50
198,30037267,0.9727,0.1792,0.0854,5.00,-3.66,7.44
199,30041984,0.9688,0.1807,0.0923,4.63,-3.96,7.50
200,30047264,0.9531,0.1763,0.0859,4.21,-3.96,7.50
201,30051984,0.9707,0.1772,0.0889,3.78,-4.21,7.38
202,30056984,0.9805,0.1777,0.0952,2.99,-4.33,7.50
203,30061984,0.9795,0.1729,0.0967,1.83,-4.51,7.62
204,30067457,0.9717,0.1709,0.0928,0.55,-4.70,7.68
205,30071984,0.9678,0.1733,0.0923,-0.43,-4.88,7.87
206,30076984,0.9644,0.1655,0.0942,-1.52,-5.12,8.05
207,30081984,0.9307,0.1587,0.0859,-2.74,-5.55,8.23
208,30086984,0.7529,0.1592,0.0430,-3.05,-6.28,8.60
209,30092365,0.8730,0.2012,0.0903,-2.13,-6.71,8.41
210,30096984,0.9731,0.1787,0.0952,-0.67,-6.71,7.99
211,30102200,1.0483,0.1572,0.1060,1.22,-6.83,7.50
212,30107417,1.0723,0.1411,0.1226,3.05,-7.20,7.32
213,30111984,1.0532,0.1675,0.1562,4.09,-7.13,7.26
214,30116985,1.0415,0.1660,0.1553,5.24,-6.52,7.13
215,30122457,1.0386,0.1582,0.1240,6.04,-6.65,7.26
216,30127414,1.0117,0.1553,0.1216,6.10,-7.01,7.50
217,30132380,0.9771,0.1528,0.1318,5.98,-7.56,7.87
218,30137262,0.9751,0.1509,0.1338,5.67,-7.87,8.29
219,30142430,0.9912,0.1489,0.1426,5.00,-8.60,8.72
220,30147301,1.0005,0.1577,0.1387,4.27,-9.27,9.15
221,30151984,1.0073,0.1558,0.1426,3.41,-9.88,9.39
222,30156984,1.0054,0.1533,0.1406,2.56,-10.73,9.82
223,30162338,0.9639,0.1411,0.1255,1.40,-11.77,10.55
224,30167423,0.8618,0.1533,0.0845,0.91,-13.23,11.16
225,30172327,0.9248,0.1680,0.1353,1.34,-14.33,11.28
226,30176983,0.9995,0.1655,0.1528,2.01,-14.63,11.28
227,30181983,1.0586,0.1582,0.1675,3.41,-15.18,11.16
228,30186988,1.0840,0.1450,0.1606,5.18,-15.73,11.52
229,30191983,1.0845,0.1558,0.1670,6.71,-16.28,11.83
230,30197380,1.0723,0.1592,0.1621,8.05,-16.71,12.32
231,30202483,1.0420,0.1616,0.1514,9.39,-17.20,12.74
232,30206984,1.0088,0.1597,0.1440,10.30,-17.62,13.17
233,30211983,0.9839,0.1655,0.1475,11.28,-18.23,13.78
234,30216982,0.9937,0.1685,0.1455,12.13,-18.48,14.27
235,30221984,1.0024,0.1772,0.1528,12.74,-18.66,14.70
236,30227485,0.9941,0.1821,0.1514,13.17,-18.72,15.30
237,30231984,0.9888,0.1875,0.1504,13.48,-18.60,15.85
238,30236984,0.9858,0.1890,0.1494,13.72,-18.54,16.28
239,30241984,0.9873,0.1895,0.1431,13.96,-18.29,16.77
240,30246983,0.9917,0.1909,0.1348,13.96,-18.05,17.32
241,30251983,0.9966,0.1948,0.1294,14.39,-17.80,17.99
242,30256982,1.0010,0.1943,0.1167,14.82,-17.68,18.66
243,30261982,1.0049,0.1963,0.1157,15.24,-17.56,19.27
244,30266982,0.9990,0.2031,0.1064,15.67,-17.13,20.06
245,30271982,0.9941,0.1997,0.1001,16.46,-16.95,20.73
246,30276982,0.9980,0.1973,0.0908,17.32,-16.65,21.46
247,30281984,1.0029,0.1982,0.0684,18.29,-16.16,22.20
248,30286985,1.0034,0.1968,0.0659,19.57,-15.73,22.87
249,30291984,0.9956,0.2021,0.0566,21.10,-15.12,23.60
250,30297323,0.9985,0.2056,0.0483,22.62,-14.27,24.27
251,30301985,0.9912,0.1968,0.0293,24.15,-13.41,24.82
252,30306984,0.9893,0.1992,0.0273,25.67,-12.56,25.24
253,30311984,0.9912,0.1978,0.0156,27.44,-11.46,25.61
254,30317045,0.9863,0.2007,0.0029,28.72,-10.24,25.98
255,30322282,0.9844,0.2002,-0.0063,30.00,-8.96,26.28
256,30327419,0.9883,0.1992,-0.0132,31.22,-7.50,26.40
257,30332436,0.9902,0.1987,-0.0195,31.95,-6.34,26.40
258,30337350,0.9902,0.2065,-0.0244,32.50,-5.12,26.34
259,30342400,0.9912,0.1987,-0.0288,32.62,-3.90,26.22
260,30346985,0.9907,0.1982,-0.0312,32.62,-2.62,26.04
261,30351984,0.9897,0.1953,-0.0361,32.20,-1.16,25.98
262,30356984,0.9858,0.2007,-0.0391,31.40,0.18,25.43
263,30361983,0.9810,0.2036,-0.0352,30.18,1.46,25.00
264,30366983,0.9800,0.2017,-0.0317,28.84,2.80,24.45
265,30372295,0.9790,0.2036,-0.0361,27.20,4.09,23.66
266,30377353,0.9771,0.2051,-0.0352,25.12,5.55,22.87
267,30381984,0.9800,0.2036,-0.0396,22.74,6.71,21.89
268,30386984,0.9810,0.2041,-0.0352,20.12,7.99,20.98
269,30392202,0.9805,0.2061,-0.0190,17.13,9.33,19.88
270,30397217,0.9819,0.2109,-0.0151,13.84,10.73,18.66
271,30402371,0.9800,0.2100,-0.0122,10.43,11.95,17.50
272,30407444,0.9873,0.2100,-0.0044,6.77,13.23,16.04
273,30412457,0.9902,0.2026,0.0034,2.13,14.70,14.57
274,30416984,0.9971,0.2021,0.0098,-1.16,15.91,13.60
275,30421984,1.0054,0.2031,0.0112,-5.06,16.83,12.38
276,30427396,1.0063,0.1953,0.0171,-8.78,17.87,10.98
277,30431985,1.0024,0.1890,0.0293,-12.20,18.78,9.82
278,30436984,0.9888,0.1792,0.0337,-15.49,19.70,8.60
279,30441984,1.0112,0.1841,0.0479,-18.60,20.61,7.32
280,30447367,0.8242,0.1289,0.0083,-21.28,21.28,6.28
281,30452414,0.8911,0.1421,0.0444,-22.80,21.89,5.00
282,30457361,1.0337,0.1592,0.0518,-23.05,22.68,3.11
283,30461984,1.0786,0.1577,0.0537,-22.80,23.29,1.89
284,30467025,1.0835,0.1406,0.0747,-22.20,23.84,0.49
285,30471983,1.0542,0.1284,0.0771,-21.46,24.33,-0.67
286,30476983,1.0137,0.1162,0.0820,-21.10,25.00,-1.71
287,30481984,0.9819,0.1035,0.0854,-20.98,25.55,-2.80
288,30486983,0.9673,0.0967,0.0952,-20.98,26.04,-3.60
289,30491985,0.9888,0.0889,0.1055,-20.98,26.59,-4.51
290,30497599,1.0166,0.0928,0.1177,-21.04,27.07,-5.49
291,30502487,1.0376,0.0952,0.1294,-21.04,27.01,-6.16
292,30506987,1.0615,0.0908,0.1343,-21.10,27.32,-6.71
293,30511984,1.0806,0.0908,0.1421,-21.16,27.38,-7.13
294,30516984,1.0977,0.0967,0.1479,-21.16,27.20,-7.68
295,30521985,1.0913,0.0820,0.1621,-21.34,27.20,-7.93
296,30526984,1.0811,0.0737,0.1509,-21.71,26.89,-8.11
297,30532481,1.0405,0.0747,0.1587,-22.32,26.34,-7.93
298,30536984,1.0420,0.0811,0.1494,-22.80,26.04,-7.87
299,30541984,1.0864,0.0840,0.1538,-23.29,25.43,-7.74
300,30546984,1.0933,0.0840,0.1729,-23.78,24.82,-7.74
301,30551982,1.0527,0.0532,0.1660,-24.15,24.39,-7.56
302,30556984,1.0889,0.0796,0.1802,-24.45,23.90,-7.38
303,30561984,1.0967,0.1055,0.1958,-24.63,23.41,-7.38
304,30566982,1.1074,0.1250,0.2041,-24.57,23.05,-7.62
305,30571984,1.1128,0.1333,0.2095,-24.51,22.74,-7.93
306,30576984,1.1206,0.1309,0.2251,-24.63,22.44,-8.29
307,30581984,1.0972,0.1255,0.2271,-24.70,22.26,-8.54
308,30587222,1.0537,0.1245,0.2310,-25.12,22.13,-8.90
309,30591984,0.9976,0.1270,0.2295,-25.49,21.83,-9.09
310,30596984,0.9678,0.1421,0.2256,-26.22,21.40,-9.45
311,30601984,0.9678,0.1616,0.2324,-26.89,20.98,-10.12
312,30606984,0.9673,0.1729,0.2344,-27.74,20.55,-10.91
313,30611984,0.9443,0.1782,0.2339,-28.60,20.12,-11.59
314,30616985,0.9282,0.1768,0.2446,-29.45,19.51,-12.50
315,30622028,0.8970,0.1719,0.2422,-30.37,19.09,-13.29
316,30627467,0.8027,0.1724,0.2256,-31.22,18.48,-14.02
317,30632273,0.8687,0.1821,0.2520,-31.46,17.99,-15.00
318,30637280,0.9292,0.1870,0.2637,-31.34,17.44,-16.10
319,30641984,0.9546,0.1924,0.2749,-31.16,17.13,-17.01
320,30646984,0.9448,0.1758,0.2778,-31.22,16.89,-17.68
321,30652392,0.9404,0.1885,0.2798,-31.34,16.40,-18.11
322,30657414,0.9604,0.1909,0.2822,-31.46,16.10,-18.78
323,30662370,0.9751,0.1865,0.2866,-31.71,15.73,-19.27
324,30666984,0.9595,0.1880,0.2896,-32.13,15.43,-19.63
325,30671984,0.9702,0.2021,0.2979,-32.93,15.30,-19.94
326,30676984,0.9731,0.1909,0.2930,-33.96,15.06,-20.18
327,30681984,0.9507,0.1836,0.2891,-35.49,15.00,-20.24
328,30686984,0.9453,0.1812,0.2891,-37.01,14.82,-20.24
329,30691984,0.9541,0.1787,0.2827,-38.96,14.63,-19.88
330,30697094,0.9590,0.1807,0.2837,-40.73,14.45,-19.70
331,30702392,0.9692,0.1768,0.2856,-42.56,14.45,-19.57
332,30707404,0.9736,0.1724,0.2798,-44.21,14.27,-19.27
333,30712388,0.9810,0.1680,0.2817,-45.79,14.33,-18.90
334,30717391,0.9878,0.1675,0.2808,-47.13,14.51,-18.41
335,30721984,0.9980,0.1680,0.2876,-47.87,14.94,-17.87
336,30726983,1.0068,0.1704,0.2808,-48.17,15.37,-17.38
337,30731984,1.0229,0.1650,0.2710,-47.99,15.61,-16.71
338,30737328,1.0215,0.1670,0.2651,-47.20,16.16,-16.04
339,30741984,1.0186,0.1689,0.2617,-46.04,16.34,-15.55
340,30747271,1.0220,0.1646,0.2612,-44.39,16.77,-14.82
341,30752367,1.0273,0.1558,0.2554,-42.20,16.95,-14.09
342,30756985,1.0083,0.1626,0.2549,-39.82,17.26,-13.29
343,30761984,1.0142,0.1621,0.2510,-37.13,17.68,-12.56
344,30766984,1.0166,0.1685,0.2500,-34.57,17.99,-11.89
345,30771984,1.0151,0.1709,0.2583,-31.89,18.35,-11.28
346,30776984,1.0181,0.1748,0.2603,-29.27,18.78,-10.73
347,30782040,1.0151,0.1714,0.2524,-27.07,19.21,-10.43
348,30786984,1.0156,0.1650,0.2583,-25.18,19.70,-9.88
349,30791984,1.0171,0.1650,0.2563,-23.72,20.24,-9.39
350,30796983,1.0103,0.1685,0.2417,-22.32,20.67,-8.72
351,30801984,1.0020,0.1670,0.2534,-21.16,20.98,-8.29
352,30806987,0.9907,0.1719,0.2485,-20.49,21.40,-7.93
353,30812371,0.9873,0.1743,0.2490,-20.18,21.77,-7.44
354,30817423,0.9868,0.1758,0.2549,-20.00,22.56,-7.13
355,30822440,0.9883,0.1733,0.2627,-20.43,23.23,-6.95
356,30826984,0.9844,0.1763,0.2695,-20.98,24.09,-6.77
357,30831983,0.9800,0.1738,0.2700,-21.89,24.88,-6.65
358,30836984,0.9810,0.1836,0.2788,-22.74,25.73,-6.52
359,30841983,1.0122,0.1743,0.2793,-23.84,26.83,-6.46
360,30846982,0.9585,0.1924,0.2666,-24.45,27.68,-6.46
361,30851984,0.9741,0.1860,0.3008,-24.63,28.72,-6.59
362,30856984,1.0078,0.1655,0.2910,-24.76,29.70,-6.52
363,30861983,1.0039,0.1611,0.2847,-24.70,30.24,-6.34
364,30866983,0.9165,0.1353,0.2803,-24.39,31.04,-6.04
365,30871984,0.9238,0.1807,0.2539,-23.48,31.10,-5.67
366,30876984,1.0850,0.2104,0.2935,-21.46,31.40,-5.91
367,30881984,1.1387,0.1885,0.3105,-19.57,32.01,-6.10
368,30887421,1.1299,0.1724,0.3057,-18.41,32.56,-6.04
369,30891984,1.1001,0.1562,0.2993,-17.87,32.93,-5.85
370,30897344,1.0708,0.1494,0.2983,-18.11,33.11,-5.55
371,30901984,1.0430,0.1792,0.2925,-18.41,33.23,-5.55
372,30906988,1.0474,0.1562,0.2944,-19.15,32.99,-5.43
373,30912386,1.0640,0.1616,0.2935,-20.43,32.80,-5.37
374,30917378,1.0747,0.1636,0.3164,-22.38,32.87,-5.37
375,30922401,1.0859,0.1597,0.3271,-24.45,32.80,-5.37
376,30926984,1.1240,0.1567,0.3228,-26.95,32.68,-5.43
377,30931984,1.1582,0.1348,0.3208,-29.76,32.26,-5.18
378,30937427,1.1499,0.1567,0.3140,-32.68,31.65,-4.76
379,30942377,1.1558,0.1582,0.3101,-35.49,31.04,-4.70
380,30947463,1.1558,0.1426,0.3071,-38.60,30.24,-4.51
381,30952439,1.1675,0.1372,0.3101,-41.71,29.39,-4.21
382,30956984,1.1978,0.1338,0.3076,-44.82,28.54,-4.09
383,30962265,1.2266,0.1333,0.3130,-47.93,27.38,-3.96
384,30966984,1.2505,0.1396,0.3115,-51.04,26.34,-4.02
385,30971983,1.2661,0.1445,0.3232,-54.21,25.30,-4.27
386,30976984,1.2378,0.1348,0.3252,-57.93,24.45,-4.51
387,30981984,1.1709,0.1250,0.3154,-62.50,23.60,-4.76
388,30987435,1.1514,0.1240,0.3257,-67.44,22.74,-5.00
389,30991984,1.1465,0.1348,0.3398,-72.93,22.26,-5.61
390,30996984,1.1328,0.1284,0.3389,-78.90,21.95,-6.40
391,31001984,1.1221,0.1157,0.3306,-84.76,21.46,-6.95
392,31007388,1.1177,0.1084,0.3369,-90.67,20.91,-7.38
393,31012451,1.1147,0.1113,0.3271,-95.91,20.37,-7.80
394,31017280,1.1074,0.1123,0.3311,-100.49,19.94,-8.17
395,31022254,1.1064,0.1060,0.3252,-104.27,19.45,-8.66
396,31027471,1.1025,0.0942,0.3271,-107.07,19.02,-9.02
397,31032302,1.1064,0.0894,0.3213,-108.78,18.66,-9.21
398,31037207,1.1045,0.0884,0.3242,-109.33,18.29,-9.27
399,31042303,1.1064,0.0825,0.3208,-108.78,18.05,-9.39
400,31047338,1.1006,0.0815,0.3154,-107.13,17.87,-9.57
401,31051984,1.1079,0.0820,0.3154,-104.51,17.74,-9.76
402,31056984,1.1113,0.0771,0.3184,-101.16,17.50,-9.76
403,31062360,1.1064,0.0728,0.3115,-97.01,17.38,-9.76
404,31067329,1.1138,0.0771,0.3154,-92.38,17.32,-9.88
405,31072542,1.1152,0.0762,0.3213,-87.32,17.07,-10.00
406,31076984,1.1177,0.0806,0.3262,-82.32,17.01,-9.82
407,31081984,1.1274,0.0791,0.3228,-77.07,16.83,-9.76
408,31086983,1.1362,0.0801,0.3276,-72.32,16.59,-9.51
409,31091984,1.1445,0.0801,0.3286,-67.99,16.28,-9.27
410,31096984,1.1553,0.0781,0.3257,-64.21,15.61,-8.78
411,31102078,1.1675,0.0806,0.3306,-61.04,15.12,-8.23
412,31106984,1.1841,0.0791,0.3340,-58.60,14.33,-7.50
413,31112364,1.2012,0.0771,0.3359,-56.77,13.41,-7.01
414,31116985,1.2163,0.0776,0.3442,-55.91,12.20,-6.04
415,31122468,1.2300,0.0703,0.3403,-55.67,11.04,-5.24
416,31127487,1.2344,0.0669,0.3428,-56.16,9.70,-4.27
417,31132481,1.2441,0.0596,0.3433,-57.56,8.35,-3.23
418,31136984,1.2480,0.0576,0.3452,-59.33,7.01,-2.20
419,31142331,1.2520,0.0566,0.3491,-61.77,5.43,-1.46
420,31146984,1.2422,0.0601,0.3511,-64.39,4.15,-0.73
421,31151983,1.2314,0.0581,0.3511,-67.44,2.87,0.06
422,31156982,1.2246,0.0527,0.3506,-69.94,1.89,0.49
423,31161982,1.2114,0.0566,0.3555,-73.96,0.18,0.91
424,31166984,1.2056,0.0596,0.3574,-77.32,-1.04,1.10
425,31171984,1.1875,0.0596,0.3496,-80.61,-2.50,1.04
426,31176983,1.1772,0.0674,0.3540,-83.29,-3.54,0.85
427,31181984,1.1665,0.0693,0.3525,-87.26,-5.12,0.55
428,31187484,1.1597,0.0703,0.3491,-90.55,-6.65,0.18
429,31191983,1.1470,0.0654,0.3530,-92.87,-7.62,-0.24
430,31196985,1.1396,0.0630,0.3511,-95.73,-8.96,-0.67
431,31201983,1.1279,0.0601,0.3457,-98.48,-10.49,-0.85
432,31206982,1.1089,0.0537,0.3374,-100.79,-11.59,-1.28
433,31212615,1.0913,0.0464,0.3413,-103.35,-13.11,-1.52
434,31216984,1.0801,0.0430,0.3359,-104.88,-14.09,-1.65
435,31221983,1.0664,0.0273,0.3335,-106.65,-15.12,-1.59
436,31227383,1.0542,0.0200,0.3340,-108.54,-16.52,-1.52
437,31232299,1.0308,0.0137,0.3413,-109.88,-17.56,-1.22
438,31236984,1.0156,0.0122,0.3442,-110.79,-18.35,-1.10
439,31242000,0.9893,0.0107,0.3545,-111.89,-19.33,-0.79
440,31246984,0.9771,0.0103,0.3530,-112.50,-19.70,-0.55
441,31251984,0.9619,0.0103,0.3525,-112.80,-20.43,-0.30
442,31257309,0.9482,0.0034,0.3604,-112.74,-21.16,0.12
443,31261984,0.9429,-0.0049,0.3560,-112.50,-21.65,0.49
444,31267395,0.9380,-0.0068,0.3540,-111.71,-22.50,0.91
445,31272387,0.9312,-0.0093,0.3511,-110.85,-23.29,1.34
446,31277694,0.9180,-0.0156,0.3521,-109.63,-23.90,1.83
447,31281984,0.9121,-0.0166,0.3574,-108.66,-24.57,2.13
448,31286983,0.8945,-0.0190,0.3481,-107.38,-25.49,2.56
449,31292349,0.8755,-0.0244,0.3506,-105.73,-26.46,2.93
450,31297383,0.8564,-0.0273,0.3433,-104.27,-27.50,3.11
451,31301984,0.8311,-0.0273,0.3408,-102.74,-28.54,3.17
452,31306984,0.8203,-0.0288,0.3379,-101.59,-29.27,3.17
453,31311984,0.7974,-0.0322,0.3359,-100.00,-30.30,3.17
454,31317421,0.7773,-0.0444,0.3369,-98.23,-31.34,3.05
455,31322288,0.7651,-0.0527,0.3340,-96.95,-32.32,2.93
456,31327437,0.7490,-0.0581,0.3320,-95.67,-33.17,2.68
457,31332355,0.7358,-0.0601,0.3301,-94.45,-34.09,2.68
458,31337279,0.7188,-0.0698,0.3330,-93.48,-34.70,2.44
459,31342454,0.7148,-0.0771,0.3306,-92.68,-35.43,2.26
460,31346984,0.7114,-0.0796,0.3306,-92.07,-35.79,2.20
461,31351986,0.7051,-0.0884,0.3291,-91.28,-36.46,1.89
462,31356984,0.7051,-0.0913,0.3276,-90.55,-37.20,1.77
463,31362331,0.7051,-0.1001,0.3286,-89.70,-37.50,1.59
464,31367476,0.7036,-0.1060,0.3286,-88.78,-37.87,1.34
465,31372328,0.7051,-0.1138,0.3335,-87.80,-38.23,1.22
466,31377454,0.7026,-0.1152,0.3320,-86.83,-38.60,1.10
467,31381984,0.6997,-0.1133,0.3267,-85.85,-38.72,1.04
468,31387412,0.6992,-0.1123,0.3208,-84.39,-39.09,0.85
469,31392401,0.7012,-0.1172,0.3140,-83.17,-39.33,0.85
470,31397291,0.7046,-0.1216,0.3149,-81.83,-39.57,0.79
471,31401984,0.7075,-0.1167,0.3110,-80.79,-39.82,0.79
472,31406984,0.7075,-0.1162,0.3130,-79.45,-39.94,0.73
473,31411984,0.7046,-0.1113,0.2988,-78.23,-40.18,0.67
474,31417408,0.7051,-0.1069,0.2935,-76.89,-40.37,0.30
475,31421985,0.7056,-0.1060,0.2915,-76.10,-40.43,0.12
476,31427230,0.7144,-0.1074,0.2832,-75.24,-40.43,-0.24
477,31431984,0.7173,-0.1113,0.2788,-75.18,-40.43,-0.37
478,31437313,0.7241,-0.1079,0.2676,-75.06,-40.61,-0.61
479,31442488,0.7280,-0.1104,0.2666,-75.49,-40.43,-0.85
480,31447364,0.7334,-0.1094,0.2710,-76.40,-40.37,-1.28
481,31452360,0.7388,-0.1060,0.2705,-77.80,-40.06,-1.77
482,31457271,0.7349,-0.1035,0.2729,-79.57,-39.45,-2.26
483,31462363,0.7412,-0.1025,0.2666,-81.71,-38.96,-2.87
484,31467439,0.7505,-0.0957,0.2642,-84.09,-38.29,-3.60
485,31472316,0.7607,-0.1021,0.2681,-86.71,-37.74,-4.21
486,31477413,0.7686,-0.0981,0.2651,-89.39,-37.01,-4.82
487,31481984,0.7783,-0.1021,0.2695,-91.65,-36.40,-5.37
488,31486983,0.7861,-0.0991,0.2671,-94.57,-35.73,-6.10
489,31491982,0.7930,-0.1006,0.2676,-97.13,-35.00,-6.71
490,31496982,0.8013,-0.0981,0.2739,-99.82,-34.21,-7.32
491,31501982,0.8076,-0.0972,0.2734,-102.07,-33.29,-8.05
492,31507003,0.8223,-0.0957,0.2637,-103.96,-32.26,-8.66
493,31512191,0.8325,-0.0967,0.2729,-105.49,-31.34,-9.33
494,31516984,0.8477,-0.0977,0.2700,-106.59,-30.24,-9.82
495,31522315,0.8545,-0.0981,0.2749,-107.13,-28.96,-10.61
496,31526984,0.8599,-0.0938,0.2749,-107.32,-28.05,-11.10
497,31531984,0.8774,-0.0962,0.2798,-106.71,-26.77,-11.89
498,31537345,0.8843,-0.0986,0.2773,-105.85,-25.67,-12.50
499,31541984,0.8940,-0.0991,0.2803,-104.82,-24.70,-12.93
500,31546984,0.8936,-0.0986,0.2817,-103.11,-23.54,-13.23
501,31552237,0.8989,-0.1006,0.2876,-101.22,-22.56,-13.72
502,31556984,0.9014,-0.0967,0.2910,-99.02,-21.52,-14.15
503,31561983,0.9004,-0.0869,0.3071,-96.65,-20.43,-14.57
504,31567263,0.9072,-0.0854,0.3135,-93.90,-19.27,-15.00
505,31572334,0.9111,-0.0898,0.3213,-91.71,-18.23,-15.18
506,31576985,0.9126,-0.0864,0.3271,-89.76,-17.32,-15.55
507,31581984,0.9155,-0.0825,0.3374,-87.87,-16.16,-15.73
508,31586984,0.9204,-0.0796,0.3462,-86.16,-15.00,-15.98
509,31591984,0.9380,-0.0742,0.3525,-84.21,-13.66,-16.16
510,31597355,0.9365,-0.0732,0.3618,-82.87,-12.44,-16.34
511,31602313,0.9448,-0.0708,0.3691,-81.77,-11.28,-16.46
512,31606984,0.9556,-0.0659,0.3730,-80.91,-10.37,-16.52
513,31611984,0.9614,-0.0596,0.3745,-80.06,-9.33,-16.46
514,31616984,0.9668,-0.0591,0.3789,-79.15,-8.23,-16.40
515,31622452,0.9780,-0.0537,0.3916,-78.05,-7.07,-16.10
516,31626985,0.9785,-0.0518,0.3955,-77.38,-6.22,-15.91
517,31631984,0.9790,-0.0518,0.4023,-76.52,-5.30,-15.67
518,31637360,0.9849,-0.0483,0.4072,-75.55,-4.02,-15.30
519,31642403,0.9775,-0.0420,0.4165,-74.70,-2.80,-14.94
520,31647320,0.9805,-0.0435,0.4287,-73.78,-1.83,-14.39
521,31652377,0.9751,-0.0405,0.4297,-72.87,-0.55,-13.90
522,31657370,0.9766,-0.0391,0.4365,-71.83,0.67,-13.54
523,31661984,0.9805,-0.0293,0.4434,-70.85,1.71,-13.17
524,31666984,0.9844,-0.0264,0.4590,-69.39,2.99,-12.68
525,31671984,0.9834,-0.0234,0.4585,-68.05,4.33,-12.20
526,31677357,0.9854,-0.0244,0.4712,-66.34,5.73,-11.89
527,31682443,0.9937,-0.0171,0.4766,-64.21,7.26,-11.40
528,31686984,0.9951,-0.0137,0.4863,-62.50,8.41,-11.10
529,31691984,0.9976,-0.0098,0.4927,-60.43,9.70,-10.43
530,31697424,0.9980,-0.0103,0.4995,-57.68,11.22,-9.82
531,31702365,1.0010,-0.0010,0.5020,-55.79,12.20,-9.33
532,31707358,0.9990,0.0044,0.5063,-52.38,13.72,-8.78
533,31711984,0.9971,0.0020,0.5103,-50.18,14.33,-8.23
534,31716984,1.0010,0.0015,0.5249,-47.20,15.49,-7.62
535,31721984,0.9956,0.0127,0.5234,-44.15,16.40,-7.07
536,31727469,0.9902,0.0225,0.5312,-40.06,17.74,-6.46
537,31732489,0.9888,0.0283,0.5400,-36.71,18.60,-5.91
538,31737374,0.9883,0.0293,0.5483,-33.84,19.39,-5.43
539,31742468,0.9917,0.0317,0.5532,-29.76,20.43,-4.76
540,31747454,0.9902,0.0303,0.5601,-26.46,21.34,-4.15
541,31752401,0.9907,0.0322,0.5620,-23.72,22.20,-3.60
542,31756985,0.9956,0.0327,0.5674,-20.30,23.23,-2.99
543,31761984,0.9878,0.0332,0.5659,-17.07,24.15,-2.32
544,31766984,0.9907,0.0361,0.5698,-13.72,24.94,-1.65
545,31772475,0.9888,0.0337,0.5742,-9.76,26.04,-0.79
546,31777485,0.9937,0.0366,0.5752,-6.65,27.07,-0.06
547,31781984,1.0015,0.0356,0.5742,-4.21,27.68,0.55
548,31786986,0.9985,0.0391,0.5762,-0.98,28.48,1.28
549,31791983,0.9888,0.0410,0.5806,2.07,29.21,2.01
550,31796982,0.9888,0.0366,0.5688,5.43,29.70,2.87
551,31801982,0.9883,0.0371,0.5615,8.66,30.18,3.66
552,31806983,0.9829,0.0376,0.5620,12.01,30.55,4.33
553,31811982,0.9692,0.0342,0.5601,15.18,31.16,5.24
554,31816983,0.9766,0.0410,0.5669,18.29,31.28,6.22
555,31821984,0.9980,0.0400,0.5488,21.22,31.40,7.07
556,31826984,0.9814,0.0498,0.5435,24.15,31.10,7.74
557,31832384,0.9771,0.0610,0.5464,27.07,30.98,8.17
558,31837257,0.9722,0.0605,0.5322,30.00,30.79,8.66
559,31841986,-0.8398,-0.6021,0.1118,33.17,31.10,5.85
560,31846984,1.6572,0.0308,0.7480,34.15,32.62,4.33
561,31851984,0.2573,0.1074,0.5977,34.70,34.09,4.39
562,31856984,1.1826,0.4282,0.4604,36.10,33.90,2.44
563,31862458,0.9048,0.1245,0.3198,37.44,32.07,2.38
564,31867367,0.9746,-0.0732,0.5562,38.66,30.85,3.35
565,31872395,0.9189,-0.1538,0.5493,39.51,30.67,4.33
566,31877399,0.9312,-0.0488,0.4541,40.00,29.57,5.00
567,31882411,1.0054,0.0684,0.4551,40.43,28.90,4.76
568,31887471,0.9639,0.0850,0.4712,40.18,28.35,4.82
569,31891984,0.9619,0.0483,0.4917,39.63,27.99,5.37
570,31896984,1.0391,-0.0010,0.4556,39.02,27.20,6.10
571,31901984,0.9263,-0.0225,0.4414,38.17,26.16,7.07
572,31907357,0.9629,0.0137,0.4517,37.93,25.61,7.56
573,31911984,0.9751,0.0439,0.4790,37.50,24.82,8.17
574,31916984,1.0376,0.0669,0.3555,37.13,24.27,8.41
575,31921984,0.9272,0.0068,0.3203,36.65,22.56,8.84
576,31926984,1.0020,-0.0029,0.4014,36.22,22.74,8.90
577,31931983,0.9512,0.0010,0.3667,35.61,21.83,9.21
578,31936985,0.9678,0.0278,0.3306,34.94,21.40,9.02
579,31941983,1.0322,0.0479,0.3198,34.21,20.61,8.78
580,31946984,0.9404,0.0430,0.2886,33.05,19.33,8.35
581,31952459,0.9971,0.0381,0.3096,31.95,18.90,7.74
582,31957448,1.0098,0.0327,0.2905,30.24,18.11,7.13
583,31961984,0.9507,0.0181,0.2314,28.23,17.01,6.59
584,31966984,1.0039,0.0288,0.3184,25.91,16.34,5.85
585,31972389,0.9878,0.0342,0.2705,23.17,15.43,5.24
586,31977431,0.9868,0.0322,0.2573,19.94,14.15,4.57
587,31981984,0.9697,0.0342,0.2837,16.59,13.23,3.66
588,31986984,0.9590,0.0317,0.2764,13.35,12.68,2.80
589,31991985,0.9561,0.0229,0.2363,9.82,12.13,1.89
590,31996984,0.9453,0.0156,0.2368,6.65,11.77,1.22
591,32001984,0.9346,0.0137,0.2378,3.72,11.59,0.30
592,32007434,0.9292,0.0161,0.2109,1.40,11.46,-0.55
593,32011984,0.9194,0.0127,0.1948,-0.73,11.34,-1.34
594,32016984,0.9175,0.0142,0.1919,-2.38,11.34,-2.44
595,32021984,0.9136,0.0068,0.1855,-3.66,11.65,-3.48
596,32026984,0.9146,0.0029,0.1758,-4.94,11.59,-4.33
597,32031983,0.9150,0.0029,0.1724,-5.85,11.71,-5.12
598,32036985,0.9204,0.0029,0.1733,-6.71,12.07,-6.04
599,32041984,0.9277,-0.0015,0.1699,-7.26,12.44,-6.65
600,32047467,0.9380,-0.0049,0.1602,-7.62,12.74,-7.32
601,32052432,0.9492,-0.0044,0.1538,-7.80,13.11,-7.56
602,32056984,0.9648,-0.0049,0.1562,-7.68,13.41,-7.99
603,32061983,0.9741,-0.0054,0.1577,-7.26,13.72,-8.17
604,32066984,0.9946,-0.0098,0.1597,-7.01,14.15,-8.29
605,32071984,1.0112,-0.0068,0.1646,-6.83,14.27,-8.17
606,32076984,1.0298,-0.0078,0.1611,-6.46,14.57,-7.99
607,32081984,1.0552,-0.0068,0.1631,-6.28,14.45,-7.68
608,32086983,1.0825,-0.0078,0.1675,-6.16,14.09,-7.13
609,32091983,1.0991,-0.0073,0.1714,-6.28,13.66,-6.59
610,32096982,1.1182,-0.0103,0.1685,-6.52,12.93,-5.79
611,32101982,1.1323,-0.0088,0.1743,-7.38,12.01,-5.00
612,32106982,1.1411,-0.0024,0.1851,-8.23,11.04,-4.02
613,32112557,1.1460,0.0005,0.1963,-9.70,10.00,-3.05
614,32116986,1.1436,0.0010,0.1978,-11.59,8.96,-2.07
615,32121983,1.1392,0.0098,0.2085,-13.66,7.68,-1.22
616,32126984,1.1313,0.0186,0.2085,-16.22,6.46,-0.43
617,32131984,1.1235,0.0225,0.2241,-19.15,5.18,0.24
618,32136985,1.1167,0.0269,0.2339,-22.32,3.84,1.10
619,32141984,1.1011,0.0293,0.2295,-25.85,2.44,1.46
620,32146984,1.0889,0.0298,0.2285,-29.88,1.04,2.01
621,32151984,1.0708,0.0264,0.2344,-33.78,-0.24,2.26
622,32156984,1.0498,0.0327,0.2339,-37.80,-1.77,2.62
623,32161984,1.0308,0.0366,0.2280,-42.32,-3.29,2.74
624,32166984,1.0142,0.0278,0.2368,-46.83,-4.45,2.56
625,32171984,0.9927,0.0244,0.2407,-51.46,-5.55,2.44
626,32176984,0.9766,0.0156,0.2446,-56.28,-6.52,2.13
627,32181984,0.9580,0.0117,0.2466,-61.34,-7.20,1.83
628,32186985,0.9458,0.0054,0.2554,-66.34,-7.87,1.46
629,32191984,0.9272,0.0024,0.2627,-71.22,-8.41,1.04
630,32196987,0.9204,-0.0068,0.2734,-76.04,-8.60,0.55
631,32201984,0.9160,-0.0122,0.2808,-80.67,-8.78,0.06
632,32206983,0.9155,-0.0215,0.2930,-85.06,-8.78,-0.18
633,32211984,0.9097,-0.0288,0.3047,-89.15,-8.78,-0.49
634,32216982,0.9160,-0.0391,0.3174,-93.17,-8.78,-0.61
635,32221984,0.9146,-0.0547,0.3306,-96.71,-8.54,-0.49
636,32226984,0.9209,-0.0640,0.3408,-99.82,-8.17,-0.18
637,32231984,0.9263,-0.0767,0.3511,-102.38,-8.05,0.37
638,32236982,0.9287,-0.0859,0.3564,-104.27,-7.62,1.16
639,32241984,0.9312,-0.0913,0.3667,-105.24,-7.26,1.89
640,32246984,0.9385,-0.0947,0.3701,-105.49,-6.89,2.74
641,32251984,0.9360,-0.1001,0.3818,-104.88,-6.52,3.84
642,32256984,0.9443,-0.1030,0.3882,-103.41,-6.10,4.76
643,32261984,0.9478,-0.1089,0.3848,-100.98,-6.04,5.91
644,32266984,0.9453,-0.1128,0.3853,-97.74,-5.85,7.01
645,32271984,0.9448,-0.1196,0.3853,-93.78,-5.85,8.11
646,32276984,0.9424,-0.1147,0.3818,-89.33,-5.67,9.15
647,32281984,0.9375,-0.1191,0.3799,-84.15,-5.85,10.24
648,32286984,0.9346,-0.1265,0.3770,-78.84,-6.04,11.16
649,32291984,0.9287,-0.1338,0.3677,-72.99,-6.34,12.20
650,32296984,0.9199,-0.1426,0.3579,-67.20,-6.83,13.23
651,32301984,0.9111,-0.1440,0.3496,-61.22,-7.50,14.27
652,32306984,0.9019,-0.1499,0.3398,-55.49,-8.17,15.12
653,32311984,0.8999,-0.1567,0.3306,-49.94,-9.09,15.91
654,32316984,0.8916,-0.1611,0.3193,-44.63,-9.76,16.89
655,32321984,0.8799,-0.1719,0.3066,-39.94,-10.85,17.56
656,32326983,0.8682,-0.1807,0.2964,-35.98,-11.77,18.29
657,32331983,0.8589,-0.1895,0.2827,-32.68,-12.68,19.02
658,32337306,0.8442,-0.1973,0.2695,-30.12,-13.66,19.70
659,32341984,0.8257,-0.1973,0.2632,-28.29,-14.63,20.12
660,32346984,0.8145,-0.1919,0.2593,-27.13,-15.43,20.24
661,32351984,0.8018,-0.1929,0.2446,-26.65,-16.10,20.18
662,32356984,0.7925,-0.1953,0.2407,-27.13,-16.65,20.12
663,32361984,0.7812,-0.1880,0.2373,-28.11,-17.50,19.88
664,32366984,0.7900,-0.1870,0.2319,-29.94,-18.29,19.51
665,32371984,0.7847,-0.1714,0.2432,-32.26,-18.78,19.21
666,32376984,0.7969,-0.1978,0.2075,-35.18,-19.45,18.78
667,32381984,0.8101,-0.2017,0.2212,-39.02,-20.37,18.60
668,32386983,0.8140,-0.1987,0.2378,-43.84,-20.55,18.41
669,32391982,0.8203,-0.1982,0.2427,-49.21,-20.91,18.23
670,32396982,0.8398,-0.1943,0.2412,-55.06,-21.10,17.99
671,32401983,0.8501,-0.1904,0.2373,-61.28,-21.22,17.99
672,32406983,0.8691,-0.1909,0.2529,-67.44,-21.34,17.93
673,32411982,0.8887,-0.1836,0.2549,-73.48,-21.10,17.87
674,32416984,0.9038,-0.1724,0.2607,-79.09,-21.16,17.99
675,32421984,0.9282,-0.1616,0.2739,-84.02,-20.98,18.05
676,32426984,0.9497,-0.1465,0.2803,-88.23,-20.73,17.87
677,32431984,0.9805,-0.1328,0.2979,-91.46,-20.67,17.74
678,32436984,1.0054,-0.1211,0.2993,-93.66,-20.49,17.50
679,32441985,1.0229,-0.1069,0.3022,-94.82,-20.49,17.26
680,32446984,1.0454,-0.0967,0.3086,-94.82,-20.61,16.95
681,32451984,1.0625,-0.0859,0.2998,-93.78,-20.61,16.65
682,32456984,1.0762,-0.0757,0.2949,-91.95,-20.91,16.16
683,32461984,1.0859,-0.0576,0.2998,-89.02,-21.40,15.61
684,32466984,1.0933,-0.0625,0.2866,-85.49,-22.07,15.00
685,32471984,1.0957,-0.0581,0.2856,-81.52,-22.62,14.39
686,32476984,1.1045,-0.0620,0.2773,-77.44,-23.41,13.78
687,32481984,1.1040,-0.0645,0.2759,-73.17,-24.27,13.35
688,32486984,1.1055,-0.0684,0.2637,-69.27,-25.24,12.74
689,32491986,1.1060,-0.0737,0.2646,-65.79,-26.10,12.32
690,32496983,1.1021,-0.0845,0.2686,-63.23,-26.77,11.95
691,32501984,1.0952,-0.0977,0.2700,-61.77,-27.38,11.71
692,32506984,1.0918,-0.1084,0.2646,-61.16,-27.87,11.65
693,32511984,1.0845,-0.1235,0.2661,-61.59,-27.99,11.59
694,32516984,1.0786,-0.1343,0.2715,-62.93,-27.99,11.77
695,32521984,1.0674,-0.1445,0.2788,-65.24,-28.05,12.07
696,32527463,1.0547,-0.1538,0.2856,-67.99,-27.74,12.50
697,32531984,1.0474,-0.1611,0.2808,-71.34,-27.32,12.74
698,32536983,1.0347,-0.1670,0.2769,-75.06,-26.83,13.48
699,32541984,1.0210,-0.1772,0.2856,-78.96,-26.34,13.96
700,32546984,1.0054,-0.1772,0.2822,-82.80,-25.61,14.51
701,32551984,0.9878,-0.1802,0.2832,-86.22,-24.88,15.06
702,32556984,0.9692,-0.1777,0.2856,-89.51,-24.09,15.61
703,32561984,0.9502,-0.1758,0.2930,-92.38,-23.35,16.04
704,32566984,0.9365,-0.1797,0.2896,-94.63,-22.50,16.52
705,32571984,0.9199,-0.1709,0.2925,-96.40,-21.65,16.95
706,32576984,0.9019,-0.1699,0.3042,-97.62,-20.98,17.13
707,32581984,0.8896,-0.1689,0.2983,-98.35,-20.30,17.44
708,32586984,0.8687,-0.1733,0.3003,-98.78,-19.57,17.74
709,32591984,0.8569,-0.1816,0.3022,-98.84,-19.15,17.99
710,32596984,0.8418,-0.1909,0.2969,-98.66,-18.29,18.41
711,32601984,0.8291,-0.1987,0.2930,-98.11,-17.74,18.78
712,32606985,0.8145,-0.2041,0.2905,-97.26,-16.95,19.09
713,32611984,0.8047,-0.2051,0.2866,-96.52,-15.79,19.15
714,32616984,0.7905,-0.2124,0.2827,-95.73,-14.88,19.09
715,32621984,0.7871,-0.2178,0.2739,-94.70,-13.54,19.02
716,32626984,0.7847,-0.2290,0.2725,-93.90,-12.20,18.96
717,32631984,0.7837,-0.2378,0.2739,-93.17,-10.91,18.84
718,32636984,0.7852,-0.2500,0.2759,-92.38,-9.27,18.78
719,32641984,0.7930,-0.2554,0.2773,-92.01,-7.87,18.84
720,32646983,0.7905,-0.2593,0.2793,-91.40,-6.40,18.60
721,32651984,0.7925,-0.2632,0.2778,-90.85,-4.82,18.54
722,32656984,0.7915,-0.2656,0.2783,-90.06,-3.48,18.35
723,32661984,0.7983,-0.2690,0.2769,-89.39,-2.07,18.29
724,32666984,0.8052,-0.2759,0.2822,-88.60,-0.55,18.05
725,32671984,0.8130,-0.2803,0.2837,-87.68,0.67,17.99
726,32676984,0.8174,-0.2817,0.2896,-86.71,2.07,17.99
727,32681984,0.8286,-0.2861,0.2837,-85.49,3.48,17.99
728,32686983,0.8335,-0.2861,0.2842,-84.02,4.82,17.93
729,32691984,0.8438,-0.2866,0.2881,-82.50,6.04,18.23
730,32696983,0.8584,-0.2876,0.2954,-80.67,7.26,18.17
731,32701982,0.8721,-0.2891,0.2974,-78.66,8.66,18.29
732,32706983,0.8872,-0.2861,0.2998,-76.16,9.76,18.48
733,32711982,0.9028,-0.2847,0.3018,-73.78,10.85,18.60
734,32716984,0.9175,-0.2764,0.3115,-70.85,11.83,18.78
735,32721984,0.9341,-0.2700,0.3091,-68.05,12.93,18.96
736,32727440,0.9536,-0.2642,0.3164,-64.57,13.78,19.02
737,32731984,0.9697,-0.2666,0.3164,-62.32,14.39,19.09
738,32736982,0.9888,-0.2573,0.3193,-59.27,15.18,19.33
739,32741982,1.0054,-0.2578,0.3149,-56.34,15.91,19.57
740,32747459,1.0293,-0.2578,0.3208,-52.93,16.59,19.82
741,32751984,1.0366,-0.2583,0.3174,-50.85,17.13,20.06
742,32756984,1.0542,-0.2568,0.3228,-48.48,17.50,20.55
743,32761984,1.0723,-0.2583,0.3174,-46.28,17.87,21.10
744,32766984,1.0825,-0.2578,0.3262,-44.33,18.23,21.52
745,32771984,1.0903,-0.2529,0.3340,-42.80,18.54,21.95
746,32776984,1.1001,-0.2480,0.3267,-41.34,18.66,22.38
747,32781984,1.0996,-0.2422,0.3311,-40.24,18.96,22.74
748,32786984,1.1035,-0.2383,0.3315,-39.27,19.15,22.99
749,32791984,1.1006,-0.2290,0.3330,-38.48,19.27,23.11
750,32796984,1.0991,-0.2227,0.3350,-37.93,19.39,23.11
751,32801984,1.0977,-0.2139,0.3320,-37.38,19.57,23.11
752,32806984,1.0884,-0.2100,0.3379,-37.07,19.63,22.87
753,32811984,1.0879,-0.2017,0.3418,-36.77,19.82,22.62
754,32816984,1.0801,-0.1982,0.3452,-36.77,19.88,22.56
755,32821984,1.0757,-0.1943,0.3501,-36.95,20.18,22.20
756,32826984,1.0732,-0.1924,0.3501,-37.32,20.18,21.89
757,32832274,1.0732,-0.1885,0.3564,-38.23,20.49,21.52
758,32836984,1.0679,-0.1904,0.3584,-38.96,20.79,21.34
759,32841983,1.0625,-0.1895,0.3628,-40.12,20.85,21.10
760,32846984,1.0537,-0.1919,0.3691,-41.34,21.22,20.91
761,32851984,1.0464,-0.1919,0.3721,-42.80,21.40,20.67
762,32856986,1.0371,-0.1929,0.3633,-44.33,21.71,20.67
763,32861984,1.0273,-0.2007,0.3657,-45.85,21.71,20.61
764,32866984,1.0186,-0.1968,0.3604,-47.07,21.59,20.61
765,32871984,1.0068,-0.1953,0.3652,-48.23,21.71,20.61
766,32877429,0.9868,-0.1914,0.3672,-49.45,21.83,20.37
767,32881984,0.9775,-0.1885,0.3677,-49.94,21.65,20.30
768,32886984,0.9600,-0.1860,0.3730,-50.30,21.77,20.18
769,32891984,0.9468,-0.1812,0.3740,-50.30,21.65,20.00
770,32896984,0.9336,-0.1782,0.3726,-50.06,21.65,19.70
771,32901984,0.9175,-0.1724,0.3721,-49.39,21.46,19.39
772,32906984,0.8999,-0.1719,0.3765,-48.41,21.22,19.02
773,32911985,0.8862,-0.1670,0.3809,-47.38,20.91,18.72
774,32916984,0.8760,-0.1646,0.3794,-46.16,20.55,18.35
775,32921984,0.8643,-0.1631,0.3901,-44.88,20.24,17.99
776,32926984,0.8564,-0.1626,0.3892,-43.66,19.82,17.50
777,32931984,0.8423,-0.1631,0.3931,-42.62,19.63,17.07
778,32936984,0.8389,-0.1650,0.3950,-41.46,19.21,16.65
779,32941983,0.8325,-0.1729,0.3989,-40.73,18.90,16.34
780,32946984,0.8281,-0.1748,0.3965,-40.24,18.60,15.98
781,32951984,0.8164,-0.1909,0.4009,-40.12,18.54,15.85
782,32956984,0.8218,-0.1963,0.4004,-40.30,18.48,15.67
783,32961984,0.8257,-0.2095,0.4038,-40.85,18.35,15.73
784,32966984,0.8257,-0.2192,0.4087,-41.59,18.11,15.85
785,32972306,0.8320,-0.2266,0.4102,-42.74,17.99,16.28
786,32976984,0.8281,-0.2329,0.4175,-43.54,17.99,16.65
787,32981983,0.8374,-0.2451,0.4180,-44.45,17.62,17.32
788,32986982,0.8403,-0.2480,0.4180,-45.37,17.20,18.11
789,32991982,0.8389,-0.2544,0.4204,-46.22,16.77,19.02
790,32997534,0.8364,-0.2544,0.4175,-46.83,16.16,20.12
791,33001984,0.8296,-0.2583,0.4141,-47.01,15.61,21.10
792,33006983,0.8350,-0.2642,0.4204,-46.83,15.00,22.13
793,33012042,0.8457,-0.2627,0.4185,-46.22,14.33,23.29
794,33016984,0.8486,-0.2598,0.4165,-45.06,13.48,24.51
795,33021984,0.8525,-0.2583,0.4141,-43.48,12.44,25.49
796,33026984,0.8604,-0.2607,0.4023,-41.28,11.46,26.40
797,33031984,0.8638,-0.2622,0.3970,-38.72,10.18,27.26
798,33037261,0.8628,-0.2607,0.3882,-35.73,9.02,27.99
799,33041984,0.8481,-0.2886,0.3760,-32.80,7.56,28.84
800,33046984,0.8730,-0.2515,0.3823,-29.88,6.04,29.39
801,33051984,0.9072,-0.2534,0.3770,-27.20,4.82,29.76
802,33056984,0.8911,-0.2793,0.3560,-24.63,3.35,30.12
803,33061984,0.8794,-0.3252,0.3359,-22.20,1.71,30.73
804,33067310,0.8975,-0.3491,0.3115,-19.76,-0.18,31.71
805,33071984,0.9126,-0.3682,0.2979,-17.62,-2.20,33.05
806,33077304,0.9136,-0.3950,0.2788,-15.79,-4.57,34.57
807,33081984,0.9033,-0.4175,0.2705,-14.27,-6.65,36.46
808,33086984,0.8955,-0.4365,0.2524,-12.93,-8.78,38.41
809,33091984,0.8877,-0.4468,0.2446,-11.77,-10.73,40.24
810,33096984,0.8770,-0.4531,0.2285,-10.67,-12.44,41.95
811,33102310,0.8633,-0.4473,0.2158,-9.21,-13.90,43.35
812,33106984,0.8418,-0.4512,0.2012,-7.56,-15.00,44.21
813,33112341,0.8203,-0.4536,0.1865,-5.37,-16.10,44.94
814,33116986,0.8086,-0.4536,0.1724,-3.17,-16.77,45.18
815,33121984,0.7998,-0.4604,0.1455,-0.85,-17.07,45.00
816,33126984,0.7935,-0.4795,0.1284,1.89,-17.32,44.57
817,33131984,0.7832,-0.4927,0.1055,4.33,-17.44,44.02
818,33136984,0.7905,-0.5142,0.0757,6.65,-17.38,43.48
819,33141984,0.7886,-0.5259,0.0537,8.78,-17.13,42.74
820,33146983,0.7812,-0.5527,0.0347,10.49,-16.95,42.01
821,33151984,0.7783,-0.5679,0.0142,11.83,-16.59,41.04
822,33156984,0.7876,-0.5830,-0.0029,12.87,-16.16,40.18
823,33161984,0.8052,-0.5972,-0.0186,13.66,-15.73,39.33
824,33166984,0.8247,-0.6040,-0.0396,14.39,-15.43,38.29
825,33171984,0.8408,-0.6064,-0.0605,15.00,-15.37,37.26
826,33176984,0.8613,-0.6118,-0.0796,15.61,-15.24,36.52
827,33181984,0.8906,-0.6270,-0.1011,16.16,-15.43,35.73
828,33186984,0.9170,-0.6338,-0.1187,16.52,-15.61,34.88
829,33191984,0.9326,-0.6436,-0.1348,16.28,-15.73,34.15
830,33196987,0.9468,-0.6504,-0.1392,15.79,-16.16,33.29
831,33201985,0.9570,-0.6514,-0.1602,15.06,-16.34,32.20
832,33206984,0.9634,-0.6484,-0.1719,13.90,-16.65,31.22
833,33211984,0.9634,-0.6528,-0.1895,12.26,-17.01,29.82
834,33216984,0.9658,-0.6465,-0.2031,10.37,-17.20,28.35
835,33221985,0.9629,-0.6396,-0.2222,7.93,-17.62,26.71
836,33226984,0.9585,-0.6333,-0.2275,4.94,-17.87,24.88
837,33231984,0.9517,-0.6333,-0.2324,1.40,-18.29,22.74
838,33236983,0.9512,-0.6260,-0.2397,-2.56,-18.48,20.55
839,33241984,0.9551,-0.6191,-0.2466,-7.50,-18.78,18.17
840,33246982,0.9624,-0.6157,-0.2354,-12.56,-18.96,15.73
841,33252130,0.9658,-0.6099,-0.2441,-18.66,-19.02,13.29
842,33256983,0.9707,-0.6045,-0.2422,-25.18,-19.15,10.98
843,33261984,0.9766,-0.6045,-0.2446,-32.07,-19.27,8.66
844,33266984,0.9858,-0.5981,-0.2432,-39.27,-19.21,6.52
845,33271984,1.0005,-0.6001,-0.2393,-46.40,-19.63,4.63
846,33276984,1.0112,-0.5981,-0.2246,-53.60,-19.76,2.80
847,33281984,1.0332,-0.5938,-0.2227,-60.30,-19.82,1.40
848,33286982,1.0454,-0.5918,-0.2217,-66.83,-20.06,0.18
849,33291982,1.0547,-0.5952,-0.2075,-72.56,-20.37,-0.79
850,33296984,1.0610,-0.5942,-0.2012,-77.87,-20.61,-1.52
851,33301982,1.0688,-0.5938,-0.1919,-82.50,-20.67,-2.13
852,33306982,1.0708,-0.5923,-0.1797,-86.34,-20.98,-2.32
853,33311982,1.0679,-0.5898,-0.1631,-89.63,-21.16,-2.13
854,33316986,1.0688,-0.5859,-0.1597,-91.95,-21.52,-1.95
855,33321984,1.0713,-0.5796,-0.1611,-93.48,-21.89,-1.40
856,33326984,1.0625,-0.5747,-0.1416,-94.21,-22.26,-0.73
857,33331984,1.0601,-0.5640,-0.1362,-94.27,-22.80,0.18
858,33336984,1.0693,-0.5581,-0.1411,-93.48,-23.72,1.16
859,33341984,1.0791,-0.5454,-0.1523,-91.77,-24.82,2.26
860,33347357,1.0835,-0.5361,-0.1748,-89.33,-26.22,3.23
861,33351984,1.0796,-0.5278,-0.1943,-86.04,-27.93,4.02
862,33356983,1.0728,-0.5137,-0.2188,-82.26,-29.82,4.39
863,33361984,1.0552,-0.5059,-0.2344,-78.11,-31.89,4.76
864,33366984,1.0366,-0.5054,-0.2520,-74.09,-34.02,4.82
865,33371984,1.0039,-0.5073,-0.2642,-70.55,-36.04,4.70
866,33376984,0.9688,-0.5176,-0.2817,-67.68,-37.87,4.39
867,33381984,0.9287,-0.5308,-0.3027,-65.79,-39.51,3.96
868,33386984,0.8828,-0.5376,-0.3198,-64.88,-40.79,3.60
869,33391984,0.8350,-0.5474,-0.3340,-65.06,-41.95,2.93
870,33396984,0.7896,-0.5571,-0.3477,-65.85,-42.74,2.07
871,33401983,0.7422,-0.5635,-0.3677,-67.50,-43.35,1.16
872,33406986,0.6860,-0.5659,-0.3789,-69.33,-43.78,-0.06
873,33411983,0.6353,-0.5659,-0.3892,-71.83,-43.96,-1.34
874,33416984,0.5835,-0.5693,-0.4058,-74.63,-43.84,-2.80
875,33421984,0.5303,-0.5635,-0.4185,-77.74,-43.41,-4.57
876,33426983,0.4561,-0.5811,-0.4424,-80.79,-42.68,-6.52
877,33431984,0.3936,-0.5825,-0.4434,-84.27,-42.07,-8.48
878,33436984,0.3438,-0.5845,-0.4590,-87.93,-41.10,-10.67
879,33441984,0.3037,-0.5898,-0.4668,-91.77,-39.76,-12.93
880,33446984,0.2778,-0.5923,-0.4727,-95.55,-38.29,-15.12
881,33451984,0.2607,-0.5913,-0.4839,-99.33,-36.65,-17.38
882,33457465,0.2456,-0.5918,-0.4844,-102.99,-34.94,-19.45
883,33461985,0.2495,-0.5923,-0.4849,-106.59,-33.29,-21.65
884,33466984,0.2515,-0.5962,-0.4829,-109.94,-31.46,-23.60
885,33471984,0.2529,-0.6016,-0.4868,-113.11,-29.76,-25.37
886,33476984,0.2578,-0.6108,-0.4810,-116.28,-28.17,-26.89
887,33481986,0.2588,-0.6113,-0.4790,-119.51,-26.40,-28.17
888,33486984,0.2588,-0.6069,-0.4756,-122.87,-24.51,-29.33
889,33491984,0.2637,-0.5654,-0.4663,-126.28,-22.26,-30.91
890,33496986,0.2686,-0.5518,-0.4893,-129.45,-20.18,-32.87
891,33501984,0.2520,-0.5547,-0.4878,-132.62,-18.11,-34.88
892,33506984,0.2437,-0.5693,-0.4761,-135.49,-16.28,-36.40
893,33511984,0.3047,-0.5908,-0.4556,-138.48,-14.70,-37.20
894,33516984,0.4233,-0.6104,-0.4370,-141.83,-13.23,-37.07
895,33521984,0.5645,-0.6216,-0.4053,-145.00,-11.71,-36.04
896,33526984,0.6899,-0.6299,-0.3887,-147.93,-10.67,-34.21
897,33531984,0.8027,-0.6392,-0.3657,-150.37,-9.94,-31.46
898,33536984,0.8862,-0.6396,-0.3467,-152.13,-9.27,-27.99
899,33541984,0.9536,-0.6353,-0.3335,-153.11,-8.78,-24.02
900,33546984,1.0088,-0.6172,-0.3237,-153.23,-8.60,-19.82
901,33551984,1.0532,-0.5977,-0.3071,-152.01,-8.41,-15.18
902,33556983,1.0938,-0.5737,-0.3081,-149.94,-8.60,-10.61
903,33561984,1.1260,-0.5444,-0.2993,-146.71,-9.15,-5.85
904,33566984,1.1562,-0.5186,-0.2876,-142.74,-10.06,-1.22
905,33572345,1.1724,-0.4932,-0.2793,-138.29,-10.73,3.48
906,33576984,1.1914,-0.4634,-0.2563,-133.54,-11.71,7.93
907,33581984,1.1963,-0.4336,-0.2363,-128.41,-12.50,12.13
908,33586983,1.1963,-0.4077,-0.2217,-123.29,-12.99,16.28
909,33591984,1.1938,-0.3862,-0.2134,-118.35,-13.60,20.37
910,33596983,1.1807,-0.3662,-0.1934,-113.54,-14.02,24.09
911,33601984,1.1670,-0.3564,-0.1777,-109.27,-14.09,27.87
912,33606983,1.1543,-0.3452,-0.1758,-105.55,-14.09,31.28
913,33611982,1.1631,-0.3281,-0.1685,-102.26,-14.02,34.63
914,33616982,1.1772,-0.3179,-0.1592,-99.82,-13.78,38.05
915,33621984,1.1665,-0.3149,-0.1538,-98.11,-13.48,41.22
916,33626984,1.1538,-0.3198,-0.1445,-97.32,-12.93,44.27
917,33631984,1.1514,-0.3149,-0.1392,-97.50,-12.20,47.38
918,33636984,1.1597,-0.3115,-0.1357,-98.17,-11.59,50.67
919,33641984,1.1572,-0.3071,-0.1318,-99.33,-10.91,53.48
920,33646984,1.1504,-0.3018,-0.1309,-100.55,-10.18,56.59
921,33651984,1.1411,-0.2944,-0.1245,-101.59,-9.39,59.45
922,33656984,1.1313,-0.2856,-0.1152,-102.32,-8.60,62.26
923,33662266,1.1226,-0.2739,-0.1162,-102.38,-7.62,64.70
924,33666986,1.1196,-0.2632,-0.1094,-101.89,-6.71,67.26
925,33671984,1.1069,-0.2500,-0.1069,-100.73,-5.79,69.70
926,33676984,1.0923,-0.2373,-0.1006,-98.90,-4.76,71.83
927,33681983,1.0752,-0.2290,-0.0923,-96.59,-3.48,74.09
928,33687078,1.0601,-0.2202,-0.0879,-93.60,-2.26,76.04
929,33691983,1.0474,-0.2148,-0.0771,-90.00,-0.73,77.80
930,33696984,1.0298,-0.2075,-0.0752,-85.73,0.73,79.51
931,33701984,1.0171,-0.2056,-0.0723,-80.73,2.62,80.98
932,33706984,1.0044,-0.1978,-0.0752,-74.94,4.39,82.38
933,33711984,0.9917,-0.2007,-0.0864,-68.90,6.46,83.48
934,33716984,0.9722,-0.2026,-0.0889,-62.38,8.35,84.82
935,33721984,0.9507,-0.2100,-0.0869,-55.73,10.61,85.12
936,33726984,0.9263,-0.2168,-0.0913,-49.21,13.11,86.71
937,33731984,0.9087,-0.2197,-0.0942,-42.80,16.10,87.07
938,33737358,0.8867,-0.2246,-0.0972,-36.83,18.96,87.13
939,33741984,0.8672,-0.2314,-0.0977,-30.79,22.32,86.95
940,33746984,0.8481,-0.2437,-0.0933,-25.06,25.85,86.83
941,33751984,0.8286,-0.2505,-0.0996,-19.39,29.51,86.65
942,33756984,0.8042,-0.2554,-0.1094,-13.54,33.23,84.88
943,33761983,0.7812,-0.2534,-0.1064,-7.74,37.01,84.39
944,33766984,0.7607,-0.2563,-0.1157,-1.65,40.79,83.72
945,33771982,0.7397,-0.2642,-0.1152,4.45,44.63,82.87
946,33776984,0.7202,-0.2739,-0.1201,10.73,48.35,81.95
947,33781984,0.7080,-0.2842,-0.1240,17.38,51.95,80.98
948,33786984,0.6919,-0.2939,-0.1260,24.21,55.49,80.00
949,33791988,0.6758,-0.2998,-0.1299,30.98,58.84,79.21
950,33796984,0.6587,-0.2998,-0.1343,37.80,62.01,78.17
951,33802262,0.6372,-0.2944,-0.1187,44.82,65.24,76.95
952,33806984,0.6226,-0.2949,-0.1240,51.65,68.54,75.37
953,33811984,0.6113,-0.2930,-0.1230,58.29,71.71,73.60
954,33816984,0.6079,-0.2896,-0.1230,64.70,74.82,71.59
955,33821984,0.6089,-0.2759,-0.1270,70.79,77.68,69.09
956,33826984,0.6187,-0.2783,-0.1279,76.22,80.49,66.10
957,33831984,0.6348,-0.2861,-0.1313,81.04,82.87,62.99
958,33836985,0.6611,-0.2998,-0.1489,85.18,85.67,59.76
959,33841984,0.6997,-0.3179,-0.1587,88.29,85.85,56.46
960,33846984,0.7466,-0.3462,-0.1802,90.43,86.10,53.54
961,33851984,0.7988,-0.3818,-0.1914,91.59,87.87,50.98
962,33856984,0.8608,-0.4243,-0.1982,91.10,88.05,48.72
963,33861984,0.9229,-0.4634,-0.2007,89.02,85.73,47.32
964,33867114,0.9766,-0.4990,-0.1943,85.55,85.43,46.65
965,33872085,1.0190,-0.5215,-0.1787,80.49,85.24,46.34
966,33876984,1.0518,-0.5410,-0.1777,74.33,84.33,46.40
967,33881984,1.0791,-0.5513,-0.1729,67.07,81.89,46.71
968,33886982,1.0894,-0.5547,-0.1675,59.39,80.24,47.01
969,33891984,1.0903,-0.5679,-0.1704,51.04,78.17,47.68
970,33896982,1.0986,-0.5796,-0.1777,42.38,75.98,48.35
971,33901982,1.0981,-0.5996,-0.1787,33.29,73.78,49.21
972,33906982,1.0732,-0.6118,-0.1836,23.96,71.46,50.37
973,33911984,1.0474,-0.6323,-0.1875,14.15,68.96,51.59
974,33916984,1.0176,-0.6362,-0.1919,3.96,66.71,52.87
975,33921984,0.9912,-0.6479,-0.1973,-6.52,64.63,54.33
976,33926984,0.9673,-0.6562,-0.2100,-17.13,62.62,55.73
977,33931984,0.9336,-0.6611,-0.2061,-27.80,60.67,56.89
978,33936986,0.8994,-0.6689,-0.2153,-38.17,59.09,58.29
979,33941984,0.8789,-0.6758,-0.2148,-48.23,57.68,59.51
980,33946984,0.8467,-0.6650,-0.2393,-57.74,56.34,60.61
981,33951984,0.8125,-0.6655,-0.2422,-66.46,55.06,61.52
982,33956984,0.7871,-0.6572,-0.2515,-73.96,53.96,62.62
983,33961984,0.7666,-0.6479,-0.2627,-80.49,52.99,63.48
984,33966983,0.7490,-0.6357,-0.2793,-85.61,51.95,64.15
985,33972136,0.7393,-0.6875,-0.3364,-89.45,50.67,64.76
986,33976986,0.7339,-0.6694,-0.3398,-92.01,49.82,65.06
987,33981983,0.7300,-0.6387,-0.3555,-93.29,48.48,65.00
988,33986984,0.7202,-0.6206,-0.3940,-93.11,47.07,64.76
989,33991982,0.7295,-0.6143,-0.4126,-92.07,45.24,64.51
990,33996984,0.7446,-0.6108,-0.4165,-89.94,43.35,63.96
991,34001984,0.7554,-0.6162,-0.4355,-86.89,41.34,63.29
992,34006984,0.7627,-0.6182,-0.4600,-83.11,38.78,62.32
993,34011986,0.7637,-0.6118,-0.4731,-79.27,36.16,61.16
994,34016984,0.7578,-0.6079,-0.4717,-75.43,33.60,59.70
995,34021984,0.7520,-0.6187,-0.4785,-72.20,31.04,58.23
996,34026984,0.7314,-0.6255,-0.4819,-70.00,28.96,56.46
997,34031984,0.7017,-0.6328,-0.4751,-69.09,27.20,54.70
998,34036985,0.6753,-0.6509,-0.4692,-69.70,25.91,52.68
999,34041984,0.6343,-0.6582,-0.4702,-71.77,24.63,50.55
1000,34046984,0.5986,-0.6538,-0.4556,-75.24,23.96,48.54
1001,34051984,0.5737,-0.6567,-0.4458,-79.94,23.41,46.28
1002,34056986,0.5371,-0.6533,-0.4321,-85.37,23.11,43.84
1003,34061984,0.5063,-0.6479,-0.4175,-91.46,23.23,41.46
1004,34066984,0.4727,-0.6406,-0.3984,-98.05,23.54,38.84
1005,34071984,0.4478,-0.6377,-0.3970,-104.76,23.72,36.46
1006,34076983,0.4287,-0.6421,-0.3955,-111.52,24.27,33.96
1007,34081984,0.4165,-0.6509,-0.4004,-118.29,24.88,31.59
1008,34086984,0.4131,-0.6611,-0.4038,-124.76,25.49,29.39
1009,34091984,0.4058,-0.6743,-0.4048,-130.79,26.22,27.07
1010,34096984,0.3936,-0.6895,-0.4194,-136.89,27.07,25.00
1011,34101984,0.3838,-0.7007,-0.4453,-142.74,28.23,22.68
1012,34106983,0.3755,-0.7095,-0.4795,-147.32,29.09,20.79
1013,34112286,0.3765,-0.7017,-0.5308,-154.45,30.73,17.80
1014,34116986,0.3892,-0.7026,-0.5576,-160.49,32.32,15.18
1015,34121983,0.3911,-0.7017,-0.5684,-165.37,33.78,13.05
1016,34126984,0.3926,-0.6978,-0.5620,-172.56,36.28,10.24
1017,34131984,0.3945,-0.7021,-0.5630,-177.13,38.11,8.41
1018,34136984,0.3916,-0.7070,-0.5498,-183.54,41.04,5.79
1019,34142425,0.4033,-0.7090,-0.5518,-188.29,43.41,3.96
1020,34146984,0.3965,-0.7109,-0.5615,-191.65,45.37,2.56
1021,34151984,0.3975,-0.6953,-0.5913,-195.61,47.68,0.79
1022,34156984,0.4116,-0.6738,-0.6104,-199.02,50.43,-1.16
1023,34161984,0.4414,-0.6685,-0.6362,-202.20,53.17,-2.99
1024,34166984,0.4756,-0.6860,-0.6528,-205.06,55.85,-4.82
1025,34171983,0.5093,-0.7109,-0.6436,-207.87,58.60,-5.98
1026,34176984,0.5430,-0.7441,-0.6270,-210.43,61.22,-6.40
1027,34181984,0.5962,-0.7788,-0.5894,-212.93,63.48,-5.79
1028,34186984,0.6392,-0.8232,-0.5674,-215.24,65.43,-3.96
1029,34191984,0.6860,-0.8511,-0.5518,-217.68,66.65,-1.04
1030,34196985,0.7290,-0.8833,-0.5283,-220.06,67.50,3.05
1031,34201983,0.7681,-0.9053,-0.5068,-222.50,67.74,7.93
1032,34206983,0.8101,-0.9106,-0.5083,-225.37,67.87,13.66
1033,34211982,0.8389,-0.9077,-0.5220,-228.60,67.80,19.88
1034,34216984,0.8569,-0.8887,-0.5610,-232.13,67.56,26.16
1035,34221984,0.8525,-0.8516,-0.6011,-236.40,67.50,32.44
1036,34226986,0.8301,-0.8091,-0.6577,-240.79,67.62,38.48
1037,34231983,0.7881,-0.7505,-0.7163,-246.46,67.38,45.37
1038,34236984,0.7603,-0.7202,-0.7461,-250.24,67.26,49.57
1039,34242364,0.7129,-0.6665,-0.7930,-255.85,67.44,55.85
1040,34246984,0.6802,-0.6338,-0.8267,-259.51,67.56,59.70
1041,34251984,0.6426,-0.5884,-0.8433,-263.90,67.62,64.51
1042,34256984,0.6089,-0.5522,-0.8555,-267.74,67.74,69.27
1043,34261984,0.5825,-0.5229,-0.8564,-271.04,68.17,74.02
1044,34266984,0.5620,-0.4995,-0.8530,-273.66,68.60,78.66
1045,34271984,0.5532,-0.4785,-0.8418,-275.18,69.02,83.29
1046,34276983,0.5430,-0.4541,-0.8218,-275.55,69.63,87.26
1047,34281984,0.5361,-0.4385,-0.8145,-274.76,70.30,91.77
1048,34286983,0.5210,-0.4185,-0.8013,-272.56,70.98,95.98
1049,34291984,0.5176,-0.4116,-0.7734,-268.96,71.77,99.88
1050,34296984,0.5264,-0.4014,-0.7334,-264.15,72.68,103.60
1051,34301984,0.5181,-0.4067,-0.7339,-257.80,73.54,107.01
1052,34306984,0.5039,-0.4160,-0.7109,-250.61,74.21,110.49
1053,34311984,0.5352,-0.4194,-0.6665,-242.44,74.94,113.60
1054,34316984,0.5225,-0.4287,-0.6411,-233.41,76.04,116.52
1055,34321984,0.5054,-0.4478,-0.6284,-223.72,76.89,119.15
1056,34326984,0.5010,-0.4531,-0.6094,-213.05,77.80,121.52
1057,34331986,0.5059,-0.4629,-0.5737,-201.89,78.54,123.72
1058,34336984,0.4956,-0.4712,-0.5688,-190.00,79.45,125.73
1059,34341984,0.4824,-0.4722,-0.5464,-177.68,79.88,127.32
1060,34346985,0.4761,-0.4717,-0.5103,-165.18,80.55,128.48
1061,34351984,0.4722,-0.4814,-0.4863,-152.74,81.10,129.57
1062,34356984,0.4863,-0.4854,-0.4614,-140.43,81.59,130.18
1063,34361984,0.5024,-0.4932,-0.4326,-128.35,82.56,130.67
1064,34366984,0.5166,-0.5063,-0.4141,-116.71,83.41,130.91
1065,34371984,0.5317,-0.5020,-0.3960,-105.67,84.33,130.79
1066,34376983,0.5337,-0.5088,-0.3682,-95.30,84.45,130.49
1067,34381984,0.5386,-0.5186,-0.3477,-85.91,85.37,130.00
1068,34386984,0.5459,-0.5273,-0.3237,-77.38,85.67,129.27
1069,34391984,0.5396,-0.5532,-0.2939,-70.00,86.10,128.41
1070,34396987,0.5503,-0.5645,-0.2871,-62.68,85.73,127.50
1071,34401984,0.5659,-0.5615,-0.2729,-58.60,85.73,126.77
1072,34406984,0.5771,-0.5596,-0.2671,-54.45,85.67,125.67
1073,34411984,0.5923,-0.5601,-0.2476,-51.16,85.73,124.33
1074,34416984,0.5986,-0.5635,-0.2363,-48.72,85.73,122.93
1075,34421984,0.5913,-0.5767,-0.2373,-46.89,86.04,121.46
1076,34426984,0.5498,-0.5952,-0.2461,-46.16,87.38,120.18
1077,34431986,0.5259,-0.5469,-0.2285,-46.89,88.05,119.57
1078,34436984,0.5381,-0.5283,-0.2505,-48.48,87.74,118.41
1079,34441986,0.5454,-0.5366,-0.2573,-50.61,86.28,116.77
1080,34446985,0.5493,-0.5327,-0.2334,-53.17,87.38,114.82
1081,34451984,0.5503,-0.5317,-0.2310,-56.40,86.04,112.87
1082,34456984,0.5405,-0.5161,-0.2480,-60.00,85.61,111.04
1083,34461984,0.5381,-0.5015,-0.2515,-63.90,85.18,108.96
1084,34466984,0.5420,-0.4810,-0.2471,-68.23,85.43,107.07
1085,34472285,0.5493,-0.4561,-0.2510,-73.41,85.49,104.45
1086,34476984,0.5605,-0.4424,-0.2700,-76.77,85.55,102.62
1087,34481984,0.5713,-0.4243,-0.2793,-80.98,85.43,100.18
1088,34486983,0.5757,-0.4253,-0.2793,-85.00,85.49,97.68
1089,34491982,0.5840,-0.4297,-0.2910,-88.84,85.37,95.24
1090,34496982,0.5820,-0.4492,-0.2930,-92.20,84.15,92.74
1091,34501982,0.5972,-0.4712,-0.2832,-95.55,84.15,90.49
1092,34506982,0.6187,-0.4956,-0.2856,-98.48,83.35,87.80
1093,34511984,0.6401,-0.5415,-0.3018,-100.91,82.07,86.10
1094,34516984,0.6519,-0.5820,-0.3086,-102.44,80.91,86.52
1095,34521984,0.6523,-0.6445,-0.3008,-103.17,79.70,85.98
1096,34526984,0.6719,-0.6958,-0.2974,-102.50,78.23,85.00
1097,34531984,0.6792,-0.7505,-0.2847,-100.98,76.83,83.90
1098,34536984,0.6938,-0.8027,-0.2666,-97.93,75.43,83.54
1099,34541986,0.6987,-0.8359,-0.2632,-94.27,74.39,82.80
1100,34546984,0.7153,-0.8467,-0.2642,-89.57,73.35,82.01
1101,34551984,0.7183,-0.8271,-0.2720,-84.09,72.38,80.91
1102,34556984,0.7300,-0.8545,-0.2544,-78.60,71.52,79.57
1103,34561984,0.7144,-0.8550,-0.2603,-72.99,70.49,78.35
1104,34566984,0.7192,-0.8774,-0.2461,-67.87,69.45,77.20
1105,34571984,0.7061,-0.8975,-0.2476,-63.11,68.17,75.98
1106,34576984,0.7095,-0.8931,-0.2490,-59.21,66.71,74.76
1107,34581983,0.7251,-0.8647,-0.2354,-55.79,65.12,73.41
1108,34586984,0.7339,-0.8276,-0.2227,-53.11,63.35,71.83
1109,34591984,0.7456,-0.7969,-0.2109,-51.40,61.34,70.24
1110,34596983,0.7642,-0.7832,-0.2056,-50.30,59.09,68.66
1111,34601984,0.7847,-0.7891,-0.1958,-49.88,56.59,67.07
1112,34606984,0.7871,-0.7993,-0.2017,-50.06,54.09,65.85
1113,34611984,0.7979,-0.7983,-0.2104,-50.79,51.34,64.70
1114,34616984,0.8179,-0.7759,-0.2241,-51.77,48.35,63.48
1115,34621984,0.8345,-0.7529,-0.2446,-53.29,45.12,62.38
1116,34626984,0.8496,-0.7383,-0.2524,-55.49,41.89,61.22
1117,34631984,0.8696,-0.7271,-0.2593,-58.41,38.66,60.12
1118,34636984,0.8574,-0.7197,-0.2646,-61.95,35.24,58.96
1119,34641984,0.8130,-0.7178,-0.2705,-66.46,32.07,57.80
1120,34646984,0.7729,-0.7061,-0.2915,-71.89,29.27,56.71
1121,34651983,0.7510,-0.6851,-0.3145,-78.11,26.34,55.67
1122,34656984,0.7407,-0.6670,-0.3340,-84.76,23.54,54.63
1123,34661984,0.7334,-0.6362,-0.3477,-91.95,20.98,53.41
1124,34666984,0.7266,-0.6104,-0.3618,-99.27,18.90,52.13
1125,34671984,0.7021,-0.5889,-0.3774,-106.77,17.20,50.61
1126,34676984,0.6802,-0.5640,-0.3867,-114.21,15.79,49.15
1127,34681984,0.6582,-0.5439,-0.4004,-121.46,14.76,47.26
1128,34686984,0.6421,-0.5322,-0.4058,-128.66,14.27,45.24
1129,34692172,0.6323,-0.5229,-0.4116,-135.73,14.33,43.41
1130,34696984,0.6226,-0.5132,-0.4233,-142.56,14.63,41.40
1131,34701984,0.6235,-0.5166,-0.4272,-148.96,15.18,39.45
1132,34706984,0.6177,-0.5117,-0.4458,-154.88,16.16,37.80
1133,34711986,0.6206,-0.5142,-0.4526,-160.06,17.26,36.04
1134,34716984,0.6216,-0.5107,-0.4585,-164.33,18.72,34.63
1135,34721984,0.6216,-0.5161,-0.4595,-167.68,20.30,33.11
1136,34726984,0.6250,-0.5273,-0.4663,-169.94,21.89,31.89
1137,34731984,0.6284,-0.5361,-0.4722,-171.46,23.78,30.73
1138,34736986,0.6284,-0.5459,-0.4800,-171.89,25.85,29.70
1139,34741983,0.6333,-0.5449,-0.4844,-171.40,27.99,28.78
1140,34746984,0.6294,-0.5405,-0.4849,-169.94,30.24,27.74
1141,34751984,0.6279,-0.5317,-0.5000,-167.74,32.87,26.71
1142,34756985,0.6260,-0.5249,-0.5049,-164.70,35.37,25.67
1143,34761984,0.6284,-0.5278,-0.5117,-160.85,38.17,24.57
1144,34766984,0.6284,-0.5210,-0.5137,-156.40,41.10,23.66
1145,34771984,0.6318,-0.5234,-0.5205,-151.22,43.66,22.68
1146,34776984,0.6406,-0.5234,-0.5195,-145.55,46.40,22.01
1147,34781984,0.6509,-0.5244,-0.5225,-139.57,49.02,21.28
1148,34786983,0.6562,-0.5254,-0.5151,-133.35,51.52,20.73
1149,34791982,0.6650,-0.5273,-0.5083,-126.95,53.78,20.43
1150,34796984,0.6743,-0.5376,-0.5034,-120.67,55.91,20.18
1151,34801983,0.6831,-0.5503,-0.4961,-114.70,57.74,20.00
1152,34806985,0.6938,-0.5562,-0.4912,-109.09,59.45,20.18
1153,34811982,0.7085,-0.5596,-0.4912,-104.02,60.67,20.43
1154,34816986,0.7236,-0.5664,-0.4888,-99.45,61.71,20.98
1155,34821984,0.7383,-0.5659,-0.4868,-95.91,62.32,21.65
1156,34826984,0.7490,-0.5674,-0.4849,-93.05,62.56,22.38
1157,34832467,0.7651,-0.5664,-0.4800,-91.16,62.68,23.78
1158,34836984,0.7734,-0.5630,-0.4756,-90.37,62.74,24.70
1159,34841984,0.7803,-0.5620,-0.4683,-90.06,62.68,25.91
1160,34846983,0.7876,-0.5640,-0.4570,-90.55,62.38,27.01
1161,34851984,0.7832,-0.5635,-0.4497,-91.10,62.26,28.23
1162,34856984,0.7759,-0.5605,-0.4536,-92.13,61.95,29.39
1163,34861984,0.7661,-0.5586,-0.4409,-92.99,61.46,30.67
1164,34866984,0.7583,-0.5620,-0.4424,-93.72,61.28,31.83
1165,34871986,0.7583,-0.5684,-0.4292,-94.27,60.98,33.17
1166,34876984,0.7563,-0.5708,-0.4307,-94.39,60.67,34.39
1167,34881984,0.7441,-0.5635,-0.4360,-94.21,60.24,35.43
1168,34887020,0.7305,-0.5596,-0.4395,-93.78,59.76,36.34
1169,34891986,0.7188,-0.5522,-0.4321,-93.23,59.21,36.95
1170,34896982,0.7100,-0.5381,-0.4326,-92.62,58.84,37.62
1171,34901984,0.7021,-0.5220,-0.4302,-91.77,58.60,37.99
1172,34906984,0.6909,-0.5049,-0.4326,-91.22,58.41,38.35
1173,34911984,0.6895,-0.4927,-0.4302,-90.67,58.48,38.35
1174,34916984,0.6919,-0.4800,-0.4272,-90.43,58.35,38.29
1175,34921984,0.6885,-0.4736,-0.4224,-90.37,58.72,38.17
1176,34926984,0.6851,-0.4692,-0.4087,-90.12,58.84,37.93
1177,34931984,0.6787,-0.4561,-0.4043,-89.82,59.02,37.56
1178,34936984,0.6753,-0.4473,-0.4116,-89.33,59.76,36.89
1179,34941984,0.6709,-0.4351,-0.4209,-88.78,60.06,36.34
1180,34946984,0.6797,-0.4185,-0.4297,-88.11,60.37,35.49
1181,34951984,0.6895,-0.4053,-0.4487,-87.38,60.67,34.76
1182,34956984,0.7095,-0.3823,-0.4634,-86.65,61.16,33.72
1183,34961985,0.7231,-0.3701,-0.4731,-85.98,61.52,32.62
1184,34967044,0.7363,-0.3589,-0.4844,-85.37,61.95,31.46
1185,34971984,0.7476,-0.3486,-0.5083,-84.82,62.50,30.43
1186,34976984,0.7617,-0.3301,-0.5317,-84.63,63.05,29.39
1187,34981984,0.7793,-0.3130,-0.5586,-84.39,63.48,28.48
1188,34986986,0.7969,-0.2886,-0.5806,-84.39,64.09,27.32
1189,34991983,0.8066,-0.2700,-0.6094,-84.63,64.63,26.22
1190,34996984,0.8213,-0.2529,-0.6367,-85.37,65.37,25.30
1191,35001982,0.8354,-0.2368,-0.6802,-86.22,65.73,24.39
1192,35006984,0.8491,-0.2119,-0.7148,-87.44,66.04,23.48
1193,35011984,0.8643,-0.1846,-0.7456,-89.51,66.77,22.26
1194,35016984,0.8643,-0.1626,-0.7661,-91.04,67.13,21.22
1195,35021984,0.8662,-0.1431,-0.7979,-93.48,67.93,20.12
1196,35026984,0.8735,-0.1235,-0.8252,-96.10,68.84,19.02
1197,35031984,0.8862,-0.1094,-0.8521,-98.84,69.76,17.93
1198,35036983,0.8916,-0.1006,-0.8955,-101.77,70.79,17.07
1199,35041984,0.8999,-0.0894,-0.9429,-104.45,71.65,16.10
1200,35047339,0.9048,-0.0835,-0.9946,-106.89,72.62,15.49
1201,35051984,0.9097,-0.0806,-1.0386,-109.09,73.66,14.94
1202,35056983,0.9219,-0.0845,-1.0752,-111.22,74.57,14.57
1203,35061985,0.9370,-0.0898,-1.1104,-113.48,76.16,14.09
1204,35066984,0.9443,-0.1045,-1.1421,-116.22,77.93,13.84
1205,35071984,0.9575,-0.1255,-1.1553,-119.27,80.06,13.48
1206,35076984,0.9629,-0.1450,-1.1909,-122.68,82.32,13.35
1207,35081984,0.9648,-0.1621,-1.2056,-126.83,85.67,13.23
1208,35086983,0.9717,-0.1816,-1.2163,-131.46,86.40,12.93
1209,35091984,0.9688,-0.1875,-1.2456,-136.40,90.00,12.87
1210,35096982,0.9590,-0.1929,-1.2690,-141.71,93.23,12.74
1211,35101982,0.9448,-0.1919,-1.2896,-147.20,96.77,12.68
1212,35106982,0.9204,-0.1968,-1.3101,-152.74,100.61,12.38
1213,35111984,0.8857,-0.2007,-1.3267,-158.23,104.76,12.32
1214,35116985,0.8545,-0.2041,-1.3311,-163.66,109.09,12.13
1215,35121984,0.8213,-0.2070,-1.3350,-168.60,113.78,12.01
1216,35126984,0.7881,-0.2036,-1.3350,-173.41,118.72,12.07
1217,35131984,0.7505,-0.2017,-1.3311,-178.05,123.96,12.13
1218,35136984,0.7202,-0.1875,-1.3232,-182.44,129.33,12.32
1219,35141984,0.6904,-0.1812,-1.3213,-187.07,135.00,12.87
1220,35146984,0.6538,-0.1685,-1.2900,-191.40,140.61,13.35
1221,35151984,0.6230,-0.1709,-1.2642,-195.73,146.28,14.33
1222,35156984,0.5850,-0.1655,-1.2319,-200.18,151.89,15.49
1223,35161984,0.5630,-0.1899,-1.1914,-204.27,157.74,17.07
1224,35166983,0.5449,-0.2192,-1.1401,-207.50,163.17,19.09
1225,35171984,0.5049,-0.2432,-1.0874,-209.88,168.78,21.40
1226,35176982,0.4707,-0.2554,-1.0483,-211.22,174.27,23.78
1227,35181984,0.4438,-0.2578,-1.0054,-211.95,179.27,26.34
1228,35186984,0.4150,-0.2520,-0.9639,-211.89,184.27,28.90
1229,35191984,0.3882,-0.2524,-0.9199,-211.46,189.02,31.40
1230,35196987,0.3594,-0.2515,-0.8735,-210.79,193.41,34.27
1231,35201985,0.3228,-0.2495,-0.8271,-209.94,197.87,37.20
1232,35206983,0.2915,-0.2495,-0.7896,-209.02,202.01,39.94
1233,35211984,0.2637,-0.2563,-0.7539,-208.17,205.98,43.05
1234,35216984,0.2334,-0.2554,-0.7271,-207.07,209.45,46.28
1235,35221984,0.2061,-0.2642,-0.6841,-205.98,212.87,49.70
1236,35226984,0.1758,-0.2715,-0.6377,-204.88,216.22,53.17
1237,35231984,0.1533,-0.2769,-0.5845,-203.54,219.21,56.77
1238,35236983,0.1152,-0.2876,-0.5293,-202.20,222.13,60.49
1239,35241984,0.0869,-0.2959,-0.4731,-200.61,225.12,64.27
1240,35246984,0.0537,-0.3115,-0.4253,-198.60,228.11,67.99
1241,35251984,0.0142,-0.3232,-0.3564,-196.04,231.22,71.89
1242,35256984,-0.0093,-0.3350,-0.2988,-192.68,234.33,75.49
1243,35261984,-0.0249,-0.3438,-0.2651,-188.72,237.38,79.27
1244,35266985,-0.0459,-0.3608,-0.2197,-184.51,240.37,83.23
1245,35271983,-0.0894,-0.3853,-0.1763,-179.94,243.23,87.26
1246,35276984,-0.1143,-0.3960,-0.1177,-175.55,246.04,91.22
1247,35281984,-0.1387,-0.3999,-0.0854,-170.79,248.54,95.30
1248,35286984,-0.1680,-0.4072,-0.0420,-166.04,250.98,99.45
1249,35291984,-0.1890,-0.4072,0.0059,-161.46,252.99,103.66
1250,35296984,-0.2139,-0.4067,0.0469,-157.13,254.82,107.93
1251,35301984,-0.2266,-0.4146,0.0938,-152.99,256.52,112.07
1252,35306982,-0.2544,-0.4111,0.1313,-149.15,257.62,116.40
1253,35311984,-0.2739,-0.4180,0.1753,-145.98,258.48,120.73
1254,35316984,-0.2920,-0.4258,0.2148,-143.05,258.72,125.24
1255,35321986,-0.3130,-0.4248,0.2524,-140.37,258.84,129.57
1256,35326984,-0.3203,-0.4194,0.3086,-138.23,258.23,133.84
1257,35331984,-0.3164,-0.4268,0.3633,-136.52,257.38,138.29
1258,35336984,-0.3276,-0.4321,0.3984,-135.18,256.04,142.68
1259,35341984,-0.3403,-0.4253,0.4385,-134.27,254.21,146.95
1260,35346986,-0.3423,-0.4424,0.4863,-133.84,251.95,151.16
1261,35351983,-0.3608,-0.4502,0.5356,-133.78,249.45,155.43
1262,35356984,-0.3647,-0.4595,0.5884,-134.15,246.34,159.45
1263,35361984,-0.3916,-0.4492,0.6338,-134.39,243.17,163.48
1264,35366984,-0.3862,-0.4600,0.6973,-134.57,239.82,167.26
1265,35371984,-0.4204,-0.4692,0.7676,-134.45,236.34,171.34
1266,35376984,-0.4438,-0.4766,0.8203,-133.72,232.93,175.12
1267,35381984,-0.4805,-0.4951,0.9082,-132.38,229.63,178.84
1268,35386984,-0.5078,-0.5142,1.0000,-130.91,226.40,182.56
1269,35391982,-0.5376,-0.5278,1.0659,-129.21,222.93,186.10
1270,35396984,-0.5645,-0.5483,1.1406,-127.50,218.84,189.63
1271,35401983,-0.5962,-0.5581,1.2285,-125.79,214.51,193.17
1272,35406984,-0.6274,-0.5728,1.3140,-124.15,209.70,196.89
1273,35411982,-0.6338,-0.5786,1.3745,-122.44,204.21,200.61
1274,35416982,-0.6577,-0.5918,1.4312,-120.91,197.26,204.39
1275,35422573,-0.7002,-0.6201,1.5098,-118.54,187.93,209.51
1276,35426984,-0.7046,-0.6206,1.5620,-116.59,180.98,212.87
1277,35431987,-0.7358,-0.6543,1.5933,-113.29,170.61,217.26
1278,35436984,-0.7437,-0.6377,1.6211,-108.35,159.51,222.07
1279,35441984,-0.7632,-0.6812,1.6899,-101.59,146.83,227.07
1280,35446984,-0.8008,-0.6787,1.7432,-92.44,133.41,232.62
1281,35451984,-0.8242,-0.7637,1.8003,-81.65,119.51,238.54
1282,35456984,-0.8735,-0.8599,1.8765,-69.15,105.43,244.88
1283,35461984,-0.9131,-0.9346,1.9482,-55.24,90.43,251.28
1284,35466986,-0.9219,-0.9570,2.0581,-40.91,77.50,257.68
1285,35471983,-0.9277,-0.9375,2.1406,-26.59,63.96,263.78
1286,35476984,-0.9565,-0.9082,2.2158,-13.29,50.43,269.21
1287,35481982,-1.0298,-0.8867,2.2754,-1.34,36.95,273.78
1288,35487079,-1.0635,-0.8965,2.3340,8.35,22.01,277.99
1289,35491983,-1.0991,-0.9189,2.4146,15.49,8.60,281.77
1290,35496984,-1.1587,-0.9443,2.4653,19.45,-6.46,285.18
1291,35501984,-1.1924,-0.9282,2.4897,19.94,-22.38,288.41
1292,35506982,-1.2524,-0.9419,2.5366,16.65,-39.02,291.89
1293,35511983,-1.3159,-1.0059,2.5835,10.85,-56.52,295.67
1294,35516984,-1.3589,-1.0713,2.5767,3.41,-75.00,299.63
1295,35521984,-1.4170,-1.1548,2.6050,-4.45,-94.45,303.78
1296,35526984,-1.4761,-1.2197,2.6396,-11.71,-114.21,308.11
1297,35531984,-1.5767,-1.2466,2.6519,-17.13,-135.06,312.56
1298,35536984,-1.6724,-1.2612,2.6626,-19.21,-155.85,316.95
1299,35541984,-1.7319,-1.3276,2.6807,-17.32,-177.07,321.40
1300,35546986,-1.7915,-1.4482,2.6938,-12.01,-198.54,325.79
1301,35552581,-1.9097,-1.4980,2.6729,-1.28,-224.51,331.34
1302,35557188,-1.9478,-1.6060,2.6802,8.05,-242.13,335.30
1303,35561983,-2.0142,-1.6406,2.6865,21.46,-263.96,339.88
1304,35566986,-2.1104,-1.6807,2.6719,36.10,-285.91,344.33
1305,35571982,-2.1968,-1.7583,2.6230,51.52,-307.32,348.84
1306,35576986,-2.2832,-1.7720,2.5972,67.01,-328.60,353.11
1307,35581983,-2.4111,-1.9043,2.6099,81.71,-349.27,357.13
1308,35586984,-2.5894,-2.0679,2.5610,96.46,-369.51,361.52
1309,35591984,-2.6982,-2.2212,2.4590,111.34,-389.33,365.79
1310,35596984,-2.8325,-2.3335,2.4673,125.73,-409.15,370.00
1311,35601984,-2.9565,-2.4297,2.4458,140.30,-428.66,374.09
1312,35606984,-3.0483,-2.4575,2.3555,154.57,-447.32,377.68
1313,35612373,-3.1670,-2.6001,2.3555,167.32,-465.18,381.52
1314,35616984,-3.3579,-2.7837,2.3159,179.39,-482.32,385.43
1315,35621986,-3.4619,-2.9497,2.2402,191.52,-498.72,389.82
1316,35626984,-3.4829,-3.1689,2.2188,202.74,-514.57,394.15
1317,35631984,-3.7676,-2.8730,2.0718,214.02,-529.76,395.37
1318,35636984,-3.8687,-4.1343,2.7036,224.09,-546.22,396.28
1319,35641984,-4.0137,-3.7544,1.9736,231.40,-558.05,398.05
1320,35646984,-3.9365,-3.5171,2.0620,237.62,-569.02,396.28
1321,35652086,-4.1704,-3.5737,2.2212,241.22,-580.91,394.45
1322,35656983,-4.3096,-3.4136,1.8604,244.88,-592.50,391.59
1323,35661986,-4.3394,-3.7217,2.0396,249.33,-601.83,389.15
1324,35666983,-4.2573,-3.8262,1.8999,250.49,-609.88,386.52
1325,35671984,-4.2422,-3.7720,1.6382,246.52,-615.43,382.44
1326,35676985,-4.2324,-3.6206,1.5923,236.52,-619.21,376.40
1327,35681984,-4.2368,-3.5112,1.4634,221.22,-622.38,367.44
1328,35687397,-4.1826,-3.5723,1.1567,203.90,-624.88,356.89
1329,35691984,-4.1377,-3.6689,0.8628,188.84,-626.46,345.73
1330,35696983,-4.0122,-3.7593,0.6670,177.80,-628.11,333.29
1331,35701982,-3.8740,-3.8496,0.4785,170.12,-628.54,319.51
1332,35707015,-3.7065,-3.8906,0.3110,165.24,-626.59,304.51
1333,35711982,-3.5464,-3.8848,0.1821,162.07,-622.32,287.99
1334,35717081,-3.4912,-3.7920,0.0435,158.78,-615.85,269.27
1335,35721986,-3.4185,-3.7334,-0.1006,151.89,-607.38,248.23
1336,35726984,-3.2729,-3.7261,-0.2241,140.43,-597.62,224.76
1337,35731984,-3.1099,-3.7271,-0.3369,125.43,-586.71,200.18
1338,35736984,-2.9302,-3.6934,-0.4253,105.98,-574.82,174.09
1339,35741984,-2.7847,-3.6309,-0.4917,84.02,-562.62,146.59
1340,35746984,-2.7153,-3.5342,-0.5547,60.18,-549.70,117.74
1341,35751983,-2.5552,-3.4800,-0.5645,34.76,-536.22,88.72
1342,35756984,-2.4219,-3.3799,-0.6108,8.84,-522.87,58.35
1343,35761984,-2.3555,-3.2690,-0.6470,-17.07,-509.76,28.48
1344,35766984,-2.3062,-3.1431,-0.6831,-41.59,-496.59,-1.22
1345,35771984,-2.2407,-3.0186,-0.7192,-63.05,-483.54,-30.49
1346,35776984,-2.1382,-2.9092,-0.7988,-78.54,-470.67,-58.84
1347,35781986,-2.0605,-2.8091,-0.9033,-85.98,-457.87,-85.73
1348,35786983,-1.9956,-2.6807,-0.9761,-84.76,-445.37,-110.61
1349,35791984,-1.9072,-2.5293,-0.9985,-76.10,-432.87,-133.84
1350,35796984,-1.7900,-2.3691,-0.9985,-62.50,-420.06,-155.18
1351,35801984,-1.6719,-2.2065,-0.9956,-46.10,-407.01,-174.57
1352,35806984,-1.5684,-2.0435,-0.9712,-28.78,-393.78,-191.89
1353,35812136,-1.4761,-1.8901,-0.9399,-11.95,-381.10,-207.20
1354,35817497,-1.4131,-1.7368,-0.9131,3.17,-368.96,-220.85
1355,35821984,-1.3525,-1.5869,-0.8921,16.16,-357.74,-232.68
1356,35826983,-1.2964,-1.4585,-0.8477,27.20,-346.89,-242.62
1357,35831984,-1.2236,-1.3516,-0.8071,36.22,-336.83,-251.22
1358,35836984,-1.1416,-1.2534,-0.7803,43.66,-327.38,-258.11
1359,35841984,-1.0386,-1.1694,-0.7617,49.88,-318.48,-263.48
1360,35846984,-0.9189,-1.0991,-0.7490,54.88,-310.18,-267.26
1361,35851984,-0.8145,-1.0410,-0.7349,59.33,-302.44,-269.57
1362,35856983,-0.7295,-0.9814,-0.7256,63.05,-295.06,-270.37
1363,35861984,-0.6680,-0.9272,-0.7129,66.28,-288.11,-269.51
1364,35866984,-0.5801,-0.8828,-0.6772,69.27,-281.40,-267.56
1365,35872380,-0.5083,-0.8569,-0.6504,72.20,-275.06,-264.45
1366,35876984,-0.4351,-0.8003,-0.6602,75.37,-269.09,-260.43
1367,35881984,-0.3486,-0.7344,-0.6475,79.02,-263.29,-255.55
1368,35886983,-0.2969,-0.6738,-0.6240,82.93,-257.99,-250.37
1369,35891984,-0.2681,-0.6226,-0.6152,87.07,-252.87,-244.88
1370,35896984,-0.2227,-0.5776,-0.6353,91.52,-248.60,-239.09
1371,35901984,-0.1743,-0.5337,-0.6489,96.04,-244.76,-233.05
1372,35906984,-0.1270,-0.4795,-0.6411,101.04,-241.40,-226.95
1373,35911983,-0.0898,-0.4312,-0.6533,105.61,-238.41,-220.73
1374,35916984,-0.0645,-0.3892,-0.6606,109.94,-235.79,-214.39
1375,35921984,-0.0400,-0.3428,-0.6729,113.29,-232.99,-208.11
1376,35926984,-0.0176,-0.3101,-0.6753,116.28,-230.67,-201.95
1377,35931984,0.0151,-0.2686,-0.7056,118.66,-228.35,-195.79
1378,35936984,0.0732,-0.2368,-0.7236,120.43,-226.46,-189.70
1379,35941984,0.0928,-0.2192,-0.6963,121.65,-224.33,-183.78
1380,35946984,0.0801,-0.1880,-0.7148,122.26,-222.13,-177.87
1381,35951984,0.1372,-0.1636,-0.7227,121.83,-220.30,-172.20
1382,35956984,0.1523,-0.1587,-0.6851,120.49,-218.05,-166.71
1383,35961984,0.1724,-0.1279,-0.6997,118.54,-215.79,-161.40
1384,35966984,0.1948,-0.0981,-0.7451,115.79,-213.78,-156.46
1385,35971984,0.1777,-0.0874,-0.7261,112.50,-211.77,-151.77
1386,35976984,0.1797,-0.0620,-0.7207,108.96,-209.45,-147.07
1387,35981984,0.2007,-0.0493,-0.7671,104.88,-207.38,-142.68
1388,35986983,0.2090,-0.0347,-0.7881,100.49,-205.37,-138.41
1389,35991984,0.2114,-0.0312,-0.7861,96.04,-202.93,-134.39
1390,35996982,0.2173,-0.0220,-0.8008,91.46,-200.43,-130.73
1391,36001982,0.2285,-0.0044,-0.8340,87.01,-198.11,-127.44
1392,36006982,0.2300,0.0044,-0.8276,82.13,-195.43,-124.33
1393,36011982,0.2290,0.0186,-0.8389,77.26,-192.56,-121.59
1394,36017070,0.2280,0.0337,-0.8555,71.83,-189.63,-119.27
1395,36021984,0.2256,0.0425,-0.8594,66.16,-186.65,-117.26
1396,36026983,0.2256,0.0503,-0.8599,59.88,-183.29,-115.67
1397,36031984,0.2251,0.0562,-0.8521,53.54,-179.94,-114.39
1398,36036984,0.2207,0.0542,-0.8564,46.95,-176.71,-113.17
1399,36042305,0.2080,0.0659,-0.8633,40.24,-173.29,-112.26
1400,36046984,0.2046,0.0771,-0.8574,33.66,-170.06,-111.59
1401,36051984,0.2144,0.0854,-0.8438,27.20,-166.52,-111.04
1402,36056983,0.2339,0.0918,-0.8477,21.10,-163.17,-110.55
1403,36061984,0.2402,0.0933,-0.8545,15.61,-159.57,-110.18
1404,36066984,0.2358,0.0952,-0.8462,10.61,-155.79,-109.82
1405,36071984,0.2373,0.1030,-0.8418,6.04,-152.13,-109.51
1406,36076984,0.2266,0.1074,-0.8408,1.83,-148.41,-109.21
1407,36081984,0.2271,0.1250,-0.8438,-1.83,-144.82,-108.90
1408,36086985,0.2646,0.1411,-0.8340,-5.49,-141.40,-108.66
1409,36091984,0.2520,0.1494,-0.8252,-9.15,-137.93,-108.54
1410,36096984,0.2334,0.1685,-0.8179,-12.68,-134.76,-108.41
1411,36101984,0.2178,0.1855,-0.7964,-16.22,-131.52,-108.48
1412,36106984,0.2148,0.2021,-0.7905,-19.51,-128.60,-108.23
1413,36111984,0.2197,0.2158,-0.7881,-22.56,-125.79,-108.11
1414,36116985,0.2334,0.2290,-0.7817,-25.55,-123.17,-107.93
1415,36121984,0.2368,0.2466,-0.7637,-28.11,-120.67,-107.56
1416,36126984,0.2266,0.2793,-0.7612,-30.30,-118.41,-107.32
1417,36131984,0.2227,0.2690,-0.7549,-32.01,-116.28,-106.89
1418,36136984,0.2285,0.2754,-0.7402,-33.60,-114.27,-106.28
1419,36141984,0.2373,0.2773,-0.7432,-34.94,-112.62,-105.30
1420,36146984,0.2363,0.3105,-0.7393,-35.98,-110.79,-104.33
1421,36151984,0.2354,0.3438,-0.7295,-37.13,-109.21,-103.48
1422,36156984,0.2192,0.3413,-0.7490,-38.48,-107.99,-102.44
1423,36161984,0.2100,0.3521,-0.7295,-39.51,-106.71,-101.28
1424,36166984,0.2280,0.3716,-0.7148,-40.55,-105.55,-100.12
1425,36171984,0.2510,0.3931,-0.7231,-41.16,-104.33,-98.84
1426,36176983,0.2422,0.4116,-0.7192,-41.95,-103.29,-97.56
1427,36182460,0.2456,0.4282,-0.7119,-42.68,-102.26,-96.46
1428,36186984,0.2432,0.4355,-0.7129,-43.54,-101.40,-95.18
1429,36191984,0.2510,0.4380,-0.7095,-44.39,-100.43,-94.02
1430,36196985,0.2607,0.4429,-0.7100,-45.24,-99.70,-92.87
1431,36201984,0.2476,0.4507,-0.7085,-46.22,-98.78,-91.59
1432,36206984,0.2388,0.4639,-0.7075,-47.26,-98.17,-90.37
1433,36211986,0.2329,0.4834,-0.7026,-48.23,-97.62,-89.27
1434,36216984,0.2178,0.4995,-0.6968,-49.27,-96.77,-88.35
1435,36222108,0.2202,0.5171,-0.6880,-50.43,-96.16,-87.44
1436,36227019,0.2021,0.5332,-0.6626,-51.77,-95.37,-86.89
1437,36231983,0.1772,0.5698,-0.6646,-53.05,-94.57,-86.16
1438,36236984,0.1685,0.5942,-0.6772,-53.84,-93.41,-85.67
1439,36241984,0.1943,0.6069,-0.6958,-53.96,-92.74,-85.12
1440,36246984,0.1831,0.6245,-0.7104,-54.15,-92.32,-84.57
1441,36251984,0.1772,0.6421,-0.7188,-54.09,-92.32,-83.78
1442,36256985,0.1792,0.6611,-0.7217,-54.33,-91.34,-82.68
1443,36261984,0.1816,0.6816,-0.7295,-54.51,-90.85,-81.40
1444,36266984,0.1846,0.7012,-0.7407,-55.00,-90.12,-79.94
1445,36271984,0.1343,0.6875,-0.7358,-55.55,-89.45,-78.11
1446,36276984,0.1841,0.7119,-0.7437,-55.85,-88.54,-75.79
1447,36281984,0.1646,0.7383,-0.8130,-56.40,-87.56,-73.23
1448,36286983,0.1904,0.7148,-0.7437,-57.26,-86.83,-70.06
1449,36291983,0.2319,0.7236,-0.7036,-58.48,-85.37,-66.28
1450,36296984,0.1846,0.7344,-0.7681,-60.18,-83.96,-62.13
1451,36301984,0.2285,0.7510,-0.7568,-61.46,-82.56,-57.93
1452,36306983,0.1709,0.7441,-0.7300,-62.50,-80.91,-53.41
1453,36311982,0.2183,0.7598,-0.7065,-62.87,-78.96,-48.66
1454,36316984,0.1982,0.7441,-0.7104,-62.56,-76.95,-43.90
1455,36321985,0.1821,0.7261,-0.6982,-61.28,-75.24,-38.90
1456,36326984,0.1831,0.7656,-0.7080,-58.60,-73.17,-33.90
1457,36331984,0.2241,0.7715,-0.6899,-55.12,-71.46,-29.45
1458,36336984,0.2100,0.7651,-0.6792,-51.04,-69.70,-24.70
1459,36341984,0.2056,0.7544,-0.6792,-46.59,-67.93,-20.06
1460,36346984,0.2134,0.7329,-0.6763,-41.89,-66.28,-15.61
1461,36351984,0.2202,0.7139,-0.6699,-37.01,-64.76,-11.34
1462,36356983,0.2295,0.7163,-0.6641,-32.13,-63.29,-7.01
1463,36361984,0.2290,0.7261,-0.6587,-27.80,-62.01,-2.99
1464,36366984,0.2275,0.7334,-0.6543,-24.09,-60.98,0.79
1465,36371984,0.2266,0.7363,-0.6289,-20.98,-59.76,4.15
1466,36377448,0.2290,0.7393,-0.6270,-18.35,-58.72,7.44
1467,36381984,0.2393,0.7290,-0.6367,-16.28,-57.56,10.61
1468,36386984,0.2368,0.7129,-0.6445,-14.70,-56.77,13.72
1469,36391984,0.2300,0.6934,-0.6611,-13.48,-56.28,17.07
1470,36396984,0.2329,0.6860,-0.6724,-12.93,-55.91,20.55
1471,36401984,0.2422,0.6885,-0.6968,-12.87,-55.79,24.09
1472,36406984,0.2139,0.7085,-0.7329,-13.17,-55.98,27.80
1473,36411984,0.2495,0.7158,-0.7021,-14.51,-55.79,31.34
1474,36416984,0.2095,0.6670,-0.7261,-16.40,-55.79,35.06
1475,36421984,0.2700,0.6626,-0.7510,-18.41,-55.98,38.90
1476,36427025,0.2637,0.6499,-0.7778,-20.61,-56.16,42.99
1477,36432137,0.3086,0.6484,-0.7417,-23.48,-56.34,47.13
1478,36436983,0.3325,0.7104,-0.7544,-26.40,-56.52,51.16
1479,36441985,0.2812,0.7251,-0.7832,-30.18,-56.89,54.63
1480,36446983,0.2920,0.6821,-0.7261,-34.70,-56.77,58.41
1481,36451985,0.3330,0.6768,-0.7319,-39.45,-56.46,62.68
1482,36456984,0.3428,0.7227,-0.7964,-44.21,-56.59,66.89
1483,36461984,0.3779,0.8081,-0.8101,-49.33,-56.65,70.73
1484,36466984,0.3516,0.7153,-0.6636,-55.67,-56.16,74.63
1485,36471984,0.3540,0.7007,-0.6865,-61.52,-55.24,78.78
1486,36476984,0.3281,0.6484,-0.7300,-67.26,-54.63,83.35
1487,36481984,0.3086,0.6982,-0.7275,-72.01,-53.90,86.28
1488,36486984,0.3257,0.7095,-0.6611,-76.46,-53.05,91.22
1489,36491984,0.3467,0.7231,-0.7280,-79.70,-52.20,95.61
1490,36496986,0.4146,0.7949,-0.7280,-83.41,-51.65,99.88
1491,36502433,0.3340,0.7881,-0.6587,-86.77,-50.91,103.60
1492,36506984,0.2354,0.7236,-0.6357,-88.96,-50.06,107.50
1493,36511984,0.2246,0.6689,-0.6675,-90.30,-49.57,111.65
1494,36516986,0.2759,0.6699,-0.6641,-90.37,-49.63,115.85
1495,36521983,0.3149,0.6963,-0.6440,-89.33,-49.51,120.00
1496,36526984,0.3398,0.7148,-0.6553,-87.07,-49.51,123.90
1497,36531983,0.3267,0.7329,-0.6597,-84.33,-49.63,127.62
1498,36536984,0.3037,0.7119,-0.6577,-81.34,-49.88,131.28
1499,36542363,0.2627,0.7095,-0.6733,-78.17,-50.18,135.12
1500,36546984,0.2310,0.7056,-0.6611,-74.82,-50.91,139.15
1501,36551984,0.2490,0.6802,-0.6592,-71.59,-51.52,143.35
1502,36556984,0.2993,0.6802,-0.6455,-68.29,-51.95,147.56
1503,36561984,0.3262,0.6899,-0.6279,-65.06,-52.32,151.83
1504,36566984,0.3120,0.6816,-0.6211,-61.52,-52.13,155.91
1505,36571984,0.3394,0.7051,-0.6299,-57.80,-52.13,159.88
1506,36576985,0.4072,0.7202,-0.6313,-54.51,-52.26,163.60
1507,36581983,0.4624,0.7500,-0.6328,-52.01,-51.83,167.74
1508,36586982,0.5532,0.8418,-0.6655,-49.39,-51.34,172.68
1509,36591982,0.5962,1.0039,-0.6787,-45.30,-50.43,178.90
1510,36596983,0.5342,1.0698,-0.6479,-39.82,-48.78,186.89
1511,36601982,0.4023,1.0469,-0.6675,-33.90,-47.01,196.22
1512,36606982,0.2534,0.9395,-0.6899,-28.11,-45.18,205.55
1513,36611982,0.1953,0.8306,-0.7114,-23.54,-43.17,213.72
1514,36616984,0.2080,0.7646,-0.7178,-20.79,-40.85,220.37
1515,36621986,0.2051,0.7280,-0.7197,-20.12,-38.23,225.43
1516,36627083,0.1851,0.6973,-0.7183,-21.59,-35.37,229.27
1517,36631984,0.1665,0.6768,-0.7314,-23.72,-32.68,232.68
1518,36636986,0.1543,0.6646,-0.7300,-26.34,-30.06,235.37
1519,36641984,0.1616,0.6519,-0.7271,-28.84,-27.56,237.44
1520,36646983,0.1841,0.6499,-0.7227,-31.04,-25.12,239.39
1521,36651984,0.2026,0.6519,-0.7227,-32.68,-22.87,240.85
1522,36656984,0.2139,0.6489,-0.7104,-33.84,-20.67,242.20
1523,36661984,0.2231,0.6465,-0.6958,-34.15,-18.72,243.23
1524,36666983,0.2476,0.6313,-0.6885,-34.02,-16.71,244.21
1525,36672253,0.2764,0.6128,-0.6948,-33.54,-15.00,245.12
1526,36676984,0.3022,0.5737,-0.6934,-33.11,-13.90,246.40
1527,36681983,0.3491,0.5396,-0.7222,-32.93,-13.29,248.11
1528,36686984,0.3188,0.5322,-0.7104,-33.23,-13.23,249.15
1529,36691984,0.3169,0.4941,-0.6787,-33.96,-13.60,250.67
1530,36696984,0.3384,0.4424,-0.6729,-35.24,-13.96,252.26
1531,36701984,0.3848,0.3892,-0.6821,-37.07,-14.76,253.90
1532,36706984,0.3960,0.3394,-0.6880,-39.27,-15.73,255.85
1533,36711984,0.3779,0.3135,-0.6777,-41.71,-16.77,257.74
1534,36716984,0.3584,0.2769,-0.6768,-44.09,-17.44,259.33
1535,36721984,0.3354,0.2441,-0.6777,-46.52,-18.05,261.16
1536,36726984,0.3286,0.2188,-0.6865,-49.15,-18.78,262.50
1537,36731984,0.3066,0.1953,-0.6909,-51.83,-19.27,263.78
1538,36736984,0.3208,0.1797,-0.6899,-54.57,-19.33,264.70
1539,36741984,0.3223,0.1660,-0.6895,-56.83,-18.90,265.06
1540,36746983,0.3159,0.1567,-0.6855,-58.72,-17.93,265.18
1541,36751984,0.3018,0.1445,-0.6958,-60.06,-16.65,264.70
1542,36756984,0.2930,0.1226,-0.7051,-61.22,-14.94,263.78
1543,36761984,0.2700,0.1035,-0.7256,-62.26,-13.29,262.56
1544,36766984,0.2515,0.0762,-0.7339,-63.35,-11.40,261.34
1545,36771984,0.2319,0.0459,-0.7578,-64.76,-9.45,259.82
1546,36776984,0.2319,0.0156,-0.7817,-66.52,-7.68,258.60
1547,36781984,0.2271,-0.0073,-0.8013,-68.78,-5.67,257.26
1548,36786984,0.2153,-0.0312,-0.8159,-71.71,-3.66,255.67
1549,36791984,0.2061,-0.0542,-0.8291,-75.37,-1.28,254.27
1550,36796984,0.1968,-0.0845,-0.8320,-79.70,1.28,252.62
1551,36801984,0.1992,-0.1162,-0.8369,-84.70,3.60,251.04
1552,36806984,0.2104,-0.1499,-0.8433,-89.88,6.40,249.76
1553,36811984,0.2109,-0.1670,-0.8535,-94.51,8.84,248.41
1554,36816984,0.2100,-0.1836,-0.8589,-97.99,11.46,246.89
1555,36821984,0.2051,-0.1899,-0.8721,-100.49,14.02,245.12
1556,36826984,0.1880,-0.2061,-0.8628,-101.95,16.28,243.05
1557,36831984,0.1797,-0.2202,-0.8599,-102.50,18.84,240.91
1558,36836984,0.1777,-0.2290,-0.8477,-102.01,21.28,238.48
1559,36841984,0.1895,-0.2388,-0.8438,-100.61,23.90,235.85
1560,36846985,0.2114,-0.2539,-0.8218,-98.41,26.40,233.11
1561,36851984,0.2285,-0.2637,-0.8086,-95.37,28.96,230.37
1562,36856984,0.2397,-0.2827,-0.7969,-92.01,31.46,227.74
1563,36861984,0.2593,-0.3032,-0.7715,-88.17,33.84,225.24
1564,36866984,0.2881,-0.3262,-0.7588,-84.51,35.85,223.23
1565,36871984,0.3345,-0.3452,-0.7363,-80.85,37.44,221.59
1566,36876984,0.3911,-0.3652,-0.7271,-77.01,38.78,220.30
1567,36881984,0.4370,-0.3794,-0.6978,-73.05,39.94,219.70
1568,36886983,0.4678,-0.3872,-0.6729,-69.33,40.79,219.27
1569,36891982,0.4854,-0.3965,-0.6479,-65.73,41.28,219.02
1570,36896982,0.4966,-0.3984,-0.6245,-62.56,41.89,219.09
1571,36901982,0.5156,-0.4048,-0.5962,-59.82,42.26,219.27
1572,36906983,0.5391,-0.4146,-0.5762,-57.74,42.87,219.70
1573,36911982,0.5640,-0.4229,-0.5542,-55.85,43.17,220.24
1574,36916984,0.5903,-0.4248,-0.5337,-54.27,43.60,220.98
1575,36921983,0.6074,-0.4229,-0.5288,-53.05,43.78,221.77
1576,36926984,0.6113,-0.4219,-0.5264,-51.95,43.72,222.74
1577,36931984,0.6064,-0.4131,-0.5186,-51.40,43.84,223.66
1578,36936984,0.6001,-0.4102,-0.5176,-51.28,43.78,224.21
1579,36941984,0.5811,-0.4165,-0.5112,-51.52,44.15,224.88
1580,36946984,0.5664,-0.4136,-0.5078,-52.32,44.15,225.49
1581,36951984,0.5420,-0.4146,-0.5078,-53.11,44.27,226.10
1582,36956984,0.5181,-0.4150,-0.5171,-54.39,44.70,226.40
1583,36961984,0.4810,-0.4111,-0.5205,-56.10,44.82,226.65
1584,36966984,0.4419,-0.4170,-0.5234,-57.87,45.18,226.40
1585,36972277,0.4155,-0.4209,-0.5249,-60.43,45.49,226.34
1586,36976984,0.3940,-0.4248,-0.5371,-63.54,45.98,226.04
1587,36981984,0.3667,-0.4297,-0.5386,-67.07,46.40,225.73
1588,36986984,0.3418,-0.4395,-0.5454,-71.40,46.95,225.18
1589,36991984,0.3271,-0.4434,-0.5474,-76.52,47.32,224.82
1590,36996984,0.3062,-0.4497,-0.5454,-82.26,47.87,224.27
1591,37002327,0.2861,-0.4556,-0.5552,-88.54,48.23,223.78
1592,37006984,0.2715,-0.4644,-0.5605,-95.18,48.41,223.41
1593,37011984,0.2646,-0.4775,-0.5659,-102.38,48.17,223.23
1594,37016984,0.2749,-0.4824,-0.5801,-109.33,47.62,223.29
1595,37021984,0.3022,-0.4849,-0.5889,-116.16,46.65,223.54
1596,37026984,0.3223,-0.4883,-0.5864,-122.26,45.37,224.21
1597,37031984,0.3350,-0.4937,-0.5850,-128.17,43.96,225.00
1598,37036984,0.3501,-0.5029,-0.5957,-133.05,42.13,225.91
1599,37041984,0.3691,-0.5103,-0.6084,-137.26,39.76,227.32
1600,37046984,0.3945,-0.5181,-0.6147,-140.91,37.32,228.84
1601,37051984,0.4136,-0.5244,-0.6177,-144.15,34.33,230.37
1602,37056984,0.4136,-0.5259,-0.6196,-146.89,31.65,232.13
1603,37061984,0.4136,-0.5352,-0.6172,-149.15,28.72,233.72
1604,37066984,0.3984,-0.5366,-0.6279,-151.10,25.79,235.12
1605,37071984,0.3799,-0.5332,-0.6245,-152.74,23.48,236.52
1606,37076984,0.3584,-0.5352,-0.6270,-153.90,20.73,237.62
1607,37081985,0.3350,-0.5396,-0.6362,-154.76,18.35,238.41
1608,37086984,0.3052,-0.5444,-0.6455,-155.18,16.04,239.09
1609,37091984,0.2832,-0.5557,-0.6499,-155.49,13.90,239.57
1610,37096985,0.2461,-0.5581,-0.6611,-155.43,12.07,240.00
1611,37101984,0.2114,-0.5664,-0.6763,-155.00,10.30,240.18
1612,37106984,0.1929,-0.5801,-0.6865,-154.21,8.35,240.18
1613,37111985,0.1665,-0.5869,-0.6968,-152.68,6.95,240.06
1614,37116984,0.1548,-0.5933,-0.7222,-150.55,5.37,239.88
1615,37121984,0.1348,-0.6025,-0.7251,-147.87,4.02,239.39
1616,37126984,0.1211,-0.6113,-0.7378,-144.63,2.93,238.96
1617,37131984,0.1157,-0.6235,-0.7559,-140.98,1.59,238.48
1618,37136984,0.1104,-0.6270,-0.7656,-137.13,0.49,237.93
1619,37141984,0.1045,-0.6323,-0.7617,-133.17,-0.37,237.38
1620,37146984,0.0981,-0.6426,-0.7705,-129.27,-1.34,236.59
1621,37151984,0.0952,-0.6489,-0.7715,-125.12,-2.01,235.91
1622,37156984,0.0938,-0.6489,-0.7734,-121.10,-2.68,235.18
1623,37161984,0.0854,-0.6538,-0.7705,-117.13,-3.29,234.51
1624,37166984,0.0811,-0.6646,-0.7734,-113.11,-3.78,233.60
1625,37171984,0.0820,-0.6680,-0.7764,-109.45,-4.09,232.93
1626,37176984,0.0801,-0.6802,-0.7725,-105.85,-4.33,232.13
1627,37181984,0.0806,-0.6821,-0.7695,-102.62,-4.39,231.34
1628,37186983,0.0728,-0.6885,-0.7793,-99.51,-4.45,230.49
1629,37191983,0.0679,-0.6904,-0.7871,-96.77,-4.70,229.51
1630,37196986,0.0615,-0.6934,-0.7866,-94.70,-4.70,228.66
1631,37201984,0.0571,-0.7017,-0.7930,-93.29,-4.63,227.56
1632,37206984,0.0615,-0.7065,-0.7915,-92.44,-4.63,226.34
1633,37212150,0.0645,-0.7124,-0.7759,-92.13,-4.70,225.30
1634,37216984,0.0708,-0.7192,-0.7749,-91.95,-5.00,224.21
1635,37221984,0.0786,-0.7295,-0.7808,-91.65,-5.30,223.23
1636,37226984,0.0757,-0.7339,-0.7793,-90.98,-5.91,222.13
1637,37231984,0.0713,-0.7354,-0.7891,-89.82,-6.34,221.22
1638,37236984,0.0640,-0.7456,-0.7988,-88.11,-7.07,220.00
1639,37241984,0.0518,-0.7471,-0.7974,-85.91,-7.62,218.84
1640,37246984,0.0435,-0.7529,-0.8047,-83.23,-8.05,217.50
1641,37251984,0.0371,-0.7554,-0.7993,-79.94,-8.41,216.16
1642,37256984,0.0283,-0.7524,-0.8120,-76.10,-8.60,214.70
1643,37261984,0.0239,-0.7500,-0.7944,-71.52,-8.90,213.11
1644,37266984,0.0205,-0.7432,-0.7881,-66.22,-9.02,211.59
1645,37271984,0.0254,-0.7363,-0.7842,-60.12,-9.27,210.18
1646,37277398,0.0332,-0.7402,-0.7739,-53.72,-9.51,208.84
1647,37281984,0.0537,-0.7397,-0.7832,-46.89,-9.94,207.74
1648,37286984,0.0747,-0.7417,-0.7871,-40.06,-10.91,206.83
1649,37292395,0.0957,-0.7437,-0.7861,-33.35,-11.89,205.91
1650,37296984,0.1050,-0.7461,-0.7871,-26.89,-12.62,205.18
1651,37302385,0.1021,-0.7456,-0.7847,-20.67,-13.60,204.33
1652,37306984,0.1138,-0.7466,-0.7832,-14.88,-14.63,203.72
1653,37312317,0.1191,-0.7529,-0.7832,-9.70,-15.91,203.17
1654,37316984,0.1250,-0.7539,-0.7837,-5.00,-17.20,202.56
1655,37321984,0.1240,-0.7593,-0.7754,-1.52,-18.54,201.65
1656,37326984,0.1235,-0.7632,-0.7837,0.98,-19.94,201.10
1657,37331983,0.1152,-0.7671,-0.7681,2.38,-21.04,200.12
1658,37336984,0.1079,-0.7646,-0.7705,3.05,-22.50,199.15
1659,37341984,0.1011,-0.7671,-0.7612,3.11,-23.60,198.11
1660,37346984,0.0850,-0.7690,-0.7612,2.93,-24.94,196.95
1661,37351984,0.0703,-0.7725,-0.7690,2.38,-26.28,195.85
1662,37356984,0.0454,-0.7759,-0.7705,1.59,-27.56,194.45
1663,37361984,0.0205,-0.7832,-0.7715,0.85,-28.60,192.93
1664,37366984,-0.0088,-0.7876,-0.7783,0.18,-29.27,191.40
1665,37371984,-0.0322,-0.7891,-0.7871,0.18,-29.94,189.51
1666,37376984,-0.0610,-0.7910,-0.7979,0.43,-30.37,187.38
1667,37381984,-0.0859,-0.7905,-0.8052,1.40,-30.49,185.18
1668,37386984,-0.1191,-0.7915,-0.8174,2.80,-30.37,182.62
1669,37391985,-0.1440,-0.7905,-0.8198,4.39,-30.06,180.18
1670,37396984,-0.1631,-0.7939,-0.8228,6.28,-29.57,177.38
1671,37401984,-0.1807,-0.7935,-0.8320,8.11,-28.96,174.57
1672,37406984,-0.1987,-0.7939,-0.8359,9.94,-27.87,171.71
1673,37411984,-0.2085,-0.7974,-0.8457,11.22,-26.77,168.66
1674,37416984,-0.2188,-0.8008,-0.8472,11.89,-25.73,165.43
1675,37421984,-0.2256,-0.8096,-0.8545,11.71,-24.76,162.20
1676,37426984,-0.2363,-0.8105,-0.8550,10.67,-23.66,158.84
1677,37431986,-0.2456,-0.8145,-0.8535,8.66,-22.38,155.43
1678,37436984,-0.2314,-0.8164,-0.8491,6.22,-21.22,151.95
1679,37441984,-0.2222,-0.8208,-0.8452,3.41,-20.18,148.66
1680,37446984,-0.2144,-0.8257,-0.8608,0.37,-19.33,145.49
1681,37451984,-0.2183,-0.8413,-0.8711,-2.87,-18.35,142.32
1682,37456984,-0.2246,-0.8521,-0.8765,-6.65,-17.38,139.09
1683,37461984,-0.2295,-0.8618,-0.8853,-10.85,-16.22,135.91
1684,37466984,-0.2383,-0.8677,-0.8906,-15.37,-15.00,132.56
1685,37471984,-0.2476,-0.8726,-0.8921,-19.88,-13.17,129.09
1686,37476984,-0.2500,-0.8765,-0.8848,-24.02,-11.40,125.67
1687,37481984,-0.2534,-0.8770,-0.8945,-27.38,-9.51,122.32
1688,37486984,-0.2583,-0.8706,-0.8955,-29.39,-7.50,118.78
1689,37491985,-0.2622,-0.8652,-0.8960,-30.30,-5.61,115.37
1690,37496983,-0.2632,-0.8628,-0.8872,-29.57,-3.66,112.13
1691,37501982,-0.2578,-0.8569,-0.8828,-27.56,-2.13,108.84
1692,37506982,-0.2500,-0.8457,-0.8672,-24.21,-0.55,105.85
1693,37512105,-0.2466,-0.8374,-0.8496,-19.88,0.91,102.99
1694,37516983,-0.2290,-0.8242,-0.8369,-14.45,2.13,100.30
1695,37521984,-0.2178,-0.8203,-0.8213,-8.41,3.17,97.62
1696,37526984,-0.2168,-0.8066,-0.8145,-2.20,4.09,95.00
1697,37531984,-0.2261,-0.8047,-0.8037,4.09,5.18,92.38
1698,37536984,-0.2358,-0.8018,-0.7915,9.21,6.22,89.27
1699,37541984,-0.2412,-0.7935,-0.7939,13.60,7.44,87.99
1700,37546984,-0.2446,-0.7905,-0.7861,16.89,8.84,85.00
1701,37551984,-0.2505,-0.7847,-0.7871,19.15,10.24,81.83
1702,37556984,-0.2515,-0.7798,-0.7847,20.43,11.65,78.90
1703,37561984,-0.2534,-0.7773,-0.7812,21.04,12.99,76.28
1704,37566984,-0.2480,-0.7700,-0.7773,20.91,14.21,73.60
1705,37572325,-0.2397,-0.7637,-0.7769,20.12,15.37,70.91
1706,37576984,-0.2319,-0.7554,-0.7676,19.09,16.40,68.35
1707,37581984,-0.2246,-0.7515,-0.7622,17.93,17.20,65.79
1708,37586984,-0.2173,-0.7427,-0.7515,16.52,17.74,63.35
1709,37591984,-0.2075,-0.7344,-0.7363,15.24,18.35,61.22
1710,37596984,-0.1992,-0.7241,-0.7314,14.09,18.48,59.15
1711,37601984,-0.1816,-0.7124,-0.7085,12.87,18.48,57.13
1712,37606984,-0.1699,-0.7017,-0.7031,12.20,18.35,55.49
1713,37611984,-0.1631,-0.6929,-0.6895,11.89,17.80,53.78
1714,37616984,-0.1582,-0.6870,-0.6743,11.71,17.44,52.20
1715,37621984,-0.1494,-0.6758,-0.6704,11.71,16.77,50.91
1716,37626984,-0.1528,-0.6675,-0.6523,12.01,15.98,49.63
1717,37631984,-0.1494,-0.6636,-0.6523,12.62,15.12,48.35
1718,37636984,-0.1494,-0.6558,-0.6470,13.17,14.39,47.44
1719,37641984,-0.1509,-0.6514,-0.6440,13.90,13.41,46.40
1720,37646984,-0.1543,-0.6514,-0.6353,14.27,12.38,45.37
1721,37651984,-0.1558,-0.6465,-0.6318,14.57,11.52,44.51
1722,37656984,-0.1577,-0.6460,-0.6265,14.51,10.73,43.72
1723,37661984,-0.1606,-0.6401,-0.6245,14.21,9.82,42.87
1724,37666984,-0.1665,-0.6367,-0.6265,13.72,8.90,42.13
1725,37671984,-0.1670,-0.6343,-0.6260,12.93,8.11,41.34
1726,37676984,-0.1655,-0.6309,-0.6270,11.89,7.20,40.73
1727,37681984,-0.1655,-0.6245,-0.6270,10.79,6.34,40.12
1728,37686984,-0.1670,-0.6235,-0.6289,9.82,5.30,39.51
1729,37691984,-0.1646,-0.6216,-0.6309,8.60,4.27,38.90
1730,37696984,-0.1641,-0.6187,-0.6191,7.62,3.29,38.29
1731,37701984,-0.1719,-0.6157,-0.6211,6.77,2.38,37.74
1732,37706984,-0.1748,-0.6133,-0.6235,5.85,1.22,37.26
1733,37711984,-0.1772,-0.6099,-0.6206,5.12,0.30,36.71
1734,37716984,-0.1787,-0.6035,-0.6294,4.51,-0.61,36.16
1735,37721984,-0.1885,-0.6025,-0.6201,3.90,-1.40,35.30
1736,37726984,-0.1963,-0.6025,-0.6255,3.35,-2.20,34.76
1737,37731984,-0.1958,-0.5996,-0.6255,2.99,-2.93,34.09
1738,37736984,-0.2056,-0.5972,-0.6255,2.38,-3.48,33.35
1739,37741984,-0.2104,-0.5942,-0.6299,1.89,-4.09,32.50
1740,37746984,-0.2119,-0.5918,-0.6270,1.46,-4.63,31.77
1741,37751984,-0.2202,-0.5874,-0.6201,0.98,-5.12,30.91
1742,37756984,-0.2212,-0.5835,-0.6187,0.55,-5.61,30.12
1743,37761984,-0.2217,-0.5825,-0.6265,0.18,-6.22,29.45
1744,37766984,-0.2163,-0.5796,-0.6162,-0.18,-6.52,28.54
1745,37771984,-0.2222,-0.5825,-0.6128,-0.37,-6.95,27.87
1746,37776984,-0.2212,-0.5786,-0.6177,-0.61,-7.56,27.07
1747,37781984,-0.2266,-0.5781,-0.6196,-0.91,-7.99,26.40
1748,37786983,-0.2266,-0.5801,-0.6230,-1.10,-8.60,25.61
1749,37791982,-0.2222,-0.5820,-0.6265,-1.34,-9.02,25.00
1750,37796984,-0.2231,-0.5806,-0.6270,-1.52,-9.63,24.33
1751,37801984,-0.2212,-0.5825,-0.6226,-1.52,-10.06,23.72
1752,37806982,-0.2251,-0.5820,-0.6299,-1.71,-10.55,23.05
1753,37811982,-0.2212,-0.5854,-0.6416,-1.65,-11.16,22.44
1754,37816984,-0.2261,-0.5815,-0.6416,-1.46,-11.34,21.71
1755,37822072,-0.2246,-0.5850,-0.6396,-1.46,-11.83,20.85
1756,37826984,-0.2256,-0.5854,-0.6436,-1.10,-12.32,20.12
1757,37831984,-0.2290,-0.5879,-0.6436,-0.73,-12.80,19.39
1758,37836984,-0.2266,-0.5879,-0.6475,-0.24,-13.11,18.60
1759,37841984,-0.2290,-0.5879,-0.6519,0.30,-13.60,17.93
1760,37846984,-0.2334,-0.5928,-0.6460,0.61,-13.96,17.01
