# skilleye imu stream v1
# device=xiao_esp32c6 imu=mpu6050 addr=0x68
# rate_hz=200 accel_range_g=16 gyro_range_dps=2000 dlpf_hz=94
# units: accel in g, gyro in deg/s, t_us in microseconds since boot (monotonic)
# no shared clock with the camera -- tap the racket once before each take
# so both recordings share a spike to align on
seq,t_us,ax,ay,az,gx,gy,gz
0,92727982,-0.9355,0.3633,0.0732,3.41,-10.37,3.48
1,92732985,-0.9326,0.3574,0.0771,3.84,-10.55,3.29
2,92737981,-0.9326,0.3628,0.0752,4.15,-10.98,3.29
3,92742982,-0.9312,0.3535,0.0825,4.57,-11.28,3.23
4,92747980,-0.9321,0.3569,0.0752,4.82,-11.59,2.99
5,92752980,-0.9312,0.3535,0.0732,5.00,-11.89,2.93
6,92757984,-0.9287,0.3564,0.0757,5.49,-12.07,2.87
7,92762982,-0.9253,0.3589,0.0737,5.79,-12.50,2.80
8,92767982,-0.9263,0.3633,0.0815,6.16,-12.74,2.62
9,92772983,-0.9238,0.3623,0.0811,6.34,-13.11,2.56
10,92777982,-0.9189,0.3525,0.0859,6.40,-13.17,2.38
11,92782982,-0.9238,0.3589,0.0737,6.65,-13.54,2.20
12,92787982,-0.9189,0.3652,0.0771,6.89,-13.96,2.13
13,92792982,-0.9155,0.3657,0.0845,7.13,-14.09,1.89
14,92797982,-0.9165,0.3672,0.0918,7.50,-14.33,1.65
15,92802983,-0.9165,0.3701,0.0923,7.80,-14.70,1.34
16,92807982,-0.9150,0.3687,0.0884,7.99,-14.63,1.16
17,92812981,-0.9165,0.3691,0.0869,8.11,-14.76,0.85
18,92817981,-0.9214,0.3652,0.0942,8.60,-15.12,0.55
19,92822982,-0.9136,0.3701,0.0928,8.78,-15.18,0.24
20,92827983,-0.9097,0.3721,0.0894,9.02,-15.24,-0.18
21,92832984,-0.9062,0.3716,0.0874,9.27,-15.49,-0.55
22,92837980,-0.9043,0.3721,0.1006,9.57,-15.49,-0.79
23,92842984,-0.8979,0.3691,0.0957,9.76,-15.49,-1.16
24,92847992,-0.8975,0.3677,0.0972,9.94,-15.49,-1.46
25,92852982,-0.9004,0.3672,0.1016,10.12,-15.55,-1.77
26,92857980,-0.9028,0.3730,0.0859,10.30,-15.61,-2.07
27,92862984,-0.9043,0.3701,0.0938,10.49,-15.61,-2.32
28,92867981,-0.9033,0.3760,0.0981,10.49,-15.79,-2.62
29,92872980,-0.9058,0.3726,0.0962,10.61,-15.61,-2.87
30,92877982,-0.9072,0.3711,0.0981,10.67,-15.43,-3.11
31,92882980,-0.9072,0.3755,0.0996,10.67,-15.61,-3.35
32,92887983,-0.9033,0.3750,0.1001,10.61,-15.49,-3.72
33,92892982,-0.9023,0.3755,0.0986,10.49,-15.43,-4.02
34,92897982,-0.9023,0.3745,0.0977,10.55,-15.24,-4.15
35,92902984,-0.9067,0.3760,0.0977,10.37,-15.00,-4.27
36,92907980,-0.9058,0.3755,0.0957,10.24,-15.06,-4.51
37,92912981,-0.9019,0.3740,0.1050,10.24,-14.88,-4.70
38,92918083,-0.9004,0.3755,0.1001,10.06,-14.70,-4.88
39,92922983,-0.8999,0.3750,0.1055,10.00,-14.51,-5.06
40,92927982,-0.8989,0.3735,0.1030,9.94,-14.39,-5.12
41,92932981,-0.8965,0.3730,0.1011,9.76,-14.09,-5.24
42,92937982,-0.8989,0.3745,0.1011,9.70,-13.90,-5.30
43,92942982,-0.9019,0.3726,0.0972,9.57,-13.60,-5.24
44,92947983,-0.9043,0.3730,0.1011,9.51,-13.23,-5.24
45,92952980,-0.9019,0.3726,0.1030,9.33,-13.11,-5.30
46,92957982,-0.9019,0.3735,0.1025,9.27,-12.87,-5.24
47,92962982,-0.8999,0.3730,0.0986,9.15,-12.62,-5.06
48,92968048,-0.9043,0.3726,0.1011,8.90,-12.26,-5.00
49,92972985,-0.9067,0.3691,0.0996,8.78,-11.95,-4.94
50,92977981,-0.9072,0.3765,0.0957,8.54,-11.65,-4.82
51,92982982,-0.9102,0.3735,0.0903,8.54,-11.22,-4.70
52,92987980,-0.9062,0.3745,0.1001,8.41,-11.04,-4.39
53,92993039,-0.9092,0.3726,0.0967,8.17,-10.61,-4.21
54,92997983,-0.9058,0.3760,0.1001,8.11,-10.12,-4.09
55,93002981,-0.9043,0.3750,0.0977,7.87,-9.88,-3.84
56,93007982,-0.9053,0.3760,0.0923,7.74,-9.51,-3.66
57,93012981,-0.9053,0.3755,0.1001,7.62,-9.02,-3.41
58,93017982,-0.9072,0.3750,0.1030,7.26,-8.72,-3.17
59,93023115,-0.9053,0.3784,0.1050,7.01,-8.41,-2.93
60,93027982,-0.9053,0.3789,0.1064,6.77,-8.05,-2.68
61,93033151,-0.9038,0.3770,0.1035,6.40,-7.56,-2.44
62,93037982,-0.9009,0.3799,0.0977,6.10,-7.20,-2.26
63,93042982,-0.9043,0.3779,0.0996,5.73,-6.77,-1.95
64,93047982,-0.9019,0.3823,0.1064,5.30,-6.40,-1.65
65,93053156,-0.9014,0.3799,0.1045,4.94,-5.85,-1.46
66,93057982,-0.9014,0.3828,0.1025,4.45,-5.55,-1.16
67,93062983,-0.9019,0.3813,0.1021,3.90,-5.00,-0.85
68,93067982,-0.9048,0.3853,0.1089,3.29,-4.63,-0.49
69,93072982,-0.8984,0.3882,0.0986,2.62,-4.09,0.00
70,93077982,-0.9004,0.3848,0.1030,1.89,-3.78,0.24
71,93082981,-0.9023,0.3887,0.1064,1.28,-3.35,0.61
72,93087982,-0.8984,0.3896,0.1079,0.43,-2.87,1.04
73,93092983,-0.9014,0.3901,0.1064,-0.30,-2.26,1.46
74,93097982,-0.9009,0.3955,0.1025,-1.04,-1.95,1.83
75,93102981,-0.9028,0.3950,0.1094,-1.59,-1.59,2.20
76,93107982,-0.9058,0.3984,0.0986,-2.62,-0.85,2.74
77,93112981,-0.9106,0.4019,0.1069,-3.54,-0.43,3.17
78,93117983,-0.9146,0.4019,0.1040,-4.21,0.06,3.66
79,93123571,-0.9165,0.4072,0.0967,-5.30,0.55,4.33
80,93127982,-0.9180,0.4106,0.0952,-5.98,0.91,4.63
81,93132981,-0.9189,0.4062,0.1030,-6.83,1.40,5.30
82,93137982,-0.9180,0.4121,0.0957,-7.74,2.07,5.73
83,93142982,-0.9097,0.4150,0.0947,-8.72,2.38,6.28
84,93147982,-0.9072,0.4194,0.0981,-9.57,3.11,6.89
85,93152983,-0.9043,0.4209,0.0986,-10.49,3.66,7.44
86,93157982,-0.8994,0.4170,0.0957,-11.40,4.27,8.05
87,93162981,-0.8950,0.4229,0.0938,-12.38,4.76,8.48
88,93167982,-0.8926,0.4243,0.0991,-13.41,5.37,9.02
89,93172983,-0.8877,0.4277,0.0923,-14.39,6.10,9.51
90,93177982,-0.8838,0.4316,0.0864,-15.24,6.83,10.12
91,93182981,-0.8813,0.4375,0.0869,-16.28,7.50,10.67
92,93187981,-0.8765,0.4370,0.0903,-17.20,8.29,11.22
93,93192982,-0.8770,0.4409,0.0874,-18.11,8.84,11.77
94,93197983,-0.8789,0.4429,0.0840,-19.27,9.63,12.44
95,93203074,-0.8818,0.4482,0.0850,-20.73,10.79,13.35
96,93208000,-0.8779,0.4482,0.0791,-21.46,11.28,13.78
97,93212982,-0.8779,0.4478,0.0767,-22.74,12.13,14.57
98,93217982,-0.8833,0.4551,0.0815,-24.02,12.87,15.18
99,93222981,-0.8838,0.4551,0.0771,-25.37,13.78,16.16
100,93227983,-0.8794,0.4653,0.0698,-26.65,14.63,17.01
101,93232982,-0.8818,0.4678,0.0674,-28.23,15.30,17.87
102,93237982,-0.8789,0.4756,0.0674,-29.94,16.28,18.60
103,93242981,-0.8799,0.4780,0.0605,-32.13,16.95,19.45
104,93247982,-0.8799,0.4805,0.0601,-34.57,17.74,20.24
105,93253458,-0.8745,0.4917,0.0488,-37.80,18.60,21.04
106,93257982,-0.8730,0.4902,0.0435,-40.24,19.21,21.65
107,93262982,-0.8799,0.5005,0.0444,-43.60,20.00,22.56
108,93267983,-0.8857,0.5020,0.0508,-47.20,21.04,23.48
109,93272981,-0.8892,0.5137,0.0435,-50.91,21.95,24.27
110,93277982,-0.8882,0.5103,0.0410,-54.57,22.99,25.18
111,93282982,-0.8887,0.5229,0.0405,-58.41,24.02,26.22
112,93287982,-0.8926,0.5254,0.0317,-61.89,25.06,27.20
113,93292980,-0.8994,0.5347,0.0415,-65.43,26.28,28.35
114,93297984,-0.9043,0.5430,0.0308,-68.84,27.56,29.45
115,93302982,-0.9116,0.5542,0.0298,-72.07,28.96,30.43
116,93307982,-0.9170,0.5615,0.0254,-75.18,30.18,31.40
117,93312981,-0.9277,0.5703,0.0156,-78.29,31.52,32.68
118,93317983,-0.9302,0.5791,0.0044,-81.40,32.80,33.90
119,93323317,-0.9341,0.5903,0.0020,-84.15,34.09,35.06
120,93327982,-0.9346,0.5962,0.0010,-86.65,35.49,36.40
121,93333448,-0.9375,0.5967,-0.0068,-88.78,36.83,37.87
122,93337986,-0.9419,0.6187,-0.0059,-90.67,38.11,39.33
123,93342982,-0.9531,0.6221,-0.0093,-92.32,39.39,40.79
124,93347980,-0.9619,0.6260,-0.0229,-93.41,40.91,42.44
125,93352980,-0.9736,0.6465,-0.0195,-94.33,42.13,44.02
126,93357982,-0.9863,0.6631,-0.0161,-95.12,43.41,45.55
127,93362982,-0.9912,0.6694,-0.0410,-95.85,44.88,47.20
128,93367982,-1.0015,0.6807,-0.0400,-96.59,46.04,48.66
129,93372983,-1.0156,0.6895,-0.0400,-97.20,47.38,50.24
130,93377982,-1.0186,0.7065,-0.0430,-97.56,48.60,51.77
131,93382981,-1.0327,0.7207,-0.0444,-97.80,49.82,53.29
132,93387982,-1.0312,0.7310,-0.0430,-97.68,51.16,54.82
133,93392982,-1.0332,0.7432,-0.0464,-97.38,52.50,56.28
134,93397982,-1.0400,0.7559,-0.0459,-96.77,53.84,57.99
135,93402981,-1.0493,0.7593,-0.0454,-95.91,55.00,59.57
136,93407982,-1.0498,0.7681,-0.0483,-94.70,56.46,61.04
137,93412983,-1.0527,0.7788,-0.0459,-93.35,57.74,62.68
138,93417982,-1.0581,0.7764,-0.0513,-91.52,58.90,64.45
139,93422980,-1.0596,0.7729,-0.0508,-89.63,60.00,66.40
140,93427981,-1.0557,0.7817,-0.0542,-87.44,61.28,68.29
141,93432982,-1.0522,0.7935,-0.0469,-85.06,62.20,70.30
142,93437983,-1.0439,0.7969,-0.0464,-82.56,63.29,72.38
143,93442982,-1.0347,0.7969,-0.0518,-80.12,64.39,74.63
144,93447982,-1.0337,0.7993,-0.0449,-77.56,65.37,76.95
145,93452983,-1.0269,0.7983,-0.0479,-75.30,66.22,79.39
146,93457982,-1.0181,0.7983,-0.0542,-73.17,67.01,81.89
147,93462982,-1.0122,0.8057,-0.0518,-71.10,67.68,84.94
148,93467982,-1.0005,0.8018,-0.0503,-69.33,68.29,86.28
149,93472981,-0.9976,0.8018,-0.0547,-67.62,68.72,88.35
150,93477982,-0.9873,0.8057,-0.0547,-66.34,69.02,91.04
151,93482982,-0.9819,0.8071,-0.0547,-64.76,69.27,93.66
152,93487982,-0.9858,0.8071,-0.0596,-63.41,69.63,96.40
153,93492981,-0.9854,0.8047,-0.0635,-61.95,69.70,99.09
154,93497982,-0.9834,0.7998,-0.0581,-60.61,69.70,101.89
155,93502982,-0.9839,0.7974,-0.0581,-59.33,69.57,104.45
156,93507982,-0.9839,0.7959,-0.0576,-58.23,69.76,107.13
157,93512993,-0.9814,0.7988,-0.0635,-57.13,69.63,109.88
158,93517984,-0.9834,0.7959,-0.0640,-56.40,69.45,112.38
159,93522981,-0.9824,0.7979,-0.0610,-55.85,69.21,115.00
160,93527982,-0.9785,0.7930,-0.0659,-55.24,68.96,117.32
161,93533184,-0.9722,0.7944,-0.0669,-54.63,68.48,120.24
162,93537984,-0.9702,0.7920,-0.0605,-54.15,68.11,122.01
163,93542983,-0.9688,0.7910,-0.0635,-53.48,67.74,124.02
164,93547982,-0.9624,0.7910,-0.0679,-52.68,67.26,126.04
165,93552982,-0.9609,0.7920,-0.0620,-51.65,66.65,127.68
166,93557982,-0.9531,0.7886,-0.0688,-50.30,66.10,129.21
167,93562980,-0.9497,0.7964,-0.0688,-48.41,65.49,130.55
168,93567984,-0.9478,0.7935,-0.0747,-46.59,65.00,131.71
169,93573054,-0.9419,0.7993,-0.0728,-44.09,64.39,132.68
170,93577982,-0.9380,0.7949,-0.0718,-41.40,64.15,133.41
171,93582982,-0.9326,0.8013,-0.0762,-38.17,63.48,133.96
172,93587982,-0.9229,0.8047,-0.0767,-35.00,63.17,134.45
173,93592982,-0.9062,0.7993,-0.0791,-31.40,62.62,134.70
174,93597982,-0.8877,0.7983,-0.0854,-27.44,62.38,135.00
175,93602982,-0.8696,0.7939,-0.0889,-23.48,62.20,135.18
176,93607982,-0.8506,0.7881,-0.0835,-19.27,61.95,135.37
177,93612982,-0.8369,0.7852,-0.0869,-14.88,61.77,135.61
178,93617983,-0.8252,0.7773,-0.0879,-10.30,61.59,135.91
179,93622982,-0.8110,0.7817,-0.0898,-5.73,61.89,136.16
180,93627982,-0.7983,0.7798,-0.0933,-1.16,61.89,136.34
181,93632982,-0.7871,0.7769,-0.0981,3.35,62.20,136.34
182,93637982,-0.7817,0.7773,-0.1021,7.62,62.50,136.40
183,93642983,-0.7822,0.7773,-0.1084,11.59,62.99,136.65
184,93647982,-0.7729,0.7793,-0.1035,15.24,63.35,136.59
185,93652982,-0.7764,0.7881,-0.1089,18.60,63.84,136.52
186,93657982,-0.7686,0.7959,-0.1138,21.40,64.15,136.22
187,93662983,-0.7744,0.8057,-0.1128,23.78,64.76,135.73
188,93667982,-0.7729,0.8174,-0.1304,25.91,65.24,135.12
189,93672980,-0.7690,0.8286,-0.1250,27.62,65.67,134.27
190,93677980,-0.7583,0.8340,-0.1265,28.90,66.34,133.23
191,93682982,-0.7485,0.8398,-0.1304,29.88,66.65,132.38
192,93687982,-0.7397,0.8442,-0.1255,30.37,67.38,131.28
193,93693484,-0.7305,0.8501,-0.1348,30.61,67.93,130.24
194,93697982,-0.7227,0.8511,-0.1436,30.43,68.48,129.33
195,93702982,-0.7153,0.8540,-0.1445,29.94,68.96,128.11
196,93707982,-0.7080,0.8657,-0.1455,28.90,69.57,127.07
197,93712982,-0.7075,0.8706,-0.1460,27.56,69.88,126.04
198,93717982,-0.6982,0.8765,-0.1489,25.98,70.12,125.00
199,93722983,-0.6938,0.8833,-0.1538,24.15,70.43,123.84
200,93727982,-0.6851,0.8887,-0.1479,21.95,70.79,122.74
201,93732982,-0.6890,0.8804,-0.1543,19.39,70.98,121.83
202,93737982,-0.6768,0.8848,-0.1499,16.65,71.16,120.98
203,93742982,-0.6572,0.8882,-0.1548,13.72,71.16,120.18
204,93747982,-0.6416,0.8931,-0.1519,10.85,71.22,119.33
205,93752983,-0.6274,0.8843,-0.1484,7.93,71.34,118.66
206,93757982,-0.6182,0.8799,-0.1475,5.30,71.22,118.17
207,93762982,-0.6084,0.8760,-0.1519,2.87,71.40,117.93
208,93767982,-0.6035,0.8721,-0.1416,0.49,71.40,117.68
209,93772983,-0.5986,0.8599,-0.1411,-1.46,71.52,117.74
210,93777982,-0.5933,0.8506,-0.1333,-3.17,71.59,117.87
211,93782980,-0.5791,0.8442,-0.1304,-4.63,71.71,118.17
212,93787982,-0.5713,0.8364,-0.1235,-5.79,71.59,118.35
213,93792982,-0.5620,0.8325,-0.1196,-6.89,71.65,118.84
214,93797982,-0.5527,0.8281,-0.1191,-7.50,71.40,119.02
215,93802982,-0.5400,0.8276,-0.1128,-7.93,71.28,119.02
216,93807982,-0.5205,0.8232,-0.1123,-8.17,70.98,119.21
217,93812982,-0.5088,0.8154,-0.1074,-8.11,70.73,119.15
218,93817982,-0.4980,0.8149,-0.1108,-7.80,70.37,119.21
219,93822982,-0.4810,0.8115,-0.0967,-7.38,70.12,118.90
220,93827982,-0.4653,0.8086,-0.0933,-6.89,69.82,118.48
221,93832982,-0.4512,0.8062,-0.0933,-6.46,69.27,118.11
222,93837982,-0.4351,0.8032,-0.0918,-5.85,68.84,117.68
223,93842984,-0.4175,0.8032,-0.0830,-5.43,68.41,117.07
224,93847981,-0.4067,0.7959,-0.0801,-5.06,68.11,116.46
225,93852982,-0.3906,0.7852,-0.0752,-4.39,67.50,115.91
226,93857981,-0.3760,0.7778,-0.0605,-3.96,67.20,115.43
227,93862982,-0.3667,0.7725,-0.0566,-3.48,66.77,114.82
228,93867981,-0.3550,0.7651,-0.0493,-2.93,66.40,114.15
229,93872982,-0.3438,0.7549,-0.0435,-2.62,65.98,113.66
230,93877990,-0.3325,0.7505,-0.0366,-2.26,65.43,112.87
231,93882984,-0.3188,0.7412,-0.0327,-2.13,65.12,112.13
232,93887981,-0.3062,0.7344,-0.0254,-2.13,64.63,111.40
233,93892982,-0.2866,0.7280,-0.0146,-2.20,64.33,110.55
234,93897981,-0.2720,0.7207,-0.0156,-2.38,63.78,109.63
235,93902982,-0.2510,0.7129,-0.0083,-2.99,63.23,108.54
236,93907982,-0.2397,0.7075,0.0000,-3.96,62.56,107.44
237,93913399,-0.2241,0.6992,0.0024,-5.12,61.89,105.85
238,93917982,-0.1929,0.7031,0.0835,-6.22,61.46,104.70
239,93922983,-0.1152,0.7700,0.1030,-9.82,60.37,103.23
240,93927982,-0.1255,0.7256,0.1328,-15.00,58.90,101.71
241,93932980,-0.1431,0.7056,0.1758,-20.61,57.38,100.37
242,93937982,0.1108,0.6533,0.2109,-29.51,54.76,98.78
243,93942982,-0.0361,0.7451,0.2759,-39.82,53.05,96.77
244,93947982,-0.2173,0.7729,0.2593,-48.17,50.24,94.94
245,93952982,-0.0342,0.7148,0.1895,-57.01,47.99,93.41
246,93957981,-0.0366,0.7310,0.2041,-65.18,45.12,91.95
247,93962984,-0.0791,0.7324,0.2720,-71.52,42.80,90.61
248,93967981,-0.0586,0.7246,0.2373,-76.46,40.73,89.33
249,93972982,-0.0283,0.7085,0.1978,-80.37,38.48,86.95
250,93977981,-0.0127,0.7012,0.1924,-83.05,36.16,86.65
251,93982982,-0.0078,0.6904,0.1777,-84.57,34.09,86.34
252,93987981,0.0054,0.6787,0.1611,-84.88,32.01,84.33
253,93992984,0.0068,0.6714,0.1357,-84.39,30.00,82.56
254,93997981,0.0112,0.6719,0.1323,-83.05,27.99,81.04
255,94002982,0.0132,0.6724,0.1279,-81.10,26.16,79.39
256,94007981,0.0259,0.6431,0.1323,-78.17,24.51,77.62
257,94012982,0.0630,0.6089,0.1392,-74.33,22.93,75.85
258,94017981,0.0664,0.6187,0.1426,-69.70,21.16,73.96
259,94022982,0.0444,0.6392,0.1353,-65.30,19.82,71.77
260,94027982,0.0420,0.6318,0.1323,-60.85,17.99,69.57
261,94032982,0.0503,0.6265,0.1436,-56.71,16.52,67.50
262,94037981,0.0591,0.6255,0.1582,-52.80,14.70,65.43
263,94042982,0.0679,0.6348,0.1533,-49.39,12.99,63.23
264,94048096,0.0737,0.6411,0.1592,-46.40,11.28,61.10
265,94052983,0.0811,0.6514,0.1685,-43.78,9.33,59.15
266,94057982,0.0854,0.6660,0.1636,-41.16,7.44,56.95
267,94062982,0.0972,0.6880,0.1611,-38.35,5.79,55.06
268,94067982,0.1099,0.7075,0.1494,-35.24,3.90,53.17
269,94072982,0.1270,0.7319,0.1328,-31.95,2.20,51.65
270,94077982,0.1411,0.8247,0.1147,-28.05,0.49,50.18
271,94082982,0.1577,0.8125,0.0923,-23.90,-0.91,48.90
272,94087982,0.1680,0.8091,0.0767,-18.72,-2.32,48.35
273,94092982,0.1650,0.8315,0.0586,-13.41,-3.84,47.68
274,94097983,0.1675,0.8501,0.0439,-7.80,-5.18,47.01
275,94102982,0.1685,0.8867,0.0342,-2.32,-6.28,46.40
276,94107982,0.1621,0.8945,0.0371,2.93,-7.50,45.91
277,94112982,0.1650,0.9038,0.0425,8.17,-8.54,45.91
278,94117983,0.1602,0.9204,0.0347,13.17,-9.76,45.91
279,94122980,0.1567,0.9429,0.0229,17.93,-10.79,45.91
280,94127982,0.1558,0.9438,0.0122,22.32,-11.65,45.85
281,94132982,0.1553,0.9375,0.0044,26.40,-12.68,45.85
282,94137982,0.1543,0.9380,-0.0005,30.37,-13.54,45.79
283,94142981,0.1567,0.9360,-0.0137,33.84,-14.27,45.43
284,94147982,0.1606,0.9360,-0.0254,37.01,-15.00,45.06
285,94152984,0.1768,0.9287,-0.0190,39.82,-15.73,44.57
286,94157981,0.1797,0.9277,-0.0215,42.13,-16.28,44.09
287,94162982,0.1890,0.9307,-0.0176,43.96,-16.95,43.48
288,94167981,0.1982,0.9355,-0.0200,45.55,-17.50,42.62
289,94172984,0.2031,0.9385,-0.0137,46.40,-17.93,41.71
290,94177981,0.2202,0.9438,-0.0161,46.95,-18.48,40.73
291,94182983,0.2329,0.9453,-0.0122,47.01,-19.09,39.70
292,94187981,0.2441,0.9473,-0.0005,46.89,-19.45,38.41
293,94192985,0.2505,0.9536,0.0039,46.52,-19.70,37.26
294,94197981,0.2515,0.9585,0.0103,45.79,-20.12,36.10
295,94202982,0.2490,0.9639,0.0073,44.76,-20.24,34.88
296,94207981,0.2495,0.9678,0.0156,43.66,-20.55,33.96
297,94212982,0.2515,0.9736,0.0132,42.07,-20.73,32.56
298,94217981,0.2573,0.9756,0.0122,41.04,-20.73,31.83
299,94222982,0.2588,0.9731,0.0171,39.70,-20.79,30.85
300,94227981,0.2637,0.9722,0.0054,38.60,-20.61,30.37
301,94232984,0.2583,0.9707,-0.0015,37.50,-20.55,29.88
302,94237981,0.2471,0.9697,0.0015,36.46,-20.30,29.39
303,94242980,0.2393,0.9771,0.0112,35.43,-19.70,29.15
304,94247982,0.2383,0.9688,0.0063,34.21,-19.21,28.78
305,94252981,0.2422,0.9556,-0.0005,33.11,-18.60,28.60
306,94257982,0.2451,0.9473,0.0078,31.83,-17.99,28.48
307,94262982,0.2437,0.9473,0.0210,30.67,-17.01,28.41
308,94267981,0.2471,0.9434,0.0117,29.45,-16.04,28.23
309,94272982,0.2393,0.9355,0.0151,28.05,-15.18,27.93
310,94277981,0.2437,0.9346,0.0352,26.40,-14.02,27.44
311,94282982,0.2505,0.9248,0.0376,24.39,-12.99,27.13
312,94287981,0.2676,0.9233,0.0229,22.26,-12.07,26.59
313,94292980,0.2783,0.9253,0.0234,20.00,-10.85,25.98
314,94297980,0.2998,0.9312,0.0122,17.74,-9.82,25.49
315,94302984,0.3013,0.9355,0.0239,15.85,-8.72,25.06
316,94307981,0.2993,0.9517,0.0615,13.54,-7.38,24.51
317,94312982,0.3164,0.9790,0.0571,11.16,-6.04,24.02
318,94317981,0.3472,0.9917,0.0415,8.60,-4.82,23.60
319,94322984,0.3662,1.0039,0.0542,6.59,-3.78,23.48
320,94327981,0.3867,1.0117,0.0859,4.57,-2.44,22.99
321,94332982,0.3892,1.0215,0.0786,3.41,-1.22,22.80
322,94337981,0.3936,1.0322,0.0542,3.11,0.06,22.74
323,94343185,0.3965,1.0405,0.0513,3.66,1.40,22.56
324,94347982,0.3989,1.0503,0.0625,4.76,2.68,22.50
325,94352981,0.4136,1.0591,0.0459,6.83,4.02,22.44
326,94357983,0.4204,1.0786,0.0151,9.51,5.49,22.26
327,94362982,0.4351,1.0864,0.0132,12.74,6.89,22.07
328,94367982,0.4507,1.0869,-0.0039,16.83,8.11,21.95
329,94372982,0.4810,1.1250,-0.0186,21.95,9.88,21.89
330,94377982,0.5073,1.1235,-0.0532,27.87,11.34,21.77
331,94382984,0.4946,1.0938,-0.0410,34.70,12.93,21.89
332,94387981,0.4897,1.0874,-0.0474,42.32,14.94,22.44
333,94392982,0.4585,1.0918,-0.0713,50.30,16.71,23.17
334,94397981,0.4575,1.0762,-0.0962,58.48,18.54,24.27
335,94402980,0.5581,1.0791,-0.0654,66.46,20.24,25.67
336,94407982,0.5356,1.0776,-0.0483,73.60,22.13,27.07
337,94412982,0.5049,1.0645,-0.0615,79.70,23.60,28.29
338,94417982,0.4956,1.0620,-0.0581,85.06,25.18,29.63
339,94422982,0.5122,1.0708,-0.0688,90.06,26.71,31.04
340,94427982,0.5449,1.0786,-0.0952,94.70,28.23,32.13
341,94432982,0.5767,1.0825,-0.1128,98.48,29.94,33.23
342,94437982,0.6035,1.0854,-0.1216,101.52,31.83,34.45
343,94442983,0.6191,1.0728,-0.1406,103.35,33.60,35.61
344,94447982,0.6074,1.0664,-0.1724,103.90,35.30,36.52
345,94452981,0.5903,1.0493,-0.1973,103.35,37.13,37.50
346,94458039,0.5835,1.0361,-0.2183,101.83,39.15,38.48
347,94462984,0.5884,1.0171,-0.2373,99.39,41.10,39.45
348,94467981,0.5933,1.0005,-0.2554,95.98,42.99,40.30
349,94472982,0.6523,0.9834,-0.2637,92.38,45.00,41.22
350,94477981,0.6211,0.9858,-0.2734,87.99,47.20,42.01
351,94482980,0.6069,0.9785,-0.2812,83.17,49.15,42.68
352,94487983,0.6401,0.9692,-0.2852,78.35,51.10,43.11
353,94492982,0.6680,0.9561,-0.3062,73.54,52.87,43.66
354,94497982,0.6831,0.9644,-0.3223,69.57,54.94,43.90
355,94502982,0.7017,0.9678,-0.3232,66.46,56.95,43.84
356,94507982,0.7222,0.9546,-0.3232,64.45,58.96,43.84
357,94512982,0.7246,0.9673,-0.3408,63.11,61.40,44.02
358,94517982,0.7119,0.9741,-0.3535,62.20,63.84,44.33
359,94523379,0.7080,0.9858,-0.3667,61.89,66.46,44.88
360,94527983,0.6943,0.9902,-0.3755,62.38,68.96,45.43
361,94532981,0.6772,0.9858,-0.3799,63.48,71.71,46.46
362,94537982,0.6523,0.9937,-0.4014,65.12,74.63,47.62
363,94542982,0.6362,0.9937,-0.4067,66.95,77.56,48.78
364,94547982,0.6221,0.9956,-0.4160,69.33,80.43,50.30
365,94552981,0.6113,0.9985,-0.4238,71.52,83.48,51.89
366,94557982,0.6016,1.0020,-0.4360,73.84,85.67,53.48
367,94562982,0.5918,0.9976,-0.4482,76.16,87.99,54.94
368,94567981,0.5864,0.9985,-0.4546,77.87,90.30,56.16
369,94572982,0.5874,0.9971,-0.4609,80.06,93.66,57.87
370,94577981,0.5830,0.9927,-0.4595,81.46,95.67,58.90
371,94582982,0.5698,0.9888,-0.4741,82.62,98.35,60.37
372,94587981,0.5562,0.9868,-0.4834,83.54,101.04,61.59
373,94592984,0.5425,0.9819,-0.4907,84.02,103.48,62.99
374,94597981,0.5308,0.9771,-0.4878,84.33,106.28,64.21
375,94602982,0.5112,0.9644,-0.4810,85.00,108.90,65.61
376,94607981,0.4849,0.9521,-0.4854,85.37,111.77,66.89
377,94612982,0.4692,0.9390,-0.4858,86.04,114.45,67.99
378,94617982,0.4629,0.9297,-0.4873,86.83,117.26,69.21
379,94622982,0.4590,0.9194,-0.4946,87.80,119.94,70.30
380,94627981,0.4590,0.9023,-0.4897,89.21,122.56,71.46
381,94632982,0.4521,0.8862,-0.4932,90.85,125.30,72.38
382,94637981,0.4370,0.8882,-0.4932,92.62,127.80,73.17
383,94642982,0.3774,0.9307,-0.4946,94.82,130.37,73.90
384,94647981,0.2993,1.0308,-0.5161,97.62,132.87,74.33
385,94652982,0.3218,1.0293,-0.5190,101.34,135.37,75.00
386,94657982,0.4551,0.9692,-0.5156,106.40,138.17,76.89
387,94662982,0.5010,0.9292,-0.5137,111.34,141.04,78.72
388,94667982,0.4170,0.8843,-0.5210,115.67,143.54,79.63
389,94672982,0.3594,0.8569,-0.5293,119.33,145.73,80.30
390,94677982,0.4160,0.8569,-0.5288,122.87,148.23,80.49
391,94682982,0.4912,0.8765,-0.5308,126.46,150.67,80.55
392,94688044,0.5146,0.8838,-0.5449,130.00,153.23,80.49
393,94692983,0.5269,0.8931,-0.5352,134.70,155.79,80.61
394,94697982,0.5356,0.8735,-0.5400,137.87,157.99,80.55
395,94702982,0.5571,0.8486,-0.5522,140.73,160.37,80.61
396,94707982,0.5615,0.8252,-0.5620,142.87,162.56,80.49
397,94712983,0.5527,0.8223,-0.5601,144.51,164.88,80.30
398,94717982,0.5518,0.8149,-0.5518,145.55,167.07,80.06
399,94723519,0.5518,0.7988,-0.5645,146.71,169.76,79.76
400,94727982,0.5474,0.8003,-0.5537,147.01,171.34,79.70
401,94732982,0.5371,0.7842,-0.5400,147.32,173.35,79.45
402,94737983,0.5239,0.7822,-0.5298,147.50,175.24,79.15
403,94742982,0.5083,0.7788,-0.5161,147.20,176.95,78.72
404,94747982,0.4917,0.7622,-0.4995,146.83,178.60,78.54
405,94752982,0.4795,0.7739,-0.4697,146.59,180.06,78.23
406,94757982,0.4717,0.7622,-0.4458,146.46,181.59,77.74
407,94762982,0.4521,0.7397,-0.4385,146.28,183.11,77.38
408,94767982,0.4316,0.7500,-0.4111,146.46,184.45,77.07
409,94772982,0.4180,0.7236,-0.3945,146.65,185.85,76.40
410,94777982,0.4009,0.7065,-0.3926,146.89,187.07,75.98
411,94782982,0.3892,0.6909,-0.3770,147.38,188.35,75.30
412,94787982,0.3804,0.6685,-0.3691,147.93,189.51,74.27
413,94793432,0.3691,0.6484,-0.3706,148.66,190.43,73.54
414,94797983,0.3672,0.6333,-0.3721,149.70,191.65,72.38
415,94803079,0.3730,0.6265,-0.3770,150.79,192.50,71.16
416,94807982,0.3813,0.6250,-0.3789,152.26,193.48,69.76
417,94812982,0.3882,0.6260,-0.3838,154.33,194.51,68.41
418,94817983,0.3955,0.6323,-0.3848,156.52,195.12,66.89
419,94822982,0.4009,0.6294,-0.3848,158.96,195.91,65.37
420,94827982,0.4014,0.6230,-0.3794,161.65,196.59,63.72
421,94832982,0.4014,0.6226,-0.3779,164.21,197.13,62.13
422,94838211,0.4097,0.6191,-0.3691,166.95,197.56,60.49
423,94842985,0.4155,0.6128,-0.3662,169.51,197.87,58.90
424,94847986,0.4136,0.6084,-0.3452,171.83,197.93,57.44
425,94852982,0.4170,0.6050,-0.3379,173.96,197.99,55.85
426,94857980,0.4170,0.6060,-0.3198,175.67,198.23,54.45
427,94862981,0.4238,0.6113,-0.3052,176.95,198.05,52.99
428,94867982,0.4409,0.6196,-0.2915,177.93,197.80,51.34
429,94872982,0.4639,0.6357,-0.2754,178.78,197.74,49.70
430,94877981,0.4854,0.6440,-0.2642,179.45,197.20,48.11
431,94882982,0.5068,0.6631,-0.2554,180.24,196.77,46.52
432,94887981,0.5259,0.6670,-0.2510,180.91,195.91,45.00
433,94892982,0.5288,0.6782,-0.2485,181.65,195.00,43.54
434,94897981,0.5386,0.6865,-0.2358,182.13,193.72,42.20
435,94902982,0.5562,0.6963,-0.2324,182.50,192.56,41.04
436,94907981,0.5635,0.6992,-0.2266,182.87,191.28,40.00
437,94913208,0.5747,0.6992,-0.2129,182.80,189.57,39.09
438,94917996,0.5781,0.6963,-0.1973,182.32,187.93,38.29
439,94922982,0.5938,0.6982,-0.1812,181.46,186.10,37.74
440,94927982,0.6118,0.7041,-0.1870,180.43,184.21,37.20
441,94932983,0.7124,0.7471,-0.1958,179.88,181.77,36.46
442,94937982,0.7339,0.6890,-0.1616,180.61,179.02,35.37
443,94943372,0.7500,0.6831,-0.2251,183.05,175.24,35.12
444,94947982,0.6978,0.6860,-0.0820,185.73,172.38,35.49
445,94952982,0.6367,0.7109,0.0049,189.82,169.82,36.34
446,94957982,0.6167,0.7241,-0.0049,192.56,168.84,36.77
447,94962981,0.6221,0.7544,-0.0122,196.22,167.20,36.71
448,94967982,0.6338,0.7593,-0.0010,200.55,165.24,36.22
449,94972982,0.6587,0.7578,0.0186,203.11,164.02,35.85
450,94977984,0.6953,0.7314,-0.0010,205.98,162.01,35.73
451,94982982,0.7119,0.7153,0.0200,207.99,159.94,35.79
452,94987981,0.7178,0.6914,0.0454,209.02,158.05,35.85
453,94992984,0.7212,0.6851,0.0474,209.33,155.98,36.46
454,94997982,0.7344,0.7012,0.0396,208.96,153.60,36.83
455,95002982,0.7544,0.7114,0.0527,207.68,151.52,37.20
456,95007981,0.7451,0.7192,0.0791,206.04,149.27,37.38
457,95012982,0.7515,0.7290,0.0796,203.96,147.20,37.74
458,95017981,0.7520,0.7261,0.0698,201.34,144.94,38.11
459,95022982,0.7524,0.7261,0.0923,198.35,142.80,38.41
460,95027981,0.7646,0.7363,0.1123,194.76,140.49,38.54
461,95033337,0.7788,0.7339,0.1255,190.24,137.93,38.90
462,95037982,0.7856,0.7334,0.1196,186.65,136.16,39.09
463,95042983,0.7852,0.7222,0.1362,181.95,134.02,39.45
464,95047982,0.7827,0.7192,0.1431,177.32,131.89,39.88
465,95052981,0.7822,0.7129,0.1426,172.32,129.76,40.43
466,95057982,0.7856,0.7090,0.1514,167.26,127.56,40.61
467,95062981,0.7910,0.7090,0.1719,162.07,125.61,40.91
468,95068004,0.7959,0.7046,0.1729,157.07,123.60,41.10
469,95072981,0.8423,0.6978,0.1616,152.32,121.59,41.22
470,95077982,0.8003,0.6992,0.1787,147.87,119.27,41.34
471,95082983,0.7695,0.6895,0.1641,144.09,117.07,41.40
472,95087982,0.7529,0.6836,0.1675,141.16,114.94,41.71
473,95092981,0.7280,0.6831,0.1934,138.78,113.05,41.83
474,95097982,0.7026,0.6821,0.2017,137.01,111.40,41.95
475,95102983,0.6851,0.6787,0.2021,135.61,109.70,42.20
476,95107982,0.6685,0.6733,0.2046,134.76,108.05,42.32
477,95112980,0.6577,0.6680,0.2192,133.66,106.52,42.32
478,95117984,0.6489,0.6646,0.2280,132.56,105.06,42.38
479,95122982,0.6387,0.6538,0.2334,131.95,103.90,42.20
480,95127981,0.6313,0.6499,0.2388,130.18,102.80,41.95
481,95132982,0.6196,0.6411,0.2441,130.61,101.65,41.83
482,95137981,0.6050,0.6382,0.2417,129.21,100.55,41.34
483,95142982,0.5942,0.6235,0.2412,129.02,99.33,41.04
484,95147981,0.5840,0.6182,0.2490,129.09,98.60,40.49
485,95152984,0.5688,0.6055,0.2524,129.09,97.80,40.00
486,95157981,0.5547,0.5947,0.2603,129.09,96.83,39.45
487,95162982,0.5386,0.5903,0.2778,129.09,96.40,38.84
488,95167981,0.5190,0.5801,0.2812,129.15,95.85,38.17
489,95173375,0.5103,0.5698,0.2837,129.15,95.61,37.56
490,95177983,0.5024,0.5601,0.2935,129.21,95.49,36.83
491,95182982,0.4849,0.5518,0.2998,129.27,95.43,36.16
492,95187981,0.4775,0.5479,0.2988,129.27,95.43,35.18
493,95192982,0.4712,0.5508,0.2959,129.33,95.30,34.45
494,95197983,0.4658,0.5190,0.3003,129.15,95.24,33.35
495,95202982,0.4897,0.4980,0.3071,129.21,95.24,32.62
496,95207982,0.4819,0.5317,0.2920,129.27,95.00,31.77
497,95212981,0.4385,0.5322,0.3062,129.39,94.76,30.73
498,95217980,0.4380,0.5278,0.3096,131.40,94.45,29.57
499,95222982,0.4331,0.5200,0.3232,133.23,94.33,28.41
500,95227981,0.4336,0.5044,0.3335,135.12,94.21,27.20
501,95232982,0.4248,0.4932,0.3525,137.07,94.02,26.10
502,95237980,0.4131,0.4858,0.3599,139.33,94.15,24.88
503,95242984,0.4077,0.4795,0.3730,141.83,93.96,23.60
504,95247981,0.3989,0.4814,0.3877,144.39,94.27,22.32
505,95253153,0.3931,0.4995,0.3828,147.07,94.51,20.91
506,95257982,0.4028,0.4443,0.4067,149.33,94.82,19.51
507,95262982,0.4209,0.4282,0.3857,151.77,95.24,18.35
508,95267982,0.4141,0.4331,0.3535,154.51,95.06,17.13
509,95272981,0.4028,0.4209,0.3472,157.99,94.63,15.85
510,95277980,0.3975,0.4390,0.3516,162.13,93.90,14.70
511,95282982,0.3823,0.4404,0.3682,166.40,92.99,13.35
512,95287980,0.3667,0.4438,0.3823,170.98,92.01,12.32
513,95292982,0.3374,0.4595,0.4019,175.73,90.61,11.46
514,95297981,0.3052,0.4805,0.4116,180.79,89.51,10.61
515,95302984,0.2759,0.5044,0.4263,185.49,88.72,9.51
516,95307981,0.2627,0.5156,0.4355,189.02,86.46,8.54
517,95312980,0.2588,0.5254,0.4551,192.99,87.26,7.07
518,95317980,0.2695,0.5347,0.4575,196.34,85.73,5.43
519,95322982,0.2983,0.5337,0.4634,199.51,85.30,3.11
520,95327982,0.3242,0.5288,0.4697,201.22,84.94,1.52
521,95332982,0.3584,0.5225,0.4805,203.05,83.23,-0.43
522,95337981,0.3931,0.5234,0.4697,204.51,81.52,-2.38
523,95342984,0.4116,0.5522,0.4302,205.79,79.82,-4.88
524,95347981,0.4346,0.5591,0.4399,207.01,77.80,-7.87
525,95353055,0.4604,0.5576,0.4380,208.05,75.67,-10.79
526,95357981,0.4761,0.5449,0.4409,209.15,73.90,-13.78
527,95362982,0.4932,0.5425,0.4248,210.49,72.07,-16.46
528,95367981,0.5073,0.5493,0.3994,211.95,70.00,-19.09
529,95372981,0.5254,0.5615,0.3838,213.72,67.56,-21.89
530,95377982,0.5508,0.5610,0.3696,215.55,64.88,-24.82
531,95382982,0.5801,0.5596,0.3604,217.26,61.83,-27.62
532,95387981,0.6050,0.5576,0.3726,218.84,58.84,-30.37
533,95392982,0.6143,0.5566,0.3760,220.43,55.85,-33.29
534,95397981,0.6279,0.5552,0.3730,221.83,52.68,-36.28
535,95402984,0.6455,0.5566,0.3716,223.05,49.63,-39.27
536,95407981,0.6636,0.5591,0.3740,224.27,46.59,-42.13
537,95412980,0.6782,0.5562,0.3765,225.37,43.78,-45.00
538,95417980,0.6841,0.5581,0.3672,226.22,41.04,-47.74
539,95422982,0.6909,0.5640,0.3623,226.71,38.48,-50.43
540,95427982,0.7002,0.5747,0.3569,226.89,36.10,-52.99
541,95432980,0.6914,0.5796,0.3530,226.28,33.84,-55.55
542,95437982,0.6724,0.5952,0.3506,225.18,31.65,-57.99
543,95442981,0.6494,0.6016,0.3369,223.11,29.57,-60.43
544,95447984,0.6313,0.6089,0.3335,220.49,27.50,-62.74
545,95452982,0.6187,0.6182,0.3115,217.44,25.43,-64.94
546,95457982,0.6118,0.6372,0.2896,213.84,23.41,-67.32
547,95462982,0.5977,0.6484,0.2739,209.94,21.46,-69.51
548,95467981,0.5850,0.6689,0.2563,205.79,19.45,-71.89
549,95472981,0.5693,0.6890,0.2300,200.73,17.26,-74.63
550,95477982,0.5591,0.7065,0.2148,197.32,15.85,-76.52
551,95482982,0.5542,0.7271,0.1924,193.29,13.96,-79.02
552,95487982,0.5483,0.7393,0.1782,189.39,12.20,-81.52
553,95492981,0.5298,0.7544,0.1699,185.43,10.55,-84.02
554,95497982,0.5146,0.7705,0.1465,181.52,8.96,-86.65
555,95502982,0.5024,0.7876,0.1318,177.87,7.50,-89.27
556,95507982,0.4805,0.8042,0.1162,174.63,6.10,-91.89
557,95512981,0.4614,0.8213,0.0923,171.52,4.45,-94.39
558,95517982,0.4404,0.8369,0.0649,168.78,3.05,-97.01
559,95522982,0.4058,0.8540,0.0415,166.40,1.40,-99.33
560,95527982,0.3818,0.8643,0.0195,164.45,-0.12,-101.71
561,95532982,0.3521,0.8755,0.0044,162.80,-1.83,-103.90
562,95537982,0.3384,0.8955,-0.0063,161.59,-3.29,-105.91
563,95542981,0.3086,0.9028,-0.0396,160.61,-5.00,-107.87
564,95547982,0.2837,0.9165,-0.0576,160.12,-6.40,-109.70
565,95552982,0.2456,0.9175,-0.0776,159.88,-8.05,-111.59
566,95557982,0.1694,0.9204,-0.1387,159.39,-9.94,-113.29
567,95562983,0.1758,0.8921,-0.1250,158.05,-11.59,-114.94
568,95567982,0.2202,0.8804,-0.1040,156.28,-12.93,-116.34
569,95572982,0.1978,0.8877,-0.1221,154.76,-14.27,-117.99
570,95577982,0.1367,0.8994,-0.1411,153.78,-15.49,-119.76
571,95582980,0.0791,0.8950,-0.1494,153.17,-16.89,-121.46
572,95587984,0.0591,0.8950,-0.1572,153.35,-18.11,-123.48
573,95592982,0.0400,0.8872,-0.1680,153.90,-19.45,-125.24
574,95597981,0.0278,0.9067,-0.1885,155.24,-20.55,-126.89
575,95603214,0.0078,0.9243,-0.1938,157.74,-21.83,-128.72
576,95607982,-0.0254,0.9561,-0.2246,160.98,-23.29,-130.43
577,95612982,-0.0459,0.9727,-0.2378,165.43,-24.57,-132.07
578,95617982,-0.0356,0.9902,-0.2461,170.55,-26.10,-133.41
579,95622981,-0.0518,1.0005,-0.2754,176.59,-27.62,-134.76
580,95627982,-0.0967,1.0059,-0.2988,183.66,-29.15,-135.79
581,95632983,-0.1147,1.0054,-0.3208,190.91,-31.16,-136.89
582,95637982,-0.0977,1.0059,-0.3345,198.60,-32.93,-137.74
583,95642981,-0.0796,0.9961,-0.3223,205.61,-34.88,-138.54
584,95647982,-0.0806,0.9717,-0.3135,211.52,-36.83,-139.15
585,95652982,-0.0850,0.9785,-0.3384,216.22,-38.60,-139.63
586,95657982,-0.0928,0.9741,-0.3315,219.76,-40.49,-140.12
587,95663133,-0.1045,0.9585,-0.3350,222.01,-42.20,-140.37
588,95667982,-0.1226,0.9536,-0.3589,222.38,-43.84,-140.43
589,95672982,-0.1523,0.9609,-0.3511,221.22,-45.37,-140.49
590,95677982,-0.1694,0.9521,-0.3638,218.48,-46.59,-140.37
591,95682982,-0.1831,0.9585,-0.4194,214.15,-47.93,-139.82
592,95687983,-0.2021,0.9702,-0.4341,208.54,-49.21,-139.33
593,95692981,-0.2217,0.9976,-0.4502,202.87,-49.88,-138.90
594,95697982,-0.2456,1.0024,-0.5073,195.00,-50.91,-138.05
595,95702982,-0.2739,1.0142,-0.5186,186.46,-51.83,-136.83
596,95707982,-0.2993,1.0542,-0.5327,177.62,-52.07,-135.55
597,95712981,-0.3359,1.0747,-0.5483,168.35,-52.07,-133.90
598,95717982,-0.3613,1.0781,-0.5703,158.72,-51.95,-132.38
599,95722982,-0.3760,1.0884,-0.5840,147.80,-51.52,-130.55
600,95727982,-0.3906,1.0967,-0.5586,136.04,-50.73,-128.35
601,95732984,-0.4043,1.1104,-0.5483,124.39,-49.63,-126.28
602,95737981,-0.4238,1.1206,-0.5542,111.16,-48.17,-124.15
603,95742980,-0.4390,1.1372,-0.5435,97.80,-46.71,-121.83
604,95747982,-0.4619,1.1582,-0.5347,84.45,-45.00,-119.39
605,95752982,-0.4971,1.1753,-0.5352,71.65,-43.48,-116.59
606,95757982,-0.5322,1.1909,-0.5220,59.27,-42.26,-113.72
607,95762980,-0.5664,1.2051,-0.4902,47.74,-40.91,-110.30
608,95767984,-0.5801,1.2163,-0.4653,37.20,-40.00,-106.77
609,95772982,-0.6006,1.2329,-0.4175,28.23,-39.33,-102.87
610,95777981,-0.6094,1.2354,-0.3516,20.18,-38.72,-98.90
611,95782981,-0.6313,1.2490,-0.2651,11.71,-38.48,-94.63
612,95787982,-0.6855,1.2646,-0.2681,1.77,-38.72,-90.43
613,95792984,-0.7686,1.2749,-0.2212,-8.05,-39.39,-86.22
614,95797981,-0.8037,1.2803,-0.2158,-16.71,-40.67,-82.01
615,95802982,-0.7812,1.2959,-0.1909,-21.95,-42.87,-77.74
616,95807981,-0.7646,1.2905,-0.1245,-24.09,-45.61,-73.48
617,95812982,-0.7729,1.3052,-0.0703,-23.11,-48.72,-69.02
618,95817981,-0.8032,1.3037,-0.0283,-19.51,-52.56,-64.76
619,95822980,-0.8394,1.2832,-0.0024,-13.60,-56.83,-60.18
620,95828053,-0.8711,1.2808,0.0254,-5.61,-62.38,-55.12
621,95832982,-0.8872,1.2734,0.0820,4.02,-68.54,-50.06
622,95837981,-0.8999,1.2622,0.1172,14.82,-75.43,-44.63
623,95842982,-0.9155,1.2490,0.1450,26.59,-82.80,-39.15
624,95847981,-0.9272,1.2334,0.1729,39.15,-90.91,-33.41
625,95853329,-0.9233,1.2217,0.2041,52.20,-99.63,-27.44
626,95857982,-0.9224,1.2080,0.2339,65.67,-108.78,-21.16
627,95862982,-0.9189,1.1860,0.2690,79.09,-117.93,-14.63
628,95867982,-0.9380,1.1704,0.2847,91.65,-127.50,-7.80
629,95872981,-0.9565,1.1533,0.3032,102.99,-137.26,-0.73
630,95877982,-0.9814,1.1338,0.3271,112.62,-147.20,6.77
631,95883224,-1.0000,1.1147,0.3345,120.18,-157.20,14.51
632,95887982,-1.0107,1.0981,0.3369,126.16,-167.32,22.56
633,95892984,-1.0352,1.0825,0.3320,128.96,-177.50,30.55
634,95897981,-1.0552,1.0591,0.3193,130.85,-187.68,38.78
635,95903057,-1.0869,1.0400,0.3071,132.80,-197.87,47.13
636,95907982,-1.1177,1.0181,0.2998,132.99,-207.80,55.55
637,95912982,-1.1460,0.9912,0.2861,132.50,-217.68,64.15
638,95917982,-1.1787,0.9639,0.2593,131.71,-227.44,72.74
639,95922981,-1.2119,0.9395,0.2432,129.09,-237.07,81.28
640,95927982,-1.2559,0.9160,0.2134,128.72,-246.40,89.63
641,95932982,-1.3066,0.8950,0.1895,126.34,-255.73,98.60
642,95937982,-1.3638,0.8706,0.1606,124.09,-264.70,107.32
643,95942981,-1.4326,0.8486,0.1411,121.46,-273.29,116.16
644,95947982,-1.5039,0.8232,0.1113,118.54,-282.26,125.00
645,95952982,-1.5728,0.7959,0.0942,115.55,-291.04,133.54
646,95957982,-1.6343,0.7729,0.0718,112.32,-299.63,142.07
647,95962981,-1.7163,0.7510,0.0479,109.27,-308.17,150.55
648,95967982,-1.7930,0.7300,0.0303,106.16,-316.65,158.90
649,95972983,-1.8740,0.7100,0.0137,103.48,-325.06,167.26
650,95977982,-1.9556,0.6885,-0.0244,101.04,-333.54,175.30
651,95982981,-2.0361,0.6729,-0.0576,99.15,-342.20,183.35
652,95987982,-2.1138,0.6660,-0.0952,97.87,-350.67,191.22
653,95993382,-2.1948,0.6567,-0.1382,97.32,-359.57,198.84
654,95997983,-2.2715,0.6543,-0.1753,97.56,-368.17,206.28
655,96002981,-2.3491,0.6509,-0.2129,98.66,-377.07,213.78
656,96007981,-2.4292,0.6504,-0.2427,100.06,-385.49,220.98
657,96012982,-2.5186,0.6489,-0.2715,101.59,-393.72,228.11
658,96017981,-2.6055,0.6436,-0.3018,102.50,-402.26,235.18
659,96022982,-2.6816,0.6514,-0.3354,102.87,-410.37,242.32
660,96027980,-2.7598,0.6611,-0.3740,102.38,-418.41,249.33
661,96032980,-2.8438,0.6724,-0.4243,100.91,-426.59,256.34
662,96037982,-2.9199,0.6851,-0.4590,98.90,-434.70,263.23
663,96042982,-3.0132,0.6963,-0.4844,96.10,-442.62,270.30
664,96047981,-3.0977,0.7104,-0.5020,93.05,-450.49,277.13
665,96052982,-3.1812,0.7144,-0.5249,89.15,-457.68,283.84
666,96057980,-3.1938,0.7422,-0.4619,86.10,-464.15,290.49
667,96062984,-3.3174,0.7842,-0.5737,82.38,-470.49,296.22
668,96067981,-3.5381,0.7495,-0.5439,76.22,-476.89,301.83
669,96072980,-3.6538,0.7690,-0.5474,68.90,-483.05,307.87
670,96077982,-3.7168,0.7935,-0.5708,61.04,-488.96,313.41
671,96083251,-3.7500,0.8354,-0.5581,53.35,-494.82,318.60
672,96088006,-3.8687,0.8735,-0.5791,45.18,-500.00,322.80
673,96092982,-3.9741,0.8994,-0.6533,37.74,-504.33,325.79
674,96097982,-4.0977,0.9424,-0.6875,27.74,-509.63,328.96
675,96102981,-4.1318,0.9839,-0.7310,17.44,-515.00,331.52
676,96107982,-4.1768,1.0688,-0.7998,7.87,-520.18,333.17
677,96112982,-4.3110,1.1309,-0.8467,-2.56,-525.85,334.21
678,96117983,-4.3901,1.1514,-0.8857,-8.48,-529.33,334.57
679,96122983,-4.5083,1.2773,-0.9297,-14.57,-533.23,334.33
680,96127982,-4.6074,1.3081,-0.9712,-20.49,-536.77,333.48
681,96132982,-4.6504,1.3931,-0.9390,-25.61,-539.39,332.26
682,96137982,-4.8438,1.3911,-1.0947,-31.95,-541.83,330.79
683,96142981,-4.9351,1.4478,-1.1147,-39.51,-544.94,329.45
684,96148012,-4.8906,1.5024,-1.1040,-46.95,-547.50,327.93
685,96152983,-4.8672,1.5474,-1.0938,-52.93,-549.51,326.10
686,96157983,-4.8945,1.5835,-1.1079,-56.89,-550.30,324.15
687,96162982,-4.8794,1.5879,-1.1196,-58.90,-550.37,322.50
688,96167980,-4.9053,1.6572,-1.1709,-59.21,-549.76,320.73
689,96172982,-4.8740,1.7012,-1.2012,-57.01,-548.41,319.09
690,96177982,-4.8687,1.7222,-1.2114,-52.50,-546.28,317.38
691,96182982,-4.8228,1.7158,-1.2803,-48.23,-543.84,316.16
692,96187981,-4.7896,1.7417,-1.3203,-43.90,-540.43,315.67
693,96192981,-4.7539,1.7778,-1.3760,-37.80,-535.67,315.79
694,96197982,-4.6982,1.8130,-1.4517,-30.55,-530.06,316.52
695,96202983,-4.6411,1.8359,-1.5288,-22.74,-523.66,318.11
696,96207983,-4.5537,1.8506,-1.5557,-14.63,-515.85,320.49
697,96212983,-4.4644,1.8623,-1.5991,-7.26,-507.07,323.78
698,96217982,-4.4116,1.8447,-1.6338,-1.16,-497.20,328.05
699,96222982,-4.3198,1.8662,-1.6665,4.33,-485.85,332.99
700,96227982,-4.2402,1.8799,-1.6987,8.41,-473.48,338.84
701,96232982,-4.1372,1.8730,-1.7559,10.55,-460.43,345.06
702,96237983,-4.0493,1.9282,-1.8110,11.04,-446.71,351.83
703,96242982,-4.0254,1.9429,-1.8799,10.55,-432.56,358.54
704,96247982,-3.9272,1.9629,-1.9517,7.74,-418.60,365.73
705,96252980,-3.8408,1.9971,-2.0078,2.01,-404.39,372.87
706,96257982,-3.7324,2.0200,-2.0376,-5.61,-390.12,380.18
707,96262982,-3.6528,2.0381,-2.1177,-15.67,-375.91,387.38
708,96267983,-3.6016,2.0488,-2.1572,-28.41,-362.32,394.63
709,96272982,-3.5615,2.0679,-2.1992,-42.38,-348.90,401.89
710,96277982,-3.4614,2.1089,-2.2681,-56.95,-336.22,409.09
711,96282982,-3.3760,2.1270,-2.3203,-72.99,-323.66,416.16
712,96287980,-3.3105,2.1206,-2.3135,-89.88,-311.95,423.17
713,96292982,-3.2544,2.1274,-2.3467,-106.59,-300.98,429.94
714,96297982,-3.2017,2.1548,-2.3892,-123.05,-290.37,436.89
715,96302982,-3.1553,2.1592,-2.3896,-138.54,-280.37,443.66
716,96307982,-3.1011,2.1494,-2.3779,-151.65,-271.28,450.79
717,96312981,-3.0430,2.1562,-2.4004,-162.26,-263.05,457.56
718,96317982,-2.9971,2.1719,-2.4155,-170.18,-255.06,464.70
719,96322981,-2.9707,2.1631,-2.4121,-174.76,-247.87,472.07
720,96327982,-2.9424,2.1606,-2.4106,-175.67,-241.28,479.76
721,96332981,-2.9067,2.1504,-2.4146,-172.74,-235.37,487.56
722,96337980,-2.8848,2.1348,-2.4233,-167.87,-229.33,495.98
723,96342983,-2.8735,2.1050,-2.4248,-161.65,-223.60,504.51
724,96347982,-2.8584,2.0596,-2.4106,-153.72,-217.93,513.60
725,96352982,-2.8442,2.0107,-2.3896,-145.43,-212.32,522.68
726,96357982,-2.8486,1.9590,-2.3809,-137.56,-207.01,532.07
727,96362982,-2.8438,1.9043,-2.3569,-130.12,-201.77,541.16
728,96367982,-2.8560,1.8384,-2.3306,-123.23,-196.16,550.06
729,96372982,-2.8501,1.7729,-2.3335,-116.65,-190.67,558.96
730,96377982,-2.8433,1.7056,-2.3247,-110.12,-185.18,567.74
731,96382982,-2.8706,1.6294,-2.2910,-103.90,-179.39,576.40
732,96387982,-2.8838,1.5435,-2.2695,-98.17,-173.41,584.70
733,96392982,-2.8960,1.4585,-2.2549,-93.72,-167.32,592.68
734,96397981,-2.9038,1.3716,-2.2383,-90.30,-160.91,600.24
735,96402982,-2.9067,1.2896,-2.2158,-86.83,-154.33,606.95
736,96407984,-2.9033,1.1982,-2.1787,-83.05,-147.38,613.48
737,96412981,-2.9131,1.1167,-2.1509,-80.12,-140.30,619.33
738,96417980,-2.9033,1.0029,-2.1089,-78.66,-133.23,624.51
739,96422982,-2.9082,0.9229,-2.0952,-76.65,-125.61,629.51
740,96428228,-2.9609,0.8589,-2.0566,-73.90,-117.44,633.90
741,96432982,-2.9556,0.7720,-2.0283,-71.28,-108.72,637.93
742,96437980,-2.9121,0.6787,-1.9849,-68.05,-99.70,641.65
743,96442980,-2.9116,0.5820,-1.9644,-63.84,-90.24,645.06
744,96447982,-2.9424,0.4814,-1.9238,-58.66,-80.30,648.29
745,96452982,-2.9458,0.3706,-1.8882,-52.07,-70.00,651.65
746,96457982,-2.9551,0.2681,-1.8599,-44.09,-58.72,655.06
747,96462982,-2.9683,0.1646,-1.8354,-35.61,-46.95,658.41
748,96467980,-2.9658,0.0854,-1.8037,-28.90,-37.50,660.55
749,96472983,-2.9565,-0.0420,-1.7603,-19.33,-22.93,663.11
750,96477982,-2.9380,-0.1157,-1.7192,-13.90,-13.17,663.90
751,96482982,-2.8906,-0.2051,-1.6787,-7.62,-0.55,663.78
752,96487980,-2.8901,-0.3145,-1.6753,-2.50,11.95,662.20
753,96492983,-2.8657,-0.4014,-1.6704,0.73,24.27,658.54
754,96497982,-2.8735,-0.5229,-1.6260,2.26,36.10,653.23
755,96502981,-2.8398,-0.6772,-1.6113,3.05,47.44,646.28
756,96507984,-2.7944,-0.7866,-1.5967,4.27,58.17,637.99
757,96512981,-2.7192,-0.9155,-1.5542,6.34,68.48,627.93
758,96517982,-2.6211,-1.0459,-1.4966,9.27,79.15,616.40
759,96522981,-2.5557,-1.1699,-1.4595,13.29,89.02,603.48
760,96527982,-2.4922,-1.2822,-1.4048,17.68,99.82,589.15
761,96532981,-2.4424,-1.3955,-1.3398,22.01,110.24,573.84
762,96537982,-2.3696,-1.5146,-1.2920,25.55,120.37,557.44
763,96542981,-2.3022,-1.6406,-1.2354,28.35,130.30,539.88
764,96547980,-2.2271,-1.7500,-1.1699,29.94,139.76,521.52
765,96552984,-2.1753,-1.8579,-1.0825,28.78,158.54,502.56
766,96557982,-2.1211,-1.9419,-1.0757,27.68,156.89,482.93
767,96562982,-2.0889,-2.0205,-1.0059,25.30,163.78,462.93
768,96567980,-2.0889,-2.0850,-0.9243,22.68,170.30,443.11
769,96572982,-2.0645,-2.1416,-0.8696,20.61,176.40,423.11
770,96577982,-2.0322,-2.1812,-0.8247,19.27,181.46,403.23
771,96582981,-1.9878,-2.2095,-0.7534,18.60,185.73,383.35
772,96587982,-1.9321,-2.2231,-0.6797,18.84,189.27,363.35
773,96592981,-1.8882,-2.2402,-0.6118,19.15,191.83,343.35
774,96597980,-1.8789,-2.2178,-0.4951,18.17,194.27,323.41
775,96603508,-1.7910,-2.2700,-0.4971,12.93,195.98,299.82
776,96608296,-1.7988,-2.2383,-0.4326,9.02,195.91,284.27
777,96612983,-1.7705,-2.2246,-0.3242,5.06,195.67,264.63
778,96617982,-1.7314,-2.2100,-0.2900,2.50,195.18,245.67
779,96622982,-1.7222,-2.1890,-0.2393,0.67,194.02,227.01
780,96628009,-1.6787,-2.1670,-0.1807,-0.55,192.26,209.02
781,96632982,-1.6284,-2.1465,-0.1450,-0.98,190.06,191.71
782,96638402,-1.5981,-2.1221,-0.1021,-0.98,187.07,175.06
783,96642982,-1.5566,-2.0952,-0.0537,-0.73,183.90,159.09
784,96647980,-1.5366,-2.0371,-0.0117,-0.43,180.30,143.60
785,96652982,-1.4448,-2.0322,0.0776,-1.34,176.22,128.60
786,96657984,-1.4282,-1.9824,0.0215,-2.50,171.65,114.45
787,96662981,-1.3750,-1.9155,0.0483,-1.95,166.59,100.67
788,96667982,-1.3223,-1.8770,0.1348,-0.98,161.46,87.01
789,96672981,-1.2705,-1.8306,0.1470,0.98,156.46,75.00
790,96677982,-1.2314,-1.7759,0.1440,3.11,150.98,62.93
791,96682981,-1.1709,-1.7202,0.1782,5.06,145.49,51.22
792,96687982,-1.1235,-1.6875,0.1870,6.34,139.94,40.18
793,96692981,-1.0688,-1.6299,0.1909,6.52,134.21,29.70
794,96697982,-1.0200,-1.5708,0.2007,6.34,128.72,19.51
795,96702981,-0.9883,-1.5293,0.2095,5.30,122.87,9.76
796,96707982,-0.9521,-1.4751,0.2158,4.63,117.07,0.30
797,96712981,-0.9312,-1.4458,0.2192,3.96,111.28,-9.02
798,96717982,-0.8945,-1.4072,0.2197,3.90,105.43,-17.74
799,96722981,-0.8560,-1.3687,0.2324,4.76,99.63,-26.34
800,96727982,-0.8018,-1.3301,0.2373,6.34,93.72,-34.45
801,96732981,-0.7505,-1.2993,0.2456,8.05,87.38,-42.44
802,96737982,-0.7212,-1.2739,0.2520,10.12,82.32,-50.12
803,96742981,-0.6841,-1.2573,0.2793,12.26,76.04,-57.38
804,96747980,-0.6636,-1.2314,0.2866,14.88,70.37,-64.33
805,96752982,-0.6284,-1.2183,0.2910,17.62,64.70,-70.98
806,96757984,-0.6030,-1.2104,0.2925,20.06,58.78,-77.32
807,96762981,-0.5796,-1.1982,0.3066,21.89,52.93,-83.17
808,96767982,-0.5625,-1.1792,0.3110,23.66,47.01,-88.84
809,96772981,-0.5479,-1.1738,0.3164,25.06,41.34,-94.02
810,96777982,-0.5293,-1.1670,0.3320,26.10,35.55,-98.78
811,96782981,-0.5063,-1.1616,0.3389,26.71,29.76,-103.48
812,96787982,-0.4854,-1.1519,0.3359,27.38,23.96,-107.87
813,96792981,-0.4634,-1.1426,0.3472,28.17,18.35,-112.01
814,96797980,-0.4492,-1.1392,0.3501,29.15,12.93,-115.73
815,96802982,-0.4409,-1.1362,0.3511,30.49,7.44,-119.21
816,96807981,-0.4277,-1.1343,0.3569,32.13,2.32,-122.38
817,96812982,-0.4141,-1.1367,0.3516,34.02,-2.99,-125.18
818,96817983,-0.4038,-1.1372,0.3511,36.16,-7.87,-127.74
819,96822982,-0.3911,-1.1387,0.3501,38.48,-12.56,-130.24
820,96828523,-0.3779,-1.1367,0.3516,41.10,-17.26,-132.62
821,96832982,-0.3530,-1.1328,0.3511,43.60,-21.59,-134.82
822,96837982,-0.3398,-1.1348,0.3472,45.91,-25.67,-136.95
823,96842982,-0.3164,-1.1323,0.3418,48.11,-29.63,-138.96
824,96848191,-0.2964,-1.1328,0.3364,50.00,-33.35,-140.67
825,96852982,-0.2842,-1.1323,0.3237,51.40,-37.01,-142.26
826,96857982,-0.2661,-1.1304,0.3213,52.44,-39.70,-143.54
827,96862982,-0.2485,-1.1255,0.3179,53.66,-43.05,-145.06
828,96867981,-0.2212,-1.1299,0.3057,54.94,-46.04,-146.52
829,96872982,-0.1943,-1.1294,0.2998,56.52,-49.09,-147.80
830,96877983,-0.1724,-1.1230,0.2852,58.23,-51.65,-149.09
831,96882982,-0.1460,-1.1147,0.2749,60.12,-54.27,-150.24
832,96887980,-0.1309,-1.1069,0.2603,62.13,-56.59,-151.46
833,96892982,-0.1196,-1.0879,0.2441,64.39,-58.72,-152.50
834,96897985,-0.1099,-1.0654,0.2236,67.01,-61.22,-153.72
835,96902982,-0.0967,-1.0557,0.2236,68.78,-62.50,-154.57
836,96907981,-0.0923,-1.0356,0.2065,70.85,-64.09,-155.67
837,96912980,-0.0854,-1.0190,0.1855,72.87,-65.49,-156.52
838,96917984,-0.0752,-0.9990,0.1792,74.76,-66.95,-157.44
839,96922981,-0.0708,-0.9858,0.1763,76.28,-68.29,-158.23
840,96928004,-0.0552,-0.9658,0.1704,77.68,-69.33,-159.09
841,96933019,-0.0366,-0.9478,0.1665,78.96,-70.24,-159.88
842,96937985,-0.0249,-0.9346,0.1577,80.49,-70.98,-160.43
843,96942981,-0.0078,-0.9150,0.1548,82.07,-71.77,-161.16
844,96947982,-0.0010,-0.9004,0.1538,83.72,-72.13,-161.83
845,96952981,0.0122,-0.8818,0.1499,85.85,-72.68,-162.26
846,96957982,0.0283,-0.8672,0.1499,87.93,-73.05,-162.44
847,96962981,0.0425,-0.8555,0.1377,90.18,-73.23,-162.50
848,96968114,0.0537,-0.8438,0.1221,92.20,-73.66,-162.20
849,96972983,0.0654,-0.8281,0.1211,94.09,-73.72,-161.71
850,96977981,0.0762,-0.8086,0.1143,95.49,-73.72,-161.22
851,96982982,0.0879,-0.7910,0.1104,96.65,-73.90,-160.49
852,96987982,0.0938,-0.7729,0.0952,97.26,-73.78,-159.76
853,96992982,0.1069,-0.7578,0.0889,97.74,-73.78,-158.84
854,96997981,0.1182,-0.7363,0.0771,97.80,-73.66,-157.93
855,97002982,0.1323,-0.7183,0.0669,97.62,-73.66,-156.95
856,97007981,0.1250,-0.7075,0.0630,97.32,-73.72,-155.91
857,97012981,0.0830,-0.6826,0.0503,96.95,-73.66,-154.88
858,97017980,0.1611,-0.6357,0.0508,96.40,-73.66,-153.84
859,97022982,0.2021,-0.6338,0.0464,96.34,-73.54,-152.99
860,97027983,0.2236,-0.6284,0.0493,96.16,-73.60,-151.83
861,97032982,0.2363,-0.6118,0.0444,95.98,-73.84,-150.79
862,97037981,0.2690,-0.5981,0.0493,95.85,-74.09,-149.57
863,97042982,0.3022,-0.5889,0.0542,95.43,-74.15,-148.54
864,97047982,0.3281,-0.5835,0.0581,94.94,-74.45,-147.32
865,97052982,0.3477,-0.5776,0.0552,94.57,-74.63,-146.22
866,97057983,0.3745,-0.5703,0.0483,93.90,-74.76,-144.94
867,97062982,0.3999,-0.5688,0.0425,93.41,-75.06,-143.78
868,97067982,0.4277,-0.5635,0.0474,92.99,-75.24,-142.80
869,97072982,0.4585,-0.5508,0.0435,92.56,-75.55,-141.77
870,97077981,0.4819,-0.5435,0.0337,92.56,-75.79,-140.98
871,97082982,0.5034,-0.5352,0.0400,92.93,-76.04,-140.06
872,97087983,0.5259,-0.5327,0.0337,93.66,-76.22,-139.27
873,97092982,0.5454,-0.5293,0.0273,94.70,-76.40,-138.66
874,97097981,0.5693,-0.5269,0.0317,96.04,-76.83,-138.05
875,97102982,0.5874,-0.5195,0.0317,97.44,-77.13,-137.44
876,97107982,0.5942,-0.5156,0.0469,99.21,-77.50,-136.77
877,97112982,0.6147,-0.5112,0.0659,101.65,-77.44,-136.22
878,97117983,0.6216,-0.4976,0.0669,104.63,-77.44,-135.49
879,97122983,0.6401,-0.4717,0.0078,108.11,-77.93,-135.00
880,97127982,0.6353,-0.5015,0.0234,112.74,-78.48,-134.39
881,97132982,0.6245,-0.4980,0.0430,117.13,-78.66,-133.35
882,97137981,0.6162,-0.4995,0.0508,120.91,-78.96,-132.32
883,97142982,0.6167,-0.5020,0.0640,123.48,-78.72,-131.34
884,97147982,0.6558,-0.4727,0.0845,124.70,-78.72,-130.37
885,97152982,0.6934,-0.4844,0.0713,124.51,-78.54,-129.57
886,97158297,0.6973,-0.4927,0.0659,122.62,-78.78,-128.84
887,97162982,0.7041,-0.4902,0.0620,118.84,-79.09,-128.11
888,97167983,0.7124,-0.4775,0.0562,113.54,-79.57,-127.74
889,97172982,0.7153,-0.4731,0.0708,107.38,-79.94,-127.38
890,97177981,0.7173,-0.4727,0.0957,100.85,-80.37,-127.13
891,97182982,0.7241,-0.4736,0.0938,94.45,-80.30,-127.07
892,97187981,0.7144,-0.4321,0.0859,88.29,-80.55,-127.20
893,97192982,0.7407,-0.4946,0.1592,83.66,-80.24,-127.56
894,97197983,0.7749,-0.4697,0.1016,79.94,-79.70,-127.26
895,97202982,0.7588,-0.4517,0.1084,76.10,-79.51,-127.38
896,97207982,0.7134,-0.4424,0.1172,72.74,-79.51,-127.68
897,97212982,0.7100,-0.4321,0.0957,69.94,-79.27,-128.23
898,97218440,0.6968,-0.4409,0.1094,67.68,-78.90,-128.48
899,97222982,0.6836,-0.4473,0.1177,66.04,-78.60,-128.72
900,97227982,0.6748,-0.4468,0.1206,64.70,-77.99,-128.84
901,97232982,0.6748,-0.4409,0.1138,63.84,-77.50,-128.78
902,97237981,0.6802,-0.4360,0.1211,62.80,-76.95,-128.90
903,97242982,0.6919,-0.4209,0.1240,61.65,-76.28,-129.27
904,97247982,0.7036,-0.4067,0.1172,60.49,-75.98,-129.70
905,97252982,0.7217,-0.3945,0.1216,59.15,-75.79,-130.18
906,97257983,0.7217,-0.3877,0.1147,57.80,-75.55,-131.04
907,97262982,0.7212,-0.3774,0.1265,56.65,-75.24,-131.89
908,97267982,0.7241,-0.3696,0.1226,55.49,-75.18,-132.74
909,97272982,0.7231,-0.3555,0.1187,54.76,-74.94,-133.66
910,97277981,0.7251,-0.3525,0.1235,54.21,-74.70,-134.45
911,97282982,0.7227,-0.3433,0.1230,53.84,-74.45,-135.37
912,97287982,0.7075,-0.3330,0.1201,53.66,-73.96,-136.16
913,97292982,0.6982,-0.3262,0.1089,53.48,-73.54,-137.13
914,97297981,0.6968,-0.3174,0.1016,53.54,-72.99,-138.05
915,97302982,0.6934,-0.3159,0.0967,53.60,-72.20,-138.96
916,97307982,0.6904,-0.3047,0.0757,53.54,-71.65,-140.00
917,97312982,0.6924,-0.2979,0.0527,53.29,-71.04,-141.10
918,97317981,0.7031,-0.2852,0.0498,52.93,-70.49,-142.20
919,97322981,0.7002,-0.2832,0.0303,52.44,-69.94,-143.48
920,97327984,0.6860,-0.2861,0.0146,51.89,-69.33,-144.76
921,97332981,0.6855,-0.2749,0.0088,51.46,-69.09,-146.22
922,97337982,0.6904,-0.2603,0.0024,50.85,-68.54,-147.56
923,97342981,0.6938,-0.2437,-0.0059,49.76,-67.93,-149.27
924,97347982,0.6855,-0.2354,-0.0039,48.35,-67.38,-151.04
925,97352981,0.6802,-0.2212,-0.0142,46.71,-66.83,-152.93
926,97357982,0.6680,-0.1934,0.0044,44.51,-65.98,-154.88
927,97362981,0.6470,-0.1797,-0.0181,42.01,-65.06,-156.71
928,97367982,0.6519,-0.1880,-0.0142,39.57,-64.02,-158.66
929,97372981,0.6523,-0.1763,-0.0259,37.44,-62.80,-160.43
930,97378071,0.6426,-0.1582,-0.0474,35.18,-61.77,-162.13
931,97382983,0.6255,-0.1367,-0.0479,33.11,-60.55,-163.90
932,97387981,0.6201,-0.1274,-0.0503,30.55,-58.96,-166.22
933,97392982,0.6367,-0.1187,-0.0605,28.66,-57.93,-167.68
934,97397982,0.6621,-0.1001,-0.0825,26.34,-56.40,-169.45
935,97402982,0.7036,-0.0820,-0.1050,24.27,-55.30,-171.28
936,97407980,0.7695,-0.0596,-0.1299,21.89,-53.96,-174.02
937,97412982,0.7988,-0.0522,-0.1348,20.73,-53.17,-175.79
938,97417981,0.8145,-0.0415,-0.1450,19.70,-52.20,-177.99
939,97422983,0.8193,-0.0308,-0.1514,19.51,-51.28,-180.18
940,97427981,0.8169,-0.0273,-0.1499,20.24,-50.49,-182.20
941,97432983,0.8101,-0.0220,-0.1460,22.01,-49.39,-184.21
942,97437982,0.8037,-0.0059,-0.1362,24.70,-48.23,-186.10
943,97442982,0.7964,0.0098,-0.1372,28.11,-47.26,-187.93
944,97447981,0.7891,0.0171,-0.1294,31.77,-45.91,-189.82
945,97452982,0.7695,0.0264,-0.1191,35.43,-44.70,-191.46
946,97457982,0.7451,0.0361,-0.1191,39.02,-43.41,-193.11
947,97462982,0.7466,0.0493,-0.1152,42.26,-42.26,-194.70
948,97467980,0.6943,0.0811,-0.1050,44.88,-40.98,-196.22
949,97472983,0.6982,0.1133,-0.0732,46.65,-39.57,-197.87
950,97477982,0.6909,0.1382,-0.0708,47.50,-38.29,-199.39
951,97482981,0.6851,0.1636,-0.0820,47.13,-36.83,-200.98
952,97487982,0.6709,0.1802,-0.0708,46.10,-35.49,-202.44
953,97492981,0.6484,0.2026,-0.0649,44.39,-34.15,-203.84
954,97497982,0.6387,0.2358,-0.0654,42.13,-32.68,-205.30
955,97502981,0.6309,0.2593,-0.0576,39.63,-31.04,-206.71
956,97507984,0.6152,0.2832,-0.0532,36.83,-29.02,-208.23
957,97512981,0.5952,0.3013,-0.0640,34.02,-26.77,-209.63
958,97517982,0.5820,0.3184,-0.0493,31.10,-24.45,-211.16
959,97522981,0.5596,0.3325,-0.0479,28.11,-21.71,-212.56
960,97527984,0.5317,0.3516,-0.0371,25.00,-18.78,-213.96
961,97532983,0.5063,0.3711,-0.0366,21.71,-15.85,-215.55
962,97537982,0.4902,0.3892,-0.0278,17.99,-12.50,-217.13
963,97542982,0.4648,0.4150,-0.0269,13.96,-9.02,-218.66
964,97547981,0.4565,0.4395,-0.0376,9.63,-5.61,-220.43
965,97552982,0.4414,0.4546,-0.0337,5.00,-2.07,-221.83
966,97557981,0.4336,0.4854,-0.0352,0.12,1.59,-223.23
967,97562984,0.4312,0.5117,-0.0327,-4.76,5.06,-224.76
968,97567982,0.4199,0.5303,-0.0254,-10.00,8.72,-226.04
969,97572982,0.4106,0.5386,0.0010,-15.67,12.20,-227.38
970,97577983,0.4048,0.5693,0.0244,-21.71,15.73,-228.72
971,97582982,0.3760,0.5576,0.0596,-28.11,19.21,-229.88
972,97588039,0.3667,0.6050,0.0640,-34.27,22.68,-231.34
973,97592980,0.3721,0.6011,0.0728,-39.94,25.79,-232.80
974,97597981,0.3662,0.6201,0.0801,-44.82,29.21,-234.02
975,97602982,0.3530,0.6323,0.0762,-48.84,32.38,-235.43
976,97607983,0.3374,0.6519,0.0835,-52.01,35.49,-236.65
977,97612982,0.3164,0.6675,0.0840,-54.45,38.54,-237.68
978,97617981,0.2949,0.6777,0.0869,-55.73,40.79,-238.48
979,97622982,0.2754,0.6924,0.0894,-56.71,43.41,-239.21
980,97628232,0.2520,0.7100,0.0884,-56.83,46.71,-239.94
981,97633132,0.2500,0.7275,0.0972,-56.40,49.09,-240.55
982,97637984,0.2505,0.7422,0.1050,-55.37,50.91,-241.16
983,97642981,0.2588,0.7480,0.0996,-53.78,52.80,-241.77
984,97647982,0.2500,0.7559,0.1084,-51.77,54.57,-242.38
985,97652981,0.2305,0.7671,0.1099,-49.63,56.10,-242.80
986,97657982,0.2246,0.7773,0.1143,-47.20,57.38,-243.29
987,97662981,0.2124,0.7778,0.1147,-44.39,58.17,-243.78
988,97667997,0.1904,0.7744,0.1270,-41.28,59.02,-244.15
989,97672981,0.1582,0.7783,0.1255,-37.62,59.57,-244.39
990,97677984,0.1484,0.7920,0.1362,-33.72,59.94,-244.76
991,97682981,0.1592,0.8198,0.1357,-29.33,59.88,-245.30
992,97687982,0.1572,0.8286,0.1470,-25.18,59.94,-245.98
993,97692981,0.1431,0.8335,0.1440,-21.40,59.70,-246.22
994,97697982,0.1113,0.8530,0.1382,-18.41,59.21,-246.10
995,97702981,0.0942,0.8867,0.1299,-16.10,58.48,-245.98
996,97707980,0.0830,0.9092,0.1240,-14.33,57.20,-245.91
997,97712982,0.0728,0.9302,0.1367,-12.80,55.67,-245.37
998,97717982,0.0605,0.9380,0.1367,-11.71,54.63,-245.00
999,97722981,0.0410,0.9590,0.1309,-10.30,53.23,-244.39
1000,97727981,0.0254,0.9741,0.1362,-8.23,51.59,-243.66
1001,97733018,0.0054,0.9824,0.1436,-5.91,50.24,-242.99
1002,97737983,-0.0161,0.9824,0.1538,-2.62,48.66,-242.20
1003,97742982,-0.0317,0.9814,0.1504,1.59,46.95,-241.52
1004,97748077,-0.0459,0.9888,0.1465,6.77,45.37,-241.10
1005,97752982,-0.0557,0.9927,0.1533,12.50,43.72,-240.73
1006,97757982,-0.0791,1.0063,0.1558,18.60,42.01,-240.37
1007,97762982,-0.0996,1.0269,0.1484,24.70,40.12,-240.06
1008,97767981,-0.1182,1.0410,0.1567,30.24,38.29,-239.63
1009,97772982,-0.1450,1.0708,0.1382,35.18,36.28,-239.15
1010,97777982,-0.1597,1.1035,0.1323,39.15,34.09,-238.60
1011,97782982,-0.1606,1.1333,0.1323,42.50,32.20,-237.99
1012,97787981,-0.1743,1.1543,0.1265,45.30,30.06,-237.26
1013,97792984,-0.1851,1.1802,0.1143,47.26,27.99,-236.28
1014,97797981,-0.2012,1.1968,0.1147,48.84,25.98,-235.49
1015,97802982,-0.2104,1.2090,0.1079,49.70,23.96,-234.51
1016,97807982,-0.2271,1.2153,0.1011,50.43,22.32,-233.54
1017,97812982,-0.2402,1.2153,0.0942,50.98,20.49,-232.62
1018,97817981,-0.2593,1.2285,0.0928,51.46,18.66,-231.77
1019,97822982,-0.2627,1.2324,0.0898,52.13,16.83,-230.98
1020,97827982,-0.2749,1.2363,0.0874,52.68,15.06,-230.18
1021,97833154,-0.2939,1.2466,0.0820,53.11,13.66,-229.39
1022,97837983,-0.3101,1.2651,0.0742,52.99,11.95,-228.41
1023,97842982,-0.3394,1.2759,0.0610,52.20,10.49,-227.20
1024,97848460,-0.3643,1.2944,0.0522,50.67,9.27,-225.79
1025,97852982,-0.3979,1.3164,0.0396,48.60,8.11,-224.02
1026,97857982,-0.4214,1.3325,0.0347,45.85,7.13,-222.01
1027,97862982,-0.4463,1.3579,0.0352,42.74,6.28,-220.18
1028,97867983,-0.4658,1.3726,0.0298,39.09,5.55,-218.23
1029,97872982,-0.4766,1.3823,0.0254,35.37,5.06,-216.40
1030,97877981,-0.4932,1.3896,0.0273,31.28,4.70,-214.51
1031,97882982,-0.5049,1.3901,0.0215,26.71,4.45,-212.68
1032,97887982,-0.5190,1.3857,0.0161,21.89,4.02,-211.04
1033,97892982,-0.5342,1.3804,0.0176,16.65,3.96,-209.33
1034,97897981,-0.5415,1.3740,0.0161,11.22,3.72,-207.74
1035,97902981,-0.5522,1.3594,0.0215,5.24,3.72,-206.04
1036,97907982,-0.5649,1.3428,0.0322,-0.73,3.72,-204.15
1037,97912982,-0.5874,1.3286,0.0317,-7.38,3.90,-202.32
1038,97918076,-0.6055,1.3276,0.0288,-14.02,3.84,-200.24
1039,97922982,-0.6240,1.3364,0.0225,-20.67,4.15,-198.41
1040,97927981,-0.6431,1.3418,0.0264,-26.89,4.33,-196.46
1041,97932983,-0.6699,1.3501,0.0312,-32.50,4.45,-194.33
1042,97938049,-0.7056,1.3643,0.0400,-37.01,5.12,-192.07
1043,97942981,-0.7329,1.3701,0.0479,-40.73,5.67,-189.70
1044,97947982,-0.7549,1.3696,0.0527,-43.23,6.40,-187.38
1045,97952981,-0.7681,1.3682,0.0591,-45.24,7.26,-184.76
1046,97957982,-0.7856,1.3584,0.0532,-46.71,7.87,-182.13
1047,97962984,-0.8013,1.3550,0.0581,-47.62,8.48,-179.39
1048,97967983,-0.8125,1.3418,0.0581,-48.11,8.66,-176.65
1049,97972982,-0.8252,1.3247,0.0630,-48.11,9.15,-173.78
1050,97977980,-0.8340,1.3149,0.0542,-47.44,9.09,-170.91
1051,97982982,-0.8423,1.3008,0.0605,-46.16,9.09,-167.99
1052,97987982,-0.8486,1.2910,0.0610,-44.63,8.72,-165.55
1053,97992982,-0.8574,1.2769,0.0625,-41.40,8.41,-161.83
1054,97997983,-0.8633,1.2656,0.0601,-38.66,8.05,-159.21
1055,98002982,-0.8735,1.2505,0.0664,-34.51,7.32,-155.79
1056,98007982,-0.8896,1.2427,0.0615,-29.45,6.83,-152.20
1057,98012982,-0.8965,1.2363,0.0601,-23.96,6.16,-148.66
1058,98017982,-0.8960,1.2290,0.0693,-17.62,5.37,-145.12
1059,98022982,-0.8911,1.2178,0.0688,-10.79,4.63,-141.52
1060,98027982,-0.8960,1.2163,0.0703,-3.78,4.21,-138.05
1061,98032982,-0.8994,1.2026,0.0825,3.41,3.60,-134.39
1062,98037982,-0.9038,1.1899,0.0815,11.89,2.93,-130.12
1063,98042983,-0.8989,1.1836,0.0693,17.32,2.26,-127.01
1064,98047981,-0.8960,1.1655,0.0742,23.78,1.71,-123.23
1065,98052982,-0.8979,1.1538,0.0620,29.63,0.98,-119.57
1066,98057982,-0.9019,1.1406,0.0684,35.06,0.24,-115.67
1067,98062982,-0.8960,1.1245,0.0630,39.94,-0.61,-111.95
1068,98067982,-0.8887,1.1016,0.0552,44.27,-1.40,-108.23
1069,98072982,-0.8823,1.0854,0.0493,48.05,-2.26,-104.57
1070,98077982,-0.8735,1.0757,0.0454,51.40,-3.11,-100.98
1071,98082983,-0.8643,1.0547,0.0420,54.51,-4.21,-97.50
1072,98087982,-0.8496,1.0425,0.0405,57.01,-5.12,-94.02
1073,98092982,-0.8481,1.0264,0.0405,58.96,-5.98,-90.73
1074,98097982,-0.8438,1.0151,0.0337,60.67,-6.71,-87.44
1075,98102982,-0.8423,1.0034,0.0293,61.65,-7.68,-84.15
1076,98107982,-0.8364,0.9912,0.0288,62.13,-8.54,-80.91
1077,98112982,-0.8296,0.9771,0.0161,62.07,-9.39,-77.50
1078,98117982,-0.8247,0.9722,0.0200,61.34,-10.30,-74.33
1079,98122983,-0.8188,0.9575,0.0127,60.43,-11.10,-71.22
1080,98127982,-0.8130,0.9443,0.0083,59.70,-12.07,-68.11
1081,98132982,-0.8057,0.9316,0.0059,58.35,-12.93,-65.18
1082,98137982,-0.7969,0.9204,-0.0005,57.20,-13.66,-62.26
1083,98142982,-0.7876,0.9126,-0.0088,56.10,-14.51,-59.57
1084,98147984,-0.7827,0.8999,-0.0059,55.12,-15.55,-57.07
1085,98152981,-0.7783,0.8940,-0.0103,54.57,-16.34,-54.57
1086,98157982,-0.7749,0.8779,-0.0112,53.84,-17.07,-52.50
1087,98162981,-0.7773,0.8755,-0.0161,53.54,-17.99,-50.55
1088,98167982,-0.7759,0.8638,-0.0176,53.35,-18.72,-48.54
1089,98172981,-0.7754,0.8545,-0.0122,53.35,-19.63,-46.59
1090,98177982,-0.7690,0.8442,-0.0225,53.54,-20.37,-45.00
1091,98182981,-0.7563,0.8374,-0.0181,54.02,-21.22,-43.29
1092,98187982,-0.7471,0.8228,-0.0171,54.57,-21.95,-41.95
1093,98192982,-0.7349,0.8174,-0.0229,55.43,-22.80,-40.43
1094,98197984,-0.7300,0.8096,-0.0249,56.28,-23.54,-39.09
1095,98202981,-0.7329,0.8037,-0.0229,57.38,-24.39,-37.99
1096,98207980,-0.7329,0.7944,-0.0254,58.23,-25.43,-36.95
1097,98212984,-0.7329,0.7886,-0.0225,59.21,-26.10,-35.85
1098,98217982,-0.7319,0.7847,-0.0249,60.06,-27.07,-35.00
1099,98222981,-0.7295,0.7798,-0.0303,60.91,-27.93,-34.09
1100,98227982,-0.7319,0.7773,-0.0352,61.65,-28.78,-33.29
1101,98232981,-0.7266,0.7676,-0.0298,62.44,-29.70,-32.32
1102,98237980,-0.7241,0.7617,-0.0283,63.11,-30.55,-31.71
1103,98242983,-0.7207,0.7534,-0.0308,63.84,-31.40,-30.79
1104,98247984,-0.7163,0.7520,-0.0386,64.33,-32.26,-30.12
1105,98252980,-0.7227,0.7485,-0.0396,64.88,-33.05,-29.51
1106,98257980,-0.7275,0.7476,-0.0361,65.37,-34.02,-28.90
1107,98262982,-0.7290,0.7383,-0.0347,65.85,-34.70,-28.29
1108,98267980,-0.7222,0.7339,-0.0391,66.16,-35.49,-27.68
1109,98272982,-0.7183,0.7319,-0.0391,66.59,-36.10,-27.13
1110,98277982,-0.7173,0.7236,-0.0371,66.77,-36.77,-26.40
1111,98282982,-0.7192,0.7231,-0.0415,66.89,-37.62,-25.91
1112,98287980,-0.7222,0.7246,-0.0420,66.77,-38.35,-25.43
1113,98292982,-0.7314,0.7178,-0.0400,66.52,-38.84,-24.82
1114,98297982,-0.7402,0.7153,-0.0356,65.98,-39.45,-23.96
1115,98302982,-0.7500,0.7119,-0.0415,65.55,-40.00,-23.29
1116,98307980,-0.7549,0.7104,-0.0425,64.88,-40.37,-22.56
1117,98312982,-0.7563,0.7080,-0.0488,64.27,-40.79,-21.95
1118,98317982,-0.7568,0.6992,-0.0425,63.54,-41.34,-20.98
1119,98322980,-0.7578,0.6987,-0.0439,62.74,-41.65,-20.18
1120,98327980,-0.7603,0.6938,-0.0474,61.89,-41.95,-19.09
1121,98332982,-0.7627,0.6846,-0.0542,61.22,-42.32,-18.05
1122,98337981,-0.7705,0.6870,-0.0532,60.18,-42.56,-17.13
1123,98342981,-0.7812,0.6836,-0.0522,59.15,-42.99,-16.10
1124,98347982,-0.7871,0.6831,-0.0596,58.48,-43.29,-15.00
1125,98352983,-0.7861,0.6782,-0.0620,57.93,-43.60,-14.15
1126,98357982,-0.7871,0.6733,-0.0571,57.44,-43.60,-12.99
1127,98362982,-0.7842,0.6694,-0.0591,57.07,-43.90,-11.89
1128,98367982,-0.7866,0.6694,-0.0566,56.83,-43.78,-10.61
1129,98372982,-0.7876,0.6616,-0.0527,56.65,-43.96,-9.51
1130,98377982,-0.7930,0.6606,-0.0537,56.52,-44.02,-8.41
1131,98382982,-0.7993,0.6577,-0.0601,56.40,-44.02,-7.20
1132,98387982,-0.8052,0.6548,-0.0640,56.34,-44.09,-6.04
1133,98392983,-0.8052,0.6475,-0.0557,56.34,-44.02,-4.88
1134,98397982,-0.8018,0.6440,-0.0620,56.34,-43.84,-3.72
1135,98402982,-0.8027,0.6362,-0.0610,56.46,-43.66,-2.50
1136,98407982,-0.8076,0.6333,-0.0615,56.95,-43.66,-1.34
1137,98412982,-0.8101,0.6313,-0.0571,57.32,-43.41,-0.18
1138,98417982,-0.8145,0.6284,-0.0640,57.68,-43.17,0.91
1139,98422980,-0.8232,0.6240,-0.0654,58.05,-42.93,2.01
1140,98427984,-0.8345,0.6230,-0.0620,58.35,-42.62,3.05
1141,98432982,-0.8369,0.6206,-0.0596,58.78,-42.38,4.02
1142,98437982,-0.8335,0.6152,-0.0605,59.33,-42.13,4.88
1143,98443209,-0.8252,0.6147,-0.0586,59.82,-41.52,5.85
1144,98447982,-0.8164,0.6118,-0.0562,60.49,-41.16,6.65
1145,98452984,-0.8164,0.6040,-0.0576,61.04,-40.73,7.26
1146,98457981,-0.8169,0.6060,-0.0537,61.65,-40.06,7.99
1147,98462982,-0.8184,0.5977,-0.0513,62.01,-39.63,8.72
1148,98467981,-0.8149,0.5962,-0.0532,62.32,-38.96,9.21
1149,98472982,-0.8159,0.5928,-0.0552,62.56,-38.48,9.76
1150,98477981,-0.8101,0.5889,-0.0542,62.68,-37.93,10.24
1151,98482982,-0.8076,0.5796,-0.0508,62.68,-37.32,10.73
1152,98487981,-0.8062,0.5820,-0.0503,62.26,-36.71,11.16
1153,98493322,-0.8096,0.5718,-0.0493,61.77,-36.16,11.59
1154,98497982,-0.8115,0.5776,-0.0513,61.22,-35.85,11.83
1155,98503014,-0.8154,0.5688,-0.0557,60.43,-35.24,12.07
1156,98507984,-0.8169,0.5723,-0.0498,59.76,-34.70,12.32
1157,98512982,-0.8184,0.5684,-0.0513,58.84,-33.96,12.56
1158,98517982,-0.8188,0.5645,-0.0444,57.87,-33.78,12.74
1159,98522982,-0.8086,0.5649,-0.0400,56.95,-33.05,12.74
1160,98527982,-0.8086,0.5576,-0.0425,55.85,-32.50,12.87
1161,98532983,-0.8052,0.5576,-0.0435,54.76,-31.95,12.99
1162,98537982,-0.8018,0.5562,-0.0366,53.72,-31.16,12.93
1163,98542982,-0.8071,0.5552,-0.0391,52.44,-30.73,12.87
1164,98547982,-0.8081,0.5522,-0.0366,51.46,-30.06,12.93
1165,98553001,-0.8062,0.5483,-0.0400,50.12,-29.33,12.80
1166,98557982,-0.8066,0.5503,-0.0405,48.96,-28.84,12.74
1167,98562982,-0.8086,0.5513,-0.0425,47.74,-28.23,12.62
1168,98567982,-0.8022,0.5430,-0.0312,46.65,-27.56,12.50
1169,98572982,-0.8081,0.5420,-0.0278,45.43,-27.01,12.32
1170,98577982,-0.8105,0.5454,-0.0371,44.51,-26.59,12.20
1171,98582982,-0.8110,0.5410,-0.0386,43.66,-25.85,12.01
1172,98587982,-0.8047,0.5415,-0.0352,42.93,-25.30,11.77
1173,98592980,-0.7959,0.5400,-0.0337,42.38,-24.76,11.59
1174,98597984,-0.8008,0.5405,-0.0293,41.89,-24.33,11.40
1175,98602982,-0.7983,0.5361,-0.0293,41.46,-23.90,11.04
1176,98607982,-0.8037,0.5400,-0.0254,41.16,-23.29,10.73
1177,98612982,-0.8052,0.5400,-0.0244,40.98,-22.87,10.43
1178,98617982,-0.8013,0.5381,-0.0239,40.55,-22.38,10.18
1179,98622983,-0.8027,0.5376,-0.0234,40.18,-21.83,9.88
1180,98627982,-0.8013,0.5356,-0.0151,39.63,-21.34,9.70
1181,98632980,-0.8003,0.5381,-0.0190,39.02,-20.79,9.57
1182,98637982,-0.8081,0.5405,-0.0176,37.93,-20.37,9.33
1183,98642982,-0.8120,0.5435,-0.0132,36.83,-19.82,9.21
1184,98648367,-0.8110,0.5474,-0.0142,35.49,-19.33,9.21
1185,98653401,-0.8105,0.5498,-0.0166,34.09,-18.84,9.02
1186,98658425,-0.8179,0.5498,-0.0127,32.50,-18.29,8.96
1187,98662982,-0.8193,0.5498,-0.0098,30.67,-17.87,8.96
1188,98667984,-0.8193,0.5469,-0.0220,28.72,-17.13,9.02
1189,98673245,-0.8223,0.5508,-0.0171,26.65,-16.65,9.15
1190,98677982,-0.8242,0.5513,-0.0181,24.51,-16.16,9.27
1191,98682982,-0.8262,0.5513,-0.0127,22.56,-15.67,9.39
1192,98687982,-0.8306,0.5552,-0.0078,20.67,-15.24,9.57
1193,98692980,-0.8291,0.5547,-0.0117,18.54,-14.70,9.76
1194,98697983,-0.8345,0.5522,-0.0161,16.71,-14.33,10.00
1195,98702982,-0.8306,0.5566,-0.0093,15.00,-13.72,10.12
1196,98707982,-0.8315,0.5552,-0.0137,13.41,-13.29,10.43
1197,98712981,-0.8384,0.5552,-0.0093,11.95,-12.68,10.55
1198,98717982,-0.8369,0.5571,-0.0146,10.49,-12.32,10.79
1199,98722982,-0.8359,0.5532,-0.0107,9.27,-11.83,10.85
1200,98727982,-0.8340,0.5542,-0.0142,7.93,-11.40,11.04
1201,98733346,-0.8350,0.5571,-0.0166,6.65,-10.85,11.10
1202,98737983,-0.8320,0.5542,-0.0078,5.79,-10.55,11.22
1203,98742982,-0.8354,0.5532,-0.0132,4.88,-10.00,11.22
1204,98747982,-0.8359,0.5576,-0.0107,4.02,-9.57,11.46
1205,98752981,-0.8394,0.5542,-0.0107,3.41,-9.21,11.40
1206,98757982,-0.8438,0.5527,-0.0161,2.74,-8.66,11.59
1207,98762984,-0.8472,0.5513,-0.0093,2.62,-8.23,11.65
1208,98767981,-0.8413,0.5518,-0.0083,2.50,-7.74,11.77
1209,98772982,-0.8413,0.5483,-0.0112,2.50,-7.26,11.89
1210,98777981,-0.8428,0.5469,-0.0146,2.68,-6.71,11.95
1211,98782980,-0.8428,0.5459,-0.0142,3.05,-6.34,12.01
1212,98787984,-0.8457,0.5449,-0.0151,3.60,-5.91,12.20
1213,98792982,-0.8428,0.5420,-0.0098,4.33,-5.43,12.13
1214,98797981,-0.8423,0.5425,-0.0083,5.00,-5.00,12.20
1215,98802982,-0.8428,0.5435,-0.0078,6.04,-4.51,12.20
1216,98807981,-0.8438,0.5425,-0.0156,6.89,-4.21,12.20
1217,98812982,-0.8384,0.5386,-0.0098,7.87,-3.66,12.26
1218,98817981,-0.8418,0.5352,-0.0098,8.96,-3.29,12.26
1219,98822980,-0.8423,0.5347,-0.0132,10.30,-2.74,12.20
1220,98827983,-0.8433,0.5356,-0.0059,11.10,-2.38,12.32
1221,98832982,-0.8403,0.5298,-0.0063,12.07,-1.89,12.38
1222,98837982,-0.8452,0.5347,-0.0093,13.05,-1.59,12.26
1223,98842981,-0.8447,0.5356,-0.0059,14.02,-1.16,12.26
1224,98847982,-0.8452,0.5283,-0.0063,14.82,-0.85,12.13
1225,98852982,-0.8428,0.5269,0.0015,15.43,-0.49,12.13
1226,98857982,-0.8457,0.5303,-0.0005,16.04,0.00,11.95
1227,98862983,-0.8433,0.5283,-0.0073,16.59,0.30,11.83
1228,98867982,-0.8457,0.5273,-0.0044,17.07,0.67,11.71
1229,98872982,-0.8442,0.5269,-0.0044,17.32,0.98,11.52
1230,98877982,-0.8442,0.5259,-0.0059,17.56,1.10,11.34
1231,98882980,-0.8438,0.5239,-0.0005,17.56,1.46,11.16
1232,98887983,-0.8379,0.5205,-0.0059,17.62,1.65,11.10
1233,98892982,-0.8379,0.5225,0.0000,17.32,1.89,10.73
1234,98897982,-0.8379,0.5190,-0.0054,16.95,2.07,10.55
1235,98902980,-0.8384,0.5234,-0.0034,16.46,2.32,10.55
1236,98907982,-0.8369,0.5146,0.0020,15.79,2.44,10.30
1237,98912982,-0.8423,0.5176,-0.0005,15.12,2.62,10.00
1238,98917981,-0.8398,0.5146,0.0020,14.57,2.80,10.00
1239,98922982,-0.8403,0.5166,0.0034,13.72,2.99,9.76
1240,98927981,-0.8359,0.5176,-0.0015,12.80,3.17,9.45
1241,98932982,-0.8384,0.5146,0.0059,11.83,3.35,9.33
1242,98937980,-0.8330,0.5137,0.0088,11.04,3.48,9.15
1243,98942984,-0.8447,0.5151,-0.0005,10.18,3.72,8.90
1244,98947981,-0.8438,0.5132,0.0059,9.15,3.84,8.66
1245,98952982,-0.8413,0.5107,0.0049,8.23,3.90,8.35
1246,98957981,-0.8379,0.5132,0.0034,7.38,4.09,8.05
1247,98963066,-0.8340,0.5137,0.0078,6.59,4.21,7.80
1248,98967982,-0.8267,0.5098,0.0044,5.79,4.33,7.56
1249,98972982,-0.8281,0.5093,0.0054,5.06,4.39,7.20
1250,98977983,-0.8257,0.5044,0.0049,4.39,4.27,6.89
1251,98982983,-0.8247,0.5063,0.0068,3.66,4.27,6.71
1252,98987982,-0.8247,0.5063,0.0044,3.11,4.39,6.46
1253,98992982,-0.8311,0.5063,0.0049,2.44,4.39,6.04
1254,98997982,-0.8384,0.5107,0.0020,2.07,4.33,5.91
1255,99002983,-0.8374,0.5088,0.0020,1.65,4.33,5.49
1256,99007982,-0.8354,0.5068,0.0059,1.28,4.39,5.18
1257,99012982,-0.8296,0.5078,0.0044,1.10,4.33,4.94
1258,99017982,-0.8271,0.5054,0.0068,0.98,4.21,4.57
1259,99022982,-0.8301,0.5083,0.0083,1.04,4.09,4.15
1260,99027982,-0.8335,0.5063,0.0039,1.10,4.09,3.72
1261,99032984,-0.8296,0.5098,0.0024,1.22,4.02,3.48
1262,99037981,-0.8281,0.5142,0.0068,1.46,3.90,2.99
1263,99042982,-0.8315,0.5098,0.0063,1.83,3.60,2.56
1264,99047981,-0.8242,0.5103,0.0083,2.07,3.66,2.13
1265,99052982,-0.8301,0.5103,0.0078,2.56,3.54,1.83
1266,99057981,-0.8306,0.5039,0.0044,2.87,3.35,1.40
1267,99062982,-0.8257,0.5083,0.0044,3.17,3.35,0.98
1268,99067982,-0.8271,0.5117,0.0068,3.41,3.17,0.73
1269,99072982,-0.8330,0.5098,0.0068,3.72,2.99,0.30
1270,99077981,-0.8311,0.5078,0.0063,4.09,2.80,0.06
1271,99082982,-0.8330,0.5068,0.0024,4.33,2.50,-0.49
1272,99087981,-0.8315,0.5127,0.0054,4.63,2.38,-0.67
1273,99092982,-0.8301,0.5083,0.0024,5.00,2.13,-0.91
1274,99097981,-0.8315,0.5088,0.0059,5.37,1.95,-1.22
1275,99102982,-0.8296,0.5078,0.0073,5.73,1.71,-1.65
1276,99107981,-0.8379,0.5122,0.0020,5.98,1.65,-1.95
1277,99112982,-0.8315,0.5146,0.0068,6.10,1.34,-2.13
1278,99117982,-0.8330,0.5166,0.0059,6.46,1.04,-2.44
1279,99122984,-0.8325,0.5112,0.0044,6.52,0.98,-2.74
1280,99127981,-0.8335,0.5161,0.0103,6.46,0.73,-3.11
1281,99132982,-0.8315,0.5132,0.0073,6.52,0.61,-3.17
1282,99137981,-0.8311,0.5181,0.0078,6.59,0.37,-3.41
1283,99142980,-0.8350,0.5142,0.0029,6.46,0.18,-3.60
1284,99147983,-0.8340,0.5122,0.0068,6.40,-0.06,-3.84
1285,99152982,-0.8345,0.5176,0.0000,6.40,-0.30,-4.02
1286,99157982,-0.8379,0.5210,0.0024,6.22,-0.49,-4.33
1287,99162984,-0.8379,0.5205,0.0020,6.22,-0.73,-4.33
1288,99167982,-0.8354,0.5195,0.0093,6.10,-0.85,-4.39
1289,99172983,-0.8350,0.5186,0.0093,6.28,-0.98,-4.51
1290,99177982,-0.8320,0.5195,-0.0005,6.04,-1.22,-4.70
1291,99182982,-0.8306,0.5186,0.0029,6.28,-1.52,-4.88
1292,99187981,-0.8369,0.5215,0.0063,6.16,-1.71,-4.88
1293,99192983,-0.8354,0.5186,-0.0015,6.34,-1.89,-5.00
1294,99197983,-0.8398,0.5220,0.0005,6.40,-2.13,-5.06
1295,99202980,-0.8330,0.5229,0.0078,6.46,-2.26,-5.00
1296,99207983,-0.8389,0.5215,0.0029,6.71,-2.50,-5.00
1297,99212982,-0.8320,0.5215,0.0073,6.83,-2.74,-5.06
1298,99217981,-0.8335,0.5234,0.0034,7.07,-2.87,-5.12
1299,99222982,-0.8389,0.5195,0.0063,7.26,-2.99,-5.12
1300,99227981,-0.8428,0.5229,-0.0059,7.50,-3.23,-5.06
1301,99232980,-0.8447,0.5269,-0.0024,7.74,-3.60,-5.00
1302,99237983,-0.8442,0.5269,-0.0005,7.87,-3.78,-5.00
1303,99242981,-0.8413,0.5269,0.0063,8.05,-3.84,-5.00
1304,99247982,-0.8403,0.5259,0.0039,8.11,-4.02,-5.00
1305,99252983,-0.8403,0.5259,0.0024,8.17,-4.21,-4.88
1306,99257982,-0.8398,0.5298,0.0020,8.48,-4.39,-4.82
1307,99262981,-0.8442,0.5273,0.0044,8.54,-4.63,-4.70
1308,99267982,-0.8433,0.5278,-0.0039,8.78,-4.88,-4.51
1309,99272984,-0.8457,0.5298,0.0034,8.90,-5.06,-4.57
1310,99277981,-0.8477,0.5269,0.0015,9.02,-5.37,-4.45
1311,99282982,-0.8433,0.5288,0.0044,9.15,-5.67,-4.33
1312,99287981,-0.8472,0.5273,0.0005,9.39,-5.67,-4.33
1313,99292982,-0.8408,0.5298,0.0020,9.57,-5.98,-4.21
1314,99297981,-0.8452,0.5273,-0.0024,9.70,-5.98,-4.15
1315,99302982,-0.8521,0.5259,0.0020,9.88,-6.34,-3.96
1316,99307981,-0.8447,0.5283,0.0044,10.12,-6.59,-3.84
1317,99312982,-0.8423,0.5244,0.0068,10.43,-6.65,-3.66
1318,99317981,-0.8389,0.5278,0.0020,10.79,-6.77,-3.60
1319,99323070,-0.8374,0.5298,0.0020,10.98,-6.77,-3.41
1320,99327982,-0.8354,0.5278,0.0015,11.28,-6.95,-3.35
1321,99332982,-0.8364,0.5293,0.0015,11.71,-7.20,-3.17
1322,99337981,-0.8379,0.5293,-0.0078,11.89,-7.38,-3.17
1323,99342982,-0.8384,0.5293,0.0010,12.26,-7.44,-3.11
1324,99347981,-0.8418,0.5317,-0.0005,12.50,-7.56,-2.93
1325,99352984,-0.8345,0.5308,0.0029,12.80,-7.74,-2.99
1326,99357981,-0.8350,0.5273,-0.0034,13.17,-7.87,-2.93
1327,99362980,-0.8345,0.5298,-0.0049,13.41,-8.05,-2.80
1328,99367983,-0.8330,0.5273,0.0015,13.72,-8.17,-2.80
1329,99372982,-0.8394,0.5288,-0.0024,13.90,-8.17,-2.74
1330,99377982,-0.8418,0.5298,-0.0034,14.15,-8.41,-2.62
1331,99382982,-0.8389,0.5308,-0.0073,14.15,-8.48,-2.50
1332,99387981,-0.8408,0.5298,-0.0005,14.39,-8.72,-2.44
1333,99392980,-0.8408,0.5273,-0.0005,14.51,-8.72,-2.44
1334,99397984,-0.8408,0.5283,0.0005,14.51,-8.78,-2.44
1335,99402982,-0.8364,0.5288,-0.0059,14.51,-8.84,-2.26
1336,99407981,-0.8340,0.5322,0.0005,14.57,-9.15,-2.26
1337,99412982,-0.8330,0.5278,-0.0063,14.57,-9.21,-2.26
1338,99417981,-0.8359,0.5283,-0.0044,14.51,-9.21,-2.13
1339,99422982,-0.8311,0.5283,-0.0044,14.57,-9.39,-2.20
1340,99427981,-0.8315,0.5308,-0.0029,14.45,-9.45,-2.07
1341,99432982,-0.8296,0.5283,-0.0024,14.51,-9.45,-2.07
1342,99437981,-0.8306,0.5288,-0.0029,14.45,-9.63,-2.07
1343,99442984,-0.8306,0.5327,-0.0015,14.39,-9.63,-2.07
1344,99447981,-0.8325,0.5288,-0.0073,14.39,-9.57,-2.01
1345,99452982,-0.8335,0.5293,0.0005,14.27,-9.70,-2.01
1346,99457981,-0.8311,0.5288,-0.0059,14.39,-9.88,-1.89
1347,99462982,-0.8296,0.5312,-0.0039,14.39,-10.06,-1.95
1348,99467981,-0.8286,0.5327,-0.0020,14.45,-10.18,-1.95
1349,99472980,-0.8325,0.5293,-0.0112,14.57,-10.18,-1.83
1350,99477984,-0.8306,0.5317,-0.0059,14.63,-10.06,-1.89
1351,99482982,-0.8320,0.5259,-0.0039,14.82,-10.24,-1.83
1352,99487982,-0.8296,0.5298,-0.0039,14.82,-10.18,-1.65
1353,99492982,-0.8325,0.5298,-0.0078,14.76,-10.24,-1.65
1354,99497982,-0.8335,0.5322,-0.0049,14.76,-10.30,-1.59
1355,99502982,-0.8340,0.5317,-0.0142,14.82,-10.24,-1.59
1356,99507982,-0.8325,0.5303,-0.0103,14.94,-10.24,-1.46
1357,99512982,-0.8286,0.5298,-0.0068,14.82,-10.30,-1.46
1358,99517982,-0.8276,0.5269,-0.0103,14.88,-10.37,-1.46
1359,99522988,-0.8320,0.5278,-0.0068,14.88,-10.18,-1.40
1360,99527982,-0.8315,0.5298,-0.0039,14.82,-10.24,-1.34
1361,99533067,-0.8350,0.5264,-0.0098,14.82,-10.24,-1.22
1362,99537982,-0.8320,0.5298,-0.0103,14.76,-10.24,-1.16
1363,99542982,-0.8335,0.5278,-0.0146,14.51,-10.18,-1.16
1364,99547982,-0.8315,0.5308,-0.0103,14.27,-10.18,-1.10
1365,99552982,-0.8276,0.5283,-0.0132,14.09,-10.18,-1.04
1366,99557982,-0.8296,0.5269,-0.0107,13.84,-10.18,-1.04
1367,99562982,-0.8301,0.5273,-0.0107,13.54,-10.24,-0.85
1368,99567982,-0.8330,0.5264,-0.0117,13.23,-10.18,-0.85
1369,99573078,-0.8403,0.5269,-0.0083,12.87,-10.00,-0.73
1370,99577982,-0.8315,0.5293,-0.0137,12.56,-10.18,-0.67
1371,99582982,-0.8384,0.5239,-0.0195,12.32,-10.06,-0.61
1372,99587982,-0.8364,0.5278,-0.0107,11.89,-10.06,-0.55
1373,99593048,-0.8384,0.5225,-0.0093,11.77,-9.88,-0.43
1374,99597982,-0.8389,0.5254,-0.0142,11.59,-10.06,-0.30
1375,99602982,-0.8379,0.5249,-0.0093,11.52,-9.76,-0.12
1376,99607981,-0.8394,0.5254,-0.0142,11.34,-9.76,-0.12
1377,99612982,-0.8394,0.5283,-0.0103,11.34,-9.70,0.00
1378,99617981,-0.8408,0.5229,-0.0176,11.28,-9.57,0.00
1379,99622982,-0.8403,0.5205,-0.0171,11.28,-9.51,0.18
1380,99627981,-0.8384,0.5234,-0.0132,11.04,-9.45,0.18
1381,99632982,-0.8369,0.5200,-0.0195,11.04,-9.57,0.24
1382,99637982,-0.8403,0.5205,-0.0220,10.98,-9.51,0.49
1383,99643066,-0.8418,0.5205,-0.0166,10.85,-9.33,0.55
1384,99647982,-0.8442,0.5225,-0.0210,10.73,-9.27,0.67
1385,99652982,-0.8398,0.5215,-0.0137,10.79,-9.33,0.85
1386,99657982,-0.8447,0.5200,-0.0225,10.61,-9.27,0.91
1387,99662982,-0.8481,0.5210,-0.0186,10.55,-9.15,1.04
1388,99667982,-0.8457,0.5171,-0.0151,10.55,-9.09,1.10
1389,99672982,-0.8433,0.5190,-0.0176,10.67,-8.84,1.40
1390,99677982,-0.8438,0.5166,-0.0190,10.55,-8.96,1.52
1391,99682982,-0.8398,0.5161,-0.0200,10.67,-8.72,1.59
1392,99687982,-0.8452,0.5186,-0.0195,10.85,-8.66,1.65
1393,99692982,-0.8442,0.5142,-0.0190,11.04,-8.60,1.71
1394,99697982,-0.8462,0.5142,-0.0200,11.34,-8.41,1.77
1395,99702982,-0.8442,0.5122,-0.0186,11.52,-8.48,2.01
1396,99707982,-0.8408,0.5142,-0.0190,11.89,-8.48,2.01
1397,99712982,-0.8433,0.5127,-0.0190,12.13,-8.41,2.20
1398,99717982,-0.8418,0.5142,-0.0195,12.32,-8.41,2.20
1399,99723046,-0.8481,0.5146,-0.0234,12.56,-8.23,2.50
1400,99727982,-0.8481,0.5088,-0.0229,12.68,-8.17,2.44
1401,99732982,-0.8457,0.5112,-0.0181,12.99,-8.17,2.68
1402,99737981,-0.8472,0.5068,-0.0186,13.17,-8.17,2.80
1403,99742982,-0.8438,0.5093,-0.0176,13.23,-8.05,2.80
1404,99747982,-0.8408,0.5088,-0.0220,13.54,-8.11,3.05
1405,99752980,-0.8442,0.5073,-0.0220,13.54,-8.05,3.29
1406,99757982,-0.8442,0.5083,-0.0181,13.66,-8.05,3.41
1407,99762982,-0.8438,0.5078,-0.0151,13.96,-7.87,3.48
1408,99767982,-0.8457,0.5034,-0.0200,14.15,-7.80,3.60
1409,99772980,-0.8408,0.5078,-0.0161,14.27,-7.74,3.72
1410,99778107,-0.8413,0.5059,-0.0107,14.39,-7.80,3.90
1411,99782982,-0.8423,0.5112,-0.0171,14.39,-7.56,4.09
1412,99787981,-0.8398,0.5044,-0.0146,14.45,-7.68,4.09
1413,99793016,-0.8423,0.5020,-0.0137,14.57,-7.62,4.15
1414,99797981,-0.8452,0.5029,-0.0146,14.51,-7.56,4.39
1415,99802982,-0.8491,0.5015,-0.0151,14.51,-7.50,4.33
1416,99807982,-0.8496,0.5059,-0.0195,14.33,-7.56,4.33
1417,99812982,-0.8521,0.5059,-0.0190,14.33,-7.56,4.39
1418,99817982,-0.8491,0.5093,-0.0176,14.15,-7.44,4.39
1419,99822982,-0.8491,0.5054,-0.0151,14.21,-7.44,4.51
1420,99827982,-0.8462,0.5015,-0.0156,14.02,-7.32,4.57
1421,99832982,-0.8457,0.5049,-0.0166,13.84,-7.32,4.45
1422,99837982,-0.8506,0.5039,-0.0161,13.66,-7.32,4.45
1423,99842982,-0.8496,0.5039,-0.0195,13.41,-7.26,4.51
1424,99847982,-0.8506,0.5063,-0.0142,13.23,-7.26,4.45
1425,99852980,-0.8506,0.5024,-0.0127,12.87,-7.32,4.57
1426,99857982,-0.8521,0.5024,-0.0181,12.68,-7.20,4.51
1427,99862982,-0.8472,0.5029,-0.0200,12.38,-7.26,4.51
1428,99867981,-0.8486,0.5039,-0.0137,12.20,-7.26,4.51
1429,99872982,-0.8491,0.5049,-0.0166,11.89,-7.01,4.45
1430,99877981,-0.8452,0.5020,-0.0122,11.71,-7.07,4.45
1431,99882982,-0.8438,0.5044,-0.0132,11.52,-7.07,4.45
1432,99887981,-0.8442,0.5020,-0.0122,11.40,-6.95,4.51
1433,99892982,-0.8486,0.4985,-0.0137,11.16,-6.83,4.45
1434,99897981,-0.8486,0.5039,-0.0117,11.04,-6.71,4.51
1435,99902982,-0.8516,0.5029,-0.0122,11.04,-6.71,4.39
1436,99907981,-0.8501,0.5005,-0.0156,10.91,-6.71,4.57
1437,99912982,-0.8506,0.5015,-0.0151,10.73,-6.65,4.51
1438,99917981,-0.8496,0.5005,-0.0146,10.73,-6.59,4.57
1439,99922982,-0.8467,0.5029,-0.0137,10.67,-6.46,4.63
1440,99927981,-0.8486,0.5044,-0.0161,10.73,-6.22,4.57
1441,99932982,-0.8496,0.5024,-0.0088,10.61,-6.34,4.63
1442,99937981,-0.8521,0.4980,-0.0142,10.55,-6.10,4.63
1443,99942982,-0.8447,0.4976,-0.0088,10.73,-6.10,4.57
1444,99947981,-0.8452,0.5010,-0.0103,10.91,-6.04,4.57
1445,99952982,-0.8438,0.5015,-0.0132,11.04,-5.79,4.45
1446,99957982,-0.8418,0.4985,-0.0146,11.22,-5.79,4.45
1447,99962982,-0.8442,0.4961,-0.0137,11.34,-5.67,4.51
1448,99967981,-0.8477,0.4941,-0.0171,11.52,-5.55,4.45
1449,99972982,-0.8423,0.4971,-0.0156,11.52,-5.37,4.33
1450,99977981,-0.8467,0.5015,-0.0132,11.59,-5.37,4.33
1451,99982984,-0.8428,0.4941,-0.0156,11.71,-5.30,4.27
1452,99987982,-0.8418,0.4961,-0.0132,11.52,-5.12,4.15
1453,99993057,-0.8398,0.4961,-0.0103,11.40,-5.06,3.96
1454,99998731,-0.8442,0.4966,-0.0132,11.22,-5.00,3.90
1455,100002983,-0.8438,0.4976,-0.0098,11.10,-4.82,3.78
1456,100007983,-0.8423,0.4971,-0.0088,10.91,-4.70,3.78
1457,100012983,-0.8423,0.4946,-0.0029,10.67,-4.70,3.66
1458,100017982,-0.8403,0.4976,-0.0044,10.24,-4.63,3.54
1459,100023103,-0.8438,0.4980,-0.0132,9.76,-4.51,3.41
1460,100028072,-0.8438,0.4995,-0.0063,9.33,-4.39,3.35
1461,100033120,-0.8438,0.4937,-0.0112,8.84,-4.39,3.29
1462,100037982,-0.8462,0.4951,-0.0112,8.29,-4.21,3.23
1463,100042982,-0.8452,0.4990,-0.0161,7.93,-4.21,2.99
1464,100047982,-0.8394,0.4971,-0.0176,7.44,-4.09,2.93
1465,100052982,-0.8442,0.4946,-0.0107,7.07,-4.21,2.80
1466,100057982,-0.8452,0.5034,-0.0093,6.59,-3.96,2.62
1467,100062980,-0.8433,0.4980,-0.0068,6.04,-3.78,2.56
1468,100067982,-0.8447,0.4932,-0.0132,5.73,-3.78,2.50
1469,100072982,-0.8438,0.4966,-0.0127,5.43,-3.72,2.44
1470,100077982,-0.8467,0.4971,-0.0151,5.00,-3.48,2.38
1471,100082982,-0.8428,0.4951,-0.0142,4.76,-3.54,2.20
1472,100087982,-0.8447,0.4941,-0.0142,4.70,-3.48,2.32
1473,100092982,-0.8408,0.4966,-0.0112,4.51,-3.23,2.20
1474,100097982,-0.8462,0.4995,-0.0132,4.39,-3.11,2.13
1475,100102982,-0.8467,0.4976,-0.0181,4.27,-2.99,2.07
1476,100107982,-0.8486,0.4971,-0.0132,4.27,-2.93,1.95
1477,100112982,-0.8506,0.4941,-0.0122,4.33,-2.80,1.77
1478,100117983,-0.8467,0.4956,-0.0122,4.27,-2.74,1.89
1479,100122983,-0.8472,0.4985,-0.0156,4.33,-2.56,1.77
1480,100127982,-0.8442,0.4985,-0.0171,4.45,-2.50,1.71
1481,100132982,-0.8486,0.4971,-0.0186,4.51,-2.32,1.65
1482,100137982,-0.8477,0.4961,-0.0132,4.57,-2.32,1.52
1483,100142982,-0.8486,0.4985,-0.0210,4.39,-2.32,1.40
1484,100147982,-0.8496,0.4971,-0.0146,4.33,-2.20,1.46
1485,100153500,-0.8511,0.4966,-0.0127,4.33,-2.01,1.46
1486,100157982,-0.8462,0.5000,-0.0195,4.39,-2.07,1.34
1487,100162982,-0.8472,0.4961,-0.0142,4.33,-2.07,1.22
1488,100167982,-0.8496,0.5000,-0.0107,4.21,-1.83,1.22
1489,100172982,-0.8491,0.4990,-0.0186,4.21,-1.83,1.28
1490,100177982,-0.8506,0.4966,-0.0156,4.27,-1.71,1.16
1491,100182982,-0.8540,0.4990,-0.0117,4.15,-1.83,1.22
1492,100187981,-0.8550,0.4971,-0.0112,4.21,-1.52,1.22
1493,100192982,-0.8496,0.5000,-0.0103,4.02,-1.59,1.22
1494,100197982,-0.8506,0.5000,-0.0073,3.90,-1.46,1.16
1495,100202982,-0.8496,0.4985,-0.0146,3.84,-1.52,1.22
1496,100207981,-0.8521,0.4980,-0.0181,3.60,-1.40,1.16
1497,100212982,-0.8521,0.4995,-0.0107,3.54,-1.34,1.28
1498,100217981,-0.8550,0.4946,-0.0176,3.29,-1.40,1.16
1499,100222982,-0.8525,0.4985,-0.0142,3.17,-1.40,1.28
1500,100227981,-0.8555,0.4990,-0.0122,3.05,-1.40,1.22
1501,100232982,-0.8496,0.5005,-0.0166,2.99,-1.34,1.22
1502,100237981,-0.8486,0.4961,-0.0151,3.17,-1.46,1.10
1503,100242982,-0.8472,0.4932,-0.0166,3.11,-1.46,1.16
1504,100247981,-0.8481,0.4951,-0.0181,3.29,-1.40,1.22
1505,100252982,-0.8467,0.4961,-0.0156,3.41,-1.40,1.10
1506,100257981,-0.8462,0.4980,-0.0112,3.60,-1.46,1.10
1507,100262982,-0.8506,0.4927,-0.0122,3.72,-1.40,1.16
1508,100267982,-0.8481,0.4932,-0.0176,3.90,-1.28,1.16
1509,100273208,-0.8428,0.4956,-0.0137,4.33,-1.40,1.22
1510,100277982,-0.8481,0.4951,-0.0137,4.39,-1.52,1.16
1511,100282982,-0.8477,0.4966,-0.0078,4.51,-1.40,1.16
1512,100287982,-0.8481,0.4912,-0.0137,4.70,-1.46,1.10
1513,100292982,-0.8530,0.4985,-0.0156,4.76,-1.52,1.16
1514,100297985,-0.8560,0.4922,-0.0190,4.88,-1.22,1.16
1515,100302980,-0.8496,0.4951,-0.0215,4.88,-1.59,1.10
1516,100308037,-0.8511,0.4951,-0.0161,5.06,-1.52,1.16
1517,100313038,-0.8418,0.4946,-0.0137,5.12,-1.52,1.16
1518,100317981,-0.8457,0.4990,-0.0166,5.18,-1.65,1.16
1519,100322982,-0.8457,0.4922,-0.0122,5.24,-1.71,1.10
1520,100327982,-0.8496,0.4927,-0.0112,5.24,-1.71,1.10
1521,100332982,-0.8447,0.4951,-0.0132,5.18,-1.65,1.10
1522,100337981,-0.8501,0.4937,-0.0161,5.12,-1.83,1.04
1523,100342982,-0.8496,0.4966,-0.0166,4.94,-1.77,1.04
1524,100347982,-0.8491,0.4961,-0.0103,4.88,-1.83,1.10
1525,100352982,-0.8462,0.4951,-0.0103,4.76,-1.77,1.10
1526,100357981,-0.8472,0.4980,-0.0190,4.70,-1.89,1.10
1527,100362982,-0.8496,0.4937,-0.0122,4.63,-1.71,1.04
1528,100367982,-0.8491,0.4961,-0.0122,4.45,-1.83,1.04
1529,100372982,-0.8516,0.4985,-0.0127,4.51,-1.65,0.98
1530,100377981,-0.8530,0.4971,-0.0112,4.39,-1.95,0.91
1531,100382980,-0.8530,0.4937,-0.0137,4.27,-1.89,0.85
1532,100387982,-0.8511,0.4976,-0.0176,4.21,-1.77,0.91
1533,100392981,-0.8442,0.4971,-0.0137,4.09,-1.89,0.85
1534,100397981,-0.8457,0.5005,-0.0107,4.09,-1.83,0.91
1535,100402982,-0.8433,0.5020,-0.0088,4.02,-1.95,0.85
1536,100407981,-0.8491,0.5005,-0.0146,3.84,-1.89,0.85
1537,100413114,-0.8457,0.5000,-0.0146,3.72,-1.89,1.04
1538,100417981,-0.8486,0.5034,-0.0146,3.54,-1.95,1.10
1539,100423030,-0.8467,0.5049,-0.0166,3.29,-1.77,1.28
1540,100427982,-0.8540,0.5049,-0.0132,3.11,-1.77,1.28
1541,100432982,-0.8501,0.5044,-0.0151,2.62,-1.52,1.34
1542,100437981,-0.8540,0.5073,-0.0073,2.13,-1.52,1.59
1543,100442982,-0.8535,0.5078,-0.0132,1.65,-1.28,1.83
1544,100447982,-0.8579,0.5103,-0.0098,1.04,-1.34,2.07
1545,100452982,-0.8579,0.5127,-0.0127,0.37,-1.34,2.32
1546,100457981,-0.8584,0.5122,-0.0093,-0.06,-1.28,2.50
1547,100462982,-0.8564,0.5132,-0.0098,-0.67,-1.22,2.74
1548,100467981,-0.8550,0.5117,-0.0103,-1.10,-1.04,3.05
