# skilleye imu stream v1
# device=xiao_esp32c6 imu=mpu6050 addr=0x68
# rate_hz=200 accel_range_g=16 gyro_range_dps=2000 dlpf_hz=94
# units: accel in g, gyro in deg/s, t_us in microseconds since boot (monotonic)
# no shared clock with the camera -- tap the racket once before each take
# so both recordings share a spike to align on
seq,t_us,ax,ay,az,gx,gy,gz
0,79328846,-0.8555,0.4375,0.1484,-22.38,-6.77,-11.34
1,79333851,-0.8545,0.4365,0.1450,-21.77,-6.83,-11.65
2,79338846,-0.8530,0.4360,0.1494,-20.85,-6.95,-11.89
3,79344114,-0.8501,0.4419,0.1514,-19.88,-7.07,-12.20
4,79348845,-0.8511,0.4409,0.1470,-19.02,-7.13,-12.32
5,79353846,-0.8481,0.4429,0.1489,-17.99,-7.26,-12.44
6,79359079,-0.8481,0.4360,0.1479,-16.52,-7.20,-12.50
7,79363845,-0.8535,0.4370,0.1436,-15.67,-7.38,-12.50
8,79368846,-0.8462,0.4380,0.1421,-14.33,-7.50,-12.62
9,79373847,-0.8481,0.4395,0.1489,-12.99,-7.80,-12.62
10,79378846,-0.8516,0.4404,0.1548,-11.71,-7.99,-12.44
11,79383846,-0.8545,0.4360,0.1436,-10.37,-7.99,-12.44
12,79388847,-0.8545,0.4399,0.1494,-9.09,-8.17,-12.32
13,79393846,-0.8594,0.4365,0.1514,-7.87,-8.29,-12.32
14,79398846,-0.8564,0.4380,0.1489,-6.71,-8.54,-12.13
15,79403848,-0.8540,0.4399,0.1489,-5.67,-8.66,-12.13
16,79408845,-0.8628,0.4409,0.1562,-4.76,-8.84,-11.95
17,79413847,-0.8599,0.4434,0.1489,-3.96,-8.96,-11.89
18,79418845,-0.8618,0.4438,0.1475,-3.35,-9.21,-11.95
19,79423847,-0.8594,0.4453,0.1465,-2.80,-9.45,-12.01
20,79428846,-0.8647,0.4448,0.1406,-2.44,-9.51,-11.89
21,79433847,-0.8618,0.4453,0.1489,-1.89,-9.57,-11.95
22,79438846,-0.8643,0.4448,0.1489,-1.77,-9.76,-12.01
23,79443847,-0.8643,0.4409,0.1445,-1.46,-9.76,-12.13
24,79448970,-0.8652,0.4473,0.1436,-1.52,-9.94,-12.26
25,79453845,-0.8677,0.4468,0.1382,-1.52,-10.00,-12.38
26,79458995,-0.8643,0.4458,0.1392,-1.65,-10.30,-12.56
27,79463845,-0.8701,0.4507,0.1426,-1.77,-10.30,-12.68
28,79468846,-0.8682,0.4531,0.1372,-2.01,-10.43,-12.99
29,79473847,-0.8691,0.4561,0.1299,-2.07,-10.43,-13.35
30,79478845,-0.8745,0.4536,0.1309,-2.38,-10.61,-13.78
31,79483847,-0.8760,0.4551,0.1387,-2.62,-10.85,-14.02
32,79488846,-0.8774,0.4585,0.1367,-2.93,-10.85,-14.27
33,79493846,-0.8799,0.4614,0.1260,-3.23,-11.04,-14.70
34,79499214,-0.8862,0.4604,0.1313,-3.72,-11.22,-15.24
35,79503845,-0.8867,0.4629,0.1353,-3.96,-11.28,-15.55
36,79508846,-0.8916,0.4648,0.1309,-4.02,-11.40,-15.98
37,79513847,-0.8950,0.4692,0.1294,-4.02,-11.71,-16.46
38,79518848,-0.9019,0.4717,0.1328,-3.96,-11.77,-17.01
39,79523847,-0.9155,0.4741,0.1362,-3.66,-11.95,-17.68
40,79529090,-0.9229,0.4673,0.1357,-2.99,-12.13,-18.35
41,79533847,-0.9365,0.4688,0.1362,-2.32,-12.50,-18.96
42,79538847,-0.9512,0.4702,0.1392,-1.46,-12.68,-19.63
43,79543847,-0.9614,0.4692,0.1401,-0.85,-12.50,-20.12
44,79548846,-0.9766,0.4668,0.1367,-0.12,-12.62,-20.49
45,79553847,-0.9775,0.4648,0.1411,0.43,-12.62,-20.91
46,79559095,-0.9746,0.4673,0.1367,0.30,-12.56,-21.16
47,79563847,-0.9663,0.4668,0.1377,0.06,-12.26,-21.46
48,79568846,-0.9658,0.4678,0.1348,-0.79,-11.95,-21.77
49,79573845,-0.9600,0.4673,0.1289,-1.83,-11.52,-21.83
50,79578847,-0.9521,0.4727,0.1313,-3.23,-11.28,-21.95
51,79583846,-0.9424,0.4751,0.1240,-4.94,-11.10,-21.95
52,79588847,-0.9390,0.4731,0.1216,-6.65,-10.85,-22.13
53,79593847,-0.9312,0.4712,0.1196,-8.23,-10.67,-22.01
54,79598847,-0.9199,0.4663,0.1201,-9.82,-10.49,-21.89
55,79603847,-0.9165,0.4600,0.1177,-11.04,-10.12,-21.59
56,79608991,-0.9053,0.4541,0.1211,-12.20,-9.88,-21.34
57,79614298,-0.9033,0.4458,0.1245,-13.11,-9.57,-20.49
58,79618849,-0.9014,0.4424,0.1216,-13.48,-9.39,-20.00
59,79623847,-0.8945,0.4419,0.1167,-13.78,-9.09,-19.15
60,79629130,-0.8838,0.4399,0.1216,-13.96,-8.66,-18.35
61,79633847,-0.8809,0.4351,0.1216,-14.02,-8.29,-17.32
62,79639191,-0.8809,0.4336,0.1172,-14.02,-7.99,-16.34
63,79643847,-0.8794,0.4355,0.1089,-13.78,-7.62,-15.24
64,79648847,-0.8838,0.4375,0.1152,-13.48,-7.26,-14.21
65,79653847,-0.8896,0.4404,0.1177,-12.93,-6.89,-12.87
66,79658847,-0.8911,0.4429,0.1147,-12.56,-6.52,-12.01
67,79663847,-0.8936,0.4395,0.1255,-11.95,-6.04,-10.91
68,79668847,-0.8994,0.4424,0.1216,-11.22,-5.49,-9.88
69,79674101,-0.9043,0.4443,0.1226,-10.43,-4.94,-8.66
70,79678847,-0.9116,0.4463,0.1240,-9.76,-4.15,-7.56
71,79684074,-0.9219,0.4424,0.1284,-8.90,-3.41,-6.40
72,79688848,-0.9341,0.4453,0.1299,-7.80,-2.80,-5.12
73,79693847,-0.9409,0.4429,0.1279,-6.59,-2.01,-3.78
74,79698847,-0.9487,0.4390,0.1353,-5.43,-1.34,-2.38
75,79703847,-0.9551,0.4385,0.1318,-4.15,-0.43,-0.98
76,79708847,-0.9692,0.4365,0.1406,-2.62,0.43,0.49
77,79713848,-0.9756,0.4365,0.1372,-1.10,1.28,2.01
78,79718846,-0.9844,0.4355,0.1333,0.37,1.89,3.48
79,79723849,-0.9868,0.4336,0.1357,1.89,2.74,5.12
80,79728847,-0.9883,0.4360,0.1284,3.35,3.60,6.40
81,79733846,-0.9858,0.4370,0.1274,4.70,4.33,7.93
82,79738847,-0.9922,0.4380,0.1274,5.98,4.82,9.27
83,79743846,-0.9878,0.4404,0.1230,6.83,5.49,10.61
84,79748847,-0.9902,0.4443,0.1162,7.68,6.04,11.89
85,79753847,-0.9883,0.4473,0.1113,8.23,6.52,13.11
86,79758847,-0.9829,0.4463,0.1133,8.90,7.01,14.33
87,79764130,-0.9844,0.4468,0.1138,9.15,7.20,15.43
88,79768847,-0.9751,0.4497,0.1079,9.15,7.50,16.65
89,79774289,-0.9746,0.4536,0.0972,9.15,7.74,17.68
90,79778847,-0.9761,0.4556,0.0928,8.78,7.93,18.60
91,79783846,-0.9717,0.4551,0.0923,8.11,8.05,19.57
92,79788849,-0.9692,0.4570,0.0933,7.38,8.23,20.43
93,79793847,-0.9751,0.4575,0.0898,6.28,8.05,21.34
94,79798847,-0.9751,0.4595,0.0889,4.94,8.29,22.26
95,79803847,-0.9771,0.4604,0.0820,3.41,8.23,23.11
96,79808847,-0.9746,0.4609,0.0781,1.71,8.41,23.84
97,79813848,-0.9766,0.4658,0.0767,-0.30,8.60,24.63
98,79819012,-0.9712,0.4688,0.0801,-2.26,8.78,25.43
99,79823848,-0.9663,0.4717,0.0806,-4.51,9.09,26.10
100,79828847,-0.9683,0.4761,0.0771,-6.77,9.45,26.83
101,79833847,-0.9639,0.4819,0.0815,-9.09,9.88,27.38
102,79839114,-0.9600,0.4834,0.0776,-11.46,10.37,28.05
103,79843847,-0.9629,0.4829,0.0845,-13.78,10.85,28.78
104,79848849,-0.9683,0.4858,0.0811,-15.91,11.59,29.57
105,79853847,-0.9717,0.4878,0.0825,-18.11,12.32,30.37
106,79858847,-0.9722,0.4937,0.0806,-19.70,13.11,31.22
107,79864199,-0.9771,0.4922,0.0825,-21.28,13.84,32.07
108,79868847,-0.9775,0.4873,0.0879,-22.56,14.70,32.99
109,79874076,-0.9785,0.4922,0.0815,-23.66,15.55,33.90
110,79878848,-0.9775,0.4937,0.0786,-24.45,16.77,34.88
111,79883847,-0.9805,0.4907,0.0825,-25.30,17.62,35.85
112,79888847,-0.9834,0.4956,0.0835,-26.10,18.60,36.77
113,79893846,-0.9863,0.4980,0.0820,-26.77,19.51,37.80
114,79898847,-0.9834,0.4995,0.0762,-27.44,20.67,38.96
115,79903847,-0.9741,0.5000,0.0752,-28.48,21.71,39.88
116,79908847,-0.9731,0.5054,0.0728,-29.51,22.80,40.98
117,79913847,-0.9653,0.5156,0.0679,-30.73,23.66,42.13
118,79919037,-0.9595,0.5215,0.0649,-32.20,24.70,43.11
119,79923847,-0.9595,0.5259,0.0615,-33.35,25.67,44.45
120,79928847,-0.9634,0.5303,0.0601,-34.33,26.71,45.55
121,79933847,-0.9595,0.5342,0.0596,-35.30,27.68,46.77
122,79939245,-0.9658,0.5391,0.0518,-35.91,28.54,48.23
123,79943847,-0.9653,0.5435,0.0498,-36.22,29.45,49.51
124,79949151,-0.9668,0.5410,0.0479,-36.28,30.37,50.98
125,79953847,-0.9683,0.5459,0.0356,-36.28,31.34,52.56
126,79958847,-0.9629,0.5522,0.0356,-36.04,31.95,54.09
127,79963850,-0.9570,0.5625,0.0327,-35.61,32.80,55.79
128,79968847,-0.9595,0.5645,0.0283,-35.30,33.84,57.32
129,79973849,-0.9595,0.5732,0.0298,-34.94,34.63,58.84
130,79978847,-0.9634,0.5796,0.0220,-35.00,35.49,60.49
131,79983847,-0.9688,0.5884,0.0259,-35.18,36.46,62.20
132,79988846,-0.9722,0.5952,0.0195,-35.91,37.44,63.84
133,79993849,-0.9741,0.6040,0.0117,-37.07,38.29,65.49
134,79998847,-0.9751,0.6172,0.0127,-38.54,39.27,66.95
135,80003847,-0.9785,0.6289,0.0117,-40.24,40.00,68.11
136,80008847,-0.9766,0.6357,0.0044,-42.26,40.73,69.51
137,80013846,-0.9702,0.6406,-0.0010,-44.15,41.65,70.73
138,80018846,-0.9727,0.6440,0.0039,-46.16,42.26,72.07
139,80023845,-0.9731,0.6582,0.0059,-47.99,42.87,73.54
140,80028847,-0.9790,0.6680,0.0054,-49.57,43.54,74.76
141,80033847,-0.9805,0.6797,0.0107,-51.16,44.33,76.16
142,80038847,-0.9814,0.6860,0.0122,-52.50,45.06,77.32
143,80043847,-0.9829,0.6895,0.0186,-53.72,45.79,78.84
144,80048847,-0.9741,0.6992,0.0122,-54.70,46.65,80.37
145,80053847,-0.9712,0.7070,0.0166,-55.85,47.20,81.71
146,80058847,-0.9663,0.7231,0.0151,-56.83,48.05,83.48
147,80063856,-0.9585,0.7368,0.0181,-58.05,48.72,85.55
148,80068846,-0.9468,0.7427,0.0098,-59.21,49.51,85.55
149,80073847,-0.9316,0.7505,0.0127,-60.12,50.06,87.20
150,80079228,-0.9272,0.7554,0.0161,-60.73,50.85,89.21
151,80083847,-0.9219,0.7578,0.0098,-61.22,51.65,91.22
152,80088847,-0.9175,0.7607,0.0146,-61.28,52.38,93.17
153,80093847,-0.9160,0.7666,0.0122,-61.10,52.87,95.30
154,80098847,-0.9082,0.7744,0.0137,-60.61,53.48,97.26
155,80103846,-0.8975,0.7856,0.0171,-60.00,54.09,99.15
156,80108847,-0.8896,0.7935,0.0190,-59.39,54.63,101.10
157,80113849,-0.8809,0.8062,0.0186,-58.60,55.24,102.99
158,80118847,-0.8784,0.8247,0.0361,-57.87,55.61,104.70
159,80123846,-0.8813,0.8345,0.0361,-57.13,56.10,106.34
160,80128847,-0.8955,0.8472,-0.0122,-56.46,55.73,107.80
161,80133849,-0.9072,0.8506,0.1025,-55.73,55.37,109.45
162,80139204,-0.8887,0.8472,0.0420,-54.21,55.55,111.04
163,80143847,-0.8833,0.8516,0.0615,-52.50,55.06,112.62
164,80148847,-0.8877,0.8589,0.0947,-50.55,54.57,114.39
165,80153847,-0.8799,0.8711,0.0913,-48.54,54.02,116.04
166,80158851,-0.8721,0.8896,0.0854,-46.40,53.23,117.68
167,80163847,-0.8691,0.8965,0.0972,-44.21,52.38,119.45
168,80169100,-0.8687,0.9062,0.1060,-42.01,51.40,121.28
169,80173847,-0.8638,0.9097,0.1079,-39.76,50.30,123.29
170,80179158,-0.8584,0.9165,0.1143,-37.13,48.96,125.24
171,80183847,-0.8535,0.9121,0.1240,-34.39,47.62,127.62
172,80188849,-0.8428,0.9102,0.1309,-31.22,46.22,129.88
173,80193849,-0.8345,0.9121,0.1353,-27.93,45.12,132.56
174,80198848,-0.8315,0.9185,0.1411,-24.45,43.96,135.12
175,80203847,-0.8125,0.9199,0.1562,-21.04,43.05,137.87
176,80208847,-0.8003,0.9277,0.1606,-17.80,42.07,140.37
177,80213847,-0.7983,0.9365,0.1592,-15.00,41.10,142.93
178,80218847,-0.7974,0.9526,0.1592,-12.56,40.00,145.18
179,80223847,-0.7983,0.9648,0.1592,-10.55,39.15,147.20
180,80229221,-0.8013,0.9775,0.1553,-9.27,38.17,149.02
181,80233848,-0.8027,0.9829,0.1562,-8.41,37.07,150.30
182,80238847,-0.7959,0.9829,0.1641,-8.05,36.28,151.89
183,80244033,-0.7910,0.9883,0.1694,-8.11,34.82,153.66
184,80248846,-0.7866,0.9897,0.1753,-8.84,33.90,154.82
185,80254062,-0.7729,0.9961,0.1675,-10.73,32.38,156.59
186,80258846,-0.7622,0.9995,0.1709,-12.68,31.34,157.93
187,80263847,-0.7500,1.0049,0.1670,-16.04,29.94,159.39
188,80268847,-0.7441,1.0151,0.1646,-20.12,28.72,161.04
189,80273847,-0.7271,1.0190,0.1704,-24.70,27.32,162.68
190,80278847,-0.7070,1.0244,0.1680,-29.63,26.04,164.51
191,80283847,-0.6831,1.0190,0.1821,-35.24,24.76,166.89
192,80288847,-0.6719,1.0249,0.1489,-38.90,23.84,168.60
193,80293847,-0.6597,1.0249,0.1787,-43.11,23.05,170.98
194,80298846,-0.6528,1.0210,0.1846,-46.89,22.20,173.41
195,80303847,-0.6484,1.0103,0.1846,-50.30,21.40,176.16
196,80308846,-0.6401,0.9990,0.2202,-52.93,20.98,179.09
197,80313847,-0.6533,1.0308,0.1787,-55.24,20.67,182.07
198,80318846,-0.6558,1.0303,0.2373,-57.87,20.37,185.06
199,80323846,-0.6543,1.0435,0.1973,-60.91,20.06,187.93
200,80328845,-0.6445,1.0527,0.1982,-64.15,19.33,190.67
201,80333847,-0.6440,1.0547,0.2280,-67.56,18.90,193.17
202,80338847,-0.6460,1.0615,0.2227,-71.59,18.11,195.43
203,80343991,-0.5767,1.1904,0.3770,-77.56,17.07,197.87
204,80348847,-0.5884,1.1689,0.2734,-82.99,16.65,198.96
205,80354078,-0.6152,1.1670,0.2163,-89.27,14.45,201.52
206,80358847,-0.5625,1.1606,0.2798,-94.27,12.44,203.29
207,80363847,-0.5117,1.0806,0.4873,-99.21,11.77,204.94
208,80369084,-0.4609,1.0806,0.4946,-107.74,9.21,207.32
209,80373847,-0.4360,1.1426,0.3613,-113.66,6.65,209.27
210,80378847,-0.4580,1.1660,0.4946,-120.55,3.60,211.83
211,80384114,-0.4790,1.1416,0.5557,-127.68,-0.18,215.49
212,80388847,-0.4678,1.1245,0.4556,-131.34,-2.80,218.23
213,80393846,-0.4702,1.0889,0.4497,-135.49,-6.95,221.83
214,80398847,-0.4736,1.0581,0.5649,-138.96,-10.91,225.55
215,80403849,-0.4600,1.0298,0.5508,-141.59,-14.76,229.27
216,80409047,-0.4473,1.0288,0.5391,-143.72,-20.30,233.72
217,80413847,-0.4541,1.0103,0.5132,-144.57,-24.33,236.34
218,80418845,-0.4106,0.9165,0.6079,-145.00,-28.72,239.57
219,80423845,-0.3662,0.8379,0.6196,-144.45,-33.23,242.56
220,80428845,-0.3320,0.8359,0.5562,-144.15,-38.05,244.57
221,80433845,-0.3745,0.7227,0.6680,-144.15,-43.11,245.85
222,80438845,-0.3555,0.6689,0.7568,-144.21,-47.62,246.83
223,80443845,-0.2676,0.6719,0.7358,-144.70,-52.38,246.95
224,80448845,-0.2319,0.6670,0.7207,-146.77,-57.74,245.79
225,80453845,-0.2988,0.6606,0.7236,-148.90,-63.17,244.15
226,80458845,-0.3535,0.6577,0.6929,-150.30,-68.54,241.77
227,80463845,-0.3916,0.6206,0.6016,-150.30,-73.60,239.27
228,80468845,-0.3765,0.5840,0.5557,-148.96,-78.41,236.40
229,80473845,-0.3408,0.5332,0.5479,-146.28,-82.62,233.35
230,80478845,-0.2920,0.4976,0.5269,-142.44,-86.52,230.24
231,80483845,-0.2349,0.4570,0.4575,-138.23,-90.18,226.89
232,80488845,-0.2441,0.4263,0.3989,-134.21,-93.54,223.29
233,80493845,-0.2393,0.3999,0.3604,-130.18,-96.34,219.51
234,80498845,-0.2329,0.3765,0.3320,-126.28,-99.09,215.49
235,80503847,-0.2314,0.3628,0.2832,-122.87,-101.89,211.22
236,80508848,-0.2178,0.3472,0.2441,-119.51,-104.33,207.01
237,80513853,-0.1982,0.3462,0.2314,-116.28,-106.46,202.62
238,80518849,-0.1182,0.3398,0.2148,-112.74,-108.72,198.17
239,80523847,-0.1128,0.2896,0.2305,-109.39,-110.61,193.48
240,80528845,-0.1016,0.2217,0.2583,-106.71,-111.89,189.39
241,80533845,-0.0713,0.1665,0.2524,-103.90,-112.68,185.79
242,80538845,0.0918,0.0679,0.2217,-100.49,-113.60,183.05
243,80543845,0.0977,0.0581,0.2397,-96.04,-114.27,181.04
244,80548845,0.0698,0.1152,0.2368,-91.46,-114.70,178.72
245,80553845,0.0425,0.1953,0.2402,-86.52,-114.76,175.91
246,80558845,0.0000,0.2974,0.2715,-81.40,-114.45,172.50
247,80563845,-0.0791,0.4790,0.2495,-76.28,-114.15,167.80
248,80568845,-0.2031,0.6167,0.2236,-70.91,-113.90,160.98
249,80573845,-0.2080,0.5977,0.3301,-65.30,-112.80,153.05
250,80578845,-0.1797,0.5864,0.4634,-59.70,-110.49,145.06
251,80583845,-0.1812,0.6274,0.5747,-54.33,-107.01,136.65
252,80588845,-0.1616,0.6475,0.6353,-48.96,-102.13,127.07
253,80593845,-0.1025,0.5347,0.6333,-42.99,-97.01,117.56
254,80598845,-0.0425,0.4307,0.5508,-36.04,-92.80,108.48
255,80603845,0.0327,0.4043,0.4922,-27.80,-88.90,99.57
256,80608845,0.2402,0.3618,0.5562,-18.48,-85.43,90.18
257,80613845,0.4473,0.3179,0.7603,-8.41,-80.91,82.01
258,80618845,0.5967,0.2705,0.8306,2.26,-74.51,73.54
259,80623845,0.6646,0.2451,0.6465,13.96,-68.35,65.67
260,80628845,0.6221,0.3096,0.4697,24.57,-63.66,57.87
261,80633846,0.5918,0.3457,0.3779,33.35,-59.70,50.00
262,80638845,0.6040,0.3633,0.3325,39.94,-55.98,42.26
263,80643845,0.6455,0.3779,0.2769,44.94,-52.56,34.63
264,80648845,0.6982,0.3779,0.2417,49.02,-49.21,27.20
265,80653845,0.7354,0.3555,0.2573,52.50,-46.34,20.12
266,80658845,0.7598,0.3398,0.2710,55.30,-43.35,13.54
267,80663845,0.7695,0.3477,0.2798,57.01,-40.06,7.32
268,80668845,0.7578,0.3481,0.3057,58.29,-36.77,1.10
269,80673845,0.7329,0.3799,0.3511,58.60,-33.41,-4.82
270,80678845,0.7197,0.4102,0.3936,58.05,-29.76,-10.61
271,80683845,0.7114,0.4468,0.4224,56.65,-25.79,-16.46
272,80688845,0.7139,0.4766,0.4287,54.15,-21.71,-22.07
273,80693845,0.7153,0.4946,0.4346,50.30,-17.99,-27.56
274,80698845,0.7236,0.5063,0.4341,45.49,-14.51,-32.99
275,80703845,0.7354,0.5249,0.4409,39.63,-11.16,-37.99
276,80708845,0.7505,0.5386,0.4497,32.50,-8.17,-42.80
277,80713845,0.7725,0.5625,0.4487,24.45,-5.43,-47.56
278,80718845,0.7710,0.5845,0.4321,15.61,-3.17,-51.89
279,80723845,0.7583,0.6006,0.4062,6.10,-1.52,-55.91
280,80728845,0.7593,0.6152,0.4092,-3.60,-0.06,-59.15
281,80733845,0.7749,0.6274,0.4106,-13.23,0.73,-61.83
282,80738845,0.7744,0.6387,0.4189,-22.38,1.28,-63.60
283,80743845,0.7808,0.6484,0.4307,-30.79,1.22,-64.33
284,80748845,0.7656,0.6724,0.4556,-38.66,0.85,-64.09
285,80753845,0.7563,0.7075,0.4780,-45.37,-0.06,-63.05
286,80758845,0.7544,0.7466,0.5073,-50.91,-1.40,-61.34
287,80763845,0.7490,0.7861,0.5396,-55.24,-2.93,-58.90
288,80768845,0.7485,0.8242,0.5874,-58.60,-4.45,-55.98
289,80773845,0.7598,0.8540,0.6196,-61.04,-6.59,-52.93
290,80778845,0.7754,0.8828,0.6523,-62.74,-8.78,-49.33
291,80783845,0.7798,0.9062,0.6865,-63.60,-11.16,-45.67
292,80788845,0.7744,0.9346,0.7041,-64.02,-13.90,-41.65
293,80793845,0.7754,0.9585,0.7441,-63.96,-16.77,-37.62
294,80798845,0.7705,0.9780,0.7827,-64.09,-19.45,-33.48
295,80803845,0.7788,0.9819,0.8169,-64.39,-22.62,-29.27
296,80808845,0.7725,0.9863,0.8501,-65.37,-25.73,-25.06
297,80813845,0.7778,0.9844,0.8809,-67.13,-29.15,-20.85
298,80818845,0.7808,0.9834,0.8877,-69.45,-32.93,-16.65
299,80823845,0.7798,0.9878,0.8989,-72.50,-36.83,-12.44
300,80828845,0.7764,0.9868,0.9150,-75.79,-40.73,-8.41
301,80833845,0.7686,0.9829,0.9365,-79.33,-44.94,-4.39
302,80838845,0.7656,0.9902,0.9565,-82.87,-49.33,-0.30
303,80843845,0.7524,0.9912,0.9678,-86.16,-54.02,3.48
304,80848845,0.7402,0.9995,0.9819,-89.15,-58.60,7.38
305,80853845,0.7275,1.0103,0.9844,-91.95,-63.72,11.10
306,80858845,0.7075,1.0103,0.9937,-94.70,-68.84,14.70
307,80863845,0.6953,1.0049,1.0063,-97.26,-74.02,18.11
308,80868845,0.6978,1.0034,1.0220,-99.39,-79.33,21.28
309,80873845,0.6924,1.0015,1.0220,-100.85,-84.57,24.21
310,80879159,0.6753,0.9966,1.0137,-101.95,-90.24,27.01
311,80883848,0.6665,0.9927,1.0088,-102.74,-95.79,29.57
312,80888847,0.6582,0.9834,1.0010,-103.35,-101.52,31.89
313,80893846,0.6479,0.9717,0.9839,-103.72,-107.26,34.27
314,80898847,0.6338,0.9546,0.9668,-103.54,-113.17,36.22
315,80903847,0.6240,0.9463,0.9580,-103.11,-119.21,37.93
316,80908845,0.6094,0.9316,0.9385,-102.44,-125.00,39.27
317,80913845,0.5986,0.9180,0.9229,-101.28,-130.79,40.61
318,80918847,0.5747,0.8994,0.8955,-100.30,-136.52,41.59
319,80923849,0.5625,0.8784,0.8784,-99.09,-142.38,42.26
320,80928846,0.5508,0.8643,0.8560,-97.68,-147.99,42.68
321,80933847,0.5342,0.8413,0.8311,-96.22,-153.72,42.93
322,80938847,0.5205,0.8184,0.8086,-94.51,-159.39,43.05
323,80943846,0.5059,0.8003,0.7808,-92.68,-164.70,43.05
324,80948845,0.4897,0.7812,0.7539,-90.61,-170.06,42.68
325,80953845,0.4800,0.7607,0.7222,-88.41,-175.37,42.38
326,80958862,0.4619,0.7422,0.6841,-86.22,-180.43,42.07
327,80963845,0.4478,0.7202,0.6528,-83.72,-185.18,41.71
328,80968845,0.4326,0.7026,0.6201,-81.52,-189.88,41.34
329,80973846,0.4155,0.6826,0.5840,-79.33,-194.39,40.98
330,80978921,0.4023,0.6689,0.5576,-77.56,-198.66,40.55
331,80984113,0.3828,0.6523,0.5181,-75.79,-202.62,40.12
332,80989140,0.3672,0.6343,0.4932,-74.15,-206.34,39.57
333,80993847,0.3535,0.6172,0.4575,-72.87,-210.12,39.27
334,80998847,0.3408,0.5981,0.4297,-71.77,-213.66,38.60
335,81004148,0.3237,0.5864,0.4009,-70.55,-217.01,38.23
336,81008847,0.3105,0.5698,0.3730,-69.45,-220.24,37.50
337,81013847,0.2900,0.5542,0.3433,-68.54,-223.66,36.77
338,81018848,0.2749,0.5391,0.3174,-67.44,-226.52,35.91
339,81023847,0.2588,0.5259,0.2891,-66.40,-229.51,34.94
340,81029071,0.2480,0.5142,0.2583,-65.06,-232.38,33.84
341,81034065,0.2314,0.4976,0.2324,-63.35,-235.18,32.56
342,81039132,0.2192,0.4800,0.2036,-61.52,-237.74,31.28
343,81043847,0.2090,0.4673,0.1753,-59.27,-240.37,29.88
344,81048846,0.1982,0.4546,0.1392,-56.89,-242.87,28.35
345,81053848,0.1860,0.4419,0.1113,-54.21,-245.30,26.83
346,81058847,0.1611,0.4253,0.0811,-51.40,-247.68,25.24
347,81064136,0.1553,0.4141,0.0493,-48.60,-249.94,23.41
348,81068847,0.1396,0.3989,0.0288,-45.37,-252.13,21.71
349,81073847,0.1177,0.3901,-0.0015,-42.32,-254.33,19.76
350,81079051,0.0991,0.3760,-0.0317,-39.33,-256.52,17.87
351,81084046,0.0942,0.3618,-0.0518,-36.34,-258.41,15.91
352,81088847,0.0713,0.3564,-0.0742,-33.41,-260.43,13.84
353,81093849,0.0513,0.3496,-0.1099,-30.85,-262.01,11.65
354,81098847,0.0244,0.3452,-0.1284,-28.60,-264.02,9.51
355,81104077,0.0098,0.3350,-0.1562,-26.89,-265.67,6.95
356,81108847,-0.0054,0.3301,-0.1802,-25.91,-267.26,4.39
357,81113849,-0.0293,0.3301,-0.2085,-25.55,-268.90,1.52
358,81118846,-0.0571,0.3306,-0.2378,-26.16,-270.55,-1.71
359,81124353,-0.0850,0.3301,-0.2642,-27.62,-272.07,-5.00
360,81128849,-0.1138,0.3311,-0.2949,-30.00,-273.54,-8.72
361,81133847,-0.1392,0.3384,-0.3325,-33.29,-275.00,-12.80
362,81138846,-0.1572,0.3384,-0.3643,-37.44,-276.40,-17.13
363,81143848,-0.1890,0.3477,-0.4033,-42.13,-277.99,-21.89
364,81148845,-0.2021,0.3213,-0.4390,-47.07,-279.21,-26.83
365,81153849,-0.2202,0.3223,-0.4795,-52.44,-280.55,-31.89
366,81159321,-0.2407,0.3105,-0.5200,-57.80,-282.07,-37.01
367,81164148,-0.2539,0.3198,-0.5645,-62.99,-283.41,-42.32
368,81168847,-0.2661,0.3188,-0.6030,-68.17,-284.57,-48.05
369,81173846,-0.2866,0.3296,-0.6533,-73.11,-285.85,-54.09
370,81179269,-0.2944,0.3281,-0.7007,-77.68,-286.65,-60.37
371,81183847,-0.3340,0.3301,-0.7383,-81.83,-287.13,-67.07
372,81188848,-0.3569,0.3350,-0.7798,-85.49,-287.32,-73.96
373,81193847,-0.3838,0.3394,-0.8252,-88.41,-287.13,-81.16
374,81198850,-0.4189,0.3486,-0.8662,-90.85,-286.46,-88.54
375,81204337,-0.4355,0.3545,-0.8984,-92.62,-285.30,-96.10
376,81208847,-0.4297,0.3560,-0.9429,-93.54,-283.48,-103.90
377,81213845,-0.4624,0.3501,-0.9668,-93.11,-281.04,-111.77
378,81218845,-0.4678,0.3491,-0.9863,-91.95,-277.74,-119.70
379,81223846,-0.5273,0.3477,-1.0034,-90.49,-273.66,-127.80
380,81228847,-0.6060,0.3530,-1.0244,-89.45,-268.48,-135.79
381,81233845,-0.7109,0.3750,-1.0869,-88.78,-263.17,-144.21
382,81238847,-0.7773,0.3721,-1.1348,-88.11,-257.07,-152.62
383,81243846,-0.8208,0.3730,-1.2012,-87.62,-250.18,-161.16
384,81249202,-0.8960,0.3760,-1.3003,-87.13,-242.62,-169.57
385,81253847,-0.9800,0.3628,-1.3496,-86.04,-236.46,-176.40
386,81258849,-1.1392,0.4087,-1.4248,-83.41,-225.98,-186.65
387,81263847,-1.2324,0.4814,-1.4937,-79.88,-216.22,-195.61
388,81268998,-1.3267,0.5317,-1.5400,-74.70,-205.30,-204.94
389,81273847,-1.4282,0.5723,-1.5552,-69.27,-195.61,-212.74
390,81278847,-1.5103,0.6255,-1.5786,-61.22,-181.89,-222.87
391,81283849,-1.5620,0.6665,-1.6079,-52.56,-166.52,-233.23
392,81289148,-1.5054,0.6943,-1.6299,-43.05,-146.16,-246.16
393,81294104,-1.4229,0.7100,-1.6475,-37.01,-127.38,-257.13
394,81298847,-1.3911,0.7173,-1.6689,-34.15,-111.40,-266.34
395,81303847,-1.4131,0.7388,-1.6987,-32.80,-90.37,-278.05
396,81308846,-1.4077,0.7817,-1.7197,-35.00,-67.07,-290.55
397,81313847,-1.4087,0.7773,-1.7407,-40.30,-41.89,-303.72
398,81318846,-1.3970,0.7651,-1.8423,-48.48,-15.12,-317.01
399,81324020,-1.4165,0.7979,-1.9512,-60.79,19.15,-333.23
400,81329684,-1.4546,0.8516,-2.0225,-72.07,49.27,-346.71
401,81333849,-1.5161,0.9170,-2.0781,-82.87,80.91,-360.30
402,81339151,-1.5762,0.9727,-2.1597,-91.22,114.09,-373.48
403,81343847,-1.6357,1.0171,-2.2100,-94.88,141.65,-383.66
404,81348851,-1.7480,1.0947,-2.2822,-93.54,184.27,-397.50
405,81353847,-1.8110,1.1611,-2.3164,-87.20,213.48,-405.85
406,81358849,-1.9043,1.2788,-2.3975,-69.09,258.11,-417.38
407,81363847,-1.9531,1.3540,-2.4224,-51.83,288.11,-424.63
408,81368847,-2.0298,1.4575,-2.4707,-25.06,326.16,-433.29
409,81373847,-2.1606,1.5669,-2.5361,6.04,364.15,-441.95
410,81379144,-2.3525,1.6890,-2.5947,46.89,409.21,-451.83
411,81383847,-2.4790,1.7925,-2.5913,74.94,438.60,-458.41
412,81388847,-2.5522,1.9302,-2.6128,110.24,474.39,-467.07
413,81393847,-2.8403,2.0195,-2.6694,144.76,508.54,-475.67
414,81398847,-3.1343,2.0933,-2.7007,174.57,541.59,-484.39
415,81403847,-3.3364,2.2041,-2.7036,198.23,572.74,-493.11
416,81408847,-3.5488,2.2847,-2.7163,215.24,603.11,-501.83
417,81413846,-3.8003,1.6753,-2.5737,224.33,633.41,-505.30
418,81418847,-3.9292,3.4116,-3.1411,225.67,665.67,-507.87
419,81423846,-3.9399,3.2588,-2.5547,220.67,689.33,-512.01
420,81428847,-3.7871,2.8950,-2.2192,209.51,720.30,-514.70
421,81433846,-3.6860,2.7710,-2.6792,192.87,743.66,-515.18
422,81438846,-3.6191,3.0342,-2.4521,171.83,763.41,-515.00
423,81443847,-3.6567,3.3755,-1.9629,149.70,783.72,-515.91
424,81448846,-3.6318,3.5459,-1.8906,127.20,800.79,-517.50
425,81453847,-3.3892,3.3408,-1.6807,106.40,814.21,-517.87
426,81458847,-3.5884,2.9482,-1.5815,86.95,826.71,-512.87
427,81463849,-3.7759,2.6699,-1.4409,65.12,836.83,-501.28
428,81468847,-3.9004,2.6323,-1.3672,39.39,843.66,-483.54
429,81474139,-3.9448,2.6167,-1.2012,4.39,848.11,-456.28
430,81478847,-3.8467,2.6108,-0.8979,-21.40,849.15,-432.80
431,81484249,-3.7227,2.6001,-0.6250,-65.49,847.99,-390.55
432,81489247,-3.6045,2.5938,-0.5132,-107.50,842.26,-348.66
433,81494062,-3.4414,2.5200,-0.3145,-155.37,830.30,-300.30
434,81499235,-3.3906,2.6626,0.1162,-208.60,813.23,-246.89
435,81503847,-3.5747,2.8164,0.5156,-251.71,799.02,-203.41
436,81508847,-3.6846,2.8105,0.9536,-302.50,781.71,-148.96
437,81513847,-3.5615,2.6655,1.2402,-347.80,763.35,-94.15
438,81518846,-3.3320,2.5327,1.4146,-387.13,741.46,-38.66
439,81523845,-3.1113,2.4009,1.6450,-419.02,714.94,16.04
440,81528932,-2.9482,2.2378,1.8267,-441.16,683.90,69.33
441,81533849,-2.7412,2.1143,2.0010,-452.68,648.23,119.51
442,81538846,-2.5786,1.9858,2.0303,-454.33,608.54,165.43
443,81543845,-2.5093,1.8262,2.1050,-447.38,565.49,205.98
444,81548845,-2.3501,1.6455,2.1943,-433.11,520.79,240.73
445,81554085,-2.2827,1.5020,2.2095,-410.49,474.51,269.76
446,81558846,-2.0957,1.3174,2.2466,-381.22,429.15,292.50
447,81564335,-1.7495,1.1880,2.2544,-339.82,377.13,312.32
448,81568929,-1.6538,1.1113,2.1719,-308.78,344.27,321.22
449,81573849,-1.5044,1.0483,2.1079,-267.44,304.63,327.56
450,81578846,-1.3359,0.9810,2.0654,-224.70,268.23,329.33
451,81583847,-1.1665,0.8145,2.0410,-181.65,234.51,327.62
452,81588846,-0.9219,0.7056,1.9951,-137.68,204.21,323.29
453,81593847,-0.8369,0.6821,1.9204,-93.90,176.16,316.46
454,81598849,-0.7310,0.6260,1.8579,-51.65,150.67,307.68
455,81603847,-0.5913,0.5483,1.7715,-13.05,127.44,297.74
456,81609155,-0.4761,0.5005,1.6479,20.61,106.65,286.95
457,81613847,-0.4204,0.4517,1.5288,48.17,87.62,275.73
458,81618955,-0.3628,0.3975,1.4062,68.66,70.00,264.09
459,81623847,-0.2905,0.3628,1.3062,82.32,53.96,252.07
460,81628847,-0.2031,0.3330,1.2295,89.82,39.02,239.94
461,81633847,-0.1558,0.2959,1.1665,91.95,25.37,227.56
462,81638846,-0.0752,0.2852,1.1064,90.30,12.62,215.00
463,81643847,-0.0127,0.2710,1.0522,85.49,0.98,202.56
464,81649559,0.0396,0.2275,0.9834,77.01,-11.89,187.56
465,81653847,0.0620,0.1963,0.9497,70.30,-19.70,177.80
466,81658846,0.0923,0.1694,0.8999,61.65,-28.84,165.85
467,81663847,0.1221,0.1318,0.8672,52.50,-36.65,154.15
468,81668845,0.1475,0.0977,0.8296,44.21,-43.78,142.93
469,81673849,0.1685,0.0522,0.7993,36.95,-49.94,132.13
470,81678847,0.1885,0.0459,0.7568,31.28,-55.12,121.83
471,81684138,0.2056,0.0464,0.7207,27.56,-59.63,112.32
472,81688847,0.2188,0.0405,0.7070,24.94,-63.54,102.87
473,81693846,0.2251,0.0366,0.6909,22.99,-66.52,93.54
474,81699148,0.2222,0.0366,0.6807,21.77,-68.90,84.82
475,81703847,0.2373,0.0376,0.6475,21.22,-70.43,75.85
476,81708847,0.2622,0.0581,0.6226,20.98,-71.34,67.13
477,81713847,0.2632,0.0874,0.5972,20.61,-71.89,58.96
478,81718847,0.3081,0.0820,0.5815,21.04,-72.01,50.85
479,81723846,0.3442,0.0703,0.5508,21.16,-71.40,43.54
480,81728845,0.3457,0.0791,0.5215,20.55,-70.06,36.46
481,81733845,0.3359,0.0942,0.5078,18.96,-68.72,29.70
482,81738845,0.3428,0.1128,0.4810,16.22,-67.13,23.29
483,81743845,0.3506,0.1279,0.4697,12.68,-64.88,17.26
484,81748845,0.3535,0.1382,0.4556,8.17,-62.62,11.65
485,81753847,0.3569,0.1509,0.4448,2.93,-60.18,6.22
486,81758973,0.3711,0.1606,0.4263,-3.17,-57.56,1.10
487,81763847,0.3809,0.1812,0.4141,-9.76,-54.94,-4.02
488,81768846,0.3887,0.1968,0.3965,-17.01,-52.32,-8.66
489,81774092,0.4043,0.2080,0.3813,-24.63,-49.70,-13.48
490,81778847,0.4126,0.2197,0.3643,-32.62,-47.26,-17.93
491,81783846,0.4214,0.2266,0.3496,-40.49,-44.88,-22.01
492,81789237,0.4292,0.2383,0.3394,-48.05,-42.20,-25.79
493,81793996,0.4463,0.2466,0.3223,-55.18,-39.88,-29.45
494,81798847,0.4604,0.2637,0.3057,-61.40,-37.20,-32.68
495,81803847,0.4800,0.2817,0.2979,-66.59,-34.63,-35.79
496,81808846,0.5005,0.2925,0.2827,-70.73,-31.83,-38.54
497,81813847,0.5146,0.2988,0.2695,-73.96,-28.96,-41.04
498,81818845,0.5269,0.3091,0.2539,-76.10,-25.98,-43.35
499,81823954,0.5361,0.3276,0.2412,-77.01,-22.50,-45.43
500,81828847,0.5552,0.3550,0.2344,-76.89,-19.27,-47.32
501,81833846,0.5737,0.3804,0.2354,-75.79,-15.79,-49.02
502,81838847,0.5884,0.4106,0.2334,-73.84,-12.26,-50.67
503,81843845,0.6040,0.4331,0.2295,-71.10,-8.72,-52.20
504,81848849,0.6147,0.4580,0.2295,-67.74,-5.24,-54.02
505,81853847,0.6191,0.4888,0.2231,-64.39,-1.77,-55.73
506,81858962,0.6221,0.5151,0.2188,-61.16,1.95,-57.26
507,81864136,0.6279,0.5371,0.2109,-57.87,5.37,-58.90
508,81868847,0.6309,0.5566,0.2065,-55.12,8.54,-60.43
509,81873847,0.6455,0.5747,0.1948,-52.80,11.46,-62.26
510,81878848,0.6562,0.5903,0.1982,-51.04,14.15,-63.90
511,81884041,0.6597,0.6064,0.1953,-49.82,16.71,-65.55
512,81889143,0.6714,0.6235,0.2056,-49.09,19.09,-67.32
513,81893847,0.6733,0.6333,0.2129,-49.02,21.22,-69.02
514,81898989,0.6758,0.6406,0.2168,-49.33,23.35,-70.85
515,81903847,0.6772,0.6470,0.2217,-50.12,25.12,-72.44
516,81908846,0.6753,0.6504,0.2271,-51.28,26.89,-74.27
517,81913847,0.6787,0.6548,0.2310,-52.80,28.54,-75.79
518,81918847,0.6797,0.6577,0.2378,-54.39,30.00,-77.38
519,81924115,0.6777,0.6577,0.2373,-56.22,31.52,-78.78
520,81929056,0.6812,0.6611,0.2334,-58.05,32.68,-80.06
521,81933847,0.6768,0.6763,0.2295,-59.82,33.90,-81.34
522,81938869,0.6724,0.6909,0.2183,-61.16,34.88,-82.44
523,81943849,0.6621,0.7124,0.2188,-62.26,35.79,-83.35
524,81948848,0.6567,0.7236,0.2158,-62.74,36.71,-84.09
525,81953847,0.6450,0.7358,0.2251,-62.50,37.56,-84.70
526,81958847,0.6333,0.7427,0.2295,-61.83,38.48,-85.00
527,81963847,0.6353,0.7466,0.2358,-60.61,39.27,-85.18
528,81968847,0.6279,0.7461,0.2456,-59.33,39.88,-85.06
529,81973847,0.6245,0.7432,0.2524,-57.50,40.67,-84.70
530,81978849,0.6187,0.7446,0.2534,-55.43,41.28,-84.27
531,81983847,0.6099,0.7417,0.2607,-53.35,41.71,-83.78
532,81989097,0.6099,0.7485,0.2686,-51.34,41.83,-83.11
533,81994044,0.6069,0.7549,0.2803,-49.45,42.26,-82.74
534,81998847,0.6016,0.7656,0.2876,-47.74,42.20,-82.32
535,82003985,0.6064,0.7705,0.3013,-46.04,42.07,-82.13
536,82008847,0.5952,0.7656,0.3013,-44.88,42.07,-81.77
537,82013846,0.5884,0.7583,0.3140,-43.78,42.07,-81.65
538,82018849,0.5845,0.7510,0.3257,-43.05,41.59,-81.46
539,82023847,0.5811,0.7505,0.3252,-42.26,41.10,-81.22
540,82029026,0.5698,0.7544,0.3340,-41.59,40.43,-81.04
541,82033847,0.5571,0.7690,0.3428,-40.73,39.76,-81.04
542,82038847,0.5542,0.7881,0.3579,-39.45,39.21,-81.10
543,82043847,0.5513,0.8037,0.3784,-37.56,38.35,-80.98
544,82048847,0.5654,0.8135,0.3848,-35.30,37.44,-80.79
545,82054134,0.5732,0.8281,0.3931,-32.99,36.77,-80.73
546,82059031,0.5889,0.8311,0.3999,-30.55,35.73,-80.61
547,82063846,0.5864,0.8306,0.3994,-28.41,34.57,-80.43
548,82069169,0.5850,0.8320,0.4019,-26.46,33.66,-80.24
549,82073847,0.5674,0.8291,0.4043,-25.06,32.62,-80.00
550,82079106,0.5522,0.8213,0.3940,-24.39,31.65,-79.76
551,82083847,0.5488,0.8135,0.3950,-24.33,30.61,-79.39
552,82088846,0.5386,0.7949,0.3940,-24.94,29.82,-79.15
553,82093849,0.5283,0.7773,0.3892,-26.04,28.84,-78.84
554,82098847,0.5181,0.7822,0.3911,-27.44,27.87,-78.60
555,82104021,0.5020,0.7944,0.4019,-28.96,27.07,-78.72
556,82108847,0.5117,0.8140,0.4111,-30.49,26.46,-78.72
557,82113849,0.5132,0.8184,0.4321,-31.83,25.79,-78.90
558,82118846,0.5112,0.8105,0.4414,-33.17,25.12,-79.09
559,82123845,0.5044,0.8198,0.4302,-34.39,24.09,-79.09
560,82128845,0.5005,0.8271,0.4277,-34.94,23.23,-79.02
561,82133845,0.5049,0.8403,0.4351,-35.06,22.26,-78.78
562,82138845,0.5005,0.8428,0.4502,-34.94,21.46,-78.54
563,82143845,0.4971,0.8442,0.4434,-34.57,20.43,-78.29
564,82148845,0.4956,0.8530,0.4507,-34.09,19.82,-78.11
565,82153845,0.5112,0.8701,0.4556,-33.66,18.84,-77.99
566,82158845,0.4893,0.8594,0.4717,-33.23,18.05,-77.99
567,82163851,0.4702,0.8491,0.4551,-33.11,17.56,-77.99
568,82168880,0.4678,0.8594,0.4380,-32.68,16.95,-78.11
569,82173847,0.4717,0.8691,0.4399,-32.26,16.34,-78.35
570,82178888,0.4736,0.8682,0.4419,-31.71,16.16,-78.72
571,82184102,0.4668,0.8599,0.4512,-31.65,15.91,-79.27
572,82189201,0.4395,0.8560,0.4316,-31.95,15.79,-79.82
573,82194020,0.4326,0.8643,0.4385,-32.32,15.73,-80.49
574,82199192,0.4404,0.8799,0.4600,-32.74,15.79,-81.28
575,82203848,0.4409,0.8853,0.4536,-32.99,15.91,-81.89
576,82208847,0.4424,0.8848,0.4731,-33.05,16.04,-82.50
577,82213849,0.4189,0.8555,0.5273,-33.11,15.91,-82.93
578,82218847,0.4121,0.8545,0.5117,-33.78,15.98,-83.17
579,82224113,0.4121,0.8633,0.4766,-34.02,15.55,-83.41
580,82229077,0.3979,0.8862,0.5029,-34.33,15.18,-83.66
581,82234190,0.3833,0.8892,0.5474,-35.24,15.06,-83.84
582,82238847,0.3706,0.8779,0.5430,-36.40,14.82,-83.96
583,82243846,0.3555,0.8647,0.5151,-37.80,14.39,-84.02
584,82248849,0.3384,0.8530,0.5220,-39.21,13.90,-84.15
585,82253847,0.2778,0.8472,0.5283,-40.24,13.84,-84.21
586,82258847,0.2905,0.8394,0.5186,-41.52,13.96,-84.33
587,82264277,0.2998,0.8306,0.5068,-42.62,13.90,-84.21
588,82269053,0.3003,0.8345,0.5215,-43.48,14.09,-84.33
589,82273847,0.2871,0.8301,0.5278,-43.96,14.63,-84.33
590,82278918,0.2778,0.8291,0.5146,-44.39,15.12,-84.33
591,82284193,0.2588,0.8252,0.5176,-44.63,15.43,-84.21
592,82289194,0.2461,0.8179,0.5337,-44.76,16.04,-83.96
593,82294079,0.2358,0.8174,0.5337,-44.57,16.83,-84.02
594,82299286,0.2354,0.8154,0.5356,-44.27,17.38,-83.96
595,82304071,0.2363,0.8052,0.5522,-43.72,17.99,-84.09
596,82309056,0.2329,0.7778,0.6167,-41.77,18.90,-83.96
597,82313847,0.2241,0.7773,0.6338,-38.48,19.70,-83.90
598,82319092,0.2158,0.7568,0.6226,-34.94,20.18,-83.84
599,82324255,0.2012,0.7515,0.5840,-31.46,20.30,-83.78
600,82329089,0.1851,0.7505,0.6021,-28.35,20.43,-84.21
601,82334175,0.1772,0.7705,0.6260,-25.91,20.79,-84.70
602,82339006,0.1479,0.7607,0.5947,-23.54,21.10,-85.49
603,82343847,0.1279,0.7515,0.5640,-21.10,20.85,-86.22
604,82348846,0.1152,0.7446,0.5859,-18.60,20.73,-86.95
605,82353849,0.1011,0.7344,0.6035,-15.98,20.73,-87.62
606,82358845,0.0981,0.7217,0.5659,-13.90,20.61,-88.23
607,82363847,0.0874,0.7051,0.5747,-11.10,20.55,-89.21
608,82369043,0.0845,0.7173,0.5981,-9.39,20.37,-90.30
609,82374189,0.0728,0.7104,0.5938,-8.05,20.37,-91.40
610,82378847,0.0635,0.6885,0.5625,-7.26,20.30,-92.44
611,82383846,0.0508,0.6978,0.5688,-6.71,20.37,-94.09
612,82389144,0.0435,0.6978,0.5898,-6.40,20.55,-95.61
613,82393845,0.0444,0.7134,0.5742,-6.52,20.43,-97.01
614,82398847,0.0361,0.7129,0.5552,-7.01,20.55,-98.84
615,82403847,0.0337,0.7231,0.5679,-7.62,20.61,-100.30
616,82408847,0.0220,0.7192,0.5688,-8.41,20.43,-102.20
617,82413846,0.0054,0.7104,0.5503,-9.33,20.43,-103.96
618,82418847,-0.0122,0.7041,0.5488,-10.18,20.12,-105.98
619,82423847,-0.0288,0.7065,0.5537,-11.10,19.94,-107.68
620,82428847,-0.0381,0.7100,0.5488,-11.77,19.70,-109.33
621,82433846,-0.0415,0.7148,0.5366,-12.50,19.63,-111.22
622,82438847,-0.0527,0.7148,0.5444,-12.87,19.45,-113.11
623,82443849,-0.0640,0.7119,0.5464,-13.05,19.21,-114.88
624,82448846,-0.0698,0.7100,0.5366,-12.87,19.02,-116.77
625,82453845,-0.0820,0.7109,0.5381,-12.44,19.02,-118.72
626,82459066,-0.0947,0.7202,0.5327,-11.46,18.96,-121.16
627,82463849,-0.1074,0.7207,0.5488,-10.79,19.02,-122.74
628,82468850,-0.1157,0.7310,0.5459,-9.45,19.09,-125.18
629,82473845,-0.1240,0.7427,0.5439,-8.66,19.09,-126.83
630,82478962,-0.1377,0.7749,0.5537,-7.56,19.39,-129.63
631,82484191,-0.1514,0.7988,0.5776,-6.95,19.63,-131.95
632,82489149,-0.1650,0.8198,0.5698,-6.34,19.94,-134.57
633,82494010,-0.1763,0.8335,0.5640,-6.46,20.12,-137.01
634,82499114,-0.1885,0.8467,0.5684,-6.77,20.24,-139.45
635,82504166,-0.2017,0.8599,0.5723,-7.44,20.24,-141.89
636,82508847,-0.2075,0.8682,0.5674,-7.93,20.18,-143.66
637,82513929,-0.2173,0.8740,0.5684,-8.96,20.37,-145.91
638,82518847,-0.2275,0.8774,0.5757,-9.39,20.37,-148.05
639,82524160,-0.2505,0.8765,0.5767,-9.94,20.43,-150.37
640,82529072,-0.2593,0.8696,0.5684,-9.88,20.55,-151.95
641,82534155,-0.2749,0.8618,0.5718,-9.27,20.55,-153.60
642,82538847,-0.2925,0.8525,0.5771,-8.60,20.79,-154.76
643,82543848,-0.3086,0.8467,0.5771,-7.26,21.10,-156.16
644,82548847,-0.3257,0.8467,0.5693,-5.73,21.52,-157.38
645,82553847,-0.3384,0.8389,0.5728,-3.96,21.89,-158.54
646,82558847,-0.3501,0.8281,0.5684,-2.01,22.38,-159.76
647,82564062,-0.3574,0.8208,0.5693,0.00,22.87,-161.10
648,82569078,-0.3677,0.8193,0.5645,1.65,23.48,-162.26
649,82574185,-0.3809,0.8281,0.5742,2.87,23.84,-163.54
650,82578847,-0.3926,0.8369,0.5781,3.35,24.15,-164.57
651,82583847,-0.4043,0.8452,0.5762,3.23,24.57,-165.91
652,82588845,-0.4224,0.8599,0.5796,2.20,24.82,-167.38
653,82593849,-0.4292,0.8696,0.5767,0.24,24.94,-168.72
654,82598847,-0.4478,0.8774,0.5796,-2.38,24.88,-169.94
655,82604093,-0.4746,0.8848,0.5757,-6.16,24.76,-171.46
656,82608847,-0.4888,0.8877,0.5796,-9.02,24.70,-172.20
657,82613847,-0.5098,0.8906,0.5830,-13.11,24.45,-173.17
658,82618847,-0.5225,0.8940,0.5850,-16.40,24.39,-174.09
659,82623847,-0.5283,0.8911,0.5884,-18.66,24.45,-174.51
660,82628847,-0.5352,0.8877,0.5908,-21.71,24.45,-175.12
661,82634241,-0.5415,0.8799,0.5991,-23.84,24.57,-175.43
662,82639317,-0.5503,0.8706,0.6050,-25.37,24.94,-175.43
663,82643847,-0.5547,0.8677,0.6016,-26.28,25.12,-175.37
664,82648847,-0.5620,0.8657,0.6035,-27.20,25.79,-175.43
665,82653980,-0.5776,0.8652,0.6104,-27.68,26.52,-175.49
666,82658848,-0.5825,0.8662,0.6152,-27.80,27.38,-175.67
667,82663847,-0.5933,0.8711,0.6226,-27.74,28.48,-175.91
668,82669211,-0.6055,0.8794,0.6211,-27.62,29.88,-176.59
669,82673847,-0.6143,0.8813,0.6357,-27.50,30.91,-177.20
670,82678847,-0.6230,0.8804,0.6382,-27.62,32.13,-177.68
671,82684236,-0.6392,0.8774,0.6426,-27.68,33.78,-178.23
672,82688847,-0.6465,0.8784,0.6499,-27.87,34.88,-178.66
673,82693847,-0.6655,0.8735,0.6602,-28.23,35.98,-179.09
674,82698848,-0.6855,0.8691,0.6606,-28.66,37.44,-179.51
675,82703845,-0.7021,0.8604,0.6636,-29.02,38.66,-179.63
676,82708847,-0.7163,0.8569,0.6650,-29.51,39.88,-179.88
677,82713852,-0.7261,0.8486,0.6680,-29.94,40.98,-180.00
678,82718845,-0.7412,0.8369,0.6582,-30.43,42.01,-180.00
679,82723849,-0.7588,0.8291,0.6582,-31.10,42.99,-179.94
680,82728846,-0.7729,0.8218,0.6533,-31.77,44.02,-180.12
681,82733847,-0.7896,0.8140,0.6445,-32.38,45.00,-180.18
682,82738848,-0.8047,0.8062,0.6392,-33.11,45.85,-180.30
683,82743847,-0.8110,0.7983,0.6343,-33.60,46.95,-180.43
684,82748847,-0.8257,0.7891,0.6323,-34.15,47.80,-180.67
685,82753846,-0.8350,0.7764,0.6240,-34.63,48.78,-180.91
686,82759078,-0.8486,0.7695,0.6255,-34.94,49.82,-181.28
687,82763846,-0.8618,0.7642,0.6216,-35.49,50.85,-181.71
688,82768847,-0.8721,0.7573,0.6177,-35.67,51.83,-182.01
689,82773847,-0.8848,0.7500,0.6079,-35.85,52.99,-182.32
690,82778847,-0.8926,0.7432,0.6089,-36.10,54.02,-182.87
691,82783847,-0.9087,0.7378,0.6064,-36.10,55.24,-183.23
692,82789278,-0.9243,0.7285,0.6079,-36.22,56.71,-183.72
693,82794097,-0.9326,0.7231,0.6050,-36.28,57.87,-184.02
694,82798848,-0.9390,0.7119,0.6040,-36.28,59.02,-184.33
695,82803847,-0.9463,0.7056,0.6016,-36.28,60.30,-184.63
696,82808847,-0.9497,0.6963,0.6040,-36.28,61.59,-184.76
697,82813847,-0.9531,0.6938,0.6069,-36.28,62.62,-184.76
698,82818847,-0.9653,0.6855,0.6016,-36.34,63.90,-184.94
699,82823847,-0.9741,0.6802,0.6064,-36.28,65.12,-184.88
700,82828847,-0.9810,0.6714,0.6099,-36.34,66.46,-184.88
701,82833847,-0.9893,0.6724,0.6138,-36.22,67.93,-184.82
702,82838847,-0.9971,0.6689,0.6152,-36.16,69.27,-184.57
703,82844089,-1.0093,0.6650,0.6172,-36.28,70.85,-184.51
704,82848848,-1.0195,0.6631,0.6143,-36.22,72.26,-184.57
705,82853845,-1.0259,0.6553,0.6157,-36.16,73.72,-184.39
706,82858847,-1.0420,0.6528,0.6143,-36.22,75.67,-184.39
707,82863847,-1.0513,0.6509,0.6143,-35.98,77.13,-184.45
708,82868847,-1.0586,0.6494,0.6177,-35.61,78.96,-184.57
709,82873847,-1.0620,0.6494,0.6255,-35.43,80.30,-184.51
710,82879003,-1.0688,0.6396,0.6216,-34.70,81.89,-184.39
711,82883846,-1.0698,0.6333,0.6206,-34.02,83.29,-184.39
712,82888847,-1.0693,0.6260,0.6235,-33.17,85.73,-184.15
713,82893847,-1.0737,0.6152,0.6245,-32.01,85.91,-183.78
714,82898847,-1.0786,0.6113,0.6235,-30.67,86.22,-183.29
715,82903847,-1.0776,0.6011,0.6211,-29.70,88.23,-182.99
716,82908847,-1.0752,0.6006,0.6230,-28.05,89.88,-182.44
717,82913847,-1.0747,0.5898,0.6118,-26.10,91.22,-181.65
718,82918847,-1.0737,0.5835,0.6245,-24.76,92.01,-180.98
719,82923847,-1.0786,0.5757,0.6187,-22.99,92.99,-180.18
720,82928847,-1.0874,0.5659,0.6108,-20.85,93.72,-178.84
721,82933847,-1.0991,0.5552,0.6201,-18.96,94.39,-177.56
722,82938847,-1.0977,0.5503,0.6113,-17.38,94.51,-176.46
723,82943847,-1.0933,0.5405,0.6133,-15.43,94.76,-174.88
724,82948846,-1.1050,0.5278,0.6187,-13.41,94.57,-173.17
725,82953847,-1.1128,0.5195,0.6138,-11.22,94.27,-171.34
726,82958847,-1.1196,0.5078,0.6157,-8.90,94.02,-169.21
727,82963846,-1.1294,0.4922,0.6118,-6.52,93.05,-166.83
728,82968888,-1.1299,0.4785,0.6079,-3.84,92.38,-164.33
729,82973847,-1.1348,0.4521,0.5889,-1.10,90.98,-161.46
730,82978847,-1.1045,0.4482,0.5947,1.65,89.21,-158.35
731,82983847,-1.0615,0.2456,0.4639,3.84,85.37,-153.41
732,82988846,-1.1011,1.0884,1.2485,3.96,79.57,-147.01
733,82993847,-1.1016,0.5703,0.4644,2.26,77.44,-139.39
734,82998848,-1.1343,0.5098,0.5537,0.67,74.33,-135.12
735,83004070,-1.1523,0.3701,0.9702,-1.59,69.15,-128.54
736,83008847,-1.1304,0.2773,0.5498,-5.12,66.16,-121.77
737,83013846,-1.1045,0.4233,0.4795,-9.02,61.28,-115.12
738,83018845,-1.0991,0.4888,0.7285,-13.35,55.61,-108.35
739,83023847,-1.0796,0.4297,0.6953,-18.05,51.77,-101.34
740,83028847,-1.0508,0.4097,0.6211,-22.87,47.07,-94.33
741,83033847,-1.0327,0.4233,0.6973,-27.07,42.62,-87.50
742,83038847,-1.0073,0.4155,0.7241,-30.61,38.90,-80.91
743,83043847,-0.9883,0.3999,0.6753,-33.84,34.39,-73.66
744,83048847,-0.9868,0.4014,0.6196,-35.12,30.55,-67.99
745,83053847,-0.9888,0.4043,0.6279,-35.30,26.83,-62.62
746,83058847,-0.9800,0.3774,0.6157,-34.70,23.84,-58.72
747,83063846,-0.9829,0.3770,0.6104,-32.99,20.18,-54.09
748,83068848,-0.9858,0.3770,0.6035,-30.43,16.83,-50.12
749,83073847,-0.9849,0.3662,0.5903,-26.52,12.87,-45.55
750,83078847,-0.9819,0.3574,0.5947,-23.11,10.30,-42.93
751,83083847,-0.9814,0.3462,0.5786,-18.23,7.38,-39.82
752,83088848,-0.9653,0.3291,0.5742,-12.80,4.39,-36.65
753,83093846,-0.9429,0.3145,0.5947,-6.83,1.77,-33.72
754,83098848,-0.9478,0.3096,0.5786,-0.30,-0.73,-30.98
755,83103847,-0.9766,0.3101,0.5645,6.52,-2.99,-28.11
756,83109061,-0.9897,0.2974,0.5562,13.60,-5.18,-25.49
757,83113848,-0.9966,0.2749,0.5742,21.40,-7.13,-22.68
758,83118847,-1.0083,0.2524,0.5850,29.57,-9.09,-20.00
759,83123847,-1.0132,0.2319,0.5674,37.93,-10.73,-17.07
760,83128846,-1.0122,0.2280,0.5605,46.89,-12.38,-14.15
761,83133847,-0.9927,0.2090,0.5547,55.91,-13.90,-10.98
762,83138847,-0.9731,0.1831,0.5435,65.12,-15.43,-7.99
763,83143847,-0.9570,0.1597,0.5425,74.39,-16.46,-4.70
764,83148969,-0.9429,0.1436,0.5420,83.41,-17.62,-1.77
765,83153847,-0.9233,0.1270,0.5283,92.01,-18.54,1.22
766,83158847,-0.9116,0.1191,0.5278,99.94,-19.39,4.02
767,83163847,-0.9028,0.1118,0.5186,107.07,-19.76,6.59
768,83168847,-0.8999,0.1089,0.5156,113.11,-20.18,8.84
769,83173847,-0.8872,0.1021,0.5093,118.54,-20.37,10.91
770,83178847,-0.8823,0.0957,0.5093,122.80,-20.49,12.74
771,83183847,-0.8745,0.0947,0.4985,126.34,-20.49,14.21
772,83188847,-0.8677,0.0928,0.4922,129.76,-20.30,15.43
773,83193846,-0.8584,0.0874,0.4814,129.94,-20.43,16.52
774,83198847,-0.8569,0.0918,0.4766,132.13,-20.18,17.50
775,83203849,-0.8594,0.0923,0.4707,133.35,-20.24,18.41
776,83208847,-0.8652,0.0918,0.4712,133.66,-20.06,19.02
777,83213847,-0.8716,0.0898,0.4834,133.35,-20.00,19.57
778,83218847,-0.8682,0.0879,0.4829,132.87,-19.70,20.06
779,83223847,-0.8667,0.0830,0.4883,132.01,-19.45,20.37
780,83228847,-0.8667,0.0835,0.4966,129.45,-18.96,20.55
781,83233846,-0.8760,0.0869,0.4995,128.96,-18.23,20.67
782,83238847,-0.8804,0.0918,0.5137,127.62,-17.44,20.49
783,83243847,-0.8921,0.0967,0.5103,124.82,-16.59,20.43
784,83249109,-0.9038,0.0981,0.5093,122.38,-15.73,20.18
785,83253847,-0.9136,0.0977,0.5127,119.94,-15.00,19.82
786,83258847,-0.9253,0.0947,0.5088,117.32,-14.15,19.45
787,83263846,-0.9321,0.0884,0.5029,114.88,-13.41,19.15
788,83268847,-0.9351,0.0889,0.4971,112.13,-12.56,18.72
789,83273847,-0.9375,0.0898,0.4956,109.57,-11.83,18.23
790,83278847,-0.9395,0.0889,0.5010,106.71,-11.52,17.74
791,83283847,-0.9351,0.0835,0.4941,103.78,-10.91,17.20
792,83288847,-0.9321,0.0908,0.4980,100.43,-10.37,16.71
793,83293849,-0.9282,0.0986,0.4927,96.89,-10.12,15.98
794,83298847,-0.9199,0.1069,0.4946,92.99,-9.82,15.37
795,83303849,-0.9194,0.1045,0.4951,89.02,-9.57,14.57
796,83308846,-0.9238,0.0981,0.4878,85.00,-9.76,13.96
797,83313845,-0.9316,0.0898,0.4780,81.40,-9.94,13.48
798,83318847,-0.9375,0.0874,0.4751,78.17,-10.30,12.93
799,83323846,-0.9360,0.0879,0.4702,75.24,-10.91,12.62
800,83328845,-0.9180,0.0898,0.4722,73.17,-11.34,12.32
801,83333845,-0.9238,0.0801,0.4834,71.10,-11.89,12.26
802,83338847,-0.9395,0.0742,0.4849,69.76,-12.44,12.07
803,83343847,-0.9473,0.0811,0.4893,68.72,-12.99,12.07
804,83348847,-0.9448,0.0859,0.4976,68.05,-13.35,12.07
805,83353847,-0.9336,0.0908,0.5078,67.62,-13.60,12.01
806,83358847,-0.9219,0.0850,0.5103,67.50,-13.96,12.07
807,83363846,-0.9106,0.0757,0.5190,67.62,-14.21,12.26
808,83368847,-0.9136,0.0688,0.5332,67.87,-14.27,12.50
809,83373846,-0.9087,0.0581,0.5327,68.41,-14.15,12.93
810,83378847,-0.9019,0.0488,0.5356,69.02,-14.27,13.41
811,83383847,-0.8984,0.0386,0.5312,69.63,-14.27,14.09
812,83388847,-0.8936,0.0356,0.5322,70.24,-14.33,14.82
813,83393848,-0.8901,0.0327,0.5371,70.61,-14.33,15.67
814,83398847,-0.8892,0.0293,0.5337,70.91,-14.45,16.65
815,83403847,-0.8901,0.0259,0.5356,71.10,-14.70,17.68
816,83408942,-0.8989,0.0200,0.5303,70.98,-14.82,18.66
817,83413847,-0.8989,0.0127,0.5293,70.79,-15.06,19.88
818,83418847,-0.9023,0.0161,0.5254,70.12,-15.30,20.98
819,83424048,-0.9023,0.0142,0.5269,69.45,-15.61,22.13
820,83428846,-0.9058,0.0137,0.5376,68.41,-15.91,23.17
821,83434164,-0.9121,0.0112,0.5337,66.95,-16.10,24.27
822,83438847,-0.9199,0.0166,0.5352,65.43,-16.34,25.43
823,83444148,-0.9326,0.0220,0.5439,63.54,-16.40,26.40
824,83448847,-0.9404,0.0161,0.5518,61.52,-16.34,27.44
825,83453847,-0.9580,0.0200,0.5571,59.33,-16.34,28.29
826,83458847,-0.9658,0.0229,0.5508,56.95,-16.28,29.33
827,83463847,-0.9775,0.0264,0.5527,54.45,-16.40,30.24
828,83469185,-0.9873,0.0288,0.5610,51.95,-16.22,30.91
829,83473847,-1.0029,0.0259,0.5557,49.21,-16.22,31.89
830,83478847,-1.0142,0.0278,0.5532,46.71,-16.28,32.68
831,83483847,-1.0176,0.0239,0.5503,43.84,-16.10,33.60
832,83488950,-1.0229,0.0195,0.5586,41.04,-16.16,34.33
833,83493847,-1.0200,0.0220,0.5488,38.41,-16.10,35.24
834,83498847,-1.0161,0.0190,0.5498,35.79,-16.10,36.10
835,83503847,-1.0132,0.0176,0.5479,33.11,-16.16,36.83
836,83508849,-1.0127,0.0156,0.5459,30.30,-16.28,37.68
837,83513846,-1.0024,0.0122,0.5459,27.74,-16.22,38.35
838,83518845,-0.9932,0.0098,0.5415,25.12,-16.22,39.09
839,83523845,-0.9854,0.0098,0.5356,22.26,-16.16,39.82
840,83528845,-0.9712,0.0039,0.5371,19.63,-16.10,40.43
841,83533845,-0.9561,0.0024,0.5342,16.89,-16.10,41.28
842,83538845,-0.9438,0.0039,0.5283,14.09,-16.10,41.89
843,83543845,-0.9292,-0.0015,0.5327,11.40,-15.98,42.62
844,83548849,-0.9233,-0.0073,0.5298,8.66,-15.98,43.29
845,83553847,-0.9106,-0.0049,0.5234,5.85,-16.04,43.84
846,83558847,-0.9043,-0.0049,0.5229,3.23,-16.04,44.39
847,83564011,-0.8975,-0.0059,0.5254,0.43,-16.16,45.00
848,83568847,-0.8970,-0.0073,0.5098,-2.26,-16.34,45.61
849,83573846,-0.8921,-0.0078,0.5132,-4.94,-16.28,46.16
850,83579092,-0.8955,-0.0117,0.5107,-7.74,-16.34,46.65
851,83583847,-0.8979,-0.0142,0.5132,-10.43,-16.59,47.07
852,83588847,-0.9004,-0.0127,0.5044,-13.11,-16.71,47.56
853,83594063,-0.9111,-0.0132,0.5088,-15.73,-16.83,47.99
854,83599190,-0.9160,-0.0112,0.5078,-18.23,-16.83,48.17
855,83604145,-0.9204,-0.0098,0.5132,-20.79,-16.83,48.60
856,83608847,-0.9292,-0.0073,0.5132,-23.11,-16.89,48.72
857,83613847,-0.9390,-0.0039,0.5059,-25.49,-16.77,48.96
858,83618848,-0.9434,-0.0005,0.5127,-27.80,-16.77,48.84
859,83623846,-0.9507,0.0000,0.5122,-30.06,-16.22,48.90
860,83628847,-0.9629,0.0078,0.5171,-32.50,-16.10,48.84
861,83634007,-0.9668,0.0161,0.5161,-34.88,-15.91,48.54
862,83638847,-0.9683,0.0200,0.5186,-37.07,-15.49,48.29
863,83643847,-0.9619,0.0303,0.5142,-39.33,-15.18,47.68
864,83649195,-0.9614,0.0312,0.5181,-41.65,-14.88,47.07
865,83653847,-0.9580,0.0415,0.5146,-43.48,-14.63,46.59
866,83658847,-0.9517,0.0469,0.5083,-46.22,-14.02,45.67
867,83664144,-0.9429,0.0439,0.5039,-48.48,-13.72,44.82
868,83669218,-0.9385,0.0381,0.4971,-50.67,-13.29,44.15
869,83673847,-0.9380,0.0386,0.4902,-52.26,-13.23,43.41
870,83678847,-0.9380,0.0420,0.4888,-54.15,-12.93,42.68
871,83683847,-0.9321,0.0352,0.4897,-55.61,-12.50,41.89
872,83688847,-0.9277,0.0371,0.4834,-57.38,-12.26,41.16
873,83693933,-0.9199,0.0376,0.4849,-58.66,-12.13,40.43
874,83699083,-0.9185,0.0327,0.4917,-59.51,-11.52,39.88
875,83704058,-0.9058,0.0283,0.4985,-60.18,-10.85,39.27
876,83708847,-0.9053,0.0269,0.5020,-60.49,-10.37,38.96
877,83713849,-0.8975,0.0220,0.5015,-60.98,-9.57,38.35
878,83718847,-0.8979,0.0210,0.5020,-60.98,-8.54,37.93
879,83723847,-0.8931,0.0234,0.5024,-60.79,-7.68,37.56
880,83728987,-0.8809,0.0259,0.5020,-60.43,-6.46,36.95
881,83734128,-0.8716,0.0273,0.5068,-60.00,-5.49,36.40
882,83739130,-0.8560,0.0312,0.5098,-59.39,-4.27,35.85
883,83743923,-0.8423,0.0386,0.5103,-59.21,-3.35,35.30
884,83749172,-0.8276,0.0464,0.5020,-58.78,-2.07,34.33
885,83754173,-0.8159,0.0522,0.5122,-58.48,-0.91,33.41
886,83759131,-0.8062,0.0605,0.5024,-58.11,0.30,32.38
887,83763847,-0.7959,0.0601,0.5029,-57.93,1.16,31.52
888,83768847,-0.7920,0.0596,0.4990,-57.62,2.32,30.49
889,83773847,-0.7871,0.0659,0.4995,-57.13,3.29,29.45
890,83778847,-0.7871,0.0605,0.4878,-56.52,4.45,28.41
891,83783847,-0.7954,0.0581,0.4980,-55.79,5.49,27.38
892,83789547,-0.8062,0.0586,0.4961,-54.76,6.46,26.40
893,83793847,-0.8159,0.0576,0.5049,-53.78,7.26,25.73
894,83799194,-0.8267,0.0566,0.5083,-52.26,8.84,24.82
895,83804023,-0.8384,0.0615,0.5127,-50.79,9.82,24.09
896,83808847,-0.8408,0.0581,0.5146,-49.51,10.85,23.41
897,83814228,-0.8467,0.0615,0.5225,-47.74,12.26,22.74
898,83818935,-0.8462,0.0605,0.5269,-46.52,13.41,22.26
899,83824086,-0.8442,0.0620,0.5273,-44.51,15.12,21.52
900,83828847,-0.8457,0.0635,0.5249,-43.41,16.04,21.34
901,83834261,-0.8442,0.0610,0.5200,-41.95,17.32,20.79
902,83839107,-0.8516,0.0605,0.5200,-40.61,18.29,20.55
903,83844002,-0.8506,0.0645,0.5142,-39.70,19.15,20.18
904,83849076,-0.8521,0.0674,0.5146,-38.66,20.00,20.12
905,83853847,-0.8564,0.0703,0.5205,-38.11,20.55,19.88
906,83859047,-0.8560,0.0645,0.5273,-37.32,21.22,19.70
907,83864086,-0.8589,0.0649,0.5215,-36.77,21.77,19.70
908,83868981,-0.8608,0.0688,0.5269,-36.28,22.32,19.82
909,83873847,-0.8726,0.0703,0.5137,-35.79,22.74,19.82
910,83878847,-0.8862,0.0688,0.5234,-35.55,23.17,19.82
911,83883849,-0.9067,0.0723,0.5303,-35.24,23.60,20.06
912,83888846,-0.9175,0.0737,0.5317,-35.12,24.15,20.24
913,83893847,-0.9385,0.0776,0.5449,-35.12,24.63,20.55
914,83898847,-0.9482,0.0811,0.5498,-35.30,25.06,20.67
915,83903847,-0.9653,0.0781,0.5464,-35.61,25.43,21.04
916,83908847,-0.9829,0.0850,0.5483,-35.98,25.61,21.46
917,83913845,-0.9932,0.0884,0.5493,-36.65,25.91,21.77
918,83918846,-1.0107,0.0898,0.5542,-37.26,26.16,22.20
919,83923848,-1.0259,0.0898,0.5483,-38.11,26.40,22.50
920,83928908,-1.0356,0.0898,0.5493,-39.09,26.28,22.93
921,83933847,-1.0352,0.0918,0.5503,-40.00,26.22,23.29
922,83938846,-1.0234,0.0884,0.5425,-40.79,26.16,23.72
923,83943847,-1.0083,0.0801,0.5376,-41.77,25.98,24.09
924,83948847,-0.9976,0.0825,0.5347,-42.32,25.49,24.57
925,83954033,-0.9844,0.0796,0.5278,-43.05,25.24,25.06
926,83959052,-0.9731,0.0791,0.5293,-43.48,24.82,25.43
927,83963847,-0.9697,0.0850,0.5254,-44.09,24.33,25.91
928,83969063,-0.9663,0.0825,0.5151,-44.51,23.78,26.10
929,83974054,-0.9590,0.0879,0.5137,-45.06,23.29,26.28
930,83978847,-0.9551,0.0898,0.5103,-45.55,22.56,26.40
931,83983847,-0.9487,0.0977,0.5049,-46.04,22.07,26.40
932,83988847,-0.9458,0.0967,0.5078,-46.65,21.34,26.28
933,83993993,-0.9385,0.0991,0.5073,-47.32,20.73,26.16
934,83999041,-0.9385,0.0957,0.5015,-47.80,20.18,25.91
935,84004087,-0.9336,0.0952,0.5039,-48.17,19.57,25.73
936,84009116,-0.9316,0.0938,0.4990,-48.60,18.90,25.67
937,84013847,-0.9272,0.0928,0.5024,-48.66,18.29,25.24
938,84018847,-0.9263,0.0938,0.4976,-48.48,17.62,25.00
939,84024275,-0.9180,0.0986,0.4985,-48.29,17.01,24.63
940,84029131,-0.9199,0.0967,0.4873,-48.05,16.40,24.39
941,84034152,-0.9204,0.0977,0.4961,-47.62,15.98,23.96
942,84038847,-0.9165,0.1040,0.4927,-46.95,15.43,23.54
943,84043883,-0.9082,0.1021,0.4824,-46.16,14.76,22.80
944,84049345,-0.9028,0.1045,0.4863,-45.06,14.15,22.07
945,84054040,-0.9004,0.1104,0.4824,-44.21,13.78,21.40
946,84058847,-0.8984,0.1138,0.4863,-43.11,13.29,20.67
947,84063847,-0.8994,0.1250,0.4790,-42.07,13.11,19.70
948,84068847,-0.8979,0.1226,0.4858,-40.67,12.50,18.78
949,84073847,-0.8975,0.1216,0.4829,-39.33,12.20,17.74
950,84079032,-0.8931,0.1191,0.4824,-38.17,11.77,16.83
951,84083847,-0.8916,0.1235,0.4741,-36.83,11.22,15.73
952,84089253,-0.8906,0.1245,0.4639,-35.30,10.67,14.57
953,84093848,-0.8911,0.1211,0.4668,-34.15,10.30,13.84
954,84098949,-0.8936,0.1177,0.4619,-32.74,9.76,12.87
955,84103847,-0.8999,0.1162,0.4570,-31.34,8.84,12.01
956,84109046,-0.9067,0.1177,0.4556,-30.06,8.11,11.16
957,84114111,-0.9180,0.1128,0.4629,-28.54,7.38,10.55
958,84118847,-0.9189,0.1099,0.4614,-27.01,6.46,9.82
959,84124209,-0.9243,0.1050,0.4536,-25.43,5.61,9.45
960,84128990,-0.9238,0.1069,0.4580,-23.90,4.82,8.90
