# skilleye imu stream v1
# device=xiao_esp32c6 imu=mpu6050 addr=0x68
# rate_hz=200 accel_range_g=16 gyro_range_dps=2000 dlpf_hz=94
# units: accel in g, gyro in deg/s, t_us in microseconds since boot (monotonic)
# no shared clock with the camera -- tap the racket once before each take
# so both recordings share a spike to align on
seq,t_us,ax,ay,az,gx,gy,gz
0,787813087,0.2109,0.8374,-0.3149,2.01,42.44,-12.87
1,787818093,0.2090,0.8374,-0.3159,1.77,42.80,-13.05
2,787823086,0.2114,0.8384,-0.3164,1.46,43.11,-13.17
3,787828087,0.2124,0.8364,-0.3145,0.98,43.41,-13.35
4,787833085,0.2109,0.8369,-0.3071,0.49,43.60,-13.54
5,787838085,0.2124,0.8384,-0.3022,0.12,43.66,-13.78
6,787843085,0.2090,0.8398,-0.2979,-0.43,43.84,-13.90
7,787848256,0.2114,0.8379,-0.2998,-0.73,43.96,-14.02
8,787853088,0.2119,0.8384,-0.2920,-0.79,44.15,-14.27
9,787858086,0.2085,0.8389,-0.2915,-1.10,44.09,-14.45
10,787863087,0.2144,0.8413,-0.2832,-1.04,44.09,-14.63
11,787868088,0.2192,0.8433,-0.2793,-1.10,44.21,-14.94
12,787873128,0.2148,0.8486,-0.2793,-1.22,44.15,-15.06
13,787878086,0.2109,0.8564,-0.2769,-1.28,44.02,-15.37
14,787883088,0.2104,0.8545,-0.2812,-1.65,43.84,-15.43
15,787888087,0.2036,0.8618,-0.2754,-1.83,43.78,-15.49
16,787893087,0.2017,0.8667,-0.2681,-2.07,43.41,-15.55
17,787898086,0.1997,0.8730,-0.2661,-2.32,43.29,-15.61
18,787903088,0.1963,0.8730,-0.2666,-2.32,43.11,-15.61
19,787908086,0.1982,0.8745,-0.2705,-2.50,42.87,-15.49
20,787913085,0.1909,0.8823,-0.2642,-2.50,42.68,-15.49
21,787918085,0.1831,0.8823,-0.2588,-2.38,42.50,-15.49
22,787923087,0.1860,0.8848,-0.2544,-2.26,42.13,-15.30
23,787928329,0.1885,0.8906,-0.2559,-1.83,41.77,-15.18
24,787933087,0.1885,0.8916,-0.2544,-1.59,41.52,-15.12
25,787938085,0.1899,0.8970,-0.2500,-1.04,41.10,-15.00
26,787943085,0.1870,0.8989,-0.2466,-0.49,40.79,-14.88
27,787948087,0.1899,0.9019,-0.2446,0.18,40.49,-14.82
28,787953088,0.1875,0.9082,-0.2368,0.73,40.00,-14.63
29,787958086,0.1885,0.9111,-0.2354,1.28,39.57,-14.51
30,787963087,0.1870,0.9111,-0.2393,1.77,39.09,-14.51
31,787968087,0.1880,0.9102,-0.2358,2.20,38.60,-14.45
32,787973087,0.1904,0.9131,-0.2334,2.62,38.17,-14.33
33,787978085,0.1836,0.9165,-0.2329,2.93,37.74,-14.27
34,787983087,0.1851,0.9199,-0.2236,3.17,37.20,-14.09
35,787988088,0.1865,0.9199,-0.2251,3.54,36.71,-14.09
36,787993087,0.1899,0.9146,-0.2280,3.60,36.16,-13.90
37,787998087,0.1904,0.9233,-0.2212,3.72,35.67,-13.84
38,788003091,0.1846,0.9194,-0.2246,3.84,35.00,-13.60
39,788008087,0.1870,0.9219,-0.2139,4.02,34.39,-13.66
40,788013088,0.1890,0.9224,-0.2104,4.27,33.90,-13.54
41,788018085,0.1860,0.9272,-0.2114,4.76,33.35,-13.35
42,788023089,0.1899,0.9282,-0.2119,5.24,32.68,-13.35
43,788028086,0.1953,0.9321,-0.2119,5.67,32.20,-13.35
44,788033087,0.1885,0.9302,-0.2119,6.22,31.59,-13.23
45,788038089,0.1904,0.9302,-0.2104,6.71,30.98,-13.11
46,788043086,0.1885,0.9297,-0.2046,7.20,30.49,-13.11
47,788048085,0.1938,0.9341,-0.2036,7.87,29.94,-13.05
48,788053089,0.1924,0.9307,-0.1992,8.41,29.45,-12.99
49,788058087,0.1909,0.9297,-0.1963,8.78,28.78,-12.80
50,788063086,0.1919,0.9287,-0.1943,9.27,28.29,-12.80
51,788068164,0.1938,0.9292,-0.1948,9.63,27.80,-12.87
52,788073088,0.1943,0.9268,-0.1899,9.88,27.26,-12.68
53,788078087,0.1938,0.9258,-0.1890,9.94,26.65,-12.50
54,788083087,0.1919,0.9302,-0.1870,9.94,26.16,-12.44
55,788088087,0.1953,0.9312,-0.1934,9.88,25.67,-12.26
56,788093087,0.1982,0.9229,-0.1841,9.70,25.18,-12.26
57,788098088,0.1963,0.9277,-0.1895,9.39,24.63,-12.07
58,788103087,0.2031,0.9233,-0.1855,9.02,24.21,-12.01
59,788108085,0.1987,0.9238,-0.1768,8.41,23.54,-11.83
60,788113087,0.1982,0.9233,-0.1826,7.93,22.99,-11.77
61,788118088,0.2002,0.9233,-0.1831,7.32,22.50,-11.52
62,788123087,0.1992,0.9268,-0.1797,6.71,21.95,-11.46
63,788128088,0.1997,0.9258,-0.1787,6.28,21.34,-11.34
64,788133087,0.2002,0.9248,-0.1797,5.79,20.85,-11.22
65,788138087,0.2031,0.9233,-0.1694,5.43,20.24,-10.85
66,788143087,0.2012,0.9253,-0.1719,4.94,19.63,-10.79
67,788148085,0.2046,0.9263,-0.1807,4.76,19.09,-10.67
68,788153087,0.2070,0.9277,-0.1792,4.51,18.54,-10.43
69,788158089,0.2090,0.9272,-0.1714,4.45,17.93,-10.24
70,788163154,0.2075,0.9268,-0.1758,4.39,17.38,-10.06
71,788168085,0.2080,0.9263,-0.1748,4.63,16.65,-9.88
72,788173089,0.2080,0.9277,-0.1797,4.70,16.10,-9.76
73,788178318,0.2090,0.9297,-0.1782,4.88,15.55,-9.51
74,788183087,0.2129,0.9326,-0.1851,5.24,14.76,-9.39
75,788188087,0.2158,0.9336,-0.1807,5.55,14.02,-9.09
76,788193086,0.2129,0.9336,-0.1802,5.98,13.48,-8.84
77,788198087,0.2148,0.9341,-0.1792,6.40,12.68,-8.66
78,788203089,0.2119,0.9331,-0.1836,6.77,12.07,-8.41
79,788208088,0.2153,0.9331,-0.1831,7.32,11.34,-8.17
80,788213087,0.2236,0.9351,-0.1826,7.68,10.73,-7.87
81,788218147,0.2251,0.9312,-0.1758,8.11,10.24,-7.68
82,788223089,0.2349,0.9331,-0.1719,8.54,9.51,-7.38
83,788228086,0.2383,0.9341,-0.1758,8.60,9.15,-7.26
84,788233088,0.2422,0.9360,-0.1743,8.60,8.60,-7.07
85,788238087,0.2471,0.9380,-0.1729,8.23,7.87,-6.89
86,788243086,0.2505,0.9399,-0.1689,7.74,7.50,-6.65
87,788248085,0.2573,0.9355,-0.1709,7.32,6.83,-6.52
88,788253085,0.2573,0.9370,-0.1724,6.59,6.52,-6.34
89,788258089,0.2627,0.9414,-0.1807,5.85,6.04,-6.16
90,788263086,0.2627,0.9448,-0.1802,5.06,5.49,-5.91
91,788268089,0.2637,0.9424,-0.1797,4.33,5.06,-5.73
92,788273086,0.2603,0.9458,-0.1836,3.54,4.57,-5.49
93,788278175,0.2559,0.9492,-0.1831,2.74,4.21,-5.24
94,788283086,0.2563,0.9468,-0.1860,2.13,3.60,-4.88
95,788288089,0.2495,0.9526,-0.1802,1.59,3.23,-4.51
96,788293086,0.2466,0.9551,-0.1860,1.34,2.93,-4.27
97,788298087,0.2383,0.9531,-0.1836,1.10,2.44,-3.90
98,788303086,0.2339,0.9570,-0.1968,1.22,1.89,-3.48
99,788308087,0.2329,0.9570,-0.1997,1.34,1.52,-2.99
100,788313086,0.2246,0.9600,-0.2021,1.59,1.16,-2.62
101,788318088,0.2207,0.9580,-0.2080,1.89,0.67,-2.20
102,788323093,0.2158,0.9580,-0.2046,2.26,0.18,-1.77
103,788328149,0.2109,0.9556,-0.2061,2.74,-0.18,-1.22
104,788333087,0.2036,0.9561,-0.2075,3.17,-0.79,-0.73
105,788338088,0.2046,0.9556,-0.2085,3.78,-1.10,-0.37
106,788343086,0.2002,0.9565,-0.2109,4.15,-1.59,0.12
107,788348085,0.1963,0.9565,-0.2109,4.45,-2.26,0.49
108,788353085,0.1992,0.9536,-0.2192,4.88,-2.93,1.04
109,788358087,0.1973,0.9536,-0.2227,5.30,-3.41,1.40
110,788363086,0.1938,0.9507,-0.2241,5.73,-3.96,1.89
111,788368087,0.1963,0.9512,-0.2192,6.16,-4.33,2.20
112,788373086,0.1938,0.9443,-0.2241,6.52,-4.82,2.62
113,788378087,0.1909,0.9463,-0.2236,6.89,-5.37,2.93
114,788383086,0.1934,0.9448,-0.2251,7.26,-5.85,3.17
115,788388087,0.1929,0.9414,-0.2256,7.32,-6.28,3.54
116,788393085,0.1948,0.9380,-0.2271,7.44,-6.65,3.84
117,788398089,0.1943,0.9351,-0.2349,7.32,-7.13,4.09
118,788403086,0.1963,0.9370,-0.2373,7.13,-7.44,4.27
119,788408087,0.2002,0.9331,-0.2407,6.77,-7.87,4.45
120,788413086,0.1997,0.9292,-0.2383,6.52,-8.23,4.57
121,788418089,0.1987,0.9312,-0.2368,6.10,-8.54,4.88
122,788423086,0.1987,0.9263,-0.2378,5.67,-8.84,5.00
123,788428112,0.2007,0.9233,-0.2368,5.18,-9.21,5.06
124,788433089,0.2021,0.9189,-0.2358,4.88,-9.21,5.24
125,788438189,0.2056,0.9185,-0.2383,4.39,-9.57,5.30
126,788443088,0.2026,0.9141,-0.2432,4.09,-9.76,5.30
127,788448087,0.2065,0.9106,-0.2412,3.78,-9.94,5.37
128,788453085,0.2090,0.9111,-0.2437,3.41,-10.18,5.49
129,788458172,0.2046,0.9082,-0.2422,3.17,-10.30,5.49
130,788463088,0.2090,0.9028,-0.2471,2.99,-10.61,5.55
131,788468087,0.2075,0.9028,-0.2461,2.62,-10.73,5.49
132,788473087,0.2065,0.9023,-0.2388,2.32,-11.04,5.61
133,788478086,0.2095,0.8994,-0.2437,2.01,-11.10,5.61
134,788483087,0.2061,0.8960,-0.2432,1.89,-11.28,5.55
135,788488088,0.2065,0.8955,-0.2480,1.71,-11.46,5.55
136,788493087,0.2065,0.8965,-0.2485,1.59,-11.77,5.49
137,788498088,0.2080,0.8916,-0.2451,1.52,-11.89,5.55
138,788503087,0.2100,0.8926,-0.2456,1.52,-12.07,5.43
139,788508086,0.2104,0.8911,-0.2451,1.71,-12.26,5.30
140,788513086,0.2075,0.8906,-0.2490,1.65,-12.32,5.30
141,788518087,0.2104,0.8877,-0.2471,1.71,-12.50,5.24
142,788523086,0.2065,0.8916,-0.2534,1.77,-12.74,5.06
143,788528085,0.2129,0.8921,-0.2544,1.89,-12.87,4.94
144,788533089,0.2090,0.8911,-0.2588,2.07,-13.05,4.88
145,788538089,0.2109,0.8887,-0.2539,2.07,-13.17,4.88
146,788543086,0.2090,0.8892,-0.2573,2.32,-13.41,4.70
147,788548087,0.2090,0.8911,-0.2612,2.26,-13.48,4.57
148,788553085,0.2070,0.8940,-0.2598,2.44,-13.72,4.45
149,788558085,0.2046,0.8896,-0.2656,2.74,-13.72,4.45
150,788563087,0.2080,0.8921,-0.2607,3.05,-13.90,4.21
151,788568086,0.2075,0.8984,-0.2690,3.35,-13.96,4.15
152,788573085,0.2100,0.8960,-0.2700,3.72,-14.02,4.09
153,788578088,0.2036,0.8960,-0.2686,4.15,-14.09,4.02
154,788583089,0.2026,0.8945,-0.2671,4.45,-14.09,3.96
155,788588087,0.1978,0.8984,-0.2705,4.76,-14.15,3.90
156,788593086,0.2007,0.8984,-0.2788,5.12,-14.15,3.78
157,788598089,0.1963,0.8975,-0.2764,5.24,-14.09,3.84
158,788603086,0.1958,0.8989,-0.2773,5.30,-14.02,3.78
159,788608087,0.1997,0.9004,-0.2754,5.49,-14.02,3.84
160,788613086,0.1973,0.8975,-0.2754,5.24,-13.96,3.78
161,788618089,0.1943,0.9004,-0.2876,5.12,-13.96,3.72
162,788623086,0.2026,0.9038,-0.2871,4.76,-13.84,3.66
163,788628464,0.1997,0.9009,-0.2842,4.39,-13.78,3.72
164,788633087,0.1943,0.9067,-0.2817,4.09,-13.72,3.60
165,788638088,0.1973,0.9092,-0.2861,3.72,-13.41,3.72
166,788643087,0.2017,0.8989,-0.2866,3.23,-13.35,3.72
167,788648087,0.1958,0.9048,-0.2910,2.87,-13.35,3.78
168,788653087,0.1992,0.9033,-0.2866,2.62,-13.17,3.72
169,788658085,0.1978,0.9019,-0.2891,2.38,-13.05,3.78
170,788663087,0.2036,0.8994,-0.2886,2.38,-12.80,3.66
171,788668087,0.2012,0.9014,-0.2925,2.32,-12.56,3.66
172,788673086,0.2002,0.9033,-0.2935,2.20,-12.38,3.72
173,788678087,0.1997,0.9043,-0.2930,2.13,-12.20,3.72
174,788683085,0.2012,0.9009,-0.2974,2.20,-12.07,3.66
175,788688087,0.2046,0.8999,-0.2959,2.01,-11.83,3.66
176,788693086,0.2046,0.9028,-0.3003,2.01,-11.71,3.78
177,788698085,0.2051,0.9023,-0.2983,1.89,-11.46,3.72
178,788703089,0.2002,0.8979,-0.2993,1.77,-11.34,3.78
179,788708087,0.1997,0.8989,-0.2998,1.71,-11.22,3.78
180,788713087,0.2046,0.8999,-0.3071,1.59,-11.04,3.72
181,788718087,0.2021,0.8999,-0.3062,1.46,-11.10,3.78
182,788723086,0.2031,0.8970,-0.3052,1.40,-10.85,3.84
183,788728086,0.2017,0.8955,-0.3013,1.46,-10.55,3.84
184,788733085,0.2065,0.8994,-0.3057,1.40,-10.37,3.96
185,788738089,0.1987,0.8979,-0.3003,1.52,-10.24,3.90
186,788743087,0.2036,0.8979,-0.3032,1.65,-10.00,3.96
187,788748085,0.2036,0.8940,-0.3037,1.77,-9.88,3.96
188,788753089,0.2031,0.8970,-0.3086,1.95,-9.63,3.90
189,788758085,0.1997,0.8965,-0.2983,2.07,-9.39,3.96
190,788763085,0.2026,0.8965,-0.3037,2.13,-9.21,3.90
191,788768085,0.2007,0.8940,-0.3042,2.20,-8.84,3.84
192,788773089,0.1963,0.8921,-0.3008,2.26,-8.66,3.90
193,788778087,0.1987,0.8916,-0.3042,2.38,-8.48,3.72
194,788783086,0.1934,0.8901,-0.3076,2.56,-8.23,3.66
195,788788085,0.1958,0.8940,-0.3047,2.50,-7.93,3.66
196,788793456,0.1914,0.8936,-0.3032,2.38,-7.68,3.66
197,788798089,0.1943,0.8950,-0.3057,2.20,-7.62,3.66
198,788803086,0.1909,0.8931,-0.3081,2.01,-7.20,3.41
199,788808087,0.1919,0.8896,-0.3086,1.65,-6.89,3.48
200,788813086,0.1938,0.8892,-0.3057,1.40,-6.77,3.29
201,788818087,0.1943,0.8872,-0.3081,1.04,-6.65,3.29
202,788823086,0.1953,0.8916,-0.3066,0.79,-6.34,3.11
203,788828087,0.1953,0.8965,-0.3047,0.61,-6.22,3.11
204,788833086,0.1953,0.8911,-0.3081,0.43,-5.79,2.99
205,788838420,0.1934,0.8896,-0.3076,0.37,-5.67,2.87
206,788843088,0.1904,0.8887,-0.3047,0.18,-5.18,2.80
207,788848614,0.1851,0.8896,-0.3032,0.30,-5.00,2.68
208,788853087,0.1875,0.8921,-0.3081,0.30,-4.76,2.62
209,788858086,0.1924,0.8877,-0.3052,0.49,-4.51,2.62
210,788863085,0.1924,0.8926,-0.3057,0.55,-4.21,2.38
211,788868085,0.1909,0.8926,-0.3047,0.61,-3.90,2.26
212,788873088,0.1929,0.8936,-0.2988,0.67,-3.72,2.13
213,788878087,0.1963,0.8921,-0.2998,0.67,-3.54,2.01
214,788883087,0.1953,0.8906,-0.3047,0.55,-3.29,1.89
215,788888089,0.1948,0.8896,-0.3032,0.55,-3.05,1.77
216,788893086,0.1968,0.8911,-0.3071,0.49,-2.93,1.65
217,788898087,0.1987,0.8940,-0.3062,0.30,-2.68,1.52
218,788903086,0.1997,0.8892,-0.3018,0.18,-2.50,1.34
219,788908087,0.2012,0.8931,-0.2993,0.06,-2.38,1.40
220,788913086,0.1992,0.8931,-0.3008,-0.06,-2.38,1.16
221,788918087,0.1992,0.8940,-0.3032,-0.24,-2.13,0.98
222,788923086,0.1987,0.8926,-0.3042,-0.24,-1.95,0.85
223,788928085,0.1948,0.8911,-0.2988,-0.30,-1.65,0.79
224,788933089,0.1992,0.8965,-0.2949,-0.06,-1.59,0.73
225,788938086,0.1934,0.8940,-0.2979,0.24,-1.40,0.55
226,788943089,0.1948,0.8936,-0.2949,0.49,-1.10,0.43
227,788948087,0.1938,0.8921,-0.2930,0.67,-0.98,0.30
228,788953087,0.1929,0.8936,-0.2920,1.04,-0.73,0.30
229,788958086,0.1909,0.8901,-0.2969,1.16,-0.61,0.18
230,788963087,0.1895,0.8940,-0.2954,1.34,-0.37,0.12
231,788968086,0.1943,0.8945,-0.2920,1.28,-0.24,0.00
232,788973087,0.1890,0.8926,-0.2905,1.28,-0.12,-0.06
233,788978087,0.1880,0.8936,-0.2905,1.34,-0.06,-0.18
234,788983087,0.1860,0.8931,-0.2861,1.16,0.12,-0.24
235,788988086,0.1860,0.8936,-0.2905,1.04,0.43,-0.30
236,788993087,0.1895,0.8945,-0.2920,0.98,0.55,-0.49
237,788998279,0.1865,0.8960,-0.2905,0.85,0.67,-0.49
238,789003087,0.1865,0.8955,-0.2920,0.79,0.79,-0.55
239,789008088,0.1865,0.8975,-0.2915,0.67,1.04,-0.67
240,789013088,0.1865,0.8960,-0.2920,0.73,1.28,-0.85
241,789018088,0.1841,0.9004,-0.2896,0.79,1.40,-0.98
242,789023087,0.1831,0.8989,-0.2881,0.91,1.46,-0.85
243,789028085,0.1826,0.8979,-0.2886,0.98,1.59,-1.04
244,789033088,0.1792,0.9009,-0.2871,0.98,1.71,-0.98
245,789038087,0.1802,0.8999,-0.2852,0.98,1.83,-1.04
246,789043087,0.1816,0.8999,-0.2852,0.85,2.01,-1.10
247,789048088,0.1831,0.8994,-0.2852,0.67,2.20,-1.10
248,789053087,0.1802,0.8989,-0.2852,0.37,2.20,-1.10
249,789058087,0.1826,0.8970,-0.2788,0.30,2.26,-1.04
250,789063087,0.1831,0.9028,-0.2793,0.00,2.32,-1.10
251,789068085,0.1846,0.9019,-0.2798,-0.12,2.44,-1.16
252,789073087,0.1855,0.9023,-0.2827,-0.43,2.56,-1.22
253,789078087,0.1875,0.9033,-0.2812,-0.49,2.38,-1.22
254,789083086,0.1865,0.9019,-0.2837,-0.43,2.50,-1.34
255,789088461,0.1865,0.9058,-0.2837,-0.37,2.68,-1.22
256,789093087,0.1890,0.9062,-0.2812,-0.30,2.62,-1.22
257,789098088,0.1919,0.9067,-0.2739,-0.12,2.68,-1.22
258,789103087,0.1934,0.9106,-0.2700,0.06,2.68,-1.34
259,789108087,0.1885,0.9116,-0.2710,0.06,2.87,-1.22
260,789113087,0.1855,0.9126,-0.2734,0.30,2.80,-1.28
261,789118167,0.1870,0.9146,-0.2671,0.55,2.68,-1.28
262,789123088,0.1865,0.9106,-0.2715,0.61,2.68,-1.28
263,789128087,0.1875,0.9106,-0.2749,0.79,2.68,-1.10
264,789133086,0.1880,0.9131,-0.2725,0.91,2.74,-1.10
265,789138089,0.1841,0.9111,-0.2744,1.10,2.87,-1.10
266,789143086,0.1875,0.9131,-0.2700,1.10,2.68,-0.98
267,789148089,0.1865,0.9131,-0.2671,1.10,2.80,-0.85
268,789153086,0.1851,0.9155,-0.2695,0.98,2.93,-0.73
269,789158089,0.1870,0.9170,-0.2646,1.04,2.87,-0.79
270,789163086,0.1890,0.9185,-0.2637,0.98,2.93,-0.61
271,789168085,0.1934,0.9165,-0.2690,1.04,2.80,-0.67
272,789173085,0.1914,0.9185,-0.2627,1.10,2.74,-0.55
273,789178087,0.1914,0.9180,-0.2622,1.10,2.80,-0.49
274,789183086,0.1909,0.9160,-0.2686,1.16,2.74,-0.43
275,789188089,0.1899,0.9175,-0.2686,1.22,2.62,-0.37
276,789193085,0.1885,0.9194,-0.2642,1.40,2.68,-0.24
277,789198087,0.1895,0.9170,-0.2681,1.40,2.50,-0.24
278,789203088,0.1914,0.9126,-0.2651,1.46,2.44,-0.12
279,789208089,0.1885,0.9180,-0.2549,1.46,2.44,0.00
280,789213086,0.1870,0.9175,-0.2583,1.52,2.38,0.06
281,789218087,0.1895,0.9150,-0.2583,1.40,2.56,0.24
282,789223086,0.1851,0.9175,-0.2573,1.46,2.50,0.24
283,789228087,0.1890,0.9111,-0.2617,1.40,2.26,0.24
284,789233086,0.1885,0.9180,-0.2568,1.34,2.32,0.43
285,789238089,0.1855,0.9160,-0.2573,1.16,2.32,0.49
286,789243086,0.1890,0.9150,-0.2568,1.10,2.13,0.55
287,789248087,0.1875,0.9160,-0.2588,0.98,2.07,0.67
288,789253086,0.1836,0.9180,-0.2520,0.85,2.13,0.79
289,789258190,0.1885,0.9146,-0.2490,0.73,2.01,0.85
290,789263086,0.1860,0.9160,-0.2529,0.67,1.95,0.91
291,789268085,0.1836,0.9180,-0.2612,0.79,1.95,0.91
292,789273085,0.1836,0.9155,-0.2520,0.79,1.89,1.04
293,789278085,0.1870,0.9199,-0.2529,0.79,1.77,1.22
294,789283088,0.1885,0.9180,-0.2490,0.91,1.59,1.16
295,789288087,0.1865,0.9194,-0.2554,0.98,1.52,1.22
296,789293087,0.1865,0.9175,-0.2480,1.10,1.59,1.34
297,789298229,0.1860,0.9180,-0.2495,1.34,1.52,1.40
298,789303087,0.1841,0.9175,-0.2529,1.40,1.28,1.46
299,789308088,0.1860,0.9160,-0.2534,1.40,1.34,1.46
300,789313087,0.1890,0.9194,-0.2490,1.40,1.22,1.46
301,789318085,0.1851,0.9189,-0.2485,1.46,1.22,1.59
302,789323089,0.1816,0.9155,-0.2544,1.34,1.10,1.71
303,789328086,0.1865,0.9170,-0.2480,1.22,1.10,1.77
304,789333090,0.1855,0.9189,-0.2539,1.04,1.10,1.83
305,789338087,0.1841,0.9160,-0.2485,0.98,0.91,1.77
306,789343087,0.1880,0.9214,-0.2505,0.79,0.98,1.83
307,789348085,0.1899,0.9160,-0.2510,0.55,0.91,1.89
308,789353089,0.1919,0.9194,-0.2515,0.61,0.85,1.95
309,789358087,0.1909,0.9194,-0.2505,0.55,0.73,1.95
310,789363087,0.1885,0.9165,-0.2490,0.67,0.79,1.95
311,789368086,0.1870,0.9219,-0.2490,0.73,0.73,2.01
312,789373087,0.1909,0.9175,-0.2539,0.73,0.55,2.07
313,789378085,0.1919,0.9209,-0.2568,0.67,0.55,2.07
314,789383087,0.1943,0.9160,-0.2534,0.79,0.61,2.07
315,789388089,0.1885,0.9160,-0.2520,0.85,0.55,2.07
316,789393086,0.1938,0.9180,-0.2451,0.91,0.43,2.07
317,789398087,0.1895,0.9170,-0.2466,0.91,0.43,2.13
318,789403086,0.1890,0.9194,-0.2480,0.85,0.37,2.20
319,789408089,0.1938,0.9165,-0.2476,0.79,0.30,2.13
320,789413086,0.1929,0.9185,-0.2505,0.67,0.24,2.13
321,789418087,0.1938,0.9180,-0.2524,0.55,0.18,2.20
322,789423086,0.1880,0.9136,-0.2505,0.49,-0.06,2.20
323,789428089,0.1890,0.9199,-0.2500,0.37,-0.12,2.13
324,789433086,0.1899,0.9180,-0.2446,0.24,-0.24,2.13
325,789438089,0.1880,0.9146,-0.2461,0.06,-0.24,2.20
326,789443086,0.1890,0.9165,-0.2490,0.06,-0.24,2.20
327,789448087,0.1875,0.9160,-0.2520,-0.06,-0.18,2.32
328,789453086,0.1865,0.9189,-0.2466,0.00,-0.43,2.26
329,789458089,0.1899,0.9121,-0.2495,0.12,-0.37,2.26
330,789463086,0.1885,0.9136,-0.2466,0.24,-0.37,2.20
331,789468087,0.1855,0.9136,-0.2451,0.43,-0.43,2.26
332,789473085,0.1919,0.9102,-0.2520,0.61,-0.55,2.26
333,789478085,0.1909,0.9121,-0.2451,0.79,-0.55,2.26
334,789483087,0.1895,0.9116,-0.2461,1.10,-0.61,2.26
335,789488087,0.1870,0.9121,-0.2480,1.34,-0.73,2.26
336,789493086,0.1855,0.9106,-0.2500,1.40,-0.67,2.26
337,789498087,0.1880,0.9102,-0.2456,1.71,-0.73,2.26
338,789503086,0.1880,0.9126,-0.2417,1.83,-0.73,2.26
339,789508085,0.1885,0.9087,-0.2402,1.77,-0.73,2.20
340,789513089,0.1904,0.9111,-0.2451,1.65,-0.67,2.20
341,789518087,0.1909,0.9058,-0.2393,1.52,-0.91,2.20
342,789523087,0.1909,0.9062,-0.2456,1.40,-0.98,2.01
343,789528088,0.1885,0.9067,-0.2437,1.16,-1.10,1.95
344,789533087,0.1929,0.9053,-0.2505,0.91,-1.10,1.95
345,789538087,0.1929,0.9072,-0.2495,0.67,-1.22,1.83
346,789544703,0.1875,0.9097,-0.2485,0.30,-1.28,1.71
347,789548088,0.1924,0.9072,-0.2456,0.24,-1.40,1.65
348,789553087,0.1895,0.9072,-0.2480,-0.06,-1.52,1.52
349,789558088,0.1880,0.9077,-0.2515,-0.06,-1.59,1.40
350,789563087,0.1885,0.9092,-0.2505,0.06,-1.65,1.28
351,789568086,0.1899,0.9077,-0.2466,0.24,-1.65,1.16
352,789573087,0.1865,0.9077,-0.2510,0.61,-1.71,1.10
353,789578086,0.1865,0.9082,-0.2495,0.98,-1.83,1.04
354,789583086,0.1816,0.9092,-0.2456,1.46,-1.95,0.98
355,789588087,0.1841,0.9087,-0.2534,1.95,-1.77,0.79
356,789593086,0.1782,0.9092,-0.2534,2.50,-1.89,0.79
357,789598089,0.1816,0.9116,-0.2485,2.80,-1.89,0.79
358,789603086,0.1855,0.9131,-0.2461,3.29,-1.83,0.73
359,789608087,0.1812,0.9087,-0.2554,3.60,-1.83,0.67
360,789613086,0.1831,0.9097,-0.2461,3.66,-1.77,0.67
361,789618087,0.1880,0.9082,-0.2476,3.78,-1.77,0.61
362,789623086,0.1885,0.9062,-0.2515,3.84,-1.89,0.55
363,789628087,0.1860,0.9053,-0.2456,3.66,-1.83,0.55
364,789633086,0.1870,0.9102,-0.2573,3.48,-1.89,0.55
365,789638087,0.1851,0.9126,-0.2554,3.29,-1.89,0.49
366,789643086,0.1875,0.9121,-0.2505,2.99,-1.89,0.37
367,789648087,0.1851,0.9097,-0.2534,2.87,-1.95,0.43
368,789653086,0.1865,0.9136,-0.2520,2.62,-1.77,0.30
369,789658085,0.1812,0.9116,-0.2471,2.56,-1.71,0.24
370,789663089,0.1802,0.9131,-0.2510,2.44,-1.65,0.24
371,789668087,0.1821,0.9121,-0.2534,2.44,-1.65,0.24
372,789673087,0.1851,0.9146,-0.2505,2.26,-1.65,0.24
373,789678085,0.1812,0.9116,-0.2534,2.13,-1.40,0.12
374,789683085,0.1802,0.9180,-0.2563,2.01,-1.40,0.06
375,789688085,0.1807,0.9165,-0.2573,1.71,-1.40,0.06
376,789693086,0.1836,0.9194,-0.2515,1.52,-1.52,0.12
377,789699361,0.1782,0.9199,-0.2583,1.22,-1.46,-0.06
378,789703089,0.1802,0.9194,-0.2549,1.22,-1.34,0.06
379,789708087,0.1797,0.9175,-0.2588,1.04,-1.46,0.06
380,789713087,0.1812,0.9194,-0.2612,1.10,-1.40,0.00
381,789718088,0.1807,0.9185,-0.2539,1.10,-1.46,0.06
382,789723087,0.1826,0.9219,-0.2549,1.28,-1.46,0.06
383,789728086,0.1831,0.9146,-0.2573,1.52,-1.34,0.00
384,789733088,0.1812,0.9214,-0.2549,1.95,-1.40,0.18
385,789738087,0.1855,0.9199,-0.2524,2.32,-1.40,0.18
386,789743087,0.1816,0.9204,-0.2554,2.68,-1.28,0.18
387,789748086,0.1802,0.9189,-0.2515,3.05,-1.28,0.18
388,789753087,0.1841,0.9229,-0.2573,3.23,-1.16,0.24
389,789758086,0.1826,0.9180,-0.2510,3.41,-1.10,0.18
390,789763085,0.1816,0.9170,-0.2534,3.54,-1.10,0.37
391,789768088,0.1782,0.9224,-0.2505,3.48,-1.10,0.43
392,789773087,0.1807,0.9219,-0.2544,3.48,-0.98,0.43
393,789778088,0.1763,0.9214,-0.2505,3.41,-1.04,0.49
394,789783087,0.1821,0.9189,-0.2515,3.23,-1.04,0.55
395,789788260,0.1758,0.9224,-0.2520,3.17,-0.98,0.73
396,789793089,0.1782,0.9180,-0.2515,2.87,-0.91,0.67
397,789798087,0.1812,0.9185,-0.2495,2.80,-0.98,0.73
398,789803087,0.1851,0.9199,-0.2456,2.74,-0.85,0.79
399,789808088,0.1807,0.9175,-0.2485,2.62,-0.85,0.79
400,789813087,0.1777,0.9209,-0.2437,2.68,-0.67,0.79
401,789818088,0.1802,0.9204,-0.2529,2.62,-0.67,0.79
402,789823087,0.1787,0.9204,-0.2559,2.56,-0.73,0.85
403,789828088,0.1758,0.9229,-0.2510,2.44,-0.55,0.85
404,789833087,0.1733,0.9155,-0.2500,2.38,-0.49,0.79
405,789838088,0.1816,0.9165,-0.2568,2.07,-0.55,0.79
406,789843087,0.1792,0.9155,-0.2505,1.95,-0.49,0.79
407,789848086,0.1797,0.9189,-0.2549,1.77,-0.49,0.73
408,789853087,0.1782,0.9175,-0.2568,1.65,-0.37,0.79
409,789858086,0.1812,0.9180,-0.2559,1.52,-0.43,0.73
410,789863089,0.1812,0.9194,-0.2471,1.46,-0.30,0.73
411,789868087,0.1792,0.9204,-0.2510,1.40,-0.43,0.79
412,789873086,0.1772,0.9165,-0.2578,1.34,-0.43,0.73
413,789878085,0.1758,0.9185,-0.2534,1.34,-0.43,0.73
414,789883088,0.1748,0.9194,-0.2515,1.28,-0.49,0.79
415,789888085,0.1768,0.9199,-0.2563,1.46,-0.49,0.73
416,789893087,0.1758,0.9214,-0.2485,1.52,-0.43,0.73
417,789898089,0.1758,0.9214,-0.2578,1.83,-0.55,0.73
418,789903086,0.1772,0.9204,-0.2515,2.01,-0.37,0.79
419,789908525,0.1758,0.9189,-0.2578,2.32,-0.37,0.91
420,789913087,0.1768,0.9248,-0.2549,2.38,-0.49,0.85
421,789918088,0.1748,0.9263,-0.2554,2.56,-0.55,1.04
422,789923087,0.1753,0.9229,-0.2524,2.74,-0.55,1.04
423,789928088,0.1758,0.9268,-0.2510,2.68,-0.61,1.10
424,789933087,0.1797,0.9209,-0.2603,2.93,-0.55,1.16
425,789938280,0.1787,0.9219,-0.2529,3.05,-0.61,1.28
426,789943087,0.1777,0.9229,-0.2490,3.17,-0.67,1.40
427,789948086,0.1807,0.9282,-0.2549,3.11,-0.85,1.52
428,789953088,0.1816,0.9258,-0.2529,3.23,-0.79,1.46
429,789958087,0.1816,0.9272,-0.2505,3.29,-0.85,1.59
430,789963086,0.1816,0.9243,-0.2505,3.48,-0.91,1.83
431,789968089,0.1826,0.9233,-0.2505,3.66,-0.73,1.83
432,789973086,0.1860,0.9268,-0.2500,3.84,-0.91,1.89
433,789978087,0.1812,0.9233,-0.2510,4.09,-0.98,2.01
434,789983085,0.1826,0.9224,-0.2549,4.15,-0.91,1.95
435,789988085,0.1899,0.9199,-0.2510,4.15,-0.91,2.01
436,789993171,0.1865,0.9194,-0.2451,4.21,-0.85,2.13
437,789998087,0.1865,0.9185,-0.2471,4.15,-0.85,2.20
438,790003086,0.1821,0.9204,-0.2441,4.15,-0.67,2.26
439,790008089,0.1826,0.9214,-0.2490,3.90,-0.79,2.32
440,790013088,0.1880,0.9185,-0.2466,3.66,-0.79,2.44
441,790018088,0.1855,0.9233,-0.2451,3.48,-0.85,2.38
442,790023087,0.1816,0.9214,-0.2437,3.23,-0.98,2.38
443,790028089,0.1865,0.9175,-0.2485,2.99,-0.79,2.44
444,790033086,0.1831,0.9170,-0.2441,2.87,-0.85,2.56
445,790038429,0.1821,0.9194,-0.2397,2.68,-0.91,2.56
446,790043088,0.1826,0.9170,-0.2520,2.62,-0.91,2.62
447,790048087,0.1807,0.9189,-0.2446,2.62,-0.98,2.74
448,790053087,0.1836,0.9189,-0.2529,2.68,-1.04,2.74
449,790058088,0.1816,0.9160,-0.2534,2.74,-0.98,2.80
450,790063087,0.1812,0.9219,-0.2490,2.80,-1.04,2.74
451,790068085,0.1816,0.9126,-0.2476,3.05,-1.04,2.74
452,790073274,0.1782,0.9126,-0.2520,3.23,-1.04,2.80
453,790078085,0.1797,0.9165,-0.2480,3.41,-1.16,2.80
454,790083089,0.1777,0.9131,-0.2520,3.54,-1.28,2.87
455,790088086,0.1763,0.9150,-0.2427,3.72,-1.22,2.87
456,790093085,0.1782,0.9146,-0.2524,3.84,-1.16,2.80
457,790098085,0.1792,0.9146,-0.2471,3.90,-1.22,2.87
458,790103233,0.1787,0.9146,-0.2476,3.84,-1.40,2.80
459,790108090,0.1772,0.9121,-0.2485,3.84,-1.52,2.80
460,790113087,0.1758,0.9146,-0.2471,3.72,-1.71,2.80
461,790118088,0.1792,0.9146,-0.2485,3.66,-1.52,2.87
462,790123105,0.1792,0.9146,-0.2500,3.66,-1.59,2.80
463,790128085,0.1768,0.9155,-0.2554,3.66,-1.71,2.93
464,790133089,0.1758,0.9160,-0.2446,3.66,-1.71,2.87
465,790138086,0.1768,0.9160,-0.2549,3.72,-1.83,2.80
466,790143089,0.1758,0.9165,-0.2490,3.60,-1.77,2.80
467,790148086,0.1748,0.9082,-0.2437,3.72,-1.77,2.68
468,790153089,0.1782,0.9106,-0.2490,3.72,-1.77,2.68
469,790158087,0.1792,0.9131,-0.2495,3.60,-1.83,2.68
470,790163086,0.1826,0.9136,-0.2480,3.54,-1.83,2.62
471,790168085,0.1807,0.9111,-0.2417,3.35,-1.95,2.62
472,790173089,0.1821,0.9106,-0.2510,3.05,-2.01,2.44
473,790178086,0.1831,0.9106,-0.2466,2.87,-1.83,2.44
474,790183087,0.1836,0.9097,-0.2500,2.50,-2.01,2.38
475,790188086,0.1826,0.9116,-0.2451,2.26,-2.07,2.32
476,790193085,0.1880,0.9126,-0.2485,1.89,-2.32,2.26
477,790198085,0.1831,0.9111,-0.2490,1.46,-2.38,2.13
478,790203090,0.1836,0.9126,-0.2500,1.28,-2.38,2.13
479,790208087,0.1865,0.9126,-0.2500,1.04,-2.50,2.01
480,790213087,0.1816,0.9165,-0.2480,1.16,-2.56,2.07
481,790218088,0.1797,0.9141,-0.2471,1.16,-2.56,2.07
482,790223156,0.1792,0.9155,-0.2466,1.46,-2.62,2.07
483,790228090,0.1797,0.9150,-0.2539,1.89,-2.68,2.13
484,790233089,0.1807,0.9165,-0.2466,2.56,-2.87,2.07
485,790238091,0.1787,0.9146,-0.2466,3.17,-2.74,2.13
486,790243087,0.1812,0.9126,-0.2520,3.90,-2.68,2.13
487,790248087,0.1816,0.9131,-0.2422,4.63,-2.74,2.13
488,790253087,0.1772,0.9116,-0.2466,5.37,-2.74,2.07
489,790258085,0.1758,0.9111,-0.2500,6.22,-2.93,2.07
490,790263088,0.1782,0.9116,-0.2466,6.95,-2.87,2.07
491,790268086,0.1880,0.9082,-0.2471,7.68,-2.99,2.07
492,790273085,0.1938,0.9082,-0.2466,8.35,-2.99,1.95
493,790278085,0.1958,0.9087,-0.2515,8.90,-2.99,1.89
494,790283087,0.1880,0.9067,-0.2529,9.15,-3.11,1.77
495,790288087,0.1880,0.9019,-0.2500,9.09,-3.48,1.77
496,790293089,0.1870,0.9058,-0.2520,8.78,-3.48,1.71
497,790298087,0.1851,0.9033,-0.2505,8.23,-3.54,1.65
498,790303086,0.1841,0.9048,-0.2500,7.50,-3.72,1.52
499,790308155,0.1821,0.9053,-0.2510,6.71,-3.90,1.46
500,790313089,0.1787,0.9014,-0.2510,5.79,-4.15,1.46
501,790318089,0.1777,0.9043,-0.2559,4.94,-4.15,1.46
502,790323086,0.1763,0.9067,-0.2456,4.15,-4.39,1.34
503,790328106,0.1772,0.9043,-0.2534,3.54,-4.33,1.34
504,790333087,0.1768,0.9106,-0.2510,3.17,-4.45,1.22
505,790338089,0.1733,0.9126,-0.2490,2.93,-4.63,1.28
506,790343086,0.1768,0.9072,-0.2549,2.99,-4.70,1.16
507,790348089,0.1777,0.9121,-0.2539,3.17,-4.82,1.16
508,790353086,0.1738,0.9180,-0.2583,3.29,-4.88,1.16
509,790358087,0.1748,0.9224,-0.2559,3.78,-4.94,1.16
510,790363085,0.1738,0.9204,-0.2622,3.96,-5.06,1.22
511,790368086,0.1733,0.9209,-0.2617,4.39,-5.24,1.16
512,790373086,0.1753,0.9175,-0.2607,4.76,-5.30,1.28
513,790378089,0.1733,0.9219,-0.2578,5.06,-5.43,1.46
514,790383085,0.1729,0.9189,-0.2603,5.37,-5.30,1.46
515,790388086,0.1709,0.9233,-0.2632,5.55,-5.43,1.65
516,790393089,0.1748,0.9224,-0.2573,5.73,-5.37,1.71
517,790398085,0.1714,0.9277,-0.2612,5.73,-5.43,1.89
518,790403085,0.1719,0.9243,-0.2573,5.79,-5.37,2.01
519,790408087,0.1724,0.9238,-0.2588,5.79,-5.49,2.20
520,790413086,0.1743,0.9243,-0.2603,5.67,-5.49,2.44
521,790418120,0.1768,0.9253,-0.2637,5.61,-5.49,2.50
522,790423089,0.1807,0.9248,-0.2612,5.43,-5.43,2.68
523,790428089,0.1787,0.9258,-0.2632,5.30,-5.49,2.80
524,790433086,0.1797,0.9224,-0.2588,5.06,-5.43,2.87
525,790438089,0.1812,0.9233,-0.2661,4.70,-5.43,2.99
526,790443086,0.1797,0.9243,-0.2607,4.33,-5.37,3.17
527,790448329,0.1792,0.9253,-0.2617,4.09,-5.37,3.17
528,790453087,0.1826,0.9258,-0.2612,3.84,-5.24,3.35
529,790458086,0.1812,0.9297,-0.2725,3.48,-5.37,3.48
530,790463085,0.1826,0.9224,-0.2671,3.23,-5.37,3.54
531,790468086,0.1821,0.9272,-0.2686,3.11,-5.55,3.66
532,790473085,0.1821,0.9238,-0.2617,3.05,-5.30,3.66
533,790478089,0.1763,0.9263,-0.2710,3.05,-5.24,3.84
534,790483086,0.1753,0.9233,-0.2681,3.11,-5.37,3.90
535,790488086,0.1802,0.9189,-0.2622,3.23,-5.30,4.09
536,790493087,0.1787,0.9165,-0.2700,3.35,-5.24,4.21
537,790498086,0.1743,0.9214,-0.2656,3.54,-5.18,4.33
538,790503085,0.1748,0.9170,-0.2676,3.72,-5.12,4.39
539,790508089,0.1763,0.9185,-0.2661,3.90,-5.24,4.57
540,790513087,0.1772,0.9189,-0.2607,4.02,-5.24,4.63
541,790518088,0.1729,0.9185,-0.2690,4.02,-5.18,4.70
542,790523087,0.1724,0.9175,-0.2720,3.96,-5.12,4.76
543,790528086,0.1768,0.9141,-0.2729,3.90,-5.24,4.76
544,790533087,0.1743,0.9136,-0.2720,3.84,-5.24,4.88
545,790538086,0.1733,0.9136,-0.2720,3.60,-5.18,4.88
546,790543088,0.1758,0.9180,-0.2754,3.41,-5.18,5.00
547,790548087,0.1733,0.9160,-0.2734,3.23,-5.24,5.00
548,790553087,0.1768,0.9165,-0.2715,3.05,-5.18,5.00
549,790558085,0.1729,0.9155,-0.2744,2.93,-5.18,5.12
550,790563089,0.1724,0.9194,-0.2671,2.74,-5.24,5.12
551,790568087,0.1753,0.9175,-0.2739,2.62,-5.30,5.06
552,790573087,0.1704,0.9165,-0.2720,2.56,-5.24,5.18
553,790578085,0.1738,0.9141,-0.2769,2.68,-5.37,5.12
554,790583088,0.1753,0.9146,-0.2764,2.80,-5.30,5.18
555,790588087,0.1777,0.9160,-0.2827,2.93,-5.43,5.06
556,790593087,0.1777,0.9136,-0.2729,3.17,-5.37,5.12
557,790598088,0.1802,0.9102,-0.2725,3.41,-5.43,5.12
558,790603087,0.1758,0.9136,-0.2710,3.54,-5.30,5.06
559,790608452,0.1826,0.9106,-0.2705,3.90,-5.43,5.12
560,790613087,0.1816,0.9097,-0.2710,4.09,-5.30,5.12
561,790618087,0.1807,0.9077,-0.2720,4.27,-5.43,5.00
562,790623087,0.1802,0.9102,-0.2739,4.45,-5.49,4.94
563,790628086,0.1812,0.9077,-0.2705,4.57,-5.43,5.00
564,790633087,0.1807,0.9058,-0.2720,4.70,-5.30,4.88
565,790638087,0.1802,0.9014,-0.2812,4.57,-5.30,4.94
566,790643087,0.1802,0.9087,-0.2769,4.33,-5.24,4.88
567,790648086,0.1816,0.9019,-0.2705,4.21,-5.30,4.88
568,790653087,0.1782,0.9033,-0.2754,4.02,-5.18,4.88
569,790658087,0.1777,0.9062,-0.2739,3.78,-5.24,4.70
570,790663087,0.1758,0.9072,-0.2710,3.54,-5.24,4.76
571,790668085,0.1772,0.9004,-0.2720,3.41,-5.12,4.76
572,790673086,0.1787,0.9043,-0.2725,3.23,-5.06,4.70
573,790678087,0.1733,0.9023,-0.2686,3.11,-5.24,4.70
574,790683085,0.1753,0.9004,-0.2720,3.05,-5.06,4.63
575,790688085,0.1797,0.9009,-0.2754,3.11,-5.12,4.57
576,790693089,0.1768,0.9004,-0.2769,3.17,-5.12,4.51
577,790698086,0.1743,0.9038,-0.2778,3.29,-5.12,4.57
578,790703085,0.1763,0.8989,-0.2725,3.35,-5.00,4.33
579,790708087,0.1782,0.9019,-0.2729,3.54,-5.00,4.27
580,790713085,0.1797,0.8989,-0.2734,3.72,-5.12,4.27
581,790718087,0.1719,0.9023,-0.2769,3.84,-5.00,4.27
582,790723085,0.1772,0.9004,-0.2788,4.02,-4.94,4.09
583,790728092,0.1733,0.8989,-0.2778,4.15,-4.82,4.02
584,790733086,0.1782,0.8999,-0.2744,4.02,-5.00,3.96
585,790738085,0.1812,0.8979,-0.2793,3.96,-4.94,3.90
586,790743087,0.1812,0.8950,-0.2822,3.96,-5.00,3.84
587,790748086,0.1855,0.9004,-0.2812,3.96,-5.00,3.72
588,790753087,0.1846,0.8979,-0.2798,3.84,-5.00,3.66
589,790758086,0.1831,0.8994,-0.2778,3.78,-5.06,3.66
590,790763089,0.1807,0.8975,-0.2793,3.84,-4.88,3.48
591,790768086,0.1831,0.8984,-0.2822,3.90,-5.00,3.41
592,790773087,0.1797,0.8984,-0.2773,3.96,-5.00,3.29
593,790778086,0.1802,0.9014,-0.2842,3.96,-4.94,3.23
594,790783086,0.1831,0.8999,-0.2856,4.15,-4.94,3.17
595,790788089,0.1826,0.8989,-0.2793,4.21,-5.00,3.05
596,790793086,0.1807,0.8975,-0.2827,4.27,-4.88,3.05
597,790798089,0.1777,0.8989,-0.2788,4.33,-4.88,3.05
598,790803086,0.1797,0.8979,-0.2788,4.33,-4.88,2.99
599,790808085,0.1860,0.8989,-0.2876,4.27,-4.82,2.93
600,790813085,0.1821,0.9004,-0.2847,4.15,-4.82,2.80
601,790818088,0.1870,0.9014,-0.2837,4.09,-4.76,2.80
602,790823087,0.1895,0.9028,-0.2861,4.21,-4.82,2.74
603,790828087,0.1816,0.9009,-0.2900,4.15,-4.76,2.68
604,790833087,0.1812,0.9019,-0.2876,3.96,-4.70,2.74
605,790838089,0.1772,0.9033,-0.2866,3.72,-4.70,2.74
606,790843086,0.1812,0.9067,-0.2837,3.66,-4.63,2.56
607,790848086,0.1782,0.9082,-0.2788,3.54,-4.57,2.62
608,790853085,0.1763,0.9082,-0.2861,3.41,-4.39,2.56
609,790858087,0.1753,0.9062,-0.2856,3.35,-4.27,2.68
610,790863087,0.1777,0.9058,-0.2866,3.05,-4.33,2.68
611,790868089,0.1724,0.9009,-0.2891,3.17,-4.21,2.74
612,790873087,0.1729,0.9053,-0.2891,3.23,-4.02,2.68
613,790878087,0.1704,0.9028,-0.2939,3.41,-3.96,2.80
614,790883085,0.1758,0.9028,-0.2881,3.66,-3.96,2.74
615,790888087,0.1719,0.9004,-0.2949,4.02,-3.84,2.74
616,790893086,0.1743,0.9009,-0.2939,4.21,-3.78,2.74
617,790898088,0.1694,0.9038,-0.2866,4.63,-3.66,2.80
618,790903087,0.1699,0.9019,-0.2891,4.82,-3.60,2.93
619,790908086,0.1694,0.8979,-0.2910,4.82,-3.41,2.87
620,790913085,0.1714,0.9038,-0.3013,4.94,-3.29,2.93
621,790918089,0.1689,0.9033,-0.2910,4.82,-3.23,2.93
622,790923087,0.1729,0.9028,-0.2930,4.70,-3.05,2.99
623,790928086,0.1748,0.8999,-0.2847,4.33,-3.05,2.93
624,790933087,0.1768,0.9009,-0.2939,4.09,-2.87,2.80
625,790938086,0.1729,0.9038,-0.2910,3.78,-2.80,2.80
626,790943087,0.1733,0.9023,-0.2920,3.41,-2.62,2.74
627,790948087,0.1733,0.9009,-0.2881,3.11,-2.50,2.80
628,790953087,0.1782,0.9023,-0.2915,2.68,-2.56,2.68
629,790958292,0.1758,0.9014,-0.2861,2.38,-2.44,2.62
630,790963089,0.1748,0.9033,-0.2925,2.20,-2.38,2.50
631,790968087,0.1753,0.9004,-0.2920,1.89,-2.26,2.56
632,790973087,0.1738,0.9014,-0.2935,1.71,-2.07,2.44
633,790978087,0.1733,0.9023,-0.2930,1.59,-1.95,2.38
634,790983622,0.1758,0.9062,-0.2925,1.40,-1.95,2.38
635,790988087,0.1758,0.9038,-0.2959,1.34,-1.83,2.26
636,790993087,0.1816,0.8984,-0.2993,1.28,-1.77,2.38
637,790998087,0.1768,0.9014,-0.2891,1.34,-1.95,2.26
638,791003087,0.1792,0.9048,-0.2925,1.52,-1.77,2.20
639,791008087,0.1797,0.9043,-0.2832,1.65,-1.65,2.20
640,791013085,0.1792,0.9053,-0.2910,1.77,-1.71,2.20
641,791018085,0.1807,0.9038,-0.2881,1.95,-1.71,2.13
642,791023087,0.1787,0.9023,-0.2871,2.07,-1.46,2.13
643,791028087,0.1782,0.9048,-0.2949,2.07,-1.52,2.07
644,791033089,0.1777,0.9009,-0.2920,2.20,-1.59,1.95
645,791038087,0.1787,0.9028,-0.2910,2.20,-1.52,2.13
646,791043087,0.1777,0.9062,-0.2920,2.26,-1.52,2.07
647,791048088,0.1802,0.9067,-0.2842,2.26,-1.46,2.07
648,791053086,0.1807,0.9048,-0.2920,2.20,-1.46,2.20
649,791058087,0.1802,0.9048,-0.2920,2.26,-1.46,2.13
650,791063089,0.1831,0.9053,-0.2856,2.38,-1.40,2.07
651,791068087,0.1816,0.9038,-0.2886,2.32,-1.52,2.13
652,791073087,0.1807,0.9092,-0.2930,2.32,-1.22,2.07
653,791078087,0.1855,0.9067,-0.2910,2.32,-1.16,2.13
654,791083088,0.1855,0.9053,-0.2856,2.26,-1.10,2.13
655,791088086,0.1851,0.9033,-0.2847,2.26,-1.10,2.13
656,791093087,0.1841,0.9038,-0.2886,2.13,-1.04,2.13
657,791098086,0.1846,0.9033,-0.2817,2.01,-0.91,2.20
658,791103087,0.1890,0.9077,-0.2856,1.71,-0.85,2.26
659,791108087,0.1870,0.9033,-0.2852,1.46,-0.79,2.26
660,791113085,0.1870,0.9077,-0.2837,1.34,-0.79,2.26
661,791118085,0.1841,0.9067,-0.2832,1.16,-0.61,2.32
662,791123087,0.1870,0.9058,-0.2886,0.98,-0.61,2.26
663,791128087,0.1870,0.9087,-0.2842,0.91,-0.49,2.32
664,791133087,0.1855,0.9058,-0.2847,0.98,-0.49,2.32
665,791138085,0.1865,0.9019,-0.2842,0.91,-0.37,2.38
666,791143086,0.1904,0.9038,-0.2837,1.10,-0.37,2.32
667,791148088,0.1846,0.9028,-0.2817,1.28,-0.43,2.32
668,791153086,0.1880,0.9082,-0.2793,1.52,-0.43,2.38
669,791158087,0.1855,0.9048,-0.2847,1.59,-0.43,2.32
670,791163087,0.1855,0.9048,-0.2812,1.77,-0.30,2.44
671,791168087,0.1919,0.9043,-0.2837,1.89,-0.30,2.38
672,791173134,0.1919,0.9043,-0.2852,2.01,-0.30,2.38
673,791178087,0.1929,0.9043,-0.2837,1.83,-0.30,2.32
674,791183087,0.1885,0.9028,-0.2788,1.71,-0.30,2.26
675,791188087,0.1943,0.9038,-0.2866,1.71,-0.37,2.26
676,791193414,0.1904,0.9048,-0.2803,1.59,-0.30,2.13
677,791198087,0.1909,0.9043,-0.2827,1.46,-0.24,2.13
678,791203564,0.1914,0.9077,-0.2837,1.40,-0.18,2.13
679,791208088,0.1885,0.9062,-0.2822,1.40,-0.24,2.07
680,791213086,0.1895,0.9067,-0.2788,1.28,-0.12,2.13
681,791218086,0.1909,0.9087,-0.2817,1.22,0.00,2.07
682,791223089,0.1875,0.9121,-0.2798,0.98,0.00,2.01
683,791228086,0.1890,0.9102,-0.2744,0.79,0.12,2.01
684,791233087,0.1909,0.9141,-0.2876,0.55,0.12,2.01
685,791238086,0.1914,0.9116,-0.2764,0.24,0.18,2.01
686,791243087,0.1924,0.9185,-0.2832,-0.06,0.24,1.95
687,791248086,0.1899,0.9189,-0.2798,-0.37,0.18,1.89
688,791253087,0.1880,0.9160,-0.2837,-0.73,0.30,2.01
689,791258086,0.1914,0.9155,-0.2773,-1.04,0.24,2.01
690,791263174,0.1890,0.9199,-0.2773,-1.34,0.43,2.01
691,791268086,0.1851,0.9224,-0.2783,-1.46,0.30,1.95
692,791273087,0.1919,0.9219,-0.2749,-1.52,0.49,2.07
693,791278087,0.1860,0.9258,-0.2744,-1.71,0.55,2.01
694,791283087,0.1890,0.9268,-0.2808,-1.77,0.55,2.07
695,791288088,0.1841,0.9263,-0.2729,-1.77,0.49,2.20
696,791293086,0.1836,0.9233,-0.2788,-1.77,0.55,2.32
697,791298087,0.1875,0.9224,-0.2725,-1.59,0.49,2.38
698,791303087,0.1831,0.9243,-0.2754,-1.46,0.67,2.56
699,791308087,0.1836,0.9189,-0.2754,-1.28,0.73,2.74
700,791313086,0.1885,0.9194,-0.2720,-1.04,0.79,2.93
701,791318087,0.1860,0.9199,-0.2656,-0.85,0.85,3.11
702,791323085,0.1865,0.9214,-0.2690,-0.55,1.22,3.29
703,791328089,0.1929,0.9155,-0.2632,-0.49,1.22,3.60
704,791333087,0.1943,0.9180,-0.2686,-0.49,1.52,3.78
705,791338087,0.1968,0.9180,-0.2617,-0.55,1.65,4.02
706,791343086,0.2046,0.9219,-0.2686,-0.79,1.71,4.15
707,791348087,0.2065,0.9189,-0.2588,-0.98,1.77,4.39
708,791353087,0.2144,0.9194,-0.2666,-1.34,1.95,4.45
709,791358087,0.2168,0.9238,-0.2705,-1.77,1.89,4.57
710,791363087,0.2153,0.9238,-0.2686,-2.07,1.89,4.63
711,791368087,0.2163,0.9233,-0.2700,-2.56,1.89,4.70
712,791373086,0.2173,0.9214,-0.2739,-2.87,1.89,4.57
713,791378088,0.2124,0.9238,-0.2700,-3.23,1.77,4.70
714,791383087,0.2119,0.9258,-0.2720,-3.54,1.77,4.70
715,791388087,0.2051,0.9297,-0.2720,-3.72,1.71,4.63
716,791393222,0.1992,0.9253,-0.2739,-3.78,1.71,4.70
717,791398141,0.1978,0.9194,-0.2666,-3.72,1.59,4.70
718,791403087,0.1938,0.9253,-0.2686,-3.72,1.59,4.82
719,791408086,0.1865,0.9238,-0.2627,-3.48,1.71,4.94
720,791413087,0.1846,0.9263,-0.2573,-3.41,1.71,5.00
721,791418085,0.1768,0.9268,-0.2686,-3.29,1.65,4.94
722,791423085,0.1743,0.9326,-0.2622,-3.17,1.65,5.12
723,791428087,0.1719,0.9336,-0.2646,-3.29,1.77,5.12
724,791433376,0.1704,0.9297,-0.2642,-3.41,1.83,5.18
725,791438087,0.1694,0.9326,-0.2612,-3.48,1.83,5.30
726,791443087,0.1689,0.9375,-0.2656,-3.72,1.95,5.37
727,791448087,0.1675,0.9351,-0.2627,-3.96,1.95,5.30
728,791453086,0.1616,0.9355,-0.2607,-4.15,1.95,5.30
729,791458087,0.1602,0.9326,-0.2593,-4.45,2.07,5.30
730,791463087,0.1670,0.9336,-0.2554,-4.63,2.13,5.37
731,791468088,0.1582,0.9292,-0.2563,-4.70,2.01,5.24
732,791473086,0.1606,0.9336,-0.2573,-4.82,2.13,5.24
733,791478088,0.1548,0.9307,-0.2603,-4.94,2.20,5.18
734,791483087,0.1567,0.9341,-0.2524,-5.06,2.20,5.12
735,791488087,0.1582,0.9321,-0.2563,-5.12,2.26,5.06
736,791493087,0.1553,0.9292,-0.2446,-5.06,2.32,4.88
737,791498087,0.1606,0.9243,-0.2432,-5.06,2.44,4.82
738,791503087,0.1597,0.9297,-0.2451,-5.00,2.44,4.70
739,791508086,0.1582,0.9243,-0.2480,-5.00,2.50,4.57
740,791513089,0.1616,0.9219,-0.2412,-5.00,2.56,4.51
741,791518086,0.1660,0.9180,-0.2334,-4.88,2.44,4.39
742,791523085,0.1587,0.9150,-0.2373,-4.70,2.44,4.33
743,791528085,0.1587,0.9131,-0.2368,-4.33,2.50,4.09
744,791533087,0.1606,0.9072,-0.2363,-3.96,2.50,4.09
745,791538087,0.1587,0.9028,-0.2349,-3.29,2.56,4.02
746,791543085,0.1572,0.8989,-0.2241,-2.50,2.74,3.90
747,791548087,0.1577,0.8979,-0.2314,-1.71,2.68,3.84
748,791553089,0.1519,0.8945,-0.2261,-0.73,2.74,3.84
749,791558086,0.1553,0.8911,-0.2256,0.06,2.93,3.66
750,791563087,0.1519,0.8892,-0.2183,0.98,2.99,3.66
751,791568087,0.1548,0.8867,-0.2119,1.65,3.11,3.66
752,791573087,0.1602,0.8828,-0.2158,2.13,3.05,3.66
753,791578087,0.1592,0.8784,-0.2153,2.62,3.29,3.54
754,791583564,0.1611,0.8774,-0.2119,2.87,3.41,3.23
755,791588087,0.1631,0.8779,-0.2031,2.99,3.48,3.23
756,791593087,0.1641,0.8774,-0.2056,2.87,3.60,2.99
757,791598088,0.1665,0.8696,-0.2090,2.62,3.54,2.87
758,791603591,0.1665,0.8730,-0.2104,2.38,3.48,2.50
759,791608087,0.1670,0.8716,-0.2056,2.13,3.41,2.32
760,791613098,0.1675,0.8711,-0.2021,1.95,3.54,2.07
761,791618087,0.1729,0.8711,-0.2007,1.59,3.54,1.77
762,791623085,0.1729,0.8750,-0.1963,1.52,3.66,1.46
763,791628085,0.1719,0.8789,-0.1987,1.34,3.66,1.16
764,791633182,0.1782,0.8784,-0.1978,1.22,3.72,0.67
765,791638088,0.1787,0.8813,-0.1978,0.98,3.72,0.30
766,791643087,0.1802,0.8794,-0.2046,0.79,3.84,-0.12
767,791648088,0.1846,0.8887,-0.1929,0.61,3.72,-0.73
768,791653087,0.1816,0.8872,-0.1982,0.24,3.84,-1.22
769,791658087,0.1895,0.8901,-0.2046,-0.18,3.78,-1.71
770,791663410,0.1880,0.8955,-0.2017,-0.61,3.60,-2.26
771,791668087,0.1924,0.8965,-0.2017,-1.28,3.54,-2.62
772,791673178,0.1870,0.9019,-0.2017,-2.01,3.41,-3.05
773,791678087,0.1904,0.9048,-0.2051,-2.74,3.29,-3.35
774,791683085,0.1909,0.9136,-0.2021,-3.48,3.05,-3.72
775,791688087,0.1895,0.9155,-0.2061,-4.02,2.68,-4.02
776,791693087,0.1865,0.9209,-0.2056,-4.63,2.44,-4.15
777,791698088,0.1875,0.9253,-0.2051,-4.94,2.20,-4.21
778,791703085,0.1851,0.9258,-0.2056,-5.18,2.01,-4.21
779,791708087,0.1880,0.9331,-0.2021,-5.06,1.65,-4.21
780,791713087,0.1846,0.9385,-0.2070,-4.82,1.52,-4.09
781,791718089,0.1885,0.9434,-0.2061,-4.45,1.28,-3.84
782,791723087,0.1880,0.9468,-0.2070,-3.84,0.98,-3.66
783,791728086,0.1855,0.9531,-0.2061,-3.05,0.73,-3.41
784,791733085,0.1904,0.9541,-0.2085,-2.07,0.43,-2.99
785,791738089,0.1929,0.9604,-0.1997,-0.91,0.30,-2.68
786,791743159,0.1885,0.9639,-0.2036,0.18,-0.06,-2.26
787,791748086,0.1938,0.9712,-0.2031,1.28,-0.06,-1.83
788,791753085,0.1982,0.9692,-0.2026,2.50,-0.37,-1.59
789,791758087,0.2056,0.9766,-0.1992,3.17,-0.49,-1.16
790,791763087,0.2104,0.9775,-0.2031,3.72,-0.73,-0.85
791,791768087,0.2163,0.9858,-0.2085,4.09,-0.98,-0.55
792,791773086,0.2217,0.9829,-0.2075,4.21,-1.04,-0.18
793,791778089,0.2358,0.9863,-0.2153,3.96,-1.34,0.12
794,791783087,0.2432,0.9858,-0.2119,3.48,-1.65,0.37
795,791788086,0.2515,0.9941,-0.2139,2.99,-2.13,0.67
796,791793087,0.2515,0.9932,-0.2173,2.20,-2.50,0.91
797,791798193,0.2559,0.9946,-0.2168,1.59,-2.74,1.22
798,791803087,0.2617,0.9932,-0.2188,0.91,-3.23,1.59
799,791808086,0.2627,0.9961,-0.2153,0.49,-3.48,2.01
800,791813089,0.2588,0.9985,-0.2173,0.06,-3.84,2.38
801,791818087,0.2583,0.9961,-0.2173,-0.18,-4.15,2.99
802,791823086,0.2593,0.9951,-0.2188,-0.30,-4.57,3.48
803,791828087,0.2559,0.9888,-0.2114,-0.30,-4.76,4.15
804,791833085,0.2534,0.9907,-0.2153,-0.18,-5.12,4.88
805,791838502,0.2471,0.9819,-0.2144,0.18,-5.30,5.79
806,791843087,0.2485,0.9800,-0.2134,0.49,-5.37,6.52
807,791848087,0.2466,0.9771,-0.2153,0.98,-5.43,7.32
808,791853525,0.2422,0.9771,-0.2183,1.65,-5.49,8.29
809,791858087,0.2354,0.9741,-0.2124,1.95,-5.43,9.15
810,791863088,0.2319,0.9707,-0.2124,2.20,-5.30,10.12
811,791868189,0.2329,0.9668,-0.2212,2.50,-5.30,11.04
812,791873086,0.2319,0.9639,-0.2168,2.56,-5.18,11.89
813,791878087,0.2261,0.9590,-0.2119,2.38,-5.12,12.68
814,791883087,0.2256,0.9575,-0.2236,1.95,-5.06,13.48
815,791888087,0.2256,0.9473,-0.2178,1.34,-4.82,14.21
816,791893086,0.2197,0.9468,-0.2251,0.73,-5.06,14.76
817,791898087,0.2183,0.9448,-0.2339,-0.18,-4.88,15.43
818,791903087,0.2183,0.9409,-0.2231,-1.10,-5.06,15.85
819,791908087,0.2100,0.9331,-0.2271,-1.83,-5.00,16.28
820,791913086,0.2070,0.9302,-0.2275,-2.87,-5.12,16.46
821,791918087,0.2036,0.9224,-0.2261,-3.54,-5.18,16.71
822,791923087,0.1997,0.9136,-0.2344,-4.33,-5.30,16.95
823,791928086,0.1958,0.9136,-0.2295,-4.94,-5.49,17.01
824,791933085,0.1909,0.9053,-0.2334,-5.43,-5.49,17.13
825,791938086,0.1909,0.9067,-0.2349,-5.85,-5.55,17.13
826,791943087,0.1895,0.8984,-0.2363,-6.28,-5.79,17.13
827,791948086,0.1826,0.8970,-0.2354,-6.65,-5.85,16.95
828,791953164,0.1841,0.8892,-0.2373,-6.83,-5.98,16.71
829,791958086,0.1836,0.8843,-0.2349,-6.89,-6.16,16.40
830,791963087,0.1865,0.8809,-0.2373,-7.13,-6.34,16.10
831,791968086,0.1851,0.8789,-0.2402,-6.95,-6.46,15.61
832,791973087,0.1846,0.8770,-0.2290,-6.95,-6.52,15.24
833,791978178,0.1890,0.8755,-0.2319,-7.13,-6.65,14.70
834,791983089,0.1904,0.8740,-0.2339,-6.95,-6.95,14.21
835,791988086,0.1938,0.8706,-0.2427,-7.07,-7.13,13.60
836,791993087,0.1924,0.8672,-0.2358,-7.01,-7.32,13.11
837,791998086,0.1958,0.8677,-0.2378,-7.07,-7.50,12.38
838,792003088,0.1943,0.8662,-0.2397,-6.89,-7.74,11.71
839,792008086,0.1943,0.8652,-0.2407,-6.65,-7.93,10.91
840,792013448,0.1982,0.8608,-0.2466,-6.10,-8.23,10.18
841,792018088,0.1938,0.8643,-0.2393,-5.79,-8.48,9.63
842,792023087,0.1938,0.8647,-0.2422,-5.06,-8.72,8.90
843,792028087,0.1929,0.8647,-0.2358,-4.39,-8.96,8.17
844,792033085,0.1919,0.8618,-0.2334,-3.66,-9.09,7.50
845,792038085,0.1919,0.8647,-0.2319,-2.99,-9.27,6.89
846,792043172,0.1909,0.8604,-0.2393,-2.13,-9.45,6.22
847,792048088,0.1890,0.8628,-0.2329,-1.34,-9.57,5.61
848,792053501,0.1865,0.8604,-0.2383,-0.49,-9.63,4.88
849,792058087,0.1865,0.8647,-0.2334,0.06,-9.70,4.33
850,792063087,0.1880,0.8623,-0.2339,0.67,-9.70,3.84
851,792068087,0.1870,0.8633,-0.2339,1.04,-9.88,3.23
852,792073088,0.1885,0.8643,-0.2290,1.28,-10.06,2.56
853,792078087,0.1909,0.8652,-0.2280,1.52,-9.88,2.07
854,792083087,0.1885,0.8633,-0.2334,1.59,-9.88,1.59
855,792088087,0.1895,0.8672,-0.2285,1.46,-9.94,1.10
856,792093086,0.1919,0.8652,-0.2314,1.16,-9.76,0.55
857,792098088,0.1919,0.8677,-0.2305,0.73,-9.82,0.12
858,792103087,0.1968,0.8647,-0.2339,0.30,-9.76,-0.30
859,792108087,0.1948,0.8662,-0.2314,-0.12,-9.70,-0.79
860,792113768,0.1958,0.8672,-0.2319,-0.73,-9.57,-1.28
861,792118088,0.2007,0.8643,-0.2314,-1.10,-9.57,-1.52
