# skilleye imu stream v1
# device=xiao_esp32c6 imu=mpu6050 addr=0x68
# rate_hz=200 accel_range_g=16 gyro_range_dps=2000 dlpf_hz=94
# units: accel in g, gyro in deg/s, t_us in microseconds since boot (monotonic)
# no shared clock with the camera -- tap the racket once before each take
# so both recordings share a spike to align on
seq,t_us,ax,ay,az,gx,gy,gz
0,102402598,-0.9482,0.1157,0.3184,37.99,-10.37,18.17
1,102407933,-0.9507,0.1108,0.3184,37.32,-10.24,18.84
2,102412499,-0.9541,0.1157,0.3262,36.59,-10.06,19.33
3,102417501,-0.9546,0.1094,0.3232,35.67,-10.00,20.00
4,102422515,-0.9561,0.1113,0.3213,34.45,-9.76,20.43
5,102427499,-0.9531,0.1177,0.3218,32.80,-9.63,20.91
6,102432499,-0.9526,0.1108,0.3232,31.71,-9.57,21.28
7,102437499,-0.9526,0.1147,0.3193,30.30,-9.70,21.52
8,102442629,-0.9487,0.1196,0.3271,28.60,-9.70,21.71
9,102447499,-0.9502,0.1147,0.3228,27.56,-9.70,21.95
10,102452499,-0.9502,0.1123,0.3237,26.28,-9.82,22.13
11,102457499,-0.9478,0.1133,0.3184,25.24,-9.82,22.32
12,102462499,-0.9507,0.1162,0.3232,24.33,-9.88,22.38
13,102467499,-0.9575,0.1108,0.3228,23.48,-10.06,22.44
14,102472499,-0.9580,0.1064,0.3184,22.93,-10.12,22.56
15,102477499,-0.9590,0.1074,0.3281,22.44,-10.43,22.68
16,102482499,-0.9585,0.1060,0.3237,22.01,-10.61,22.80
17,102487499,-0.9580,0.1069,0.3184,21.65,-11.04,22.80
18,102492647,-0.9580,0.1001,0.3228,21.59,-11.28,23.05
19,102497499,-0.9570,0.1021,0.3188,21.52,-11.52,23.11
20,102502499,-0.9546,0.1045,0.3228,21.34,-11.77,23.29
21,102507499,-0.9551,0.0991,0.3232,21.40,-12.07,23.35
22,102512499,-0.9531,0.1001,0.3130,21.28,-12.26,23.48
23,102517498,-0.9604,0.0967,0.3208,21.22,-12.68,23.66
24,102522499,-0.9639,0.0962,0.3232,21.22,-12.80,23.72
25,102527498,-0.9658,0.0942,0.3228,21.04,-13.17,23.84
26,102532499,-0.9712,0.0894,0.3208,20.79,-13.48,23.90
27,102537499,-0.9736,0.0962,0.3276,20.55,-13.78,24.09
28,102542499,-0.9692,0.0977,0.3271,20.12,-14.09,24.15
29,102547498,-0.9692,0.1001,0.3208,19.51,-14.27,24.15
30,102552499,-0.9663,0.1001,0.3296,18.78,-14.57,24.21
31,102557646,-0.9663,0.1030,0.3232,17.87,-14.94,24.02
32,102562500,-0.9678,0.1050,0.3252,17.20,-15.30,23.96
33,102567968,-0.9688,0.1035,0.3262,15.98,-15.49,23.78
34,102572499,-0.9668,0.1050,0.3301,15.24,-15.79,23.66
35,102577498,-0.9609,0.1074,0.3291,14.21,-16.16,23.41
36,102582499,-0.9556,0.1094,0.3311,13.11,-16.34,23.29
37,102587499,-0.9502,0.1143,0.3325,12.13,-16.59,23.11
38,102592498,-0.9502,0.1182,0.3320,10.98,-16.65,22.87
39,102597623,-0.9375,0.1201,0.3354,9.70,-16.71,22.68
40,102602499,-0.9297,0.1250,0.3428,8.41,-17.01,22.38
41,102607499,-0.9238,0.1309,0.3423,6.83,-16.89,22.07
42,102612499,-0.9155,0.1372,0.3481,5.79,-16.83,21.77
43,102617499,-0.9121,0.1392,0.3545,4.51,-16.89,21.52
44,102622499,-0.9072,0.1426,0.3633,3.23,-16.65,21.28
45,102627501,-0.9043,0.1489,0.3706,2.01,-16.46,21.10
46,102632499,-0.9014,0.1460,0.3774,0.85,-16.10,21.04
47,102637614,-0.9048,0.1514,0.3828,-0.37,-15.91,21.04
48,102642669,-0.9155,0.1538,0.3804,-1.40,-15.85,21.34
49,102647500,-0.9375,0.1494,0.3882,-2.32,-15.79,21.65
50,102652499,-0.9473,0.1533,0.3936,-3.17,-15.73,22.07
51,102657499,-0.9570,0.1572,0.4053,-3.72,-15.91,22.68
52,102662498,-0.9741,0.1572,0.4058,-4.15,-15.85,23.35
53,102667735,-1.0000,0.1533,0.4116,-4.33,-15.91,24.21
54,102672499,-1.0225,0.1538,0.4189,-4.33,-16.10,25.12
55,102677499,-1.0518,0.1558,0.4258,-4.02,-16.10,26.22
56,102682499,-1.0732,0.1548,0.4370,-3.78,-16.34,27.01
57,102687498,-1.0981,0.1567,0.4409,-3.41,-16.34,27.99
58,102692501,-1.1182,0.1533,0.4399,-3.17,-16.28,28.84
59,102697499,-1.1470,0.1597,0.4453,-2.68,-16.34,29.82
60,102702501,-1.1602,0.1650,0.4487,-2.38,-16.59,30.49
61,102707762,-1.1592,0.1650,0.4512,-1.95,-16.59,31.34
62,102712499,-1.1436,0.1699,0.4575,-1.52,-16.65,32.01
63,102717499,-1.1274,0.1733,0.4580,-1.04,-16.71,32.74
64,102722501,-1.1128,0.1743,0.4526,-0.79,-16.71,33.17
65,102727498,-1.0908,0.1758,0.4463,-0.61,-16.77,33.66
66,102732501,-1.0669,0.1782,0.4443,-0.61,-17.07,33.90
67,102737503,-1.0396,0.1821,0.4326,-0.91,-17.32,34.33
68,102742499,-1.0210,0.1870,0.4292,-1.40,-17.62,34.51
69,102747500,-0.9990,0.1865,0.4219,-2.07,-18.17,34.76
70,102752637,-0.9683,0.1919,0.4209,-2.99,-18.48,34.76
71,102757498,-0.9463,0.1938,0.4180,-4.45,-19.09,34.63
72,102762499,-0.9214,0.1973,0.4136,-6.40,-19.57,34.51
73,102767498,-0.9048,0.2036,0.4067,-8.60,-19.94,34.27
74,102772931,-0.8848,0.2100,0.4102,-11.65,-20.30,33.72
75,102777499,-0.8765,0.2153,0.4116,-13.90,-20.43,33.41
76,102782500,-0.8726,0.2241,0.4224,-16.95,-20.61,32.80
77,102787498,-0.8823,0.2368,0.4146,-20.18,-20.79,31.89
78,102792499,-0.8945,0.2432,0.4229,-23.48,-20.55,30.98
79,102797598,-0.9009,0.2515,0.4199,-26.71,-20.55,29.82
80,102802502,-0.9053,0.2495,0.4268,-29.94,-20.30,28.78
81,102807501,-0.9087,0.2534,0.4224,-32.87,-20.18,27.56
82,102812498,-0.9189,0.2485,0.4336,-35.55,-20.00,26.46
83,102817501,-0.9258,0.2446,0.4277,-37.80,-19.70,25.37
84,102822497,-0.9331,0.2451,0.4331,-39.82,-19.51,24.45
85,102827497,-0.9360,0.2446,0.4399,-41.46,-19.15,23.54
86,102832497,-0.9404,0.2422,0.4434,-42.74,-18.54,22.80
87,102837499,-0.9395,0.2461,0.4473,-43.84,-18.05,22.01
88,102842498,-0.9385,0.2480,0.4517,-44.82,-17.13,21.52
89,102847498,-0.9370,0.2388,0.4600,-45.73,-16.22,20.91
90,102852768,-0.9360,0.2407,0.4658,-46.65,-15.24,20.37
91,102857498,-0.9272,0.2412,0.4658,-47.44,-14.21,19.88
92,102862499,-0.9175,0.2427,0.4692,-48.29,-12.87,19.39
93,102867499,-0.9116,0.2422,0.4717,-48.84,-11.83,19.21
94,102872499,-0.8994,0.2446,0.4771,-49.51,-10.73,18.96
95,102877499,-0.8940,0.2456,0.4790,-50.30,-9.39,18.78
96,102882499,-0.8813,0.2568,0.4839,-51.10,-7.99,18.54
97,102887499,-0.8711,0.2637,0.4741,-51.40,-6.95,18.23
98,102892892,-0.8560,0.2651,0.4688,-51.77,-5.85,18.05
99,102897499,-0.8438,0.2651,0.4697,-51.52,-5.12,17.93
100,102902497,-0.8413,0.2642,0.4619,-50.85,-4.33,17.68
101,102907497,-0.8301,0.2651,0.4639,-49.63,-3.84,17.68
102,102912501,-0.8218,0.2646,0.4619,-47.93,-3.41,17.62
103,102917499,-0.8154,0.2593,0.4644,-45.91,-2.80,17.62
104,102922499,-0.8066,0.2637,0.4561,-43.29,-2.44,17.68
105,102927499,-0.8022,0.2578,0.4512,-40.49,-1.95,17.87
106,102932497,-0.7959,0.2559,0.4468,-37.38,-1.77,17.99
107,102937606,-0.7886,0.2588,0.4487,-34.27,-1.46,18.11
108,102942499,-0.7847,0.2676,0.4541,-31.10,-1.22,18.05
109,102947802,-0.7837,0.2690,0.4658,-28.23,-0.73,18.11
110,102952499,-0.7808,0.2764,0.4692,-25.43,-0.30,17.80
111,102957646,-0.7803,0.2856,0.4766,-23.11,0.37,17.56
112,102962498,-0.7817,0.2959,0.4785,-20.79,0.91,17.07
113,102967720,-0.7837,0.2979,0.4810,-18.84,1.83,16.52
114,102972499,-0.7798,0.3013,0.4771,-17.32,2.50,15.98
115,102977499,-0.7847,0.3052,0.4790,-15.79,3.23,15.43
116,102982499,-0.7871,0.3120,0.4888,-14.70,3.96,14.82
117,102987499,-0.7905,0.3140,0.4893,-13.66,4.63,14.15
118,102992500,-0.7949,0.3188,0.5020,-12.93,5.18,13.48
119,102997499,-0.7915,0.3281,0.4946,-12.20,5.85,12.87
120,103002946,-0.7925,0.3262,0.4995,-11.46,6.22,12.01
121,103007499,-0.8003,0.3257,0.4971,-10.73,6.65,11.40
122,103012499,-0.8022,0.3271,0.4976,-9.63,6.89,10.79
123,103018040,-0.8047,0.3257,0.5020,-8.35,7.01,10.30
124,103022499,-0.8057,0.3252,0.5059,-6.77,7.32,9.82
125,103027498,-0.8013,0.3247,0.5068,-5.00,7.26,9.63
126,103032499,-0.8042,0.3223,0.5073,-3.05,7.32,9.27
127,103037498,-0.8062,0.3228,0.5161,-0.98,7.32,8.96
128,103042499,-0.8091,0.3228,0.5166,1.10,7.20,8.78
129,103047498,-0.8174,0.3242,0.5132,3.23,7.20,8.60
130,103052695,-0.8208,0.3291,0.5215,5.18,7.13,8.35
131,103057499,-0.8218,0.3306,0.5278,7.01,7.07,8.17
132,103062503,-0.8223,0.3340,0.5298,8.84,7.07,7.93
133,103067499,-0.8193,0.3306,0.5225,10.30,7.20,7.62
134,103072945,-0.8247,0.3330,0.5234,11.59,7.13,7.38
135,103077499,-0.8242,0.3320,0.5210,12.62,7.20,7.26
136,103082499,-0.8306,0.3364,0.5327,13.41,7.13,7.13
137,103087499,-0.8359,0.3369,0.5283,13.96,7.13,6.83
138,103092499,-0.8389,0.3418,0.5322,14.33,7.13,6.77
139,103097499,-0.8389,0.3457,0.5312,14.63,7.07,6.52
140,103102851,-0.8413,0.3491,0.5361,14.70,6.95,6.34
141,103107499,-0.8413,0.3525,0.5332,14.70,6.71,6.04
142,103112499,-0.8384,0.3521,0.5420,14.82,6.40,6.04
143,103117500,-0.8428,0.3545,0.5269,15.06,5.98,5.91
144,103122499,-0.8486,0.3594,0.5356,15.37,5.49,5.91
145,103127499,-0.8574,0.3638,0.5254,15.98,4.70,6.10
146,103132499,-0.8677,0.3628,0.5288,16.59,3.96,6.22
147,103137498,-0.8770,0.3667,0.5273,17.44,3.17,6.46
148,103142497,-0.8799,0.3687,0.5308,18.23,2.50,6.77
149,103147497,-0.8813,0.3799,0.5366,19.21,1.83,6.95
150,103153112,-0.8735,0.3789,0.5283,20.24,1.34,7.32
151,103157499,-0.8701,0.3843,0.5376,21.16,0.98,7.62
152,103162498,-0.8682,0.3813,0.5288,22.20,0.61,7.99
153,103167500,-0.8726,0.3735,0.5186,23.23,0.24,8.66
154,103172497,-0.8843,0.3745,0.5146,24.39,-0.24,9.39
155,103177501,-0.8887,0.3765,0.5283,25.79,-0.18,10.30
156,103182499,-0.8887,0.3774,0.5352,27.07,-0.18,11.28
157,103187499,-0.8804,0.3804,0.5425,28.41,0.06,12.38
158,103192499,-0.8770,0.3848,0.5493,29.76,0.24,13.41
159,103197502,-0.8774,0.3838,0.5542,30.91,0.67,14.51
160,103202500,-0.8813,0.3848,0.5508,32.07,1.10,15.73
161,103207690,-0.8882,0.3838,0.5469,33.17,1.77,16.89
162,103212499,-0.8960,0.3828,0.5479,34.21,1.83,18.17
163,103217499,-0.9009,0.3877,0.5498,35.37,2.44,19.33
164,103222499,-0.9072,0.3896,0.5405,36.34,2.62,20.61
165,103227499,-0.9067,0.3950,0.5483,37.38,2.99,21.83
166,103232499,-0.9116,0.3960,0.5488,38.23,3.11,23.11
167,103237497,-0.9141,0.3975,0.5425,38.84,3.60,24.15
168,103242499,-0.9155,0.4019,0.5479,39.39,3.60,25.30
169,103247985,-0.9116,0.4067,0.5474,39.51,3.84,26.34
170,103252499,-0.9170,0.4102,0.5430,39.27,3.90,27.38
171,103257499,-0.9155,0.4111,0.5352,38.96,4.02,28.23
172,103262753,-0.9165,0.4136,0.5337,38.35,4.02,29.27
173,103267499,-0.9248,0.4165,0.5347,37.74,3.84,30.30
174,103272499,-0.9292,0.4189,0.5347,37.07,3.72,31.40
175,103277832,-0.9321,0.4150,0.5337,36.52,3.48,32.44
176,103282499,-0.9375,0.4185,0.5376,35.85,3.23,33.60
177,103287499,-0.9375,0.4155,0.5342,35.00,2.80,34.76
178,103292499,-0.9399,0.4219,0.5234,34.09,2.62,35.91
179,103297501,-0.9448,0.4194,0.5215,33.17,2.32,37.07
180,103302499,-0.9497,0.4219,0.5215,31.95,2.01,38.35
181,103307630,-0.9502,0.4219,0.5200,30.85,1.52,39.57
182,103312499,-0.9482,0.4160,0.5093,29.88,1.10,40.85
183,103317498,-0.9497,0.4180,0.5088,28.90,0.49,42.32
184,103322499,-0.9507,0.4189,0.5044,28.05,-0.06,43.72
185,103327499,-0.9502,0.4224,0.5000,27.13,-0.49,45.18
186,103332757,-0.9517,0.4185,0.4912,26.34,-0.98,46.83
187,103337499,-0.9478,0.4233,0.4907,25.49,-1.22,48.48
188,103342499,-0.9419,0.4238,0.4956,24.76,-1.52,50.12
189,103347499,-0.9380,0.4277,0.4990,23.96,-1.59,51.65
190,103352497,-0.9341,0.4351,0.5054,22.93,-1.59,53.35
191,103357499,-0.9478,0.4370,0.4985,21.95,-1.52,55.06
192,103362499,-0.9526,0.4336,0.5020,20.91,-1.40,56.83
193,103367501,-0.9702,0.4419,0.4985,19.94,-1.52,58.48
194,103372499,-0.9824,0.4370,0.4854,19.02,-1.40,60.24
195,103377760,-0.9893,0.4365,0.4883,18.17,-1.65,62.01
196,103382499,-0.9897,0.4434,0.4854,17.50,-1.83,63.84
197,103387499,-0.9819,0.4399,0.4834,16.83,-2.01,65.49
198,103392893,-0.9727,0.4404,0.4751,16.34,-1.89,67.20
199,103397499,-0.9741,0.4341,0.4731,15.85,-2.07,68.60
200,103402498,-0.9668,0.4370,0.4785,15.24,-2.13,70.67
201,103407727,-0.9629,0.4351,0.4678,14.94,-2.38,72.32
202,103412499,-0.9629,0.4341,0.4604,14.70,-2.38,73.66
203,103417499,-0.9546,0.4321,0.4639,14.27,-2.26,75.61
204,103422499,-0.9536,0.4316,0.4570,14.09,-2.13,76.71
205,103427503,-0.9512,0.4297,0.4502,13.78,-2.07,78.23
206,103432500,-0.9526,0.4282,0.4448,13.60,-1.77,79.76
207,103437497,-0.9541,0.4229,0.4468,13.41,-1.52,80.67
208,103442501,-0.9482,0.4150,0.4380,13.29,-1.40,81.89
209,103447501,-0.9565,0.4131,0.4321,12.93,-1.04,82.99
210,103452500,-0.9692,0.4146,0.4287,12.38,-0.91,83.96
211,103457497,-0.9814,0.4229,0.4272,11.16,-0.55,84.57
212,103462501,-0.9873,0.4395,0.4258,9.21,-0.37,85.49
213,103467498,-0.9956,0.4497,0.4282,6.65,-0.12,85.73
214,103472499,-0.9995,0.4590,0.4258,3.17,0.18,86.16
215,103477499,-1.0005,0.4731,0.4248,-1.16,0.55,85.85
216,103482697,-0.9956,0.4854,0.4287,-7.13,0.79,86.34
217,103487499,-0.9893,0.5005,0.4277,-11.46,1.22,85.55
218,103492499,-0.9780,0.5200,0.4414,-18.41,1.71,85.85
219,103497499,-0.9668,0.5293,0.4355,-23.23,2.07,85.06
220,103502499,-0.9507,0.5405,0.4429,-29.15,2.56,84.63
221,103507499,-0.9438,0.5503,0.4331,-34.82,2.80,84.33
222,103512609,-0.9443,0.5503,0.4268,-41.04,2.80,84.02
223,103517500,-0.9453,0.5532,0.4248,-44.45,2.74,83.72
224,103522566,-0.9424,0.5615,0.4219,-47.87,2.56,83.54
225,103527499,-0.9385,0.5640,0.4131,-50.98,2.26,83.60
226,103532499,-0.9316,0.5659,0.4155,-52.56,1.95,83.60
227,103537499,-0.9199,0.5737,0.4160,-54.21,1.71,83.66
228,103542499,-0.9116,0.5850,0.4165,-55.43,1.40,83.54
229,103547499,-0.9028,0.5977,0.4185,-56.71,1.10,83.29
230,103552668,-0.8877,0.6133,0.4180,-58.17,0.73,82.93
231,103557499,-0.8765,0.6274,0.4111,-59.51,0.49,82.44
232,103562499,-0.8535,0.6499,0.4116,-61.83,0.12,81.40
233,103567499,-0.8369,0.6533,0.4233,-63.72,0.00,80.55
234,103572499,-0.8149,0.6753,0.4272,-66.22,-0.12,79.39
235,103577499,-0.8032,0.6909,0.4263,-68.90,-0.18,77.93
236,103582684,-0.7964,0.7085,0.4307,-72.20,-0.61,76.04
237,103587499,-0.7852,0.7197,0.4224,-74.51,-0.85,74.76
238,103592751,-0.7764,0.7344,0.4194,-77.80,-1.28,72.74
239,103597499,-0.7661,0.7441,0.4312,-79.63,-1.59,71.46
240,103602499,-0.7520,0.7676,0.4404,-81.59,-2.20,69.57
241,103607499,-0.7417,0.7759,0.4438,-82.32,-2.56,68.23
242,103612498,-0.7305,0.7866,0.4482,-82.50,-3.17,66.83
243,103617499,-0.7134,0.7954,0.4526,-81.77,-4.02,65.61
244,103622503,-0.7012,0.7993,0.4482,-79.70,-4.94,64.15
245,103627499,-0.6919,0.7964,0.4365,-77.68,-5.67,63.54
246,103632499,-0.6816,0.7954,0.4341,-74.63,-6.83,62.99
247,103637712,-0.6670,0.7939,0.4360,-70.18,-8.29,62.50
248,103642499,-0.6597,0.7915,0.4443,-66.77,-9.39,62.32
249,103647499,-0.6582,0.7969,0.4546,-62.32,-10.43,62.20
250,103652499,-0.6519,0.7964,0.4512,-57.56,-11.52,62.20
251,103657499,-0.6421,0.7993,0.4595,-52.50,-12.44,62.20
252,103662497,-0.6255,0.8003,0.4600,-47.44,-13.35,62.26
253,103667665,-0.6123,0.8110,0.4565,-42.38,-14.45,62.20
254,103672499,-0.5879,0.8242,0.4619,-37.26,-15.24,62.13
255,103677600,-0.5864,0.8359,0.4697,-32.50,-16.04,62.07
256,103682499,-0.5723,0.8472,0.4736,-27.80,-16.83,61.77
257,103687556,-0.5625,0.8643,0.4810,-23.35,-17.50,61.28
258,103692497,-0.5654,0.8828,0.4858,-18.96,-17.93,60.61
259,103697499,-0.5625,0.9019,0.4946,-14.45,-18.54,59.94
260,103702539,-0.5562,0.9082,0.4849,-9.63,-19.21,59.21
261,103707498,-0.5493,0.9121,0.4883,-4.63,-20.06,58.66
262,103712499,-0.5396,0.9141,0.4956,1.04,-20.85,58.35
263,103717707,-0.5264,0.9194,0.4956,7.20,-21.59,58.17
264,103722499,-0.5000,0.9106,0.5034,13.23,-22.38,58.17
265,103727498,-0.4932,0.9014,0.4932,19.39,-22.74,58.41
266,103732499,-0.4946,0.8892,0.4917,25.30,-23.17,59.09
267,103737498,-0.4868,0.8691,0.4902,30.61,-23.41,59.82
268,103742796,-0.4717,0.8555,0.4917,35.67,-23.72,60.98
269,103747499,-0.4575,0.8516,0.4805,40.55,-23.78,62.32
270,103752498,-0.4424,0.8525,0.4800,45.18,-23.96,63.72
271,103757497,-0.4214,0.8560,0.4902,49.57,-23.72,65.30
272,103762499,-0.3950,0.8584,0.5083,53.35,-23.48,66.89
273,103767497,-0.3779,0.8569,0.4966,56.40,-22.99,68.35
274,103772500,-0.3613,0.8584,0.5034,58.90,-22.38,69.88
275,103777498,-0.3550,0.8657,0.5239,60.85,-21.65,71.40
276,103782499,-0.3525,0.8691,0.5190,61.95,-20.79,72.93
277,103787693,-0.3584,0.8809,0.5034,62.50,-20.18,74.27
278,103792499,-0.3623,0.8960,0.5059,62.38,-19.63,75.61
279,103797499,-0.3809,0.9033,0.5034,61.22,-19.27,77.07
280,103802499,-0.3794,0.9141,0.5039,59.94,-19.21,77.99
281,103807499,-0.3823,0.9204,0.4937,57.50,-19.21,79.51
282,103812500,-0.3843,0.9282,0.4951,55.37,-19.33,80.37
283,103817498,-0.3906,0.9321,0.5073,52.62,-19.63,81.65
284,103822580,-0.3936,0.9399,0.5083,49.70,-20.00,82.93
285,103827735,-0.3892,0.9434,0.5073,46.89,-20.37,84.51
286,103832499,-0.4004,0.9771,0.6733,43.96,-20.24,85.67
287,103837499,-0.3687,1.0112,0.6313,39.88,-20.30,87.50
288,103842499,-0.3672,0.9854,0.5122,37.32,-21.28,87.80
289,103847499,-0.4067,0.9985,0.5688,33.35,-22.44,89.45
290,103852499,-0.4150,0.9941,0.6929,30.49,-22.01,90.67
291,103857531,-0.3945,1.0078,0.5479,26.71,-23.41,91.89
292,103862641,-0.3940,1.0161,0.5513,22.80,-25.30,93.29
293,103867499,-0.4062,1.0220,0.6748,19.15,-26.34,94.39
294,103872805,-0.4121,1.0229,0.6489,15.55,-27.56,95.91
295,103877499,-0.4121,1.0205,0.5547,11.95,-29.82,97.26
296,103882499,-0.4180,1.0259,0.5981,8.17,-31.95,98.48
297,103887534,-0.4375,1.0366,0.6797,4.15,-33.54,99.70
298,103892921,-0.4424,1.0400,0.6294,0.24,-35.49,100.55
299,103897499,-0.4507,1.0488,0.5938,-3.72,-37.93,101.46
300,103902499,-0.4556,1.0552,0.6982,-7.74,-40.06,102.26
301,103907499,-0.4517,1.0698,0.7412,-11.89,-41.89,102.93
302,103912499,-0.4487,1.0791,0.7051,-15.79,-44.21,103.66
303,103917498,-0.4429,1.0742,0.7085,-19.63,-46.89,104.15
304,103922550,-0.4404,1.0640,0.7314,-23.29,-49.51,104.88
305,103927752,-0.4448,1.0425,0.7368,-26.34,-52.13,105.73
306,103932548,-0.4292,1.0146,0.6821,-28.54,-55.37,106.77
307,103937499,-0.4160,0.9966,0.6694,-29.82,-58.66,107.74
308,103942675,-0.3994,0.9751,0.7437,-30.73,-61.46,109.02
309,103947499,-0.3911,0.9639,0.7510,-31.77,-64.21,110.24
310,103952499,-0.3809,0.9438,0.7300,-32.87,-66.83,111.46
311,103957499,-0.3853,0.9268,0.6987,-33.96,-69.88,112.50
312,103962499,-0.3965,0.9141,0.6978,-35.12,-73.11,113.72
313,103967653,-0.4097,0.8896,0.6812,-36.10,-76.04,114.82
314,103972499,-0.4053,0.8691,0.6572,-36.71,-79.21,116.10
315,103977499,-0.4004,0.8677,0.6348,-37.20,-82.32,117.13
316,103982499,-0.3784,0.8667,0.6631,-37.13,-85.30,118.17
317,103987499,-0.3657,0.8662,0.6567,-36.77,-87.99,118.96
318,103992675,-0.3496,0.8594,0.6499,-36.04,-90.43,119.70
319,103997499,-0.3501,0.8584,0.6289,-34.88,-93.11,120.43
320,104002499,-0.3540,0.8486,0.6421,-33.35,-95.00,120.98
321,104007499,-0.3550,0.8491,0.6216,-31.65,-97.13,121.28
322,104012499,-0.3481,0.8457,0.6147,-29.57,-99.27,121.46
323,104017501,-0.3296,0.8364,0.6172,-27.38,-101.10,121.46
324,104022498,-0.3213,0.8374,0.6089,-25.43,-102.93,121.40
325,104027499,-0.3149,0.8271,0.5874,-23.29,-104.57,121.28
326,104032498,-0.2925,0.8184,0.5859,-21.28,-106.22,121.04
327,104037500,-0.2832,0.8057,0.5693,-19.27,-107.74,120.67
328,104042499,-0.2959,0.7954,0.5273,-17.07,-109.21,120.55
329,104047497,-0.2710,0.7705,0.5186,-14.51,-110.55,120.43
330,104052499,-0.2593,0.7568,0.4902,-12.01,-111.59,120.37
331,104057499,-0.2402,0.7559,0.4790,-9.57,-112.38,120.37
332,104062499,-0.2202,0.7456,0.4775,-7.44,-112.99,120.49
333,104067536,-0.1968,0.7334,0.4731,-5.49,-113.29,120.49
334,104072568,-0.1680,0.7153,0.4609,-3.84,-113.54,120.67
335,104077498,-0.1372,0.6870,0.4517,-2.68,-113.72,120.98
336,104082499,-0.1045,0.6650,0.4458,-2.01,-113.54,121.46
337,104087499,-0.0820,0.6460,0.4434,-1.89,-113.66,122.01
338,104092499,-0.0479,0.6289,0.4600,-2.32,-113.72,122.56
339,104097499,-0.0161,0.6274,0.4917,-3.60,-113.35,123.17
340,104102498,0.0352,0.6270,0.5269,-5.91,-112.80,123.78
341,104107595,0.0903,0.6216,0.5479,-9.21,-112.38,124.33
342,104112690,0.1108,0.6025,0.5811,-13.29,-111.83,124.51
343,104117501,0.1069,0.5791,0.5947,-18.23,-111.22,124.70
344,104122498,0.1069,0.5625,0.5986,-23.84,-110.73,124.63
345,104127502,0.1006,0.5596,0.6475,-29.88,-110.06,124.15
346,104132499,0.1470,0.5356,0.6499,-35.73,-109.39,123.17
347,104137499,0.2778,0.5430,0.5376,-41.16,-109.27,122.13
348,104142499,0.2920,0.5562,0.4941,-45.00,-109.88,120.85
349,104147498,0.1968,0.5527,0.5034,-47.26,-110.43,119.39
350,104152960,0.1211,0.5503,0.4976,-48.48,-110.37,118.05
351,104157499,0.2861,0.5576,0.5273,-48.78,-109.33,116.65
352,104162499,0.2886,0.6284,0.4751,-48.11,-108.17,115.12
353,104167499,0.2637,0.7368,0.4634,-46.28,-106.77,112.74
354,104172499,0.1582,0.8198,0.4194,-43.41,-104.94,109.76
355,104177499,0.0708,0.8662,0.3916,-40.79,-103.23,106.04
356,104182500,0.0415,0.7749,0.4062,-38.60,-101.83,102.38
357,104187499,0.0669,0.7266,0.3833,-36.04,-100.30,99.45
358,104192501,0.1289,0.7607,0.4150,-33.17,-98.48,96.59
359,104197504,0.2100,0.7881,0.4424,-30.30,-96.59,93.41
360,104202499,0.2676,0.7314,0.4482,-27.20,-94.88,90.43
361,104207644,0.3203,0.6768,0.4995,-24.21,-92.50,87.50
362,104212499,0.3618,0.6475,0.5596,-21.16,-90.24,86.10
363,104217498,0.3667,0.6294,0.5562,-17.99,-87.50,83.96
364,104222501,0.3618,0.6313,0.5220,-14.57,-84.94,81.95
365,104227498,0.3794,0.6235,0.5293,-10.79,-82.50,79.88
366,104232847,0.3955,0.5918,0.5225,-6.59,-80.24,78.05
367,104237499,0.3335,0.5537,0.4463,-2.38,-78.84,76.46
368,104242499,0.2622,0.5244,0.3755,1.40,-78.48,75.12
369,104247884,0.2227,0.5513,0.3447,5.18,-79.21,73.54
370,104252502,0.2651,0.5293,0.4263,8.78,-80.12,71.89
371,104257498,0.3330,0.4883,0.5479,12.56,-80.06,70.43
372,104262497,0.3687,0.4731,0.6592,15.61,-78.54,69.39
373,104267501,0.3442,0.5234,0.7378,21.34,-73.66,67.56
374,104272600,0.2598,0.5928,0.7939,27.44,-67.74,65.06
375,104277701,0.2012,0.5747,0.6265,33.72,-61.59,62.32
376,104282500,0.1260,0.6265,0.7256,38.96,-55.91,59.51
377,104287500,0.1748,0.5850,0.5728,43.35,-50.37,56.40
378,104292499,0.2344,0.5581,0.6143,45.85,-45.49,53.11
379,104297499,0.3447,0.5151,0.6318,46.65,-41.16,49.94
380,104302499,0.4424,0.5142,0.5996,45.91,-37.13,46.83
381,104307499,0.5000,0.5435,0.5640,43.66,-33.48,43.23
382,104312500,0.5283,0.5654,0.5488,40.30,-30.67,39.33
383,104317500,0.5269,0.5674,0.5142,35.98,-28.60,34.76
384,104322498,0.5425,0.5303,0.4629,30.79,-27.87,30.55
385,104327497,0.5713,0.5005,0.4683,24.76,-28.11,26.71
386,104332497,0.6172,0.4868,0.4790,18.29,-28.84,23.54
387,104337499,0.6660,0.4800,0.4863,11.28,-30.67,20.85
388,104342499,0.6880,0.4844,0.5176,4.21,-32.99,18.90
389,104347499,0.6709,0.5186,0.5713,-2.68,-35.37,17.50
390,104352741,0.6099,0.5688,0.6289,-8.60,-37.13,16.40
391,104357499,0.5933,0.5957,0.6587,-12.38,-37.99,15.79
392,104362499,0.5391,0.6035,0.6816,-16.04,-38.72,15.43
393,104367499,0.5093,0.6030,0.6802,-18.35,-38.96,15.55
394,104372968,0.5229,0.6118,0.6675,-20.18,-39.15,15.98
395,104377499,0.5786,0.6382,0.6792,-21.65,-39.15,16.16
396,104382970,0.5591,0.6597,0.6807,-24.21,-38.84,16.16
397,104387499,0.5444,0.6763,0.6621,-26.28,-38.66,15.73
398,104392499,0.5562,0.6738,0.6777,-29.21,-38.48,15.00
399,104397499,0.6040,0.6689,0.6792,-32.56,-38.05,14.02
400,104402498,0.5757,0.6519,0.6826,-35.98,-37.50,12.93
401,104407497,0.5557,0.6377,0.7007,-39.45,-36.95,11.71
402,104412497,0.5562,0.6172,0.7026,-42.44,-36.04,10.43
403,104417497,0.5776,0.6016,0.7031,-45.00,-35.06,9.21
404,104422497,0.5806,0.5869,0.6997,-47.01,-34.15,8.11
405,104427591,0.5859,0.5752,0.7051,-48.78,-32.99,6.95
406,104432497,0.5845,0.5601,0.7026,-49.51,-32.07,6.04
407,104437744,0.5835,0.5449,0.6929,-49.94,-30.67,4.94
408,104442501,0.5981,0.5347,0.6797,-49.70,-29.57,4.39
409,104447535,0.5991,0.5312,0.6763,-49.02,-28.54,3.78
410,104452499,0.5698,0.5312,0.6592,-47.80,-27.13,3.17
411,104457499,0.5474,0.5288,0.6401,-46.10,-25.91,2.50
412,104462499,0.5278,0.5156,0.6318,-44.09,-24.57,1.95
413,104467498,0.5122,0.5142,0.6187,-42.01,-23.29,1.59
414,104472499,0.4902,0.5078,0.5991,-40.00,-22.13,1.10
415,104477499,0.4712,0.4966,0.5688,-38.23,-20.85,0.67
416,104482500,0.4453,0.5127,0.5400,-36.65,-19.82,0.30
417,104487499,0.4111,0.5190,0.5166,-35.24,-18.78,-0.30
418,104492498,0.3892,0.5234,0.4678,-33.78,-17.68,-1.16
419,104497499,0.3530,0.5273,0.4219,-33.05,-16.95,-1.83
420,104502662,0.2905,0.5454,0.3730,-32.87,-16.04,-3.35
421,104507499,0.2852,0.5620,0.3633,-33.29,-15.30,-4.51
422,104512499,0.2954,0.5430,0.3398,-33.96,-14.15,-6.34
423,104517498,0.3105,0.5347,0.3286,-35.18,-13.05,-8.05
424,104522499,0.3086,0.5513,0.3267,-36.71,-11.71,-9.76
425,104527499,0.3008,0.5581,0.3315,-38.29,-10.55,-11.52
426,104532708,0.2935,0.5654,0.3384,-40.18,-8.96,-13.72
427,104537499,0.2983,0.5693,0.3462,-40.98,-7.99,-15.30
428,104542609,0.3496,0.5645,0.3940,-41.46,-6.28,-17.44
429,104547499,0.4297,0.5566,0.4263,-40.98,-4.94,-18.60
430,104552499,0.4888,0.5562,0.4541,-39.33,-3.11,-19.94
431,104557499,0.5098,0.5542,0.4941,-36.46,-1.46,-21.16
432,104562498,0.5015,0.5674,0.5298,-32.50,0.49,-22.01
433,104567497,0.4893,0.5835,0.5610,-27.68,1.89,-22.74
434,104572499,0.4902,0.5957,0.5928,-21.46,3.48,-23.72
435,104577499,0.5010,0.6040,0.6265,-16.28,4.82,-24.45
436,104582916,0.4995,0.6147,0.6426,-11.22,5.85,-25.24
437,104587499,0.5034,0.6104,0.6621,-6.52,6.71,-25.85
438,104592499,0.5000,0.6123,0.6709,-3.11,7.32,-26.34
439,104597499,0.4902,0.6187,0.6704,0.67,7.74,-26.89
440,104602672,0.4800,0.6250,0.6729,3.90,8.23,-27.38
441,104607499,0.4756,0.6353,0.6582,6.71,8.29,-27.80
442,104612499,0.4673,0.6372,0.6621,9.09,8.29,-27.99
443,104617499,0.4639,0.6411,0.6636,11.16,8.41,-28.11
444,104622497,0.4629,0.6484,0.6660,12.99,8.35,-28.17
445,104627499,0.4585,0.6572,0.6792,14.33,8.54,-28.11
446,104632499,0.4585,0.6729,0.6797,15.37,8.90,-27.99
447,104637498,0.4614,0.6816,0.6987,15.91,9.27,-27.93
448,104642499,0.4712,0.6958,0.7129,16.04,9.82,-27.99
449,104647497,0.4834,0.7051,0.7192,15.85,10.43,-27.99
450,104652501,0.4902,0.7144,0.7383,15.30,10.98,-27.93
451,104657498,0.4971,0.7319,0.7417,14.76,11.46,-27.74
452,104662499,0.5010,0.7422,0.7559,14.09,11.83,-27.62
453,104667501,0.5093,0.7539,0.7637,13.72,12.20,-27.20
454,104672499,0.5181,0.7661,0.7695,13.29,12.44,-26.65
455,104677499,0.5229,0.7642,0.7817,12.87,12.68,-25.79
456,104682501,0.5264,0.7632,0.8003,12.32,13.05,-24.39
457,104687499,0.5181,0.7695,0.8130,11.65,13.17,-22.87
458,104692499,0.5103,0.7754,0.8174,10.98,13.11,-21.46
459,104697499,0.4941,0.7754,0.8213,9.76,12.93,-19.63
460,104702499,0.4878,0.7827,0.8374,8.35,12.62,-17.62
461,104707499,0.4839,0.7944,0.8457,6.40,12.13,-15.61
462,104712499,0.4858,0.7896,0.8623,4.09,11.46,-13.48
463,104717499,0.4731,0.7861,0.8818,0.85,10.61,-11.40
464,104722498,0.4717,0.7852,0.8882,-2.93,9.63,-9.33
465,104727717,0.4712,0.7808,0.9136,-7.68,8.66,-7.32
466,104732500,0.4883,0.7832,0.9380,-13.05,7.50,-5.43
467,104737499,0.4941,0.7842,0.9604,-18.84,6.04,-3.60
468,104742499,0.5020,0.7920,0.9868,-24.82,4.57,-1.83
469,104747498,0.5107,0.7949,1.0181,-30.37,2.93,0.06
470,104752574,0.5146,0.7979,1.0425,-35.24,1.28,1.89
471,104757499,0.5107,0.8057,1.0767,-40.24,-0.98,4.15
472,104762498,0.5156,0.8159,1.1138,-43.05,-2.44,5.61
473,104767499,0.5195,0.8267,1.1499,-45.91,-4.45,7.50
474,104772497,0.5142,0.8291,1.1860,-47.68,-6.77,9.33
475,104777870,0.5059,0.8354,1.2119,-48.78,-9.02,11.22
476,104782499,0.5088,0.8335,1.2568,-49.27,-12.26,13.41
477,104787499,0.5176,0.8369,1.2759,-49.21,-14.70,14.94
478,104792499,0.5249,0.8350,1.2969,-49.09,-17.74,16.77
479,104797499,0.5234,0.8423,1.3125,-48.84,-21.04,18.35
480,104802497,0.5103,0.8408,1.3354,-48.78,-24.57,20.12
481,104807499,0.5029,0.8315,1.3530,-48.84,-28.48,21.65
482,104812499,0.4961,0.8203,1.3721,-49.39,-32.38,23.17
483,104817498,0.4946,0.8101,1.3906,-50.37,-36.40,24.70
484,104822571,0.4971,0.7959,1.4102,-51.52,-40.67,26.16
485,104827499,0.4834,0.7900,1.4189,-52.74,-45.30,27.62
486,104832498,0.4697,0.7861,1.4292,-54.02,-50.06,28.90
487,104837690,0.4585,0.7764,1.4399,-55.37,-55.12,30.18
488,104842670,0.4531,0.7710,1.4473,-56.77,-60.49,31.65
489,104847952,0.4585,0.7695,1.4639,-57.93,-66.10,32.99
490,104852499,0.4497,0.7676,1.4590,-58.96,-71.89,34.45
491,104857935,0.4404,0.7695,1.4668,-59.76,-77.87,35.79
492,104862499,0.4136,0.7646,1.4497,-60.55,-84.27,37.13
493,104867500,0.4048,0.7588,1.4458,-61.65,-90.55,38.35
494,104872524,0.3955,0.7461,1.4277,-63.11,-97.07,39.51
495,104877498,0.3838,0.7437,1.4048,-64.88,-103.41,40.43
496,104882499,0.3730,0.7344,1.3979,-66.95,-109.76,41.16
497,104887499,0.3574,0.7285,1.3770,-69.21,-116.04,41.65
498,104892499,0.3501,0.7173,1.3745,-71.77,-122.26,41.95
499,104897499,0.3438,0.7109,1.3589,-74.57,-128.29,41.95
500,104902499,0.3447,0.6997,1.3530,-77.87,-134.39,41.59
501,104907498,0.3467,0.6958,1.3301,-81.46,-140.49,40.98
502,104912499,0.3442,0.6875,1.3232,-85.24,-146.59,40.18
503,104917499,0.3389,0.6821,1.3071,-89.09,-152.68,39.15
504,104922499,0.3242,0.6768,1.2964,-92.74,-158.60,37.74
505,104927501,0.3193,0.6709,1.2793,-96.10,-164.45,36.04
506,104932497,0.3076,0.6660,1.2588,-99.15,-170.24,34.21
507,104937497,0.2925,0.6562,1.2358,-101.95,-175.91,32.01
508,104942497,0.2715,0.6548,1.2100,-104.51,-181.52,29.76
509,104947499,0.2524,0.6504,1.1914,-107.07,-186.77,27.07
510,104952505,0.2305,0.6436,1.1514,-109.70,-191.95,24.27
511,104957497,0.2095,0.6362,1.1123,-112.38,-196.83,21.16
512,104962499,0.1929,0.6279,1.0757,-115.18,-201.65,17.93
513,104967560,0.1650,0.6221,1.0444,-118.05,-206.59,14.45
514,104972499,0.1455,0.6113,1.0034,-121.16,-211.10,10.79
515,104977498,0.1250,0.6030,0.9761,-124.02,-215.55,7.01
516,104982745,0.1045,0.5977,0.9341,-127.01,-219.94,2.99
517,104987500,0.0859,0.5947,0.8940,-129.94,-224.33,-1.16
518,104992499,0.0679,0.5903,0.8564,-132.38,-228.41,-5.49
519,104997499,0.0483,0.5830,0.8145,-134.70,-232.56,-9.82
520,105002499,0.0288,0.5776,0.7754,-136.77,-236.77,-14.27
521,105007498,0.0103,0.5801,0.7373,-138.60,-240.67,-18.84
522,105012642,-0.0098,0.5693,0.7036,-140.00,-244.57,-23.48
523,105017499,-0.0298,0.5654,0.6543,-141.28,-248.35,-28.23
524,105022499,-0.0454,0.5625,0.6177,-142.20,-252.07,-32.80
525,105027499,-0.0698,0.5542,0.5752,-142.93,-255.85,-37.44
526,105032499,-0.0840,0.5493,0.5278,-143.48,-259.51,-42.07
527,105037499,-0.1064,0.5518,0.4873,-143.48,-263.11,-46.52
528,105042498,-0.1235,0.5405,0.4517,-143.17,-266.77,-51.16
529,105047596,-0.1455,0.5386,0.4077,-142.50,-270.18,-55.67
530,105052497,-0.1665,0.5327,0.3706,-141.28,-273.66,-60.18
531,105057499,-0.1948,0.5356,0.3335,-139.88,-276.89,-64.76
532,105062498,-0.2065,0.5166,0.3081,-137.93,-280.00,-68.96
533,105067501,-0.2241,0.5566,0.2671,-135.85,-282.93,-73.23
534,105072498,-0.2764,0.5737,0.1885,-133.11,-285.98,-77.62
535,105077499,-0.3047,0.5815,0.1396,-130.37,-289.27,-82.01
536,105082499,-0.3135,0.5903,0.1069,-127.44,-292.62,-86.22
537,105087986,-0.3237,0.6030,0.0757,-124.21,-295.79,-90.30
538,105092499,-0.3418,0.6240,0.0366,-120.43,-299.02,-94.27
539,105097499,-0.3716,0.6514,-0.0200,-116.28,-302.13,-98.11
540,105102501,-0.4043,0.6719,-0.0649,-111.71,-305.24,-101.77
541,105107500,-0.4419,0.6792,-0.1074,-107.07,-308.35,-105.24
542,105112498,-0.4668,0.6802,-0.1440,-102.38,-310.98,-108.60
543,105117501,-0.4932,0.6807,-0.1870,-98.29,-313.84,-111.77
544,105122499,-0.5161,0.6807,-0.2246,-94.63,-316.52,-114.76
545,105127545,-0.5474,0.6802,-0.2578,-91.89,-318.84,-117.56
546,105132499,-0.5781,0.6777,-0.2856,-90.06,-321.22,-120.55
547,105137499,-0.6104,0.6797,-0.3218,-88.96,-323.23,-123.60
548,105142499,-0.6406,0.6875,-0.3599,-88.66,-324.76,-126.89
549,105147499,-0.6567,0.6870,-0.3896,-89.21,-326.34,-130.43
550,105152499,-0.6729,0.6685,-0.4214,-90.73,-327.56,-134.09
551,105157499,-0.6836,0.7139,-0.4668,-93.05,-328.41,-138.11
552,105162501,-0.7520,0.7368,-0.4980,-95.73,-329.02,-142.62
553,105167499,-0.7666,0.7964,-0.5552,-98.54,-329.27,-147.44
554,105172598,-0.8022,0.8403,-0.6357,-100.91,-329.27,-152.68
555,105177499,-0.8369,0.8555,-0.7065,-102.68,-328.84,-158.17
556,105182497,-0.8706,0.8589,-0.7661,-103.41,-328.29,-163.29
557,105187501,-0.9141,0.8716,-0.8384,-102.93,-327.01,-168.35
558,105192498,-0.9775,0.9019,-0.8921,-101.16,-325.37,-173.05
559,105197501,-1.0454,0.9395,-0.9600,-98.29,-323.11,-177.38
560,105202498,-1.1191,0.9824,-1.0112,-94.39,-320.37,-181.46
561,105207499,-1.1206,1.0234,-1.0645,-89.76,-316.83,-185.30
562,105212499,-1.1230,1.0518,-1.1055,-84.27,-312.38,-188.78
563,105217499,-1.1235,1.0767,-1.1841,-77.74,-307.44,-192.01
564,105222498,-1.1387,1.0669,-1.2285,-70.06,-301.71,-194.76
565,105227499,-1.1387,1.0874,-1.2954,-61.71,-295.61,-197.26
566,105232934,-1.1494,1.1440,-1.3613,-52.07,-288.90,-199.45
567,105237500,-1.1890,1.2104,-1.4053,-41.59,-281.71,-201.28
568,105242499,-1.2129,1.2080,-1.4365,-30.30,-273.96,-202.74
569,105247500,-1.2368,1.1992,-1.4839,-19.21,-265.55,-203.35
570,105252830,-1.3643,1.2036,-1.5488,-7.93,-256.77,-203.54
571,105257613,-1.4736,1.1890,-1.5898,4.21,-247.01,-203.23
572,105262521,-1.5195,1.1938,-1.6562,16.95,-236.52,-202.13
573,105267501,-1.5068,1.2168,-1.6865,30.24,-225.61,-200.61
574,105272499,-1.5195,1.2129,-1.7300,42.32,-214.02,-199.27
575,105277499,-1.5015,1.2061,-1.7490,52.68,-201.59,-197.87
576,105282497,-1.4688,1.1821,-1.8076,60.55,-188.66,-196.83
577,105287499,-1.4736,1.1875,-1.8340,65.43,-174.57,-196.34
578,105292498,-1.4575,1.1914,-1.9043,66.83,-159.57,-196.65
579,105297613,-1.4658,1.1440,-2.0034,64.57,-144.27,-197.56
580,105302499,-1.4463,1.1235,-2.0386,58.54,-127.62,-199.15
581,105307499,-1.4785,1.1030,-2.1289,49.70,-109.82,-201.40
582,105312499,-1.5190,1.0801,-2.2104,38.60,-90.67,-204.33
583,105317500,-1.5181,1.0566,-2.2690,25.79,-70.18,-207.80
584,105322501,-1.5190,1.0303,-2.3516,12.07,-47.99,-211.83
585,105327497,-1.5493,1.0176,-2.4312,1.16,-28.96,-215.49
586,105332499,-1.6021,1.0112,-2.4736,-12.44,-3.54,-220.61
587,105337499,-1.5688,0.9980,-2.5850,-25.24,23.60,-226.22
588,105342499,-1.6450,1.0298,-2.6484,-36.28,52.07,-232.26
589,105347552,-1.7305,1.0254,-2.7212,-46.83,87.62,-240.73
590,105352498,-1.8032,1.0503,-2.8032,-52.38,111.89,-246.77
591,105357500,-1.9297,1.0557,-2.8652,-56.71,142.50,-254.94
592,105362499,-1.9956,1.0327,-2.9028,-57.99,173.78,-263.41
593,105367499,-2.1001,1.0356,-2.9429,-56.28,205.73,-272.01
594,105372499,-2.2310,1.0420,-2.9941,-51.34,238.72,-280.73
595,105377499,-2.3403,1.0557,-3.0225,-43.17,272.56,-289.45
596,105382691,-2.5449,1.1201,-3.0547,-29.21,314.33,-299.76
597,105387499,-2.6772,1.1650,-3.0728,-17.20,342.68,-306.65
598,105392499,-2.8354,1.2285,-3.0518,0.30,378.84,-315.18
599,105397499,-2.9897,1.2944,-3.0366,20.00,415.79,-323.72
600,105402499,-3.1699,1.3833,-3.0210,41.22,452.99,-332.44
601,105407499,-3.4038,1.4966,-2.9854,62.80,490.30,-341.52
602,105412499,-3.6855,1.6309,-2.9438,84.70,527.50,-350.91
603,105417602,-4.0527,1.8154,-2.8848,110.98,570.91,-362.56
604,105422499,-4.2915,1.9399,-2.8428,126.89,598.84,-370.79
605,105427499,-4.6167,2.1035,-2.7871,145.98,632.62,-381.10
606,105432499,-4.9302,2.2876,-2.7280,163.11,664.70,-391.52
607,105437497,-5.2285,2.4995,-2.6699,177.99,694.63,-402.20
608,105442499,-5.5376,2.7227,-2.5840,191.83,722.62,-412.74
609,105447499,-5.8086,2.9097,-2.4810,205.43,748.66,-422.87
610,105452500,-6.0127,3.1392,-2.4067,218.05,772.50,-432.80
611,105457499,-6.1255,3.3477,-2.3438,227.50,794.02,-442.99
612,105462584,-6.1553,3.5278,-2.2344,234.51,812.99,-453.23
613,105467497,-6.1323,3.7134,-2.1484,241.40,830.24,-464.09
614,105472499,-6.1025,3.8418,-2.0977,248.84,844.70,-475.79
615,105477499,-6.3140,3.8047,-1.9951,254.76,856.71,-486.89
616,105482500,-6.6523,3.7046,-1.9854,255.85,865.43,-495.55
617,105487499,-6.8848,3.6860,-1.9038,246.59,870.91,-500.24
618,105492499,-6.9468,3.7725,-1.6797,227.20,873.90,-501.34
619,105497559,-6.7539,4.1704,-1.6016,200.55,873.41,-499.82
620,105502499,-6.4458,4.0386,-1.0239,173.90,870.37,-496.34
621,105507499,-6.7139,3.9946,-0.8252,144.15,864.39,-484.57
622,105512498,-6.7612,3.9951,-0.6597,121.28,857.80,-472.26
623,105517499,-6.4995,3.9429,-0.3042,87.93,848.11,-452.32
624,105522497,-6.2720,3.9180,-0.0566,53.23,835.37,-426.71
625,105527497,-6.0649,3.9272,0.2500,21.22,819.57,-395.67
626,105532499,-5.8057,3.9722,0.6392,-5.67,800.49,-359.21
627,105537499,-5.5464,4.0195,0.9697,-24.70,776.95,-318.17
628,105542498,-5.3477,4.0991,1.4146,-33.05,750.61,-274.39
629,105547500,-5.1406,4.1597,1.8135,-32.68,725.18,-231.10
630,105552497,-4.7910,4.1294,1.9980,-30.12,701.59,-189.70
631,105557499,-4.4106,3.9648,2.0928,-30.98,677.74,-150.37
632,105562500,-4.1235,3.8130,2.1675,-38.78,652.56,-111.71
633,105567499,-3.9126,3.7739,2.2876,-52.68,625.55,-74.21
634,105572600,-3.6533,3.6914,2.3955,-70.18,597.01,-38.05
635,105577613,-3.3320,3.5620,2.4712,-88.72,566.40,-2.20
636,105582499,-3.0503,3.4058,2.5659,-106.28,534.02,33.11
637,105587499,-2.8154,3.2334,2.6562,-121.34,500.24,67.74
638,105592498,-2.6304,3.0117,2.7446,-132.20,466.22,100.91
639,105597501,-2.4434,2.7827,2.7866,-139.09,432.07,132.56
640,105602499,-2.2251,2.5864,2.7998,-142.44,398.29,161.46
641,105607499,-2.0400,2.3970,2.7710,-141.71,365.06,187.74
642,105612499,-1.8716,2.2178,2.7212,-136.95,332.50,210.79
643,105617499,-1.7319,2.0410,2.6606,-128.23,300.98,230.91
644,105622503,-1.6143,1.8857,2.5874,-115.67,271.04,247.80
645,105627498,-1.4839,1.7344,2.5078,-99.27,242.26,261.89
646,105632501,-1.3604,1.5850,2.4248,-80.00,215.12,273.23
647,105637499,-1.2163,1.4526,2.2988,-59.33,189.02,282.26
648,105642499,-1.1426,1.3247,2.1875,-38.78,165.43,288.90
649,105647499,-0.9639,1.1934,2.0503,-20.18,144.02,293.48
650,105652498,-0.9673,1.1201,1.8906,-4.51,124.51,296.10
651,105657501,-0.8149,0.9678,1.8081,9.09,106.04,297.01
652,105662499,-0.7109,0.8628,1.6919,18.60,90.61,296.83
653,105667574,-0.7173,0.7114,1.6079,26.04,75.91,295.30
654,105672498,-0.5767,0.6792,1.4419,30.30,63.41,292.80
655,105677499,-0.5293,0.5767,1.3989,32.68,51.77,288.90
656,105682499,-0.4336,0.5508,1.2964,32.38,42.07,284.39
657,105687499,-0.4629,0.4697,1.2349,31.46,32.93,278.72
658,105692642,-0.3218,0.4302,1.1470,29.27,25.85,272.74
659,105697499,-0.3345,0.3403,1.1060,26.83,18.48,265.73
660,105702499,-0.2051,0.3013,1.0278,24.39,13.17,258.60
661,105707499,-0.2480,0.2388,0.9502,22.56,7.62,250.79
662,105712500,-0.1025,0.2124,0.8481,22.44,4.21,243.11
663,105718340,-0.0977,0.1743,0.8188,23.17,0.18,232.99
664,105722500,0.0562,0.1597,0.7402,25.12,-1.65,226.34
665,105727499,0.1470,0.1382,0.6851,27.01,-3.90,217.80
666,105732499,0.0923,0.0952,0.6919,29.51,-5.61,209.09
667,105737651,0.2104,0.0498,0.5938,32.20,-6.83,200.43
668,105742499,0.2656,0.0366,0.5298,33.90,-7.13,191.71
669,105747499,0.2334,-0.0063,0.5806,35.12,-7.50,183.05
670,105752498,0.3369,-0.0278,0.5264,35.00,-7.07,174.51
671,105757500,0.3125,-0.0342,0.4775,33.23,-6.22,165.91
672,105762660,0.3906,-0.0396,0.4692,30.00,-5.43,157.44
673,105767499,0.4165,-0.0366,0.4736,24.82,-4.15,148.96
674,105772499,0.3525,-0.0459,0.4849,18.17,-2.62,140.67
675,105777499,0.4287,-0.0752,0.4292,10.30,-1.04,132.62
676,105782499,0.4561,-0.0830,0.4258,0.91,0.85,124.57
677,105787499,0.4565,-0.0898,0.4346,-9.33,2.44,116.59
678,105792499,0.4727,-0.0884,0.3901,-20.18,3.66,108.84
679,105797499,0.4907,-0.0879,0.3501,-31.46,4.94,101.28
680,105802501,0.5142,-0.0825,0.3550,-42.87,6.10,93.66
681,105807499,0.5430,-0.0869,0.3550,-54.15,6.95,86.10
682,105812499,0.5552,-0.0986,0.3301,-64.94,7.99,79.57
683,105817499,0.5684,-0.1069,0.3188,-74.70,8.72,73.05
684,105822498,0.5820,-0.1143,0.3174,-83.23,9.15,67.01
685,105827499,0.5942,-0.1128,0.2983,-90.24,9.51,61.28
686,105832497,0.6113,-0.1040,0.2812,-95.85,9.45,55.91
687,105837497,0.6328,-0.1045,0.2671,-99.94,9.27,51.04
688,105842499,0.6436,-0.1108,0.2676,-102.74,8.72,46.28
689,105847499,0.6592,-0.1035,0.2646,-104.45,8.23,41.95
690,105852498,0.6685,-0.0947,0.2495,-105.18,7.68,37.74
691,105857499,0.6841,-0.0850,0.2329,-105.24,7.07,33.78
692,105862499,0.6914,-0.0669,0.2358,-104.76,6.40,29.94
693,105867499,0.7095,-0.0532,0.2192,-104.39,5.79,26.16
694,105872499,0.7251,-0.0347,0.2104,-103.90,5.37,22.26
695,105877498,0.7388,-0.0151,0.2065,-103.48,4.76,18.41
696,105882499,0.7520,0.0044,0.2026,-103.11,4.33,14.51
697,105887499,0.7583,0.0156,0.1855,-102.62,4.09,10.79
698,105892596,0.7617,0.0254,0.1748,-102.13,3.78,7.20
699,105897497,0.7690,0.0352,0.1641,-101.46,3.90,3.78
700,105902501,0.7822,0.0469,0.1587,-100.49,4.02,0.49
701,105907521,0.7915,0.0508,0.1436,-99.45,4.02,-2.50
702,105912499,0.7983,0.0522,0.1367,-98.41,4.21,-5.18
703,105917499,0.7954,0.0513,0.1318,-97.13,4.27,-7.62
704,105922499,0.8037,0.0669,0.1235,-95.91,4.33,-9.94
705,105927500,0.8057,0.0688,0.1157,-94.57,4.15,-12.07
706,105932640,0.8042,0.0781,0.1240,-93.29,4.15,-14.27
707,105937499,0.7954,0.0811,0.1240,-91.95,4.15,-16.16
708,105942499,0.7886,0.0825,0.1284,-90.91,4.21,-18.17
709,105947499,0.7827,0.0898,0.1348,-89.94,4.33,-20.06
710,105952499,0.7671,0.1045,0.1519,-89.02,4.27,-22.07
711,105957499,0.7642,0.0947,0.1421,-88.41,4.39,-24.02
712,105962558,0.7578,0.1016,0.1553,-88.17,4.45,-25.91
713,105967499,0.7607,0.1001,0.1514,-88.05,4.33,-27.87
714,105972499,0.7607,0.0947,0.1440,-88.17,4.02,-29.57
715,105977499,0.7715,0.0972,0.1421,-88.66,3.66,-31.04
716,105982586,0.7827,0.0913,0.1587,-89.09,3.29,-32.56
717,105987498,0.7876,0.0957,0.1611,-89.94,2.93,-33.84
718,105992597,0.7915,0.1025,0.1606,-90.79,2.68,-35.18
719,105997499,0.7964,0.1108,0.1777,-91.71,2.50,-36.52
720,106002498,0.8013,0.1279,0.1826,-92.56,2.50,-37.80
721,106007499,0.7998,0.1348,0.1904,-93.60,2.62,-39.33
722,106012499,0.8052,0.1440,0.2021,-94.94,2.93,-40.85
723,106017498,0.7876,0.1289,0.2046,-96.71,3.35,-42.38
724,106022499,0.7983,0.1631,0.2358,-99.21,4.15,-43.90
725,106027499,0.8130,0.1914,0.2339,-101.95,5.12,-45.73
726,106032629,0.8140,0.2080,0.2358,-104.94,6.34,-47.87
727,106037499,0.7998,0.2148,0.2329,-108.11,7.68,-50.12
728,106042499,0.7871,0.2158,0.2358,-111.52,8.96,-52.50
729,106047655,0.7959,0.2266,0.2266,-114.94,10.18,-54.76
730,106052499,0.8013,0.2241,0.2144,-118.54,11.46,-57.13
731,106057770,0.8047,0.2222,0.2129,-122.07,12.74,-59.33
732,106062499,0.8140,0.2197,0.1982,-125.37,13.90,-61.40
733,106067499,0.8208,0.2090,0.1821,-128.35,14.76,-63.23
734,106072499,0.8184,0.2104,0.1724,-131.22,15.55,-64.94
735,106077499,0.8193,0.2183,0.1797,-133.84,16.34,-66.46
736,106082498,0.8091,0.2280,0.1787,-135.79,17.13,-68.05
737,106087867,0.7842,0.2393,0.1694,-137.32,17.93,-69.51
738,106092499,0.7700,0.2554,0.1582,-138.41,18.60,-71.34
739,106097499,0.7686,0.2715,0.1680,-139.02,19.39,-73.05
740,106102499,0.7803,0.2930,0.1729,-139.27,20.37,-75.00
741,106107499,0.7920,0.3062,0.1655,-139.15,21.40,-77.20
742,106112498,0.7979,0.3130,0.1660,-138.54,22.56,-79.39
743,106117501,0.7959,0.3154,0.1768,-137.38,23.66,-81.77
744,106122499,0.7866,0.3247,0.1924,-135.91,24.70,-84.21
745,106127498,0.7803,0.3184,0.1831,-133.72,26.04,-86.59
746,106132499,0.7759,0.3135,0.2129,-131.40,27.20,-89.15
747,106137499,0.7842,0.3052,0.2266,-129.15,28.72,-91.46
748,106142499,0.7803,0.2847,0.2368,-126.77,30.00,-93.54
749,106147497,0.7861,0.2710,0.2598,-124.63,31.16,-95.73
750,106152501,0.7734,0.2603,0.2485,-122.74,32.32,-97.80
751,106157584,0.7563,0.2896,0.2393,-120.55,33.17,-99.70
752,106162500,0.7373,0.2578,0.2690,-118.54,33.90,-101.71
753,106167507,0.7256,0.2451,0.2588,-116.77,34.33,-103.41
754,106172499,0.7373,0.2290,0.2383,-115.00,34.63,-105.00
755,106177502,0.7505,0.2354,0.2451,-113.05,34.27,-106.46
756,106182501,0.7329,0.2529,0.2646,-110.61,33.84,-107.80
757,106187501,0.7207,0.3110,0.2983,-108.48,33.72,-109.21
758,106192501,0.6450,0.2939,0.3096,-107.56,33.72,-110.85
759,106197504,0.6606,0.2847,0.2969,-106.77,33.90,-112.13
760,106202500,0.6865,0.2827,0.3086,-106.22,33.90,-113.29
761,106207499,0.6919,0.2896,0.3203,-105.85,33.84,-114.39
762,106212609,0.6753,0.2959,0.3169,-105.55,33.72,-115.24
763,106217499,0.6611,0.3169,0.3140,-105.37,33.90,-116.28
764,106222499,0.6538,0.3413,0.3262,-105.24,34.02,-117.07
765,106227497,0.6533,0.3560,0.3374,-105.37,34.27,-118.11
766,106232500,0.6470,0.3721,0.3325,-105.49,34.57,-118.96
767,106237497,0.6392,0.3726,0.3511,-105.79,34.82,-119.82
768,106242499,0.6475,0.3940,0.3843,-106.34,35.06,-120.61
769,106247741,0.6411,0.3833,0.3657,-107.80,35.55,-121.59
770,106252501,0.6348,0.3687,0.3560,-109.82,35.43,-122.44
771,106257499,0.6328,0.3857,0.3911,-112.32,35.85,-123.29
772,106262726,0.6289,0.4307,0.4458,-114.94,36.22,-124.76
773,106267500,0.6494,0.4609,0.4102,-117.01,36.89,-126.34
774,106272499,0.6514,0.4741,0.3755,-119.21,37.01,-128.23
775,106277499,0.6406,0.4902,0.3955,-121.46,37.38,-130.24
776,106282527,0.6353,0.5024,0.4014,-123.48,37.44,-132.62
777,106287499,0.6304,0.5054,0.3789,-125.18,37.93,-135.06
778,106292596,0.6294,0.5127,0.3755,-126.59,38.11,-137.50
779,106297499,0.6250,0.5254,0.3999,-127.32,38.35,-140.06
780,106302499,0.6113,0.5317,0.3940,-127.56,38.84,-142.44
781,106307498,0.5962,0.5327,0.3921,-127.13,39.51,-144.76
782,106312500,0.5820,0.5317,0.4062,-125.98,39.94,-146.77
783,106317499,0.5615,0.5283,0.4204,-124.21,40.61,-148.72
784,106322499,0.5303,0.4990,0.4287,-121.89,41.46,-150.24
785,106327499,0.5161,0.4976,0.4268,-119.33,42.20,-151.65
786,106332500,0.5132,0.5093,0.4370,-116.34,43.11,-152.93
787,106337499,0.5000,0.5156,0.4448,-112.74,44.21,-154.15
788,106342498,0.4888,0.5093,0.4512,-108.78,45.30,-155.18
789,106348481,0.4741,0.5034,0.4521,-103.41,46.46,-155.98
790,106352500,0.4609,0.4907,0.4609,-99.70,47.38,-156.28
791,106357502,0.4517,0.4780,0.4624,-94.82,48.35,-156.65
792,106363331,0.4360,0.4775,0.4775,-89.33,49.27,-156.71
793,106367502,0.4307,0.4932,0.4951,-86.04,50.24,-156.83
794,106372500,0.4243,0.5132,0.5005,-82.87,51.40,-157.26
795,106377502,0.4263,0.5264,0.5068,-80.49,52.44,-157.87
796,106382499,0.4194,0.5435,0.5117,-79.15,53.60,-158.66
797,106387502,0.4155,0.5503,0.5146,-78.96,54.57,-159.70
798,106392759,0.4058,0.5566,0.5137,-79.70,55.30,-160.73
799,106397891,0.3896,0.5679,0.5181,-81.28,56.10,-162.07
800,106402502,0.3730,0.5747,0.5273,-83.35,56.83,-163.17
801,106407499,0.3442,0.5830,0.5420,-85.67,57.50,-164.27
802,106412499,0.3213,0.5874,0.5405,-87.99,58.11,-165.24
803,106417499,0.2920,0.5991,0.5610,-90.18,58.72,-166.10
804,106422675,0.2720,0.6138,0.5757,-92.32,59.45,-166.83
805,106427499,0.2734,0.6284,0.5923,-94.15,60.06,-167.68
806,106432497,0.2734,0.6470,0.6089,-95.73,60.91,-168.66
807,106437498,0.2764,0.6699,0.6187,-96.83,61.77,-169.76
808,106442499,0.2739,0.6860,0.6270,-97.50,62.38,-171.04
809,106447498,0.2607,0.6938,0.6431,-97.56,63.17,-172.50
810,106452501,0.2480,0.7056,0.6523,-97.13,63.84,-174.02
811,106457498,0.2349,0.7207,0.6655,-96.10,64.45,-175.67
812,106462499,0.2212,0.7295,0.6748,-94.51,64.94,-177.38
813,106467891,0.2070,0.7305,0.6860,-92.44,65.49,-179.21
814,106472499,0.1924,0.7354,0.6953,-90.49,65.73,-180.43
815,106477499,0.1631,0.7373,0.7021,-87.44,66.04,-182.26
816,106482499,0.1382,0.7373,0.7129,-85.18,65.98,-183.41
817,106487498,0.0972,0.7334,0.7246,-82.01,65.85,-184.88
818,106492722,0.0664,0.7329,0.7271,-79.39,65.61,-186.10
819,106497499,0.0415,0.7329,0.7339,-77.32,65.49,-186.89
820,106502500,0.0034,0.7290,0.7466,-74.27,64.57,-188.05
821,106507498,-0.0205,0.7212,0.7417,-72.01,64.21,-188.78
822,106512499,-0.0483,0.7163,0.7480,-69.39,63.48,-189.33
823,106517501,-0.0762,0.7188,0.7588,-65.98,62.68,-190.18
824,106522498,-0.0967,0.7300,0.7612,-63.54,62.26,-190.67
825,106527501,-0.1045,0.7476,0.7764,-59.82,61.89,-191.77
826,106532499,-0.1030,0.7622,0.7822,-57.20,61.83,-192.80
827,106537499,-0.1069,0.7769,0.7925,-53.84,61.77,-194.09
828,106542499,-0.1006,0.7866,0.7983,-50.49,61.89,-195.49
829,106547501,-0.1064,0.7915,0.7939,-47.07,61.95,-196.95
830,106552499,-0.1182,0.8003,0.7954,-43.84,61.95,-198.23
831,106557612,-0.1396,0.8091,0.7993,-40.18,61.71,-199.76
832,106562499,-0.1523,0.8145,0.8003,-37.87,61.52,-200.55
833,106567498,-0.1709,0.8115,0.7964,-35.06,61.10,-201.34
834,106572501,-0.1924,0.8159,0.8022,-32.13,60.49,-201.89
835,106577678,-0.2256,0.8257,0.8120,-28.48,59.51,-202.32
836,106582501,-0.2480,0.8252,0.8213,-26.10,58.72,-202.50
837,106587499,-0.2778,0.8315,0.8203,-22.93,57.87,-202.32
838,106592499,-0.2964,0.8374,0.8232,-19.70,56.89,-202.13
839,106597499,-0.3130,0.8359,0.8276,-16.28,55.91,-201.89
840,106602500,-0.3252,0.8491,0.8301,-12.80,55.24,-201.83
841,106607572,-0.3408,0.8584,0.8389,-9.45,54.51,-202.01
842,106612498,-0.3477,0.8643,0.8408,-6.28,54.15,-202.44
843,106617696,-0.3442,0.8804,0.8301,-2.44,53.66,-203.29
844,106622499,-0.3506,0.8755,0.8359,0.12,53.72,-204.21
845,106627642,-0.3560,0.8813,0.8267,3.78,53.72,-205.79
846,106632499,-0.3560,0.8887,0.8252,6.22,54.02,-207.07
847,106637617,-0.3657,0.8950,0.8242,8.84,54.27,-208.84
848,106642499,-0.3701,0.8989,0.8223,11.04,54.63,-210.73
849,106647499,-0.3848,0.9048,0.8257,12.26,54.76,-212.56
850,106652499,-0.4077,0.9067,0.8179,12.68,54.63,-214.33
851,106657499,-0.4365,0.9067,0.8281,12.13,54.09,-215.98
852,106662499,-0.4658,0.9165,0.8271,10.91,53.35,-217.38
853,106667848,-0.5039,0.9170,0.8325,8.78,52.26,-218.78
854,106672499,-0.5254,0.9136,0.8364,7.07,51.65,-219.57
855,106677519,-0.5361,0.9170,0.8511,5.00,50.79,-220.43
856,106682521,-0.5581,0.9170,0.8384,2.80,50.12,-221.28
857,106687499,-0.5879,0.9106,0.8335,0.98,49.45,-222.07
858,106692576,-0.6055,0.9058,0.8325,-0.55,48.90,-222.68
859,106697499,-0.6201,0.9048,0.8359,-1.46,48.54,-223.29
860,106702576,-0.6313,0.9097,0.8325,-1.89,48.41,-223.96
861,106707812,-0.6567,0.9116,0.8359,-1.40,48.54,-225.12
862,106712499,-0.6699,0.9111,0.8398,-0.61,48.90,-225.91
863,106717499,-0.6777,0.9116,0.8389,1.10,49.45,-226.89
864,106722500,-0.6934,0.9116,0.8262,3.66,49.88,-227.87
865,106727498,-0.7041,0.9136,0.8276,6.83,50.24,-228.78
866,106732499,-0.7163,0.9102,0.8345,10.61,50.24,-229.51
867,106737498,-0.7368,0.9072,0.8364,14.57,50.06,-229.94
868,106742622,-0.7686,0.9072,0.8428,18.78,49.51,-230.18
869,106747498,-0.7998,0.9019,0.8467,22.80,48.41,-230.00
870,106752579,-0.8203,0.8965,0.8477,26.40,47.01,-229.63
871,106757504,-0.8408,0.8877,0.8545,30.00,45.55,-229.02
872,106762501,-0.8574,0.8916,0.8569,33.48,43.72,-228.35
873,106767579,-0.8857,0.8877,0.8530,36.59,41.95,-227.68
874,106772499,-0.9009,0.8770,0.8394,39.45,39.94,-226.83
875,106777617,-0.9087,0.8667,0.8413,42.13,38.17,-226.22
876,106782499,-0.9087,0.8564,0.8271,44.76,36.40,-225.55
877,106787497,-0.9082,0.8418,0.8169,47.50,34.63,-224.82
878,106792497,-0.9141,0.8315,0.8125,50.12,33.11,-224.21
879,106797501,-0.9224,0.8203,0.7954,53.41,31.22,-223.60
880,106802499,-0.9341,0.8037,0.7915,55.79,30.18,-223.23
881,106807503,-0.9380,0.7930,0.7876,58.48,28.96,-222.62
882,106812499,-0.9341,0.7842,0.7666,61.52,27.56,-221.95
883,106817500,-0.9370,0.7788,0.7642,64.88,26.28,-221.34
884,106822499,-0.9521,0.7700,0.7607,68.35,24.94,-220.67
885,106827499,-0.9658,0.7588,0.7627,71.89,23.66,-219.88
886,106832589,-0.9780,0.7466,0.7563,75.24,22.13,-218.96
887,106837499,-0.9878,0.7417,0.7500,78.72,20.55,-217.93
888,106842953,-0.9990,0.7305,0.7471,82.80,18.35,-216.34
889,106847499,-1.0063,0.7197,0.7529,85.43,16.65,-215.24
890,106852500,-1.0298,0.7139,0.7485,88.78,14.57,-213.60
891,106857498,-1.0474,0.6973,0.7471,92.07,12.50,-212.01
892,106862499,-1.0591,0.6865,0.7563,95.30,10.24,-210.43
893,106867591,-1.0718,0.6772,0.7407,98.48,8.17,-208.72
894,106872499,-1.0830,0.6689,0.7354,101.40,6.04,-206.95
895,106877498,-1.0933,0.6606,0.7246,104.09,4.09,-205.43
896,106882499,-1.0962,0.6577,0.7202,106.59,2.20,-203.78
897,106887499,-1.1113,0.6484,0.7085,108.78,0.30,-202.50
898,106892498,-1.1235,0.6401,0.7036,110.67,-1.34,-201.10
899,106897963,-1.1421,0.6343,0.6958,112.56,-3.23,-199.76
900,106902499,-1.1475,0.6318,0.6870,113.48,-4.39,-198.90
901,106907609,-1.1499,0.6240,0.6768,114.51,-5.61,-197.87
902,106912620,-1.1597,0.6191,0.6675,114.94,-6.89,-197.07
903,106917579,-1.1650,0.6167,0.6641,115.18,-7.93,-196.46
904,106922498,-1.1670,0.6152,0.6519,115.12,-8.96,-195.91
905,106927499,-1.1714,0.6123,0.6460,114.63,-10.12,-195.37
906,106932499,-1.1792,0.6167,0.6401,114.15,-10.79,-195.24
907,106937499,-1.1929,0.6128,0.6348,113.11,-11.77,-195.00
908,106942499,-1.2036,0.6118,0.6396,112.20,-12.68,-194.76
909,106947514,-1.2119,0.6104,0.6362,110.98,-13.84,-194.51
910,106952499,-1.2090,0.6021,0.6206,109.70,-15.00,-194.09
911,106957612,-1.2104,0.5996,0.6357,108.72,-16.40,-193.41
912,106962586,-1.2334,0.6030,0.6309,107.68,-17.62,-192.93
913,106967499,-1.2373,0.5894,0.6172,106.89,-19.27,-192.13
914,106972499,-1.2363,0.5913,0.6235,106.34,-20.91,-191.16
915,106977498,-1.2490,0.5854,0.6206,106.04,-22.50,-190.18
916,106982497,-1.2646,0.5752,0.6084,106.04,-24.33,-188.90
917,106987864,-1.2749,0.5645,0.6191,106.52,-26.10,-187.44
918,106992499,-1.2700,0.5518,0.6113,107.74,-27.99,-185.61
919,106997941,-1.2788,0.5532,0.6060,109.82,-30.67,-183.23
920,107002499,-1.2769,0.5430,0.6040,111.34,-32.26,-181.46
921,107007499,-1.2700,0.5449,0.6006,113.72,-34.51,-179.02
922,107012499,-1.2515,0.5381,0.5938,116.28,-36.83,-176.59
923,107017642,-1.2319,0.5352,0.5977,119.15,-39.09,-173.96
924,107022499,-1.2163,0.5469,0.5854,122.20,-41.46,-171.40
925,107027498,-1.1919,0.5405,0.5918,125.24,-43.72,-168.72
926,107032497,-1.1772,0.5557,0.5850,128.60,-46.04,-166.04
927,107037498,-1.1641,0.5532,0.5962,130.61,-47.99,-163.48
928,107042499,-1.1387,0.5366,0.5913,133.96,-49.94,-160.79
929,107047498,-1.1118,0.5352,0.6006,137.26,-51.83,-157.99
930,107052498,-1.0972,0.5464,0.5977,140.61,-53.48,-155.06
931,107057499,-1.0703,0.5103,0.5923,144.15,-55.18,-151.65
932,107062499,-1.0527,0.5151,0.6006,148.29,-57.01,-148.05
933,107067640,-1.0430,0.5391,0.6099,152.26,-58.60,-144.51
934,107072499,-1.0278,0.5967,0.6187,155.67,-59.88,-141.52
935,107077846,-0.9780,0.4727,0.5264,158.29,-61.34,-138.72
936,107082499,-0.9658,0.4380,0.5610,161.46,-63.11,-134.88
937,107087499,-0.9692,0.4600,0.5825,165.06,-64.45,-130.67
938,107092499,-0.9639,0.4824,0.5610,168.66,-65.98,-126.65
939,107097590,-0.9502,0.4648,0.5532,172.80,-67.07,-122.44
940,107102602,-0.9507,0.4443,0.5669,177.44,-68.17,-118.05
941,107107500,-0.9536,0.4297,0.5620,182.44,-68.78,-113.23
942,107112499,-0.9448,0.4424,0.5718,187.44,-69.33,-108.84
943,107117595,-0.9238,0.4204,0.5464,192.20,-69.76,-104.45
944,107122501,-0.8970,0.4097,0.5400,196.59,-70.00,-100.06
945,107127499,-0.8813,0.4268,0.5444,200.49,-70.00,-95.49
946,107132498,-0.8594,0.4365,0.5337,203.66,-69.82,-91.34
947,107137659,-0.8442,0.4175,0.5176,206.16,-69.76,-87.26
948,107142498,-0.8335,0.4009,0.5186,208.11,-69.27,-83.23
949,107147499,-0.8306,0.3970,0.5186,209.27,-68.66,-79.21
950,107152501,-0.8301,0.3853,0.5020,209.76,-67.87,-75.30
951,107157498,-0.8267,0.3828,0.5054,209.76,-67.07,-71.52
952,107162499,-0.8145,0.3916,0.5029,209.27,-65.98,-67.68
953,107167499,-0.7896,0.3979,0.4937,208.23,-64.76,-64.21
954,107172573,-0.7734,0.3926,0.4927,206.71,-63.23,-60.85
955,107177630,-0.7544,0.3950,0.4990,204.76,-61.59,-57.74
956,107182499,-0.7476,0.3887,0.5112,202.38,-59.70,-54.70
957,107187604,-0.7471,0.4736,0.5508,198.96,-57.13,-52.62
958,107192497,-0.7231,0.4272,0.5068,194.57,-54.27,-51.16
959,107197598,-0.7188,0.3711,0.4971,189.82,-51.46,-49.39
960,107202618,-0.7363,0.3330,0.5093,185.00,-48.78,-47.13
961,107207632,-0.7754,0.3081,0.5024,179.88,-45.91,-44.70
962,107212498,-0.8047,0.3052,0.4917,174.63,-42.99,-42.13
963,107217499,-0.8135,0.3311,0.4995,169.15,-40.43,-39.57
964,107222499,-0.7949,0.3579,0.4888,163.66,-37.80,-37.44
965,107227591,-0.7676,0.3647,0.4702,158.17,-35.12,-35.61
966,107232498,-0.7383,0.3618,0.4775,152.68,-32.56,-33.84
967,107237499,-0.7266,0.3604,0.4849,147.01,-29.88,-32.20
968,107242584,-0.7231,0.3647,0.4819,141.22,-27.26,-30.79
969,107247498,-0.7324,0.3716,0.4824,135.06,-24.51,-29.51
970,107252601,-0.7397,0.3774,0.4849,128.60,-21.77,-28.35
971,107257502,-0.7451,0.3774,0.4814,121.04,-18.60,-27.07
972,107262502,-0.7432,0.3784,0.4829,115.91,-16.52,-26.22
973,107267500,-0.7407,0.3809,0.4756,109.45,-13.78,-25.37
974,107272498,-0.7334,0.3760,0.4795,103.05,-11.22,-24.27
975,107277503,-0.7275,0.3745,0.4800,96.71,-8.66,-23.23
976,107282499,-0.7261,0.3799,0.4912,90.37,-6.10,-22.20
977,107287502,-0.7192,0.3833,0.4902,84.21,-3.48,-21.22
978,107292499,-0.7202,0.3838,0.4878,78.23,-0.98,-20.24
979,107297499,-0.7271,0.3931,0.4873,72.26,1.46,-19.27
980,107302580,-0.7319,0.3887,0.4927,66.46,3.72,-18.23
981,107307646,-0.7310,0.3896,0.4951,60.91,5.91,-17.26
982,107312500,-0.7314,0.3984,0.4907,55.61,8.11,-16.28
983,107317502,-0.7314,0.4048,0.4956,50.55,10.12,-15.30
984,107322498,-0.7334,0.4038,0.4956,45.79,12.07,-14.21
985,107327497,-0.7412,0.4009,0.4971,41.71,13.84,-13.11
986,107332499,-0.7407,0.3999,0.4932,38.29,15.61,-11.89
987,107337498,-0.7412,0.4043,0.4985,35.55,17.44,-10.49
988,107342497,-0.7393,0.4023,0.5054,33.41,19.02,-9.21
989,107347500,-0.7407,0.4033,0.5146,31.83,20.91,-7.74
990,107352501,-0.7349,0.4048,0.5161,30.85,22.56,-6.22
991,107357499,-0.7363,0.4082,0.5200,30.43,24.15,-4.70
992,107362499,-0.7329,0.4038,0.5283,30.61,25.91,-3.11
993,107367500,-0.7324,0.3945,0.5376,31.16,27.68,-1.46
994,107372497,-0.7373,0.3979,0.5415,32.13,29.51,0.30
995,107377497,-0.7393,0.3911,0.5488,33.05,31.34,2.01
996,107382498,-0.7368,0.3906,0.5425,34.15,32.93,3.78
997,107387499,-0.7402,0.3916,0.5547,35.18,34.27,5.55
998,107392499,-0.7407,0.3867,0.5518,35.91,35.61,7.26
999,107397498,-0.7441,0.3926,0.5503,36.34,36.77,8.96
1000,107402929,-0.7480,0.3926,0.5488,36.40,37.99,10.37
1001,107407501,-0.7539,0.3921,0.5586,36.16,39.02,11.71
1002,107412499,-0.7661,0.3955,0.5571,35.30,39.76,12.93
1003,107417499,-0.7729,0.4028,0.5640,34.15,40.43,14.15
1004,107422499,-0.7847,0.4048,0.5596,32.56,40.91,15.12
1005,107427499,-0.7949,0.3999,0.5698,30.79,41.34,16.10
1006,107432499,-0.8032,0.4028,0.5688,28.66,41.52,17.01
1007,107437499,-0.8042,0.4038,0.5698,26.40,41.59,17.93
1008,107442499,-0.8096,0.4014,0.5737,23.84,41.65,18.78
1009,107447499,-0.8140,0.3994,0.5801,21.34,41.65,19.63
1010,107452892,-0.8149,0.3931,0.5757,18.84,41.65,20.49
1011,107457499,-0.8149,0.3945,0.5869,16.16,41.71,21.40
1012,107462500,-0.8135,0.3911,0.5854,13.48,41.65,22.32
1013,107467499,-0.8154,0.3857,0.5942,10.79,41.89,23.11
1014,107472499,-0.8120,0.3882,0.5952,7.87,42.07,24.15
1015,107477499,-0.8130,0.3848,0.6040,4.82,42.38,25.00
1016,107482723,-0.8110,0.3892,0.6099,1.77,42.44,25.79
1017,107487499,-0.8096,0.3896,0.6094,-1.59,42.74,26.71
1018,107492499,-0.8071,0.3931,0.6030,-5.06,42.93,27.38
1019,107497499,-0.8115,0.3872,0.6055,-8.48,43.17,27.99
1020,107502498,-0.8096,0.3901,0.6084,-11.83,43.35,28.66
