# skilleye imu stream v1
# device=xiao_esp32c6 imu=mpu6050 addr=0x68
# rate_hz=200 accel_range_g=16 gyro_range_dps=2000 dlpf_hz=94
# units: accel in g, gyro in deg/s, t_us in microseconds since boot (monotonic)
# no shared clock with the camera -- tap the racket once before each take
# so both recordings share a spike to align on
seq,t_us,ax,ay,az,gx,gy,gz
0,35915440,0.6255,-0.7314,0.3555,9.15,-5.49,-1.04
1,35920442,0.6201,-0.7305,0.3574,9.09,-5.24,-1.10
2,35925498,0.6230,-0.7319,0.3579,9.21,-4.94,-1.28
3,35930442,0.6216,-0.7354,0.3608,9.21,-4.63,-1.52
4,35935441,0.6226,-0.7290,0.3613,9.21,-4.33,-1.77
5,35940981,0.6201,-0.7334,0.3667,9.09,-4.15,-1.95
6,35945444,0.6250,-0.7334,0.3647,8.90,-4.02,-2.13
7,35950442,0.6255,-0.7319,0.3701,8.90,-3.66,-2.32
8,35955442,0.6240,-0.7329,0.3633,8.60,-3.35,-2.56
9,35960442,0.6255,-0.7310,0.3667,8.35,-3.23,-2.87
10,35965443,0.6265,-0.7261,0.3687,7.99,-3.05,-2.93
11,35970442,0.6245,-0.7280,0.3735,7.74,-2.74,-3.17
12,35975442,0.6245,-0.7271,0.3770,7.20,-2.62,-3.48
13,35980440,0.6255,-0.7275,0.3765,6.77,-2.62,-3.72
14,35985441,0.6284,-0.7266,0.3706,6.28,-2.26,-3.96
15,35990542,0.6274,-0.7256,0.3735,5.91,-2.20,-4.21
16,35995442,0.6294,-0.7271,0.3750,5.49,-2.07,-4.45
17,36000442,0.6299,-0.7305,0.3735,5.06,-1.95,-4.70
18,36005441,0.6323,-0.7280,0.3779,4.76,-1.95,-4.88
19,36010442,0.6362,-0.7251,0.3794,4.63,-2.07,-5.12
20,36015441,0.6353,-0.7217,0.3794,4.39,-1.89,-5.24
21,36020442,0.6367,-0.7227,0.3779,4.15,-2.20,-5.49
22,36025441,0.6382,-0.7227,0.3823,4.15,-2.20,-5.49
23,36030442,0.6367,-0.7188,0.3828,4.02,-2.20,-5.67
24,36035442,0.6411,-0.7183,0.3833,3.78,-2.07,-5.98
25,36040442,0.6382,-0.7212,0.3735,3.72,-2.13,-6.10
26,36045441,0.6348,-0.7163,0.3843,3.72,-2.07,-6.28
27,36050442,0.6353,-0.7139,0.3794,3.48,-2.07,-6.28
28,36055442,0.6333,-0.7144,0.3760,3.41,-2.01,-6.46
29,36060442,0.6333,-0.7070,0.3774,3.41,-1.83,-6.59
30,36065441,0.6328,-0.7085,0.3721,3.11,-1.77,-6.52
31,36070442,0.6299,-0.7021,0.3730,3.05,-1.65,-6.59
32,36075441,0.6313,-0.7031,0.3716,2.87,-1.52,-6.52
33,36080440,0.6270,-0.6973,0.3740,2.80,-1.34,-6.46
34,36085440,0.6304,-0.6968,0.3696,2.68,-1.10,-6.34
35,36090440,0.6279,-0.6968,0.3672,2.62,-0.98,-6.28
36,36095443,0.6260,-0.6924,0.3721,2.56,-0.73,-6.10
37,36100442,0.6230,-0.6948,0.3730,2.50,-0.37,-5.91
38,36105442,0.6265,-0.6909,0.3730,2.56,0.00,-5.67
39,36110442,0.6289,-0.6943,0.3735,2.74,0.49,-5.49
40,36115442,0.6309,-0.6914,0.3706,2.87,0.73,-5.30
41,36120443,0.6323,-0.6919,0.3770,2.93,0.98,-5.06
42,36125442,0.6309,-0.6943,0.3716,3.05,1.46,-4.94
43,36130444,0.6270,-0.6938,0.3828,3.17,2.07,-4.70
44,36135443,0.6299,-0.6953,0.3799,3.29,2.44,-4.57
45,36140442,0.6279,-0.6929,0.3799,3.35,2.93,-4.45
46,36145442,0.6323,-0.6929,0.3887,3.54,3.41,-4.27
47,36150442,0.6328,-0.6948,0.3813,3.66,3.72,-4.15
48,36155442,0.6299,-0.6855,0.3779,3.54,4.21,-3.90
49,36160442,0.6323,-0.6904,0.3901,3.60,4.76,-3.78
50,36165442,0.6362,-0.6899,0.3921,3.78,5.12,-3.54
51,36170576,0.6333,-0.6958,0.3921,3.78,5.49,-3.29
52,36175442,0.6382,-0.6948,0.3926,3.72,6.04,-2.99
53,36180442,0.6362,-0.6963,0.3950,4.02,6.52,-2.56
54,36185443,0.6382,-0.6978,0.3994,3.90,7.13,-2.20
55,36190440,0.6372,-0.6963,0.4014,4.02,7.50,-1.77
56,36195442,0.6382,-0.6973,0.4077,4.15,7.93,-1.34
57,36200851,0.6377,-0.6997,0.4043,4.33,8.60,-0.85
58,36205442,0.6343,-0.6982,0.4038,4.51,8.78,-0.43
59,36210442,0.6294,-0.6973,0.4136,4.82,9.33,-0.06
60,36215442,0.6299,-0.7017,0.4155,5.00,9.70,0.37
61,36220440,0.6318,-0.7012,0.4199,5.30,10.12,0.67
62,36225442,0.6284,-0.7012,0.4258,5.43,10.55,0.98
63,36230442,0.6284,-0.6992,0.4243,5.67,10.55,1.28
64,36235442,0.6226,-0.7017,0.4336,6.04,10.67,1.59
65,36240443,0.6230,-0.7017,0.4390,6.34,10.79,1.71
66,36245442,0.6226,-0.6963,0.4375,6.46,10.79,1.95
67,36250442,0.6221,-0.7002,0.4419,6.59,10.73,2.26
68,36255442,0.6226,-0.7017,0.4507,6.77,10.73,2.44
69,36260443,0.6226,-0.6958,0.4556,6.77,10.61,2.74
70,36265442,0.6191,-0.6885,0.4600,6.71,10.55,2.93
71,36270442,0.6221,-0.6836,0.4614,6.77,10.37,3.11
72,36275442,0.6230,-0.6772,0.4634,6.71,10.37,3.35
73,36280443,0.6260,-0.6719,0.4624,6.65,10.12,3.54
74,36285440,0.6245,-0.6670,0.4600,6.65,10.12,3.78
75,36290440,0.6279,-0.6616,0.4663,6.40,10.00,4.27
76,36295440,0.6313,-0.6572,0.4609,6.22,9.82,4.63
77,36300442,0.6304,-0.6514,0.4614,5.85,9.76,5.00
78,36305444,0.6265,-0.6450,0.4609,5.49,9.39,5.55
79,36310441,0.6309,-0.6396,0.4551,4.94,8.96,5.98
80,36315442,0.6221,-0.6299,0.4600,4.39,8.66,6.46
81,36320441,0.6240,-0.6245,0.4556,3.78,8.29,7.07
82,36325440,0.6226,-0.6196,0.4604,3.35,7.80,7.80
83,36330441,0.6240,-0.6172,0.4634,2.74,7.20,8.29
84,36335440,0.6230,-0.6157,0.4551,2.26,6.46,8.84
85,36340440,0.6157,-0.6152,0.4565,1.95,6.04,9.39
86,36345441,0.6196,-0.6138,0.4556,1.71,5.30,9.82
87,36350443,0.6187,-0.6182,0.4482,1.65,4.57,10.18
88,36355442,0.6211,-0.6245,0.4473,1.65,3.72,10.55
89,36360442,0.6201,-0.6279,0.4419,1.59,2.87,10.79
90,36365442,0.6123,-0.6338,0.4390,1.65,1.95,11.16
91,36370442,0.6108,-0.6411,0.4526,1.71,1.16,11.52
92,36375442,0.6162,-0.6431,0.4409,1.77,0.06,11.77
93,36380442,0.6162,-0.6533,0.4370,2.07,-1.04,12.13
94,36385440,0.6245,-0.6714,0.4443,2.13,-2.07,12.50
95,36390440,0.6226,-0.6821,0.4370,2.56,-3.35,13.05
96,36395442,0.6313,-0.6899,0.4482,2.74,-4.57,13.60
97,36400442,0.6396,-0.7075,0.4526,3.17,-5.98,14.15
98,36405442,0.6426,-0.7227,0.4438,3.41,-7.38,14.88
99,36410444,0.6528,-0.7305,0.4521,3.66,-8.96,15.49
100,36415442,0.6577,-0.7388,0.4697,3.66,-10.30,16.22
101,36420442,0.6670,-0.7485,0.4614,3.60,-11.71,16.83
102,36425442,0.6846,-0.7485,0.4819,3.35,-12.32,17.20
103,36430442,0.6904,-0.7417,0.5107,2.68,-12.26,17.13
104,36435440,0.6924,-0.7417,0.4902,2.13,-11.83,16.83
105,36440444,0.6973,-0.7515,0.4595,1.89,-11.28,16.22
106,36445795,0.6904,-0.7637,0.4673,1.77,-10.55,15.73
107,36450442,0.6821,-0.7686,0.4790,1.89,-9.39,15.06
108,36455442,0.6777,-0.7720,0.4565,2.26,-8.48,14.27
109,36460443,0.6768,-0.7720,0.4404,2.74,-7.62,13.35
110,36465442,0.6924,-0.7798,0.4365,3.54,-7.01,12.38
111,36470442,0.7002,-0.7905,0.4580,4.51,-6.77,11.34
112,36475442,0.6743,-0.7983,0.3652,6.28,-7.99,10.67
113,36480442,0.6318,-0.8472,0.4214,8.23,-10.49,10.43
114,36485442,0.5923,-0.8687,0.4575,10.24,-13.54,10.98
115,36490442,0.6006,-0.8594,0.4443,11.71,-16.65,11.52
116,36495442,0.6138,-0.8433,0.4355,12.38,-20.00,11.77
117,36500443,0.6177,-0.8252,0.4487,12.62,-23.05,11.83
118,36505529,0.6133,-0.8237,0.4600,12.38,-26.10,11.71
119,36510442,0.6050,-0.8208,0.4463,11.71,-28.90,11.71
120,36515442,0.6060,-0.8237,0.4429,10.55,-31.77,11.52
121,36520441,0.6089,-0.8271,0.4561,8.90,-34.51,11.40
122,36525442,0.6118,-0.8242,0.4556,6.95,-37.20,11.16
123,36530441,0.6294,-0.8213,0.4531,4.33,-39.57,11.04
124,36535442,0.6392,-0.8101,0.4531,1.28,-41.95,10.61
125,36540441,0.6514,-0.8032,0.4683,-2.32,-43.84,10.30
126,36545442,0.6523,-0.8018,0.4785,-6.34,-45.61,9.82
127,36550441,0.6582,-0.8018,0.4736,-10.79,-47.20,9.45
128,36555442,0.6646,-0.8018,0.4863,-15.55,-48.60,9.02
129,36560442,0.6646,-0.8091,0.4863,-20.43,-49.70,8.72
130,36565442,0.6665,-0.8145,0.4785,-25.18,-50.67,8.35
131,36570441,0.6660,-0.8203,0.4727,-29.94,-51.59,8.05
132,36575442,0.6641,-0.8237,0.4790,-34.45,-52.32,7.93
133,36580441,0.6597,-0.8276,0.4756,-38.54,-53.05,7.80
134,36585442,0.6572,-0.8315,0.4668,-42.56,-53.72,7.80
135,36590441,0.6519,-0.8359,0.4653,-46.04,-54.27,7.80
136,36595441,0.6470,-0.8384,0.4556,-49.09,-54.63,7.99
137,36600621,0.6401,-0.8428,0.4580,-51.77,-55.12,8.23
138,36605442,0.6372,-0.8428,0.4473,-54.09,-55.24,8.48
139,36610441,0.6270,-0.8477,0.4443,-55.43,-55.49,8.66
140,36615440,0.6167,-0.8423,0.4380,-56.71,-55.67,9.02
141,36620442,0.6060,-0.8428,0.4419,-57.68,-55.79,9.45
142,36625444,0.5952,-0.8418,0.4321,-58.29,-55.91,9.82
143,36630441,0.5923,-0.8345,0.4155,-58.54,-55.85,10.12
144,36635442,0.5796,-0.8296,0.4053,-58.66,-55.98,10.67
145,36640441,0.5708,-0.8218,0.4009,-58.66,-55.98,10.98
146,36646246,0.5586,-0.8086,0.3916,-58.72,-55.85,11.34
147,36650442,0.5518,-0.7998,0.3872,-58.72,-55.61,11.46
148,36655442,0.5483,-0.7891,0.3784,-58.84,-55.18,11.52
149,36660443,0.5400,-0.7754,0.3799,-58.78,-54.94,11.40
150,36665442,0.5415,-0.7637,0.3657,-58.54,-54.33,11.46
151,36670442,0.5337,-0.7515,0.3647,-58.29,-53.90,11.28
152,36675442,0.5293,-0.7402,0.3564,-57.87,-53.11,11.10
153,36680443,0.5205,-0.7280,0.3398,-57.50,-52.44,10.91
154,36685442,0.5166,-0.7178,0.3369,-56.89,-51.52,10.61
155,36690442,0.5112,-0.7080,0.3281,-56.28,-50.55,10.06
156,36695443,0.5063,-0.7031,0.3242,-55.37,-49.82,9.88
157,36700444,0.4995,-0.6997,0.3267,-54.51,-48.84,9.57
158,36705441,0.4927,-0.6963,0.3228,-53.60,-47.80,9.21
159,36710443,0.4844,-0.6919,0.3057,-52.38,-46.65,8.84
160,36715710,0.4829,-0.6929,0.3076,-50.85,-45.18,8.66
161,36720442,0.4780,-0.6953,0.3066,-49.70,-44.33,8.54
162,36725444,0.4731,-0.6978,0.2998,-48.05,-43.05,8.35
163,36730442,0.4707,-0.7021,0.2886,-46.28,-41.83,8.41
164,36735440,0.4614,-0.7061,0.2861,-44.57,-40.61,8.48
165,36740444,0.4609,-0.7129,0.2822,-42.74,-39.15,8.66
166,36745644,0.4556,-0.7134,0.2749,-41.10,-37.80,8.78
167,36750442,0.4941,-0.7222,0.4380,-38.96,-35.55,9.02
168,36755442,0.5371,-0.6997,0.4741,-34.15,-29.39,9.76
169,36760442,0.5410,-0.6128,0.2305,-31.28,-25.30,9.76
170,36765442,0.5596,-0.6504,0.1548,-28.96,-23.96,9.33
171,36770441,0.5156,-0.7212,0.3115,-25.24,-20.98,9.39
172,36775442,0.4907,-0.6855,0.3901,-21.22,-16.10,9.94
173,36780442,0.5024,-0.6592,0.2803,-17.62,-12.26,10.00
174,36785442,0.5063,-0.6733,0.1660,-14.45,-9.82,9.76
175,36790441,0.4849,-0.6973,0.2690,-11.34,-7.20,9.57
176,36795440,0.4766,-0.6992,0.3193,-8.54,-3.84,9.57
177,36800444,0.4644,-0.7124,0.2788,-6.10,-1.52,9.57
178,36805544,0.4434,-0.7358,0.2056,-3.96,0.43,9.76
179,36810444,0.4209,-0.7505,0.2314,-2.74,1.95,10.18
180,36815444,0.4067,-0.7686,0.2695,-2.13,3.29,10.85
181,36820441,0.3994,-0.7876,0.2192,-1.95,4.02,11.71
182,36825442,0.3955,-0.7881,0.1885,-2.26,4.45,12.62
183,36830441,0.3906,-0.7852,0.2173,-3.54,4.70,13.41
184,36835442,0.3882,-0.7788,0.2295,-5.43,5.06,14.09
185,36840441,0.3926,-0.7793,0.1948,-7.62,5.24,14.45
186,36845440,0.3965,-0.7651,0.2056,-9.88,5.30,14.57
187,36850443,0.4033,-0.7637,0.2251,-12.38,5.85,14.39
188,36855442,0.4141,-0.7612,0.2271,-14.94,6.40,14.27
189,36860442,0.4321,-0.7695,0.2065,-17.38,7.07,13.84
190,36865442,0.4468,-0.7754,0.2109,-19.94,7.50,13.54
191,36870442,0.4575,-0.7837,0.2271,-22.20,8.23,13.29
192,36875442,0.4741,-0.7871,0.2197,-24.70,8.84,12.99
193,36880443,0.4854,-0.7881,0.2051,-26.65,9.63,12.87
194,36885442,0.4819,-0.7803,0.2168,-28.90,10.55,12.68
195,36890442,0.5073,-0.6895,0.1860,-30.85,11.16,11.71
196,36895442,0.5190,-0.7358,0.2446,-32.74,11.71,10.06
197,36900442,0.4878,-0.7876,0.2529,-34.33,12.80,8.90
198,36905441,0.4917,-0.8081,0.2305,-35.24,13.66,8.35
199,36910470,0.5088,-0.8184,0.2363,-35.73,14.63,8.48
200,36915444,0.5278,-0.8145,0.2402,-35.98,15.67,8.60
201,36920441,0.5356,-0.7959,0.2271,-35.98,17.13,8.72
202,36925442,0.5254,-0.7842,0.2148,-35.98,18.35,8.78
203,36930441,0.5088,-0.7886,0.2021,-35.85,19.57,9.02
204,36935442,0.5039,-0.7783,0.1938,-35.49,20.91,9.02
205,36940442,0.5117,-0.7666,0.1655,-35.06,21.77,8.90
206,36945442,0.5078,-0.7603,0.1606,-34.63,22.20,8.60
207,36950441,0.5049,-0.7642,0.1675,-34.21,22.93,8.41
208,36955442,0.5137,-0.7622,0.1655,-33.60,23.41,8.17
209,36960441,0.5112,-0.7705,0.1797,-33.05,23.96,7.99
210,36965880,0.5205,-0.7749,0.1831,-32.13,24.88,7.80
211,36970442,0.5332,-0.7759,0.1748,-30.91,25.67,7.74
212,36975442,0.5420,-0.7783,0.1636,-29.76,26.28,7.62
213,36980443,0.5454,-0.7866,0.1553,-28.41,27.07,7.44
214,36985442,0.5381,-0.7808,0.1533,-26.95,27.74,7.56
215,36990442,0.5430,-0.7852,0.1636,-25.55,28.11,7.56
216,36995442,0.5454,-0.7891,0.1611,-24.15,28.78,7.44
217,37000442,0.5493,-0.7876,0.1567,-22.93,29.39,7.38
218,37005440,0.5566,-0.7856,0.1533,-21.89,29.76,7.38
219,37010442,0.5698,-0.7852,0.1548,-21.22,30.18,7.13
220,37015442,0.5757,-0.7832,0.1484,-20.73,30.55,6.89
221,37020442,0.5820,-0.7812,0.1406,-20.55,30.73,6.65
222,37025442,0.5864,-0.7954,0.1440,-20.30,30.91,6.34
223,37030441,0.5879,-0.8047,0.1484,-20.37,31.10,6.04
224,37035442,0.5938,-0.8242,0.1343,-20.24,31.10,6.22
225,37040441,0.6001,-0.8315,0.1294,-20.61,31.22,6.34
226,37045442,0.6035,-0.8428,0.1177,-20.91,30.73,6.83
227,37050441,0.6074,-0.8579,0.1157,-21.22,30.43,7.38
228,37055442,0.6035,-0.8696,0.1099,-21.65,30.18,8.11
229,37060442,0.6060,-0.8804,0.1055,-22.13,29.82,8.90
230,37065442,0.6060,-0.8901,0.1045,-22.20,29.45,9.94
231,37070441,0.6113,-0.9014,0.1084,-22.38,29.09,11.16
232,37075442,0.6069,-0.9033,0.1006,-22.32,28.78,12.50
233,37080442,0.5786,-0.8872,0.1118,-22.07,28.96,13.54
234,37085442,0.5435,-0.8569,0.1240,-21.59,29.51,14.27
235,37090441,0.4946,-0.8018,0.1265,-21.04,30.98,14.02
236,37095444,0.4712,-0.7715,0.1055,-20.00,33.05,12.50
237,37100442,0.4922,-0.7925,0.0308,-18.54,35.49,10.73
238,37105440,0.5142,-0.8237,-0.0225,-17.20,36.46,9.27
239,37110441,0.5210,-0.9209,-0.0547,-13.96,36.95,8.72
240,37115440,0.5137,-0.9766,-0.0381,-10.73,37.01,9.82
241,37120444,0.4990,-1.0034,-0.0146,-7.26,36.77,11.71
242,37125822,0.5132,-0.9922,0.0166,-4.21,36.71,14.09
243,37130442,0.5547,-0.9712,0.0264,-2.50,37.38,15.98
244,37135442,0.6079,-0.9380,0.0264,-0.91,38.05,18.05
245,37140443,0.6377,-0.9111,0.0293,0.06,38.90,19.63
246,37145440,0.6675,-0.9014,0.0396,1.22,39.76,20.98
247,37150442,0.6807,-0.9014,0.0435,1.89,40.37,21.89
248,37155633,0.6992,-0.9165,0.0498,3.29,40.98,23.29
249,37160443,0.7129,-0.9224,0.0513,4.51,41.52,24.15
250,37165440,0.7349,-0.9253,0.0498,6.10,41.77,25.24
251,37170444,0.7539,-0.9297,0.0449,7.80,41.89,26.46
252,37175441,0.7554,-0.9404,0.0493,9.76,41.65,27.56
253,37180441,0.7402,-0.9473,0.0464,11.59,41.28,28.84
254,37185645,0.7129,-0.9087,0.0693,13.60,40.49,29.94
255,37190445,0.7012,-0.9072,0.0635,15.12,40.43,30.24
256,37195444,0.6880,-0.9062,0.0718,16.89,40.30,30.49
257,37200443,0.6792,-0.9141,0.0693,18.78,40.18,30.55
258,37205440,0.6782,-0.9165,0.0649,20.73,40.18,30.67
259,37210440,0.6821,-0.9253,0.0698,22.56,40.00,30.67
260,37216043,0.6870,-0.9370,0.0630,24.82,40.12,30.79
261,37220442,0.6860,-0.9419,0.0552,26.46,39.88,31.04
262,37225442,0.6919,-0.9463,0.0518,28.66,39.63,31.10
263,37230443,0.7080,-0.9497,0.0513,30.67,39.33,31.28
264,37235441,0.7192,-0.9473,0.0532,32.80,38.78,31.34
265,37240442,0.7285,-0.9429,0.0513,34.94,38.05,31.34
266,37245442,0.7314,-0.9380,0.0376,36.71,37.13,31.10
267,37250442,0.7212,-0.9404,0.0317,38.60,35.85,30.85
268,37255441,0.7046,-0.9321,0.0508,40.06,34.45,30.67
269,37260442,0.6924,-0.9243,0.0493,41.34,33.05,30.24
270,37265442,0.6787,-0.9116,0.0645,42.56,31.52,29.82
271,37270442,0.6719,-0.9116,0.0723,43.60,30.12,29.02
272,37275441,0.6621,-0.9048,0.0703,44.45,28.90,28.23
273,37280442,0.6641,-0.8965,0.0742,45.43,27.87,27.38
274,37285442,0.6577,-0.8770,0.0693,46.59,26.83,26.22
275,37290443,0.6558,-0.8721,0.0474,48.05,25.85,24.94
276,37295441,0.6489,-0.8682,0.0371,49.76,24.76,23.48
277,37300442,0.6572,-0.8735,0.0249,51.89,23.72,21.89
278,37305442,0.7007,-0.8765,-0.0254,54.70,22.56,20.24
279,37310442,0.6851,-0.8779,0.0049,58.54,21.46,18.78
280,37315441,0.6211,-0.8794,0.0122,62.74,20.79,17.13
281,37320440,0.6069,-0.8833,-0.0112,66.59,19.82,15.49
282,37325442,0.6328,-0.8979,-0.0244,70.55,19.21,13.78
283,37330442,0.6216,-0.9087,0.0044,74.27,19.02,12.26
284,37335442,0.5820,-0.8892,0.0112,77.80,18.90,10.30
285,37340441,0.5630,-0.8896,0.0098,80.61,18.72,8.23
286,37345442,0.5542,-0.8984,0.0225,82.74,19.02,6.10
287,37350442,0.5435,-0.8926,0.0356,84.15,19.15,3.96
288,37355442,0.5576,-0.9121,0.0488,85.06,19.70,1.83
289,37360441,0.5308,-0.8940,0.0557,85.18,20.12,-0.37
290,37365442,0.5176,-0.8735,0.0698,84.82,20.43,-2.87
291,37370441,0.5088,-0.8672,0.1074,83.60,20.91,-5.24
292,37375442,0.5215,-0.8643,0.1309,81.59,21.22,-7.62
293,37380442,0.5303,-0.8677,0.1509,79.09,21.77,-9.88
294,37385442,0.5322,-0.8711,0.1709,76.10,22.38,-12.13
295,37390441,0.5244,-0.8735,0.1846,72.56,22.68,-14.27
296,37395442,0.5186,-0.8755,0.2188,68.78,23.05,-16.46
297,37400441,0.5239,-0.8696,0.2544,64.45,23.60,-18.41
298,37405442,0.5127,-0.8594,0.2778,59.76,23.84,-20.06
299,37410441,0.5210,-0.8696,0.3174,55.24,24.45,-21.28
300,37415443,0.5308,-0.8770,0.3354,50.79,24.76,-22.20
301,37420441,0.5474,-0.8716,0.3604,46.83,25.18,-22.93
302,37425442,0.5391,-0.8691,0.3896,43.41,25.49,-23.41
303,37430442,0.5278,-0.8672,0.4067,40.61,25.43,-23.78
304,37435442,0.5244,-0.8613,0.4312,38.90,25.43,-23.66
305,37440447,0.5205,-0.8545,0.4326,38.17,24.94,-23.60
306,37445442,0.5381,-0.8335,0.4287,37.93,24.09,-23.48
307,37450442,0.5620,-0.8047,0.4126,38.29,23.29,-23.23
308,37455442,0.6079,-0.8057,0.4136,38.23,22.38,-22.80
309,37460441,0.5576,-0.8193,0.4199,38.35,21.77,-22.20
310,37465444,0.5518,-0.8013,0.4316,38.60,20.67,-21.40
311,37470441,0.5586,-0.8091,0.4619,38.96,19.33,-20.98
312,37475442,0.5771,-0.8247,0.4492,39.51,18.05,-20.18
313,37480441,0.6113,-0.8242,0.4229,40.00,16.52,-19.57
314,37485440,0.6475,-0.8345,0.4375,39.70,15.18,-19.21
315,37490487,0.6045,-0.8647,0.4331,38.78,14.02,-18.96
316,37495444,0.5859,-0.8613,0.4487,37.50,12.99,-18.54
317,37500443,0.6021,-0.8638,0.4590,36.46,11.77,-18.35
318,37505443,0.6138,-0.8647,0.4517,35.61,10.43,-18.23
319,37510440,0.6069,-0.8633,0.4609,35.18,8.78,-18.29
320,37515442,0.5903,-0.8647,0.4717,34.63,7.50,-18.41
321,37520442,0.5811,-0.8569,0.4790,34.45,5.98,-18.66
322,37525440,0.5679,-0.8564,0.4834,34.45,4.45,-19.02
323,37530442,0.5630,-0.8501,0.4951,34.63,2.87,-19.39
324,37535442,0.5635,-0.8462,0.4922,35.18,1.22,-19.94
325,37540442,0.5566,-0.8374,0.4976,35.98,-0.24,-20.55
326,37545441,0.5552,-0.8340,0.5054,36.71,-1.89,-21.16
327,37550445,0.5522,-0.8232,0.5107,37.68,-3.54,-21.77
328,37555442,0.5527,-0.8169,0.5190,38.60,-5.12,-22.26
329,37560441,0.5547,-0.8062,0.5200,39.57,-6.71,-22.74
330,37565442,0.5547,-0.8018,0.5269,40.67,-8.35,-23.23
331,37570444,0.5439,-0.7749,0.5273,41.71,-9.82,-23.72
332,37575442,0.5474,-0.7617,0.5210,42.87,-11.59,-24.02
333,37580441,0.5459,-0.7505,0.5259,44.02,-13.17,-24.21
334,37585442,0.5415,-0.7358,0.5278,45.00,-14.82,-24.45
335,37590441,0.5322,-0.7231,0.5322,46.16,-16.40,-24.63
336,37595960,0.5347,-0.7080,0.5303,47.20,-18.11,-24.57
337,37600443,0.5269,-0.6963,0.5327,47.80,-19.88,-24.70
338,37605442,0.5239,-0.6846,0.5337,48.17,-21.34,-24.57
339,37610442,0.5371,-0.6719,0.5376,47.99,-22.99,-24.57
340,37615441,0.5391,-0.6621,0.5513,47.50,-24.63,-24.51
341,37620443,0.5391,-0.6528,0.5420,46.46,-26.16,-24.45
342,37625441,0.5405,-0.6445,0.5562,45.06,-27.38,-24.33
343,37630442,0.5469,-0.6333,0.5625,43.05,-28.90,-24.21
344,37635442,0.5513,-0.6226,0.5635,40.79,-30.00,-24.21
345,37640442,0.5542,-0.6133,0.5703,37.99,-31.04,-23.96
346,37645441,0.5532,-0.6006,0.5664,35.49,-32.20,-23.90
347,37650443,0.5503,-0.5938,0.5640,33.11,-32.93,-23.72
348,37655442,0.5547,-0.5801,0.5615,30.30,-33.66,-23.54
349,37660442,0.5571,-0.5723,0.5542,27.74,-34.70,-23.17
350,37665441,0.5581,-0.5620,0.5522,25.30,-35.43,-22.93
351,37670442,0.5610,-0.5542,0.5503,22.99,-36.40,-22.50
352,37675442,0.5576,-0.5464,0.5483,20.98,-36.89,-22.01
353,37680442,0.5571,-0.5386,0.5454,19.27,-37.62,-21.52
354,37685441,0.5693,-0.5312,0.5386,17.99,-38.17,-20.85
355,37690442,0.5684,-0.5254,0.5366,16.71,-38.60,-20.00
356,37695442,0.5674,-0.5146,0.5298,15.79,-39.02,-19.27
357,37700442,0.5728,-0.5068,0.5244,15.12,-39.33,-18.54
358,37705441,0.5757,-0.5166,0.5225,14.82,-39.70,-17.62
359,37710442,0.5723,-0.5952,0.5332,14.21,-40.00,-16.52
360,37715442,0.6064,-0.7129,0.5874,13.17,-39.76,-15.06
361,37720442,0.6826,-0.5952,0.5293,12.26,-39.76,-14.82
362,37725440,0.6865,-0.6069,0.5200,11.71,-40.30,-14.88
363,37730478,0.6382,-0.5972,0.5391,11.95,-40.37,-14.57
364,37735442,0.6128,-0.5679,0.5391,12.80,-40.43,-14.02
365,37740441,0.6187,-0.5435,0.5249,14.15,-40.43,-13.54
366,37745442,0.6304,-0.5239,0.5093,16.22,-40.98,-12.99
367,37750441,0.6318,-0.5166,0.5161,18.41,-41.28,-12.50
368,37755444,0.6226,-0.5024,0.5215,20.85,-41.77,-11.77
369,37760441,0.6162,-0.4907,0.5117,23.35,-42.13,-11.16
370,37765442,0.6123,-0.4800,0.5068,25.67,-42.62,-10.61
371,37770441,0.6196,-0.4722,0.5024,27.93,-43.05,-10.00
372,37775442,0.6226,-0.4697,0.5068,29.82,-43.48,-9.51
373,37780441,0.6357,-0.4683,0.5098,31.52,-44.15,-9.02
374,37785442,0.6538,-0.4653,0.5186,32.93,-44.57,-8.84
375,37790441,0.6646,-0.4727,0.5210,34.39,-45.18,-8.72
376,37795442,0.6655,-0.4741,0.5220,35.73,-45.73,-8.54
377,37800441,0.6724,-0.4702,0.5264,37.32,-46.34,-8.66
378,37805442,0.6807,-0.4897,0.4888,38.84,-47.20,-8.72
379,37810442,0.6626,-0.4741,0.4775,40.67,-48.29,-8.90
380,37815442,0.6836,-0.5063,0.4556,43.17,-48.84,-9.33
381,37820442,0.7188,-0.5088,0.4653,45.98,-49.63,-9.45
382,37825440,0.7505,-0.4941,0.4316,48.54,-50.91,-9.33
383,37830442,0.7515,-0.4824,0.4722,51.34,-52.20,-9.15
384,37835440,0.7441,-0.4829,0.5728,54.39,-52.80,-9.09
385,37840442,0.7417,-0.4854,0.6304,58.29,-52.80,-9.27
386,37845442,0.7407,-0.4858,0.6470,62.99,-53.05,-9.45
387,37850440,0.7441,-0.5298,0.6895,68.78,-53.23,-9.33
388,37855442,0.7290,-0.4829,0.7339,75.85,-53.41,-9.02
389,37860440,0.7329,-0.4722,0.7817,83.60,-53.78,-9.15
390,37865440,0.7339,-0.4854,0.8154,91.65,-54.15,-9.21
391,37870442,0.7412,-0.5098,0.8379,100.24,-54.51,-9.02
392,37875441,0.7329,-0.5278,0.8730,109.15,-55.18,-8.72
393,37880443,0.7222,-0.5405,0.8687,117.80,-55.91,-8.17
394,37885442,0.7314,-0.5278,0.8970,125.73,-56.46,-7.62
395,37890441,0.7637,-0.5327,0.9126,133.41,-56.95,-7.26
396,37895440,0.7676,-0.5239,0.8906,140.61,-57.68,-6.77
397,37900444,0.7134,-0.5073,0.9214,147.50,-58.41,-6.89
398,37905442,0.7524,-0.5508,0.9780,153.78,-58.78,-7.01
399,37910442,0.8105,-0.5869,0.9561,159.94,-59.09,-6.40
400,37915441,0.8364,-0.5757,0.9771,165.24,-59.57,-5.49
401,37920443,0.8267,-0.5186,1.0210,169.70,-59.82,-5.12
402,37925440,0.8438,-0.5757,1.0161,173.23,-60.06,-4.88
403,37930441,0.8535,-0.5601,1.0220,175.55,-60.30,-4.45
404,37935440,0.8535,-0.5898,1.0342,176.95,-60.55,-4.15
405,37940442,0.8623,-0.5781,1.0605,177.07,-60.85,-4.02
406,37945442,0.8677,-0.5645,1.0693,175.85,-61.04,-3.84
407,37950442,0.8647,-0.5469,1.0815,173.48,-61.16,-3.78
408,37955440,0.8594,-0.5327,1.0996,170.12,-61.40,-3.78
409,37960442,0.8330,-0.5269,1.1206,165.79,-61.65,-3.84
410,37965894,0.8228,-0.5454,1.1016,161.40,-61.95,-3.96
411,37970443,0.8301,-0.5571,1.1172,156.83,-62.32,-3.60
412,37975441,0.8306,-0.5605,1.1260,151.95,-62.80,-2.99
413,37980442,0.7720,-0.5649,1.1299,147.01,-63.11,-2.13
414,37985442,0.8125,-0.5366,1.0723,141.95,-63.96,-1.16
415,37990442,0.8369,-0.5103,1.0747,136.89,-65.00,-0.37
416,37995441,0.8320,-0.5190,1.0737,131.83,-65.85,0.18
417,38000443,0.8154,-0.5200,1.0508,128.23,-66.95,0.91
418,38005717,0.8091,-0.5249,1.0396,123.72,-68.11,1.77
419,38010442,0.8105,-0.5215,1.0474,120.18,-69.51,2.87
420,38015442,0.8198,-0.5229,1.0513,117.26,-70.55,4.15
421,38020442,0.8306,-0.5127,1.0469,115.24,-71.65,5.24
422,38025440,0.8257,-0.5103,1.0430,114.57,-72.99,6.52
423,38030443,0.8003,-0.5093,1.0439,114.82,-74.45,7.80
424,38035442,0.7729,-0.5146,1.0410,116.28,-75.73,8.72
425,38040477,0.7422,-0.5254,1.0244,119.09,-77.44,9.76
426,38045524,0.7207,-0.5376,1.0288,122.99,-78.96,10.79
427,38050442,0.6982,-0.5376,1.0303,127.56,-80.73,11.77
428,38055442,0.6758,-0.5405,1.0210,133.72,-82.74,12.44
429,38060441,0.6445,-0.5420,1.0259,140.79,-84.94,13.11
430,38065444,0.6152,-0.5459,1.0234,148.41,-87.26,13.41
431,38070441,0.5820,-0.5464,1.0068,156.40,-89.88,13.35
432,38075442,0.5483,-0.5498,1.0112,164.15,-92.93,13.11
433,38080441,0.5142,-0.5527,1.0186,171.65,-95.98,12.62
434,38085442,0.5015,-0.5498,1.0254,178.66,-99.27,11.95
435,38090441,0.4937,-0.5542,1.0200,184.57,-102.80,11.22
436,38095675,0.4863,-0.5552,1.0371,188.66,-106.34,10.43
437,38100443,0.4829,-0.5503,1.0596,191.34,-109.76,9.63
438,38105442,0.4814,-0.5513,1.0664,192.68,-113.17,8.84
439,38110442,0.4688,-0.5498,1.0708,192.50,-116.65,8.11
440,38115441,0.4536,-0.5508,1.0791,191.10,-120.00,7.26
441,38120444,0.4448,-0.5498,1.0801,188.84,-123.35,6.65
442,38125441,0.4346,-0.5459,1.0742,185.98,-126.34,5.98
443,38130440,0.4282,-0.5527,1.0664,182.68,-129.45,5.49
444,38135441,0.4297,-0.5522,1.0513,179.57,-132.32,5.24
445,38140440,0.4526,-0.5508,1.0327,176.65,-135.12,5.06
446,38145441,0.4590,-0.5513,1.0322,173.90,-137.68,5.06
447,38150442,0.4531,-0.5615,1.0151,171.59,-139.94,5.24
448,38155792,0.4355,-0.5620,0.9902,170.06,-141.77,5.79
449,38160442,0.4414,-0.5581,0.9707,169.02,-143.96,6.52
450,38165442,0.4482,-0.5635,0.9604,168.66,-145.55,7.44
451,38170443,0.4468,-0.5415,0.9097,168.60,-146.65,8.72
452,38175441,0.4497,-0.5405,0.8921,168.41,-147.99,9.76
453,38180442,0.4482,-0.5493,0.8726,168.72,-148.84,10.85
454,38185442,0.4487,-0.5527,0.8364,169.21,-149.82,12.32
455,38190441,0.4390,-0.5518,0.8130,169.88,-150.55,13.84
456,38195444,0.4370,-0.5425,0.7993,170.61,-151.04,15.49
457,38200442,0.4429,-0.5278,0.7690,171.59,-151.46,17.13
458,38205443,0.4429,-0.5234,0.7368,172.20,-151.83,18.84
459,38210442,0.4468,-0.5181,0.7114,172.93,-152.01,20.43
460,38215441,0.4429,-0.5103,0.6909,173.41,-152.26,22.13
461,38220442,0.4404,-0.5127,0.6846,174.15,-152.32,23.60
462,38225442,0.4517,-0.5137,0.6782,174.76,-152.07,25.37
463,38230442,0.4644,-0.5151,0.6636,175.43,-151.89,27.44
464,38235442,0.4663,-0.5190,0.6465,176.10,-151.46,29.45
465,38240442,0.4644,-0.5254,0.6289,176.46,-150.73,31.65
466,38245443,0.4653,-0.5303,0.6245,176.89,-150.06,33.96
467,38250442,0.4663,-0.5342,0.6123,177.38,-148.84,36.46
468,38255441,0.4653,-0.5356,0.6011,177.93,-147.44,39.33
469,38260442,0.4644,-0.5273,0.5723,178.48,-145.91,42.07
470,38265442,0.4785,-0.5234,0.5586,178.84,-143.96,45.37
471,38270442,0.4907,-0.5200,0.5605,179.15,-142.56,47.62
472,38275443,0.4937,-0.5161,0.5605,179.45,-140.61,50.49
473,38280442,0.4834,-0.5088,0.5571,179.94,-138.54,53.29
474,38285441,0.4907,-0.5039,0.5469,180.61,-136.40,56.16
475,38290442,0.5029,-0.5059,0.5449,181.22,-134.09,58.96
476,38295443,0.4927,-0.5151,0.5444,182.20,-131.71,61.77
477,38300442,0.4888,-0.4912,0.5459,183.78,-129.09,64.70
478,38305441,0.5024,-0.4829,0.5366,185.91,-126.71,67.32
479,38310442,0.5063,-0.4907,0.5352,188.29,-124.39,70.30
480,38315443,0.4863,-0.4868,0.5513,190.37,-122.01,73.23
481,38320442,0.4434,-0.4854,0.5576,192.01,-119.33,76.28
482,38325441,0.4575,-0.4902,0.5430,192.80,-117.38,79.45
483,38330442,0.4653,-0.4604,0.5317,193.29,-115.43,82.26
484,38335442,0.4614,-0.4785,0.5063,193.60,-113.78,84.70
485,38340443,0.4409,-0.4702,0.4951,193.23,-112.32,87.50
486,38345441,0.4209,-0.4692,0.4951,192.26,-110.73,91.04
487,38350442,0.3984,-0.4326,0.4854,189.27,-109.15,94.57
488,38355442,0.4072,-0.4409,0.4883,184.94,-107.62,97.80
489,38360442,0.4077,-0.4526,0.4487,179.88,-106.65,100.79
490,38365441,0.4316,-0.4355,0.4209,175.49,-105.98,103.66
491,38370442,0.4580,-0.4194,0.4443,171.22,-105.43,106.40
492,38375442,0.4922,-0.4233,0.4380,167.44,-105.06,109.02
493,38380442,0.4834,-0.4321,0.4170,163.54,-104.82,111.77
494,38385441,0.4775,-0.4541,0.4111,159.70,-104.57,114.63
495,38390442,0.4473,-0.4731,0.4375,155.98,-104.51,117.56
496,38395442,0.4155,-0.4922,0.4287,152.62,-104.15,120.49
497,38400442,0.3955,-0.4810,0.4141,149.57,-104.15,123.11
498,38405442,0.3960,-0.4497,0.3965,147.26,-104.33,125.43
499,38410641,0.4058,-0.4814,0.4043,145.85,-104.63,127.44
500,38415442,0.3325,-0.5112,0.4614,145.00,-104.88,129.88
501,38420441,0.3096,-0.4927,0.4302,144.88,-104.88,132.26
502,38425444,0.2837,-0.5322,0.4219,144.82,-105.18,134.39
503,38430440,0.2900,-0.5688,0.4307,145.67,-105.79,137.20
504,38435442,0.3164,-0.5659,0.4312,146.71,-106.22,140.00
505,38440441,0.3325,-0.5649,0.4365,148.23,-106.71,142.93
506,38445444,0.3271,-0.5962,0.4780,150.55,-106.77,146.10
507,38450442,0.3496,-0.5825,0.4644,153.60,-106.77,149.21
508,38455442,0.3643,-0.5635,0.4434,157.13,-106.65,152.07
509,38460441,0.3403,-0.5527,0.4819,161.10,-106.77,154.39
510,38465440,0.2939,-0.5581,0.5039,165.43,-106.46,156.46
511,38470444,0.2402,-0.5752,0.5083,170.24,-105.98,158.23
512,38475442,0.1899,-0.6030,0.5264,175.06,-105.24,159.94
513,38480441,0.1694,-0.6284,0.5376,179.57,-104.27,161.22
514,38485440,0.1689,-0.6602,0.5190,183.66,-103.05,162.68
515,38490443,0.1782,-0.6899,0.4946,185.49,-102.26,163.78
516,38495442,0.1943,-0.7114,0.4937,186.40,-101.34,165.24
517,38500442,0.1934,-0.7290,0.4722,186.10,-100.30,166.71
518,38505440,0.1860,-0.7456,0.4678,185.00,-99.33,168.17
519,38510444,0.1748,-0.7646,0.4609,183.17,-98.11,169.76
520,38515442,0.1670,-0.7910,0.4624,181.46,-96.83,171.34
521,38520442,0.1499,-0.8359,0.4785,179.82,-95.06,173.17
522,38525441,0.1421,-0.8608,0.4922,178.66,-93.35,175.43
523,38530442,0.1323,-0.8516,0.4863,178.23,-90.79,177.74
524,38535442,0.0986,-0.8262,0.4346,178.84,-88.66,179.57
525,38540442,0.0493,-0.8506,0.4341,180.55,-86.83,180.91
526,38545442,0.0288,-0.8677,0.4600,183.17,-84.88,182.38
527,38550442,0.0254,-0.8779,0.4824,186.16,-82.80,184.27
528,38555441,0.0161,-0.8735,0.4927,189.76,-80.61,186.34
529,38560444,0.0103,-0.8687,0.4897,193.41,-78.48,188.29
530,38565442,-0.0010,-0.8677,0.5137,197.26,-76.40,190.30
531,38570442,-0.0088,-0.8672,0.5264,201.16,-74.02,192.32
532,38576016,-0.0312,-0.8687,0.5361,204.63,-71.83,194.45
533,38580444,-0.0366,-0.8687,0.5557,207.80,-69.51,196.34
534,38585442,-0.0435,-0.8730,0.5737,210.18,-67.38,198.29
535,38590441,-0.0591,-0.8770,0.5820,211.77,-65.06,200.12
536,38595442,-0.0859,-0.8818,0.5967,212.62,-62.99,201.65
537,38600442,-0.1152,-0.8921,0.6094,212.50,-60.79,203.05
538,38605442,-0.1401,-0.8979,0.6201,211.46,-58.84,204.09
539,38610441,-0.1680,-0.9023,0.6226,209.76,-56.83,204.94
540,38615442,-0.1963,-0.9121,0.6245,207.32,-55.06,205.43
541,38620441,-0.2217,-0.9155,0.6260,204.15,-53.29,205.73
542,38625511,-0.2476,-0.9248,0.6191,200.00,-51.46,205.67
543,38630441,-0.2793,-0.9360,0.6113,195.37,-49.94,205.43
544,38635442,-0.3086,-0.9497,0.6011,189.76,-48.48,205.12
545,38640441,-0.3257,-0.9565,0.5986,183.96,-47.07,205.00
546,38645441,-0.3271,-0.9751,0.5903,177.93,-45.67,204.63
547,38650440,-0.3354,-1.0024,0.6035,171.95,-44.45,204.39
548,38655442,-0.3296,-1.0156,0.5977,166.34,-43.11,204.27
549,38660442,-0.3408,-1.0532,0.6118,161.83,-41.89,204.33
550,38665442,-0.3623,-1.0674,0.6108,157.93,-40.91,204.39
551,38670442,-0.3740,-1.0884,0.6240,154.45,-39.57,204.21
552,38675441,-0.3843,-1.1113,0.6304,152.01,-38.66,204.09
553,38680442,-0.4043,-1.1392,0.6323,149.88,-37.20,203.72
554,38685988,-0.4331,-1.1587,0.6265,147.80,-36.16,203.23
555,38690443,-0.4507,-1.1802,0.6147,145.61,-34.82,202.68
556,38695444,-0.4746,-1.1904,0.6069,142.80,-33.66,201.77
557,38700441,-0.5132,-1.2085,0.5830,139.33,-32.13,200.73
558,38705442,-0.5317,-1.2075,0.5547,134.21,-30.79,199.33
559,38710441,-0.5688,-1.2188,0.5474,128.05,-29.09,197.74
560,38715444,-0.5781,-1.2417,0.5474,122.07,-27.32,196.04
561,38720441,-0.5913,-1.2407,0.4995,115.30,-25.30,194.15
562,38725442,-0.6289,-1.2642,0.4634,108.48,-23.41,191.95
563,38730441,-0.6138,-1.2974,0.4443,102.13,-21.10,189.63
564,38735442,-0.6479,-1.3066,0.4106,96.46,-18.72,187.13
565,38740440,-0.6787,-1.3286,0.3833,92.56,-16.77,185.00
566,38745440,-0.6685,-1.3418,0.3633,88.60,-13.96,182.20
567,38750442,-0.6978,-1.3462,0.3345,85.06,-10.43,178.29
568,38755442,-0.7173,-1.3496,0.3198,83.05,-7.01,174.88
569,38760441,-0.7153,-1.3574,0.2856,82.07,-4.15,172.07
570,38765442,-0.7363,-1.3369,0.2598,80.00,0.55,167.13
571,38770444,-0.7188,-1.3545,0.1948,78.60,3.90,163.72
572,38775442,-0.6724,-1.3828,0.2495,76.77,8.60,159.15
573,38780441,-0.6509,-1.3667,0.1846,74.76,14.02,154.45
574,38785442,-0.7100,-1.3691,0.1846,72.80,19.76,149.09
575,38790441,-0.6924,-1.4023,0.1191,71.46,26.04,143.78
576,38795442,-0.6421,-1.4229,0.0337,71.16,32.87,137.87
577,38800441,-0.6411,-1.4346,0.0493,71.95,40.30,131.59
578,38805442,-0.6826,-1.5015,-0.0479,74.02,48.66,125.24
579,38810441,-0.6372,-1.4370,-0.1196,76.34,57.20,118.84
580,38815444,-0.6475,-1.4580,-0.1685,79.39,66.77,111.65
581,38820441,-0.6821,-1.4707,-0.2051,83.41,77.20,104.27
582,38825442,-0.6885,-1.4526,-0.2744,87.68,87.07,96.28
583,38830441,-0.6924,-1.4497,-0.3203,91.83,98.66,88.60
584,38835442,-0.7095,-1.4297,-0.3457,96.34,110.49,79.70
585,38840441,-0.7383,-1.3921,-0.3901,101.28,122.68,70.55
586,38845440,-0.7808,-1.3877,-0.4106,106.46,135.18,61.22
587,38850786,-0.8213,-1.3535,-0.4150,112.93,151.04,49.70
588,38855442,-0.8242,-1.3311,-0.4272,119.57,164.94,39.94
589,38860443,-0.8726,-1.3193,-0.4033,125.73,175.79,32.13
590,38865442,-0.9526,-1.2866,-0.4111,131.89,189.82,22.26
591,38870442,-1.0630,-1.2690,-0.3418,138.17,203.96,12.13
592,38875441,-1.0669,-1.2788,-0.2983,144.45,218.84,1.83
593,38880442,-1.1377,-1.2642,-0.2964,152.13,233.60,-8.41
594,38885442,-1.2251,-1.2485,-0.2915,160.12,247.93,-18.96
595,38890442,-1.3066,-1.2227,-0.2671,167.68,262.01,-29.88
596,38895444,-1.3872,-1.2261,-0.2417,175.30,278.29,-43.35
597,38900443,-1.4673,-1.1714,-0.1958,179.45,289.21,-52.87
598,38905442,-1.6011,-1.1880,-0.1655,182.01,302.07,-65.06
599,38910442,-1.6963,-1.1514,-0.1597,181.89,315.55,-77.93
600,38915441,-1.7559,-1.1235,-0.0981,179.02,328.29,-91.34
601,38920442,-1.8740,-1.1221,-0.1157,173.78,340.73,-104.94
602,38925442,-2.0054,-1.0894,-0.0693,166.40,353.17,-118.84
603,38930442,-2.1167,-1.0854,-0.0039,157.38,364.76,-132.87
604,38935441,-2.2520,-1.0703,-0.0044,147.26,376.77,-146.89
605,38940442,-2.3789,-1.0474,0.0254,136.83,388.54,-160.79
606,38945441,-2.5098,-1.0474,0.0361,127.13,399.51,-174.51
607,38950440,-2.6606,-1.0625,0.0908,118.35,410.55,-187.68
608,38955442,-2.8281,-1.0493,0.0942,109.21,421.71,-200.85
609,38960442,-2.9707,-1.0425,0.1235,100.55,432.56,-213.96
610,38965442,-3.1118,-1.0425,0.1343,92.74,443.41,-226.89
611,38970442,-3.2275,-1.0498,0.1157,86.28,454.09,-239.57
612,38975441,-3.3945,-1.0361,0.1479,80.85,464.76,-251.71
613,38980442,-3.5723,-1.0371,0.1489,75.61,475.37,-263.78
614,38985442,-3.7202,-1.0430,0.1045,69.88,486.28,-275.73
615,38990442,-3.8872,-0.9941,0.1055,61.89,496.59,-287.62
616,38995441,-4.0371,-1.0298,0.1182,52.93,507.62,-298.90
617,39000442,-4.2124,-1.0347,0.0854,43.66,519.21,-309.39
618,39005442,-4.3994,-1.0400,0.0718,34.09,530.49,-319.33
619,39010442,-4.5693,-1.0801,0.0674,25.12,542.44,-328.35
620,39015441,-4.7983,-1.1016,0.0264,17.26,554.51,-336.46
621,39020442,-5.0640,-1.1284,0.0815,10.49,567.07,-343.96
622,39025442,-5.3213,-1.1426,0.0220,4.15,580.24,-350.67
623,39030442,-5.4810,-1.1597,-0.0249,-2.20,593.66,-356.77
624,39035443,-5.6353,-1.1934,-0.0337,-8.48,607.26,-362.07
625,39040442,-5.8345,-1.2124,-0.0703,-14.94,621.16,-366.40
626,39045442,-5.9795,-1.3291,-0.1167,-20.98,635.37,-369.70
627,39050442,-6.3081,-1.3472,-0.1265,-28.60,650.43,-371.65
628,39055657,-6.5811,-1.4072,-0.0806,-38.11,666.59,-373.05
629,39060442,-6.7690,-1.5347,-0.0381,-48.17,683.66,-373.29
630,39065442,-6.9668,-1.6323,-0.0791,-57.74,701.22,-372.38
631,39070442,-7.1436,-1.7305,-0.0781,-65.49,718.60,-370.43
632,39075441,-7.3315,-1.8750,-0.0664,-70.24,734.94,-367.38
633,39080442,-7.5459,-2.0127,-0.0356,-72.56,750.85,-363.54
634,39085563,-7.7334,-2.1670,-0.0103,-71.65,765.49,-359.27
635,39090444,-7.8965,-2.3218,0.0308,-68.90,778.96,-355.06
636,39095442,-8.0498,-2.4849,0.0854,-64.76,790.12,-351.40
637,39100441,-8.1396,-2.6401,0.1338,-59.70,799.82,-348.23
638,39105442,-8.3584,-2.8389,0.2749,-55.37,807.74,-345.67
639,39110441,-8.6733,-2.9653,0.3613,-54.21,814.27,-344.09
640,39115442,-8.8330,-3.1611,0.5713,-54.33,819.27,-343.11
641,39120442,-8.8174,-3.2378,0.6353,-53.23,823.84,-342.26
642,39125444,-8.8140,-3.3774,0.8428,-49.15,825.55,-342.68
643,39130441,-8.8228,-3.5190,1.0420,-38.84,824.76,-344.09
644,39135442,-8.8223,-3.6509,1.1816,-21.65,821.16,-347.26
645,39140441,-8.8452,-3.7764,1.3901,1.83,814.45,-352.26
646,39145442,-8.8325,-3.8276,1.5420,29.88,804.76,-360.24
647,39150441,-8.7979,-3.8921,1.6748,59.70,792.44,-371.65
648,39155443,-8.6963,-3.9189,1.8403,88.11,776.59,-386.52
649,39160539,-8.5513,-3.9365,1.9404,115.30,758.17,-405.00
650,39165444,-8.4297,-3.9585,2.0664,142.50,736.59,-426.28
651,39170441,-8.3594,-3.9585,2.1719,169.39,711.83,-450.06
652,39175442,-8.2993,-3.9458,2.3579,195.18,684.15,-475.98
653,39180441,-8.1914,-3.8789,2.4551,218.35,653.90,-503.11
654,39185442,-8.0742,-3.7842,2.5527,237.74,621.46,-531.22
655,39190440,-7.9175,-3.6558,2.5918,252.44,587.50,-559.57
656,39195445,-7.9463,-3.5054,2.6738,261.04,552.74,-587.80
657,39200441,-7.9883,-3.3315,2.6938,261.89,518.60,-615.98
658,39205442,-7.9341,-3.1885,2.7305,255.37,486.16,-643.23
659,39210441,-7.8877,-2.9663,2.7617,239.39,455.18,-669.51
660,39215442,-7.8672,-2.7881,2.8022,216.16,425.67,-694.57
661,39220441,-7.8374,-2.6191,2.7598,187.38,398.60,-718.29
662,39225442,-7.7988,-2.4595,2.7539,157.50,374.21,-740.00
663,39230441,-7.7002,-2.3574,2.7886,127.74,352.13,-759.57
664,39235442,-7.5898,-2.2471,2.7144,99.94,331.89,-777.32
665,39240441,-7.5342,-2.1890,2.6475,80.43,313.66,-792.20
666,39245444,-7.4790,-2.1421,2.6172,71.95,296.34,-804.82
667,39250441,-7.4185,-2.0889,2.5381,72.93,279.45,-815.61
668,39255440,-7.3691,-2.0103,2.4541,82.26,262.56,-824.51
669,39260444,-7.3491,-1.9517,2.4233,98.78,245.37,-831.89
670,39265441,-7.3291,-1.8711,2.3750,121.16,227.01,-837.93
671,39270443,-7.2969,-1.8096,2.2900,146.65,207.93,-842.74
672,39275442,-7.1875,-1.7095,2.2319,174.27,187.20,-846.52
673,39280442,-7.1333,-1.6553,2.1543,202.93,164.82,-849.39
674,39285441,-7.0635,-1.5527,2.0854,231.22,140.24,-850.98
675,39290442,-6.9224,-1.4395,1.9751,255.91,113.78,-851.28
676,39295442,-6.8594,-1.3623,1.8950,274.70,86.34,-850.85
677,39300443,-6.8218,-1.3037,1.8516,286.59,63.78,-849.70
678,39305441,-6.7881,-1.1489,1.8467,299.09,34.70,-847.74
679,39310442,-6.7671,-1.0649,1.7539,307.26,5.85,-845.61
680,39315442,-6.6968,-0.9619,1.6938,310.91,-22.50,-842.44
681,39320442,-6.6025,-0.8672,1.6475,312.13,-49.88,-838.60
682,39325441,-6.5010,-0.7583,1.5679,312.20,-76.77,-833.48
683,39331112,-6.3838,-0.6440,1.4775,313.11,-107.68,-825.49
684,39335444,-6.3062,-0.5791,1.3677,314.33,-127.93,-819.33
685,39340442,-6.2285,-0.5049,1.2827,316.46,-153.05,-810.06
686,39345442,-6.1304,-0.4019,1.1841,318.72,-178.11,-799.15
687,39350442,-5.9941,-0.3047,1.0811,319.82,-202.74,-787.20
688,39355440,-5.8413,-0.2090,0.9956,319.94,-226.10,-774.02
689,39360441,-5.7339,-0.1128,0.9360,319.27,-247.74,-760.18
690,39365619,-5.6978,-0.0371,0.8452,317.50,-272.07,-742.38
691,39370442,-5.7261,0.0479,0.7607,315.55,-287.32,-729.88
692,39375442,-5.6763,0.1216,0.6323,311.59,-305.43,-713.60
693,39380442,-5.7510,0.2510,0.5327,304.88,-322.13,-696.83
694,39385441,-5.7192,0.4116,0.4160,293.29,-337.32,-680.85
695,39390442,-5.5679,0.4854,0.2656,275.67,-351.10,-664.57
696,39395442,-5.4707,0.6035,0.1431,251.71,-362.80,-647.26
697,39400442,-5.4287,0.7710,0.0083,220.55,-372.50,-630.06
698,39405440,-5.4146,0.9028,-0.0713,182.44,-379.57,-613.23
699,39410444,-5.3140,0.9854,-0.1572,140.00,-383.66,-597.56
700,39415442,-5.2471,1.0776,-0.2119,98.11,-384.09,-582.74
701,39420442,-5.1235,1.1724,-0.2920,59.70,-381.28,-568.41
702,39425441,-4.9692,1.2549,-0.3301,28.11,-375.98,-554.39
703,39430448,-4.7822,1.3188,-0.3872,5.85,-368.66,-540.00
704,39435442,-4.6348,1.2866,-0.4072,-7.01,-359.70,-525.12
705,39440456,-4.4307,1.4136,-0.3765,-10.67,-349.21,-508.72
706,39445442,-4.2070,1.5151,-0.4185,-5.18,-337.87,-491.16
707,39450441,-4.0298,1.5728,-0.4092,7.62,-326.16,-472.07
708,39455442,-3.8477,1.6416,-0.4136,24.94,-314.63,-451.28
709,39460442,-3.6299,1.7202,-0.4229,43.60,-303.23,-428.78
710,39465441,-3.4341,1.8125,-0.3936,60.24,-291.52,-404.94
711,39470440,-3.2285,1.9009,-0.4043,72.44,-279.45,-380.06
712,39475440,-3.0132,1.9761,-0.4189,79.94,-266.83,-354.39
713,39480442,-2.8018,2.0464,-0.4043,83.60,-253.48,-328.05
714,39485442,-2.6074,2.0815,-0.3989,84.76,-239.70,-301.40
715,39490442,-2.4297,2.1104,-0.4067,84.88,-225.18,-274.45
716,39495441,-2.2852,2.1289,-0.4033,85.43,-210.06,-247.68
717,39500443,-2.1484,2.1387,-0.3940,87.68,-194.51,-220.98
718,39505442,-2.0239,2.1479,-0.4092,92.56,-178.78,-194.39
719,39510441,-1.9136,2.1445,-0.4048,99.94,-163.17,-167.99
720,39515793,-1.8203,2.1299,-0.4121,109.76,-147.62,-141.89
721,39520442,-1.7466,2.1162,-0.4194,121.04,-132.68,-116.04
722,39525442,-1.6831,2.0977,-0.4355,130.91,-118.48,-90.85
723,39530442,-1.6265,2.0767,-0.4463,142.38,-104.94,-66.22
724,39535441,-1.5864,2.0518,-0.4590,151.59,-92.32,-42.38
725,39540443,-1.5674,2.0205,-0.4648,159.33,-80.55,-19.76
726,39545442,-1.5625,1.9692,-0.4741,165.43,-69.57,1.65
727,39550442,-1.5576,1.9170,-0.4849,170.06,-59.70,21.95
728,39555441,-1.5601,1.8555,-0.4849,173.05,-50.30,40.91
729,39560442,-1.5576,1.7876,-0.4863,174.09,-41.71,58.35
730,39565440,-1.5503,1.7300,-0.4775,173.35,-33.48,74.51
731,39570759,-1.5366,1.6631,-0.4668,171.52,-25.91,88.29
732,39575443,-1.5024,1.5796,-0.4458,167.50,-17.20,104.70
733,39580442,-1.4766,1.5308,-0.4297,164.39,-12.07,114.33
734,39585442,-1.4404,1.4639,-0.4287,160.30,-5.79,125.24
735,39590442,-1.3936,1.4023,-0.4102,155.37,0.06,135.24
736,39595441,-1.3535,1.3423,-0.3877,149.33,5.49,144.21
737,39600442,-1.3198,1.2812,-0.3667,142.56,11.04,152.07
738,39605442,-1.2808,1.2188,-0.3433,134.94,16.04,158.96
739,39610442,-1.2471,1.1616,-0.3198,127.50,21.10,165.00
740,39615441,-1.2080,1.1025,-0.3018,120.67,25.73,170.18
741,39620443,-1.1753,1.0493,-0.2837,113.23,30.37,174.39
742,39625442,-1.1484,0.9990,-0.2544,105.55,34.51,177.87
743,39630442,-1.1270,0.9497,-0.2349,97.56,38.78,180.67
744,39635441,-1.1060,0.9146,-0.2163,89.57,42.56,182.74
745,39640442,-1.0698,0.8745,-0.1987,81.95,46.40,184.33
746,39645649,-1.0371,0.8340,-0.1782,74.57,49.94,185.43
747,39650442,-1.0034,0.7979,-0.1670,67.62,53.29,186.59
748,39655441,-0.9722,0.7744,-0.1616,61.22,56.34,187.26
749,39660442,-0.9517,0.7451,-0.1509,54.88,59.27,187.62
750,39665442,-0.9297,0.7290,-0.1357,48.72,61.95,187.80
751,39670493,-0.9224,0.7114,-0.1304,42.80,64.45,187.74
752,39675440,-0.9082,0.7002,-0.1147,37.38,66.83,187.44
753,39680442,-0.8843,0.6812,-0.1138,32.62,69.15,187.01
754,39685442,-0.8579,0.6899,-0.1094,28.54,71.28,186.59
755,39690442,-0.8267,0.6846,-0.1113,25.18,73.35,185.85
756,39695441,-0.7964,0.6860,-0.1016,22.74,75.30,185.06
757,39700442,-0.7588,0.6875,-0.0972,20.85,77.20,183.90
758,39705442,-0.7139,0.6748,-0.0664,19.02,79.33,182.62
759,39710442,-0.6909,0.6714,-0.0659,17.62,81.52,181.04
760,39715989,-0.6533,0.6406,-0.0439,16.89,83.41,179.63
761,39720443,-0.6157,0.6831,-0.0366,15.91,85.67,177.87
762,39725442,-0.5723,0.6807,-0.0571,14.94,86.10,175.79
763,39730441,-0.5635,0.6562,-0.0054,14.45,88.96,174.21
764,39735510,-0.5483,0.6572,0.0117,15.85,91.40,172.80
765,39740442,-0.5400,0.6602,-0.0020,18.48,92.99,171.22
766,39745442,-0.5059,0.6626,-0.0371,21.10,94.70,169.45
767,39750441,-0.4736,0.6670,0.0293,22.07,96.59,167.50
768,39755442,-0.4429,0.6440,0.0571,22.01,98.60,165.49
769,39760441,-0.4336,0.6396,-0.0112,22.01,100.43,163.90
770,39765440,-0.4136,0.6499,0.0220,22.68,101.77,162.13
771,39770440,-0.3994,0.6528,0.0342,22.99,103.35,160.18
772,39776024,-0.3613,0.6519,0.0151,22.68,104.82,157.87
773,39780443,-0.3130,0.6436,0.0039,22.01,105.98,155.24
774,39785443,-0.3125,0.6489,0.0591,21.16,107.38,152.44
775,39790442,-0.2900,0.6499,0.0488,19.70,108.72,149.45
776,39795442,-0.2456,0.6406,0.0059,18.35,109.51,146.40
777,39800443,-0.2456,0.6479,0.0591,17.32,110.37,143.66
778,39805442,-0.2329,0.6426,0.0884,15.73,111.34,140.67
779,39810442,-0.1846,0.6426,0.0288,14.09,112.01,137.74
780,39815980,-0.1064,0.6494,0.0996,12.62,112.68,135.06
781,39820443,-0.1777,0.6484,0.0835,11.04,113.60,132.38
782,39825442,-0.1592,0.6572,0.0347,9.57,113.78,129.82
783,39830442,-0.1689,0.6519,0.0923,8.66,114.02,127.68
784,39835442,-0.1909,0.6592,0.0923,7.26,114.63,125.00
785,39840442,-0.1772,0.6631,0.0815,5.85,114.94,122.26
786,39845442,-0.1670,0.6626,0.1055,4.76,115.30,119.57
787,39850442,-0.1606,0.6675,0.0991,3.66,115.30,117.01
788,39855442,-0.1309,0.6758,0.0854,2.80,115.00,114.45
789,39860442,-0.1104,0.6836,0.0972,2.01,114.33,112.07
790,39865442,-0.0845,0.6885,0.0986,1.65,113.48,109.51
791,39870442,-0.0557,0.7012,0.0903,1.65,112.68,107.07
792,39875441,-0.0308,0.7026,0.0933,2.20,111.77,104.88
793,39880442,-0.0063,0.7095,0.1089,3.11,110.67,102.80
794,39885440,0.0127,0.7075,0.1060,4.21,109.45,100.91
795,39890442,0.0322,0.7134,0.1177,5.12,108.17,98.96
796,39895562,0.0747,0.7134,0.1045,5.79,106.89,97.26
797,39900441,0.0684,0.7231,0.1328,6.28,105.61,95.61
798,39905442,0.0576,0.7300,0.1611,5.85,104.82,94.02
799,39910441,0.0747,0.7354,0.1436,4.70,103.66,92.68
800,39915442,0.0991,0.7388,0.1255,3.41,102.20,91.34
801,39920442,0.0845,0.7456,0.1499,1.77,101.10,90.00
802,39925442,0.0864,0.7529,0.1743,-0.73,99.88,88.72
803,39930441,0.0981,0.7651,0.1470,-3.48,98.41,88.72
804,39935442,0.0972,0.7681,0.1533,-6.10,96.46,86.89
805,39940441,0.1313,0.7729,0.1377,-8.60,94.51,86.77
806,39945442,0.1479,0.7832,0.1665,-10.43,92.26,86.71
807,39950442,0.1274,0.7905,0.1606,-11.71,89.82,85.37
808,39955442,0.1333,0.8042,0.1538,-12.62,86.46,84.57
809,39960443,0.1528,0.8174,0.1597,-13.05,85.12,83.41
810,39965440,0.1899,0.7510,0.1367,-12.93,82.62,82.62
811,39970440,0.1772,0.7974,0.1934,-13.48,79.88,82.32
812,39975440,0.2300,0.8037,0.1362,-14.02,77.13,82.07
813,39980440,0.2349,0.8237,0.2046,-13.60,74.45,81.89
814,39985442,0.2319,0.7842,0.2026,-13.17,72.20,81.77
815,39990444,0.3291,0.7686,0.2002,-12.20,69.51,82.20
816,39995442,0.2944,0.7998,0.2021,-10.30,67.20,82.62
817,40000441,0.2505,0.8252,0.1992,-9.09,64.94,82.93
818,40005442,0.2358,0.8237,0.1792,-8.96,62.56,82.93
819,40010441,0.2583,0.8257,0.1626,-9.94,60.18,82.87
820,40015442,0.2412,0.8242,0.1875,-11.40,57.87,82.74
821,40020441,0.2334,0.8228,0.1943,-13.11,55.67,82.62
822,40025442,0.2417,0.8325,0.1875,-14.88,53.29,82.56
823,40030441,0.2212,0.8208,0.2017,-16.34,50.91,82.32
824,40035442,0.2183,0.8564,0.1177,-17.20,48.23,82.62
825,40040441,0.2632,0.7646,0.3169,-15.73,45.73,81.83
826,40045442,0.2480,0.7925,0.1567,-14.88,43.23,81.46
827,40050442,0.2388,0.8486,0.1572,-14.82,40.61,80.91
828,40055442,0.2446,0.8491,0.2773,-15.00,38.54,80.30
829,40060442,0.2710,0.8291,0.1821,-15.61,36.34,79.70
830,40065440,0.2676,0.7969,0.1646,-16.52,33.72,78.96
831,40070444,0.2734,0.7930,0.2505,-18.05,31.52,78.48
832,40075442,0.3071,0.7988,0.2148,-19.57,29.45,77.87
833,40080441,0.3198,0.8125,0.1797,-20.91,26.95,77.38
834,40085442,0.3257,0.8145,0.2505,-22.01,24.57,76.65
835,40090441,0.3560,0.8125,0.2437,-22.26,22.56,76.10
836,40095442,0.3730,0.8188,0.2178,-21.83,19.94,75.49
837,40100444,0.3896,0.8203,0.2368,-21.46,17.50,74.94
838,40105442,0.4087,0.8340,0.2422,-21.22,15.24,74.27
839,40110441,0.4214,0.8423,0.2261,-21.22,12.80,73.35
840,40115442,0.4355,0.8555,0.2368,-21.34,10.43,72.26
841,40120442,0.4463,0.8633,0.2524,-21.65,8.23,70.98
842,40125442,0.4668,0.8760,0.2554,-21.83,5.79,69.51
843,40130441,0.4956,0.8862,0.2642,-21.95,3.72,68.17
844,40135442,0.5293,0.8906,0.2881,-22.01,1.65,66.52
845,40140441,0.5625,0.8945,0.2891,-22.07,-0.37,64.94
846,40145442,0.5967,0.9004,0.2939,-22.62,-2.26,63.48
847,40150441,0.6152,0.9072,0.3169,-23.35,-4.15,62.26
848,40155511,0.6445,0.9102,0.3193,-24.51,-5.98,60.79
849,40160441,0.6680,0.9199,0.3350,-25.85,-7.74,59.63
850,40165442,0.6851,0.9316,0.3633,-27.74,-9.39,58.35
851,40170441,0.6904,0.9370,0.3638,-29.70,-10.67,57.13
852,40175440,0.7012,0.9453,0.3838,-31.65,-12.13,55.85
853,40180440,0.7080,0.9614,0.4048,-33.35,-13.23,54.45
854,40185443,0.7129,0.9766,0.4048,-35.18,-14.27,53.05
855,40190442,0.7158,0.9907,0.4092,-36.40,-15.49,51.40
856,40195445,0.7085,0.9868,0.4302,-36.89,-16.65,49.82
857,40200441,0.7109,1.0005,0.4175,-36.95,-17.68,48.17
858,40205442,0.7163,1.0146,0.4194,-36.46,-18.78,46.28
859,40210441,0.7173,1.0107,0.4263,-35.79,-19.88,44.39
860,40215442,0.7188,1.0122,0.4170,-34.57,-20.85,42.38
861,40220441,0.6958,1.0581,0.3428,-32.20,-22.38,39.94
862,40225535,0.6802,1.0034,0.4800,-29.76,-23.60,37.74
863,40230442,0.7129,0.9663,0.4727,-28.48,-23.84,35.85
864,40235441,0.7251,0.9497,0.3965,-27.13,-24.45,34.15
865,40240444,0.7266,0.9556,0.4355,-25.43,-24.88,32.56
866,40245442,0.7295,0.9531,0.4429,-23.29,-25.24,31.04
867,40250442,0.7188,0.9434,0.3916,-20.91,-25.91,29.51
868,40255442,0.6948,0.9204,0.4048,-18.78,-26.46,28.05
869,40260441,0.6748,0.9053,0.4263,-16.89,-26.83,26.52
870,40265442,0.6562,0.9028,0.3896,-15.12,-27.13,24.82
871,40270441,0.6338,0.8936,0.3911,-13.66,-27.44,23.05
872,40275440,0.6143,0.8770,0.3960,-12.44,-27.62,21.22
873,40280442,0.6016,0.8579,0.3735,-11.52,-27.99,19.39
874,40285441,0.5864,0.8442,0.3682,-10.73,-28.11,17.50
875,40290440,0.5718,0.8252,0.3735,-9.88,-28.17,15.61
876,40295442,0.5620,0.8105,0.3647,-9.21,-28.05,13.84
877,40300442,0.5518,0.8013,0.3540,-8.48,-28.11,12.01
878,40305442,0.5435,0.7959,0.3579,-7.80,-28.05,10.18
879,40310442,0.5283,0.7837,0.3491,-7.01,-27.74,8.35
880,40315441,0.5234,0.7744,0.3394,-6.28,-27.44,6.52
881,40320442,0.5259,0.7637,0.3330,-5.43,-27.13,4.82
882,40325442,0.5200,0.7534,0.3271,-4.33,-26.77,3.11
883,40330442,0.5264,0.7480,0.3218,-3.17,-26.28,1.52
884,40335441,0.5234,0.7437,0.3081,-1.71,-25.79,0.00
885,40340442,0.5288,0.7368,0.3057,-0.12,-25.12,-1.40
886,40345442,0.5405,0.7256,0.3047,1.52,-24.57,-2.62
887,40350443,0.5571,0.7197,0.2939,3.54,-23.84,-3.78
888,40355443,0.5693,0.7168,0.2915,5.49,-23.11,-4.82
889,40360442,0.5850,0.7100,0.2886,7.56,-22.26,-5.73
890,40365440,0.5996,0.7041,0.2852,9.70,-21.40,-6.22
891,40370444,0.6104,0.7036,0.2852,11.77,-20.37,-6.65
892,40375442,0.6162,0.7002,0.2764,13.84,-19.33,-7.13
893,40380441,0.6235,0.6992,0.2656,15.49,-18.72,-7.38
894,40385441,0.6318,0.6948,0.2617,17.32,-17.56,-7.62
895,40390528,0.6387,0.6919,0.2495,19.09,-16.46,-7.68
896,40395769,0.6440,0.6890,0.2490,20.37,-15.43,-7.80
897,40400442,0.6475,0.6885,0.2446,21.16,-14.57,-7.80
898,40405442,0.6484,0.6890,0.2373,21.77,-13.60,-7.87
899,40410449,0.6440,0.6860,0.2354,21.77,-12.62,-7.80
900,40415441,0.6421,0.6895,0.2329,21.89,-11.65,-7.74
901,40420442,0.6372,0.6851,0.2188,21.52,-10.67,-7.74
902,40425440,0.6382,0.6846,0.2153,20.91,-9.76,-7.80
903,40430442,0.6318,0.6846,0.2139,19.94,-8.54,-7.68
904,40435444,0.6309,0.6851,0.2153,19.15,-7.80,-7.62
905,40440441,0.6299,0.6895,0.2085,18.29,-6.95,-7.38
906,40445442,0.6289,0.6880,0.1982,17.38,-6.10,-7.20
907,40450441,0.6284,0.6948,0.2012,16.40,-5.37,-7.26
908,40455451,0.6274,0.6948,0.1836,15.67,-4.57,-6.95
909,40460442,0.6260,0.7017,0.1841,15.24,-3.84,-6.95
910,40465441,0.6191,0.7046,0.1865,14.88,-3.35,-6.77
911,40470442,0.6182,0.7085,0.1807,14.63,-2.87,-6.65
912,40475442,0.6157,0.7178,0.1689,14.39,-2.38,-6.52
913,40480442,0.6099,0.7212,0.1670,14.33,-1.95,-6.40
914,40485500,0.5977,0.7285,0.1724,14.09,-1.71,-6.28
915,40490443,0.5933,0.7393,0.1641,13.78,-1.40,-6.22
916,40495442,0.5879,0.7432,0.1670,13.35,-1.22,-6.28
917,40500500,0.5840,0.7490,0.1665,12.50,-1.22,-6.22
918,40505441,0.5830,0.7539,0.1631,11.46,-1.22,-6.16
919,40510440,0.5796,0.7588,0.1626,10.24,-1.16,-6.16
920,40516096,0.5767,0.7710,0.1626,8.54,-1.28,-6.16
921,40520442,0.5747,0.7749,0.1587,7.07,-1.28,-6.10
922,40525440,0.5698,0.7856,0.1592,5.24,-1.65,-6.16
923,40530441,0.5659,0.7969,0.1650,2.56,-1.77,-6.16
924,40535443,0.5684,0.8018,0.1709,0.73,-1.89,-6.16
925,40540442,0.5625,0.8066,0.1714,-1.65,-2.13,-6.04
926,40545440,0.5664,0.8140,0.1724,-3.78,-2.32,-5.98
927,40550440,0.5664,0.8228,0.1689,-5.98,-2.68,-5.79
928,40555444,0.5630,0.8301,0.1797,-8.11,-3.05,-5.67
929,40560441,0.5625,0.8394,0.1855,-9.82,-3.48,-5.61
930,40565442,0.5586,0.8486,0.1826,-11.46,-3.84,-5.43
931,40570441,0.5552,0.8530,0.1899,-12.68,-4.45,-5.18
932,40575442,0.5474,0.8589,0.1973,-13.96,-4.63,-5.06
933,40580441,0.5449,0.8672,0.1978,-15.06,-5.18,-5.00
934,40585440,0.5356,0.8770,0.2075,-16.04,-5.67,-4.76
935,40590440,0.5356,0.8789,0.2139,-16.95,-6.34,-4.63
936,40595440,0.5293,0.8867,0.2178,-17.99,-6.77,-4.33
937,40600444,0.5308,0.8926,0.2168,-19.15,-7.32,-4.09
938,40605441,0.5322,0.8965,0.2241,-20.18,-7.68,-3.78
939,40610443,0.5337,0.9019,0.2275,-21.04,-8.48,-3.48
940,40615444,0.5317,0.9121,0.2373,-22.07,-8.96,-3.05
941,40620441,0.5327,0.9146,0.2388,-22.99,-9.45,-2.62
942,40625442,0.5342,0.9170,0.2412,-23.90,-10.06,-2.26
943,40630441,0.5361,0.9268,0.2520,-24.82,-10.61,-1.83
944,40635698,0.5361,0.9292,0.2539,-25.61,-11.22,-1.40
945,40640442,0.5405,0.9346,0.2617,-26.10,-11.52,-0.73
946,40645442,0.5396,0.9390,0.2603,-26.52,-12.07,-0.12
947,40650442,0.5474,0.9390,0.2632,-26.77,-12.50,0.43
948,40655441,0.5439,0.9409,0.2681,-26.77,-12.80,1.10
949,40660442,0.5503,0.9434,0.2788,-26.65,-13.17,1.89
950,40665442,0.5513,0.9463,0.2798,-26.28,-13.48,2.50
951,40670442,0.5469,0.9424,0.2803,-25.73,-13.66,3.23
952,40675441,0.5415,0.9434,0.2881,-25.18,-13.90,3.96
953,40680442,0.5493,0.9438,0.2852,-24.21,-14.09,4.63
954,40685442,0.5356,0.9414,0.2920,-23.05,-14.27,5.37
955,40690442,0.5381,0.9419,0.2915,-21.95,-14.39,6.04
956,40695442,0.5322,0.9443,0.2881,-20.37,-14.63,6.65
957,40700442,0.5264,0.9370,0.2939,-18.78,-14.76,7.26
958,40705442,0.5303,0.9380,0.2925,-17.26,-14.70,7.93
959,40710441,0.5488,0.9375,0.2979,-15.98,-14.63,8.41
960,40715442,0.5542,0.9272,0.3071,-15.18,-14.39,9.27
961,40720441,0.5586,0.9199,0.2925,-14.21,-14.27,10.18
962,40725442,0.5620,0.9229,0.2827,-13.29,-14.27,10.91
963,40730441,0.5547,0.9297,0.2900,-12.38,-14.09,11.71
964,40735442,0.5566,0.9282,0.2891,-11.95,-13.84,12.32
965,40740441,0.5542,0.9243,0.2876,-11.71,-13.54,12.80
966,40745442,0.5566,0.9170,0.2886,-11.52,-13.23,13.41
967,40750441,0.5586,0.9126,0.2847,-11.28,-13.11,13.90
968,40755442,0.5635,0.9097,0.2803,-10.98,-12.93,14.45
969,40760441,0.5649,0.9023,0.2759,-10.30,-12.62,15.06
970,40765442,0.5659,0.8994,0.2749,-9.57,-12.26,15.61
971,40770442,0.5684,0.8926,0.2749,-8.60,-12.07,16.22
972,40775442,0.5728,0.8911,0.2676,-7.68,-11.52,16.89
973,40780501,0.5723,0.8853,0.2681,-6.59,-11.16,17.32
974,40785981,0.5771,0.8789,0.2720,-5.49,-10.79,17.93
975,40790442,0.5796,0.8740,0.2700,-4.33,-10.43,18.41
976,40795440,0.5835,0.8677,0.2603,-2.87,-10.00,19.02
977,40800441,0.5840,0.8628,0.2617,-1.77,-9.57,19.51
978,40806012,0.5854,0.8579,0.2598,-0.55,-9.15,19.94
979,40810442,0.5898,0.8481,0.2588,0.49,-8.78,20.43
980,40815445,0.5898,0.8423,0.2524,1.46,-8.48,21.04
981,40820441,0.5938,0.8330,0.2549,2.20,-7.93,21.40
982,40825442,0.5859,0.8296,0.2510,2.74,-7.50,21.65
983,40830442,0.5908,0.8223,0.2451,3.35,-6.89,22.07
984,40835442,0.5845,0.8188,0.2417,3.78,-6.59,22.26
985,40840445,0.5869,0.8115,0.2432,4.51,-6.22,22.56
986,40845442,0.5928,0.8110,0.2358,5.06,-5.61,22.80
987,40850442,0.5952,0.8008,0.2329,5.98,-5.30,22.99
988,40855442,0.5986,0.8027,0.2344,6.59,-4.88,23.23
989,40860441,0.5977,0.7954,0.2334,7.38,-4.39,23.48
990,40865442,0.6025,0.7866,0.2266,7.99,-4.02,23.66
991,40870442,0.5972,0.7881,0.2275,8.66,-3.54,23.72
992,40875440,0.6006,0.7832,0.2266,9.33,-3.17,23.78
993,40880442,0.6030,0.7773,0.2207,9.88,-2.87,23.90
994,40885444,0.6035,0.7764,0.2207,10.30,-2.38,23.78
995,40890441,0.6074,0.7734,0.2173,10.61,-2.07,23.90
996,40895442,0.6089,0.7690,0.2100,10.79,-1.77,23.84
997,40900442,0.6089,0.7690,0.2109,10.91,-1.46,23.84
998,40905440,0.6094,0.7637,0.2114,10.79,-1.22,23.66
999,40910444,0.6123,0.7622,0.2158,10.49,-1.04,23.48
1000,40915442,0.6147,0.7578,0.2080,10.18,-0.67,23.35
1001,40920443,0.6172,0.7573,0.2080,9.76,-0.43,23.11
1002,40925441,0.6182,0.7529,0.2031,9.45,-0.18,22.74
1003,40930442,0.6211,0.7466,0.2046,8.84,0.12,22.56
1004,40935442,0.6250,0.7466,0.2012,8.35,0.30,22.26
1005,40940442,0.6294,0.7422,0.1992,7.87,0.55,22.01
1006,40945441,0.6348,0.7461,0.2017,7.50,0.73,21.59
1007,40950442,0.6396,0.7427,0.1992,7.07,0.98,21.28
1008,40955443,0.6396,0.7437,0.2021,6.77,1.22,20.85
1009,40960442,0.6416,0.7417,0.1987,6.52,1.46,20.55
1010,40965441,0.6431,0.7417,0.1992,6.16,1.71,20.24
1011,40970443,0.6421,0.7402,0.1982,5.85,1.89,19.76
1012,40975441,0.6450,0.7383,0.1938,5.37,2.26,19.39
1013,40980442,0.6465,0.7402,0.1968,5.06,2.38,19.02
1014,40985442,0.6479,0.7358,0.2021,4.76,2.68,18.35
1015,40990442,0.6528,0.7339,0.1958,4.45,2.80,17.99
1016,40995441,0.6587,0.7358,0.2031,4.33,3.05,17.44
1017,41000443,0.6587,0.7324,0.1963,4.02,3.35,17.01
1018,41005441,0.6636,0.7363,0.2056,3.96,3.78,16.59
1019,41010442,0.6680,0.7344,0.2026,3.60,3.84,16.04
1020,41015442,0.6709,0.7412,0.2021,3.23,3.96,15.49
1021,41020441,0.6748,0.7383,0.2056,3.11,4.33,15.12
1022,41025442,0.6758,0.7407,0.2095,2.56,4.39,14.51
1023,41030441,0.6797,0.7383,0.2075,2.07,4.63,14.02
1024,41035442,0.6836,0.7402,0.2114,1.40,4.76,13.54
1025,41040442,0.6841,0.7388,0.2065,0.73,4.94,12.99
1026,41045442,0.6797,0.7407,0.2173,-0.12,5.00,12.38
1027,41050442,0.6826,0.7383,0.2153,-1.04,5.12,11.89
1028,41055441,0.6816,0.7407,0.2227,-2.20,5.30,11.16
1029,41060442,0.6826,0.7388,0.2231,-3.17,5.43,10.67
