# skilleye imu stream v1
# device=xiao_esp32c6 imu=mpu6050 addr=0x68
# rate_hz=200 accel_range_g=16 gyro_range_dps=2000 dlpf_hz=94
# units: accel in g, gyro in deg/s, t_us in microseconds since boot (monotonic)
# no shared clock with the camera -- tap the racket once before each take
# so both recordings share a spike to align on
seq,t_us,ax,ay,az,gx,gy,gz
0,37416665,0.5903,0.4351,0.7485,68.35,49.45,25.98
1,37421840,0.5830,0.4219,0.7632,67.32,49.51,26.04
2,37426664,0.5723,0.4141,0.7695,66.16,49.27,26.10
3,37431666,0.5693,0.4067,0.7778,65.24,49.15,26.28
4,37436666,0.5601,0.3965,0.7822,64.39,48.90,26.59
5,37441662,0.5615,0.3906,0.7822,63.72,48.72,27.01
6,37446662,0.5508,0.4053,0.6938,63.35,48.29,27.44
7,37451662,0.5820,0.3647,0.9062,63.96,47.93,27.74
8,37456662,0.5562,0.3765,0.8301,64.39,47.99,28.23
9,37461662,0.5674,0.3730,0.7749,64.70,48.29,28.60
10,37466664,0.5767,0.3931,0.8135,64.15,48.11,28.66
11,37471664,0.5884,0.4019,0.8369,62.93,47.20,28.66
12,37476975,0.5908,0.4106,0.7896,61.40,46.52,28.41
13,37482059,0.5962,0.4009,0.8052,59.76,45.85,28.17
14,37486664,0.6079,0.3945,0.8604,57.99,45.43,28.11
15,37491664,0.6182,0.3877,0.8711,55.85,45.18,27.87
16,37496665,0.6299,0.3823,0.8613,53.60,45.12,27.80
17,37501664,0.6304,0.3892,0.8750,50.98,45.12,27.87
18,37507012,0.6367,0.3984,0.9214,47.62,45.18,27.80
19,37511945,0.6377,0.4082,0.9106,43.66,45.12,27.74
20,37517046,0.6187,0.4194,0.9189,39.09,45.37,27.68
21,37521664,0.6250,0.4165,0.9414,33.90,45.30,27.56
22,37526663,0.6528,0.4478,0.9668,27.87,45.00,27.44
23,37531822,0.6792,0.4531,0.9482,21.22,45.12,27.01
24,37537139,0.6968,0.4546,0.9478,14.33,44.76,26.77
25,37541664,0.6938,0.4570,1.0347,6.83,44.27,26.40
26,37546666,0.7085,0.4521,1.1582,-1.71,44.15,25.73
27,37551663,0.7725,0.3818,1.3032,-12.44,43.72,25.24
28,37557025,0.7939,0.3286,1.3882,-24.57,42.13,24.94
29,37561969,0.7856,0.3018,1.4854,-37.13,39.88,24.70
30,37566664,0.7905,0.3203,1.4531,-49.63,37.80,23.96
31,37571664,0.7900,0.3765,1.4019,-61.52,34.82,22.87
32,37576996,0.7827,0.4097,1.3345,-71.95,31.71,21.89
33,37582061,0.7554,0.4277,1.2417,-79.88,28.84,21.52
34,37587090,0.7178,0.4351,1.1831,-85.30,26.52,21.34
35,37592162,0.6743,0.4448,1.1382,-88.54,24.51,21.77
36,37597024,0.6499,0.4438,1.1147,-89.94,22.93,22.32
37,37601664,0.6265,0.4478,1.0781,-89.57,21.59,23.11
38,37606664,0.6074,0.4692,1.0566,-88.29,20.12,23.84
39,37611929,0.6035,0.4688,1.0518,-86.04,18.90,24.57
40,37616664,0.6060,0.4644,1.0498,-82.99,17.38,25.37
41,37621664,0.6021,0.4697,1.0552,-79.33,15.98,26.22
42,37626665,0.6128,0.4565,1.0493,-75.37,14.45,27.07
43,37631665,0.6221,0.4204,1.0620,-70.49,12.99,27.93
44,37636664,0.6235,0.3940,1.0884,-65.00,11.46,28.96
45,37641664,0.6133,0.3745,1.1001,-59.51,9.94,30.06
46,37646663,0.6309,0.3457,1.1489,-53.90,8.11,30.91
47,37651664,0.6582,0.3115,1.1958,-48.72,6.40,31.77
48,37656665,0.6963,0.2852,1.2651,-44.27,4.21,32.38
49,37661664,0.7305,0.2627,1.3164,-40.73,1.65,32.87
50,37666664,0.7485,0.2603,1.3496,-38.41,-0.98,33.17
51,37671664,0.7476,0.2441,1.3403,-37.38,-4.15,33.23
52,37676666,0.7207,0.2500,1.3281,-37.44,-7.26,32.87
53,37681663,0.6914,0.2500,1.3032,-38.41,-10.55,32.38
54,37686729,0.6548,0.2642,1.2725,-40.49,-14.09,32.01
55,37692020,0.6240,0.2930,1.2222,-42.93,-17.38,31.59
56,37696669,0.5952,0.3203,1.1792,-45.98,-20.85,31.22
57,37701664,0.5693,0.3496,1.1172,-49.15,-24.33,31.22
58,37706745,0.5898,0.3594,1.1138,-51.89,-27.74,31.16
59,37711665,0.6011,0.3794,1.0718,-54.57,-30.55,31.22
60,37716664,0.6016,0.4194,1.0562,-57.38,-33.41,31.22
61,37721663,0.6025,0.4375,1.0278,-60.43,-36.16,30.91
62,37726664,0.6040,0.4360,1.0127,-62.93,-38.96,30.61
63,37731662,0.6401,0.4531,0.9917,-64.82,-41.40,30.30
64,37736664,0.6626,0.4468,1.0117,-65.85,-44.09,30.00
65,37741664,0.6631,0.4180,1.0137,-65.91,-46.16,29.88
66,37746664,0.6621,0.3804,0.9995,-65.00,-48.17,29.88
67,37751664,0.6602,0.3555,0.9990,-63.41,-50.00,29.70
68,37756995,0.6602,0.3330,0.9927,-61.04,-51.40,29.57
69,37761908,0.6567,0.3052,0.9941,-58.72,-52.93,29.39
70,37766664,0.6592,0.2812,0.9888,-56.22,-54.09,29.15
71,37771664,0.6694,0.2695,0.9790,-53.72,-54.88,28.84
72,37776662,0.6870,0.2573,0.9614,-51.52,-55.67,28.41
73,37781662,0.6875,0.2441,0.9561,-49.57,-56.04,28.05
74,37786663,0.6812,0.2388,0.9375,-47.93,-56.40,27.38
75,37791664,0.6772,0.2358,0.9141,-46.52,-56.59,26.95
76,37797013,0.6709,0.2285,0.8955,-45.12,-56.46,26.10
77,37802005,0.6826,0.2231,0.8911,-43.96,-56.28,25.49
78,37806664,0.6841,0.2192,0.8726,-43.05,-55.79,24.82
79,37811898,0.6885,0.2144,0.8545,-42.38,-55.24,23.96
80,37816886,0.6860,0.2134,0.8413,-42.01,-54.39,23.17
81,37821666,0.6812,0.2168,0.8135,-42.26,-53.48,22.26
82,37826663,0.6792,0.2119,0.8042,-42.44,-52.56,21.59
83,37831662,0.6680,0.2085,0.7822,-43.17,-51.46,20.24
84,37836664,0.6523,0.2061,0.7607,-44.09,-50.18,19.33
85,37841665,0.6543,0.1997,0.7603,-45.06,-48.96,18.29
86,37846664,0.6562,0.1904,0.7505,-46.10,-47.74,17.32
87,37851664,0.6519,0.1973,0.7446,-47.07,-46.59,16.65
88,37856664,0.6504,0.1851,0.7236,-48.29,-45.24,15.61
89,37861664,0.6460,0.1772,0.7378,-49.39,-43.78,14.63
90,37866664,0.6509,0.1655,0.7344,-50.30,-42.38,13.78
91,37871664,0.6338,0.1460,0.7349,-51.16,-40.30,12.87
92,37876662,0.6260,0.1367,0.7373,-51.59,-38.84,12.32
93,37881666,0.6187,0.1221,0.7480,-51.89,-37.07,11.77
94,37886662,0.6162,0.1108,0.7500,-52.07,-35.30,11.22
95,37891685,0.6069,0.1064,0.7539,-52.20,-33.05,10.85
96,37896662,0.6011,0.1074,0.7588,-52.13,-31.28,10.43
97,37901662,0.5889,0.1060,0.7559,-52.07,-29.21,10.00
98,37906662,0.5913,0.1030,0.7710,-52.26,-27.20,9.45
99,37911662,0.5835,0.1118,0.7798,-52.26,-25.18,9.02
100,37916662,0.5425,0.1313,0.7803,-52.01,-23.35,8.54
101,37921662,0.5898,0.1216,0.8179,-51.89,-21.46,7.87
102,37926662,0.5923,0.1196,0.8467,-51.71,-19.33,7.32
103,37931662,0.4067,0.0962,0.8560,-51.71,-17.20,6.77
104,37936662,0.4873,0.1069,0.8647,-51.52,-15.30,6.22
105,37941662,0.5508,0.1167,0.8892,-51.34,-13.17,5.61
106,37946662,0.5605,0.1035,0.9277,-51.40,-11.16,5.00
107,37951662,0.5542,0.1030,0.9180,-51.83,-8.60,4.51
108,37956666,0.5493,0.1016,0.8857,-52.87,-6.83,3.72
109,37961734,0.5571,0.0850,0.8828,-53.96,-5.18,3.11
110,37966662,0.4961,0.0625,0.8784,-55.55,-3.60,2.62
111,37971662,0.5078,0.0654,0.8789,-57.13,-2.32,2.07
112,37976664,0.5444,0.0693,0.8755,-59.33,-1.10,1.28
113,37981666,0.5654,0.0767,0.8647,-61.16,-0.06,0.49
114,37987081,0.5835,0.0796,0.8701,-63.41,0.73,-0.37
115,37991664,0.6055,0.0781,0.8608,-65.37,1.28,-1.16
116,37996664,0.6289,0.0591,0.8574,-67.93,1.65,-2.20
117,38001666,0.6641,0.0459,0.8691,-70.91,2.20,-3.11
118,38006664,0.7002,0.0366,0.8647,-74.21,2.56,-4.02
119,38011663,0.7319,0.0264,0.8613,-77.38,2.68,-5.12
120,38016916,0.7661,0.0249,0.8584,-80.98,2.74,-6.28
121,38021663,0.7915,0.0249,0.8589,-83.17,2.74,-6.83
122,38026664,0.8257,0.0312,0.8486,-85.43,2.56,-7.68
123,38031663,0.8721,0.0400,0.8359,-86.95,2.07,-8.35
124,38036662,0.8989,0.0527,0.8228,-87.74,1.40,-8.96
125,38041662,0.8838,0.0688,0.8130,-87.50,0.67,-9.51
126,38046664,0.8018,0.0811,0.7969,-86.71,-0.55,-10.06
127,38051663,0.7256,0.0815,0.7998,-84.70,-1.83,-10.55
128,38056662,0.6953,0.0786,0.8306,-82.20,-2.99,-11.04
129,38061662,0.6880,0.0806,0.8560,-79.02,-4.15,-11.59
130,38066662,0.6836,0.0693,0.8599,-75.73,-5.06,-12.07
131,38071664,0.6753,0.0586,0.8579,-72.62,-6.10,-12.50
132,38076662,0.6641,0.0518,0.8525,-69.94,-7.50,-12.87
133,38081662,0.6470,0.0444,0.8374,-67.99,-9.15,-13.17
134,38086714,0.6313,0.0342,0.8276,-66.65,-10.85,-13.48
135,38091662,0.6221,0.0293,0.8228,-65.98,-12.87,-13.72
136,38096662,0.6187,0.0210,0.8281,-65.73,-15.00,-13.90
137,38101675,0.6221,0.0117,0.8315,-66.10,-16.89,-14.33
138,38106662,0.6343,0.0132,0.8428,-66.83,-19.09,-14.63
139,38111662,0.6475,0.0166,0.8462,-67.87,-21.04,-15.37
140,38116663,0.6655,0.0225,0.8447,-69.45,-23.05,-16.04
141,38121662,0.6895,0.0312,0.8472,-71.28,-24.94,-17.13
142,38126662,0.7070,0.0288,0.8535,-73.54,-26.65,-18.29
143,38131662,0.7236,0.0244,0.8608,-76.16,-28.41,-19.63
144,38136662,0.7344,0.0215,0.8623,-78.96,-30.18,-20.91
145,38141662,0.7432,0.0190,0.8657,-82.20,-31.65,-22.32
146,38146662,0.7544,0.0122,0.8799,-85.43,-33.35,-23.84
147,38151662,0.7666,0.0166,0.8906,-88.84,-34.88,-25.49
148,38156662,0.7764,0.0210,0.9028,-92.26,-36.46,-27.13
149,38161662,0.7861,0.0239,0.9126,-95.37,-38.05,-29.02
150,38166662,0.7920,0.0273,0.9131,-98.41,-39.94,-30.73
151,38171662,0.7910,0.0215,0.9263,-101.34,-41.95,-32.38
152,38176662,0.7852,0.0264,0.9321,-103.78,-44.09,-34.09
153,38181662,0.7793,0.0264,0.9365,-106.28,-46.22,-35.79
154,38186662,0.7666,0.0269,0.9438,-108.23,-48.66,-37.38
155,38191662,0.7642,0.0176,0.9429,-110.18,-51.10,-39.15
156,38196662,0.7539,0.0127,0.9473,-111.83,-53.35,-40.85
157,38201662,0.7412,0.0029,0.9473,-113.54,-55.85,-42.50
158,38206662,0.7314,-0.0098,0.9458,-114.94,-58.29,-44.09
159,38211662,0.7148,-0.0161,0.9380,-116.40,-60.61,-45.79
160,38216662,0.6992,-0.0283,0.9409,-117.68,-63.29,-47.44
161,38221662,0.6860,-0.0317,0.9419,-118.84,-65.79,-49.09
162,38226662,0.6807,-0.0371,0.9375,-119.82,-68.17,-50.85
163,38231662,0.6709,-0.0430,0.9326,-120.73,-70.49,-52.87
164,38236662,0.6597,-0.0420,0.9277,-121.34,-72.62,-54.76
165,38241664,0.6509,-0.0425,0.9258,-121.89,-75.18,-56.59
166,38246662,0.6382,-0.0391,0.9204,-122.07,-77.38,-58.72
167,38251662,0.6304,-0.0293,0.9150,-122.01,-79.82,-60.73
168,38256662,0.6177,-0.0239,0.9126,-121.59,-82.20,-62.80
169,38261662,0.6094,-0.0098,0.9028,-120.91,-84.39,-65.06
170,38266662,0.6035,0.0054,0.8931,-119.82,-86.83,-67.26
171,38271662,0.5933,0.0205,0.8789,-118.90,-89.02,-69.45
172,38276662,0.5815,0.0366,0.8608,-117.62,-91.34,-71.71
173,38281662,0.5718,0.0503,0.8359,-116.40,-93.72,-73.78
174,38286662,0.5508,0.0630,0.8174,-115.00,-96.10,-75.79
175,38291662,0.5444,0.0718,0.7910,-113.48,-98.54,-77.87
176,38296662,0.5352,0.0859,0.7798,-112.07,-101.04,-79.94
177,38301662,0.5156,0.1021,0.7539,-110.61,-103.60,-81.95
178,38306662,0.5020,0.1128,0.7324,-109.15,-106.10,-83.90
179,38311662,0.4888,0.1245,0.7144,-107.93,-108.66,-85.91
180,38316662,0.4780,0.1353,0.6860,-106.65,-111.04,-88.05
181,38321662,0.4565,0.1465,0.6538,-105.79,-113.72,-90.00
182,38326662,0.4492,0.1567,0.6294,-104.88,-116.28,-92.13
183,38331662,0.4277,0.1636,0.6021,-104.09,-118.96,-94.45
184,38336662,0.4097,0.1748,0.5703,-103.41,-121.65,-96.65
185,38341662,0.3882,0.1816,0.5396,-102.68,-124.39,-98.78
186,38346662,0.3687,0.1851,0.5068,-102.01,-127.20,-101.16
187,38351662,0.3530,0.1934,0.4766,-101.34,-129.94,-103.60
188,38356662,0.3335,0.1958,0.4409,-100.61,-132.93,-106.16
189,38361662,0.3179,0.2051,0.4048,-99.76,-135.79,-108.66
190,38366662,0.3145,0.2036,0.3774,-98.66,-138.84,-111.40
191,38371662,0.2856,0.2183,0.3394,-97.44,-141.83,-114.09
192,38376662,0.2773,0.2256,0.3008,-96.10,-145.00,-116.89
193,38381662,0.2603,0.2393,0.2622,-94.45,-148.35,-119.70
194,38386662,0.2412,0.2466,0.2188,-92.80,-151.83,-122.68
195,38391662,0.2246,0.2583,0.1826,-91.04,-155.30,-125.79
196,38396662,0.2119,0.2764,0.1387,-88.90,-159.02,-129.21
197,38401662,0.1792,0.2998,0.1011,-86.83,-162.80,-132.68
198,38406662,0.1562,0.3101,0.0552,-84.51,-166.52,-136.40
199,38411662,0.1392,0.3457,0.0000,-82.38,-170.37,-140.24
200,38416662,0.1216,0.3726,-0.0420,-80.00,-174.27,-144.63
201,38421662,0.0923,0.4097,-0.0942,-77.50,-178.11,-148.90
202,38426662,0.0601,0.4561,-0.1543,-74.88,-181.83,-153.72
203,38431662,0.0303,0.5068,-0.2109,-72.32,-185.55,-158.54
204,38436662,-0.0269,0.5732,-0.2925,-69.45,-189.39,-163.96
205,38441662,-0.0859,0.6338,-0.3594,-66.65,-192.99,-169.82
206,38446662,-0.1562,0.7026,-0.4180,-63.23,-196.52,-176.16
207,38451662,-0.2031,0.7456,-0.5269,-59.70,-199.82,-182.87
208,38456662,-0.2383,0.7935,-0.6353,-55.73,-202.99,-189.88
209,38461662,-0.2749,0.8267,-0.7168,-51.28,-206.34,-197.38
210,38466662,-0.3579,0.8818,-0.8120,-46.40,-209.33,-204.88
211,38471662,-0.5142,0.9141,-0.9702,-40.30,-211.52,-212.74
212,38476662,-0.5132,0.9746,-1.0801,-33.05,-213.72,-221.10
213,38481662,-0.4121,1.0327,-1.1880,-23.66,-215.00,-229.51
214,38486662,-0.3784,1.0698,-1.2686,-13.78,-215.24,-236.04
215,38491662,-0.3618,1.1133,-1.3760,1.95,-214.27,-243.78
216,38496662,-0.4194,1.1626,-1.4536,22.01,-211.71,-251.40
217,38501662,-0.4346,1.2109,-1.5415,46.65,-207.56,-258.78
218,38506662,-0.4302,1.2642,-1.6333,75.12,-201.28,-266.16
219,38511662,-0.4258,1.3311,-1.7544,106.77,-193.11,-273.48
220,38516662,-0.4678,1.3740,-1.8716,140.06,-183.72,-280.67
221,38521662,-0.5024,1.3940,-2.0356,174.70,-173.11,-287.74
222,38526662,-0.5356,1.4409,-2.2476,210.30,-161.59,-294.57
223,38531662,-0.5508,1.4648,-2.4609,246.34,-149.63,-301.22
224,38536662,-0.5034,1.4961,-2.6582,281.83,-136.59,-307.62
225,38541662,-0.4526,1.5190,-2.8379,314.94,-121.77,-314.39
226,38546662,-0.4688,1.5278,-3.0229,343.11,-104.39,-322.13
227,38551662,-0.4878,1.5376,-3.1851,363.54,-84.57,-331.46
228,38556662,-0.4985,1.5571,-3.3975,374.02,-61.83,-342.38
229,38561662,-0.5469,1.6162,-3.6035,374.39,-37.01,-355.79
230,38566662,-0.6553,1.6475,-3.7754,367.07,-9.94,-371.04
231,38571662,-0.6758,1.7319,-3.9224,353.90,19.09,-387.80
232,38576662,-0.8008,1.7983,-4.0117,337.26,50.79,-405.30
233,38581662,-0.8687,1.8457,-4.0352,320.79,84.27,-422.68
234,38586662,-0.9424,1.9082,-4.0649,307.56,121.40,-439.39
235,38591662,-1.0293,1.9990,-4.1260,299.70,159.82,-455.06
236,38596662,-1.1108,2.1260,-4.1543,297.93,199.33,-469.76
237,38601662,-1.1997,2.2593,-4.1533,302.56,238.90,-483.29
238,38606662,-1.3008,2.4106,-4.1260,312.87,279.21,-495.49
239,38611662,-1.4277,2.5737,-4.0728,327.87,319.57,-506.46
240,38616662,-1.5615,2.7368,-3.9683,345.55,359.39,-515.55
241,38621662,-1.7168,2.8916,-3.8179,362.44,398.72,-522.74
242,38626662,-1.9131,3.1201,-3.6475,375.85,436.95,-528.29
243,38631662,-2.1519,3.4414,-3.5195,385.61,473.41,-532.50
244,38636662,-2.3784,3.7432,-3.3569,391.52,507.26,-535.79
245,38641662,-2.6807,4.0190,-3.2007,394.21,538.54,-537.62
246,38646662,-2.9238,4.2598,-2.9702,394.09,567.50,-537.56
247,38651662,-3.0854,4.4956,-2.6860,389.21,594.45,-534.76
248,38656662,-3.2046,4.6890,-2.4243,378.41,619.15,-528.72
249,38661662,-3.2900,4.8315,-2.1670,361.04,641.77,-518.54
250,38666662,-3.3506,4.9648,-1.8931,335.00,662.99,-503.90
251,38671662,-3.3789,5.0430,-1.5581,300.30,682.56,-484.82
252,38676662,-3.4185,5.0586,-1.2729,259.21,700.12,-461.04
253,38681662,-3.4629,5.1187,-0.9678,212.07,715.61,-431.71
254,38686662,-3.4551,5.1753,-0.6323,162.01,728.54,-397.62
255,38691662,-3.3965,5.1938,-0.2886,111.95,738.35,-358.29
256,38696662,-3.3408,5.1494,0.0220,64.57,743.41,-314.45
257,38701662,-3.2847,5.0469,0.2720,23.35,741.83,-265.55
258,38706662,-3.2314,5.0420,0.7070,-7.01,732.20,-212.68
259,38711662,-3.1499,5.0591,1.2109,-22.26,715.73,-158.48
260,38716662,-3.0498,5.0293,1.7739,-19.09,694.88,-105.43
261,38721662,-2.9634,4.8970,2.1201,-0.67,670.85,-55.18
262,38726662,-2.8535,4.7505,2.3916,27.80,643.54,-8.66
263,38731662,-2.7632,4.4243,2.6719,60.49,612.93,33.84
264,38736662,-2.8354,4.1597,2.8589,90.55,580.06,73.35
265,38741662,-2.6660,4.0049,2.9678,116.04,544.33,109.45
266,38746662,-2.2764,3.8818,3.1714,136.28,506.83,142.44
267,38751662,-2.0508,3.7012,3.2339,153.05,469.15,172.50
268,38756662,-1.9561,3.4941,3.2666,164.76,431.71,199.94
269,38761662,-1.8501,3.2617,3.2495,170.30,395.79,224.82
270,38766662,-1.6675,3.0415,3.2090,169.70,361.40,247.62
271,38771662,-1.4907,2.8247,3.1475,163.90,329.09,267.93
272,38776662,-1.3320,2.6143,3.0737,155.12,298.66,286.04
273,38781662,-1.1797,2.4204,2.9585,145.00,266.83,301.77
274,38786662,-1.0479,2.2285,2.8359,132.68,244.15,315.43
275,38791662,-0.8960,2.0327,2.7173,122.32,219.82,326.77
276,38796662,-0.7573,1.8374,2.5806,111.77,196.83,336.16
277,38801662,-0.6289,1.6548,2.4248,102.68,176.28,343.66
278,38806662,-0.5161,1.4834,2.2788,95.18,157.26,349.57
279,38811662,-0.3975,1.3105,2.1353,89.02,139.63,353.90
280,38816662,-0.2939,1.1582,1.9805,84.27,123.23,356.59
281,38821662,-0.2026,1.0068,1.8369,80.55,108.17,357.80
282,38826662,-0.1255,0.8745,1.6865,77.74,94.15,357.50
283,38831662,-0.0615,0.7437,1.5630,76.04,82.62,355.85
284,38836662,-0.0010,0.6250,1.4507,75.30,71.04,352.99
285,38841662,0.0439,0.5098,1.3359,75.91,61.34,348.96
286,38846662,0.0898,0.4355,1.2271,77.87,53.11,343.90
287,38851662,0.1172,0.3413,1.1440,80.73,45.91,337.99
288,38856662,0.1328,0.2559,1.0654,84.02,39.82,331.16
289,38861662,0.1646,0.1719,0.9795,87.38,35.12,323.66
290,38866662,0.1890,0.1025,0.9277,89.94,31.40,315.67
291,38871662,0.2046,0.0732,0.8760,91.77,28.84,306.83
292,38876662,0.2349,0.0239,0.8159,92.74,27.07,297.56
293,38881662,0.2832,-0.0322,0.7676,92.38,25.73,287.56
294,38886662,0.3374,-0.0757,0.7495,90.61,24.94,276.83
295,38891662,0.3682,-0.1138,0.7046,87.50,24.45,266.04
296,38896662,0.4126,-0.1318,0.6729,83.60,24.33,254.51
297,38901662,0.4419,-0.1455,0.6621,78.90,24.33,242.50
298,38906662,0.4653,-0.1528,0.6387,73.96,24.51,230.18
299,38911662,0.4888,-0.1641,0.6108,69.02,25.00,217.56
300,38916662,0.4966,-0.1733,0.5933,64.09,25.61,205.12
301,38921662,0.5200,-0.1943,0.5752,59.51,25.98,192.87
302,38926662,0.5220,-0.2168,0.5522,54.88,26.46,180.98
303,38931662,0.5273,-0.2290,0.5210,49.94,27.01,169.51
304,38936662,0.5278,-0.2339,0.5054,44.57,27.32,158.41
305,38941662,0.5132,-0.2412,0.4966,38.84,27.26,148.05
306,38946662,0.5088,-0.2510,0.5000,33.11,27.44,138.05
307,38951662,0.5210,-0.2583,0.5107,27.44,27.38,128.54
308,38956662,0.5488,-0.2739,0.5176,22.26,27.50,119.63
309,38961662,0.5679,-0.2793,0.5156,17.13,27.38,111.28
310,38966662,0.5635,-0.2822,0.5127,12.01,27.01,103.11
311,38971662,0.5605,-0.2866,0.5205,6.71,26.77,95.37
312,38976662,0.5615,-0.2866,0.5259,1.16,26.22,88.60
313,38981662,0.5605,-0.2939,0.5220,-4.63,25.85,80.85
314,38986662,0.5664,-0.2954,0.5220,-10.61,25.18,73.84
315,38991662,0.5649,-0.2920,0.5195,-17.01,24.57,67.07
316,38996662,0.5630,-0.2847,0.5054,-23.78,23.90,60.55
317,39001662,0.5625,-0.2822,0.5024,-30.49,23.11,54.15
318,39006662,0.5605,-0.2725,0.4844,-37.38,22.50,47.87
319,39011662,0.5562,-0.2656,0.4702,-44.15,21.89,41.89
320,39016662,0.5562,-0.2622,0.4570,-50.61,20.98,36.04
321,39021662,0.5591,-0.2534,0.4404,-56.59,20.12,30.61
322,39026662,0.5547,-0.2520,0.4312,-61.83,19.09,25.43
323,39031662,0.5522,-0.2461,0.4126,-65.98,18.05,20.55
324,39036662,0.5562,-0.2441,0.4126,-68.96,17.20,15.98
325,39041662,0.5659,-0.2441,0.4077,-70.55,16.10,11.52
326,39046662,0.5762,-0.2378,0.4092,-70.98,15.30,7.44
327,39051662,0.5977,-0.2358,0.4048,-70.49,14.27,3.54
328,39056662,0.5889,-0.2114,0.3926,-69.51,13.48,-0.18
329,39061662,0.6001,-0.2168,0.3828,-68.35,12.74,-3.96
330,39066662,0.6201,-0.2188,0.3848,-66.77,11.95,-7.44
331,39071662,0.6274,-0.2144,0.3628,-65.18,11.28,-10.61
332,39076662,0.6255,-0.2046,0.3569,-63.48,10.67,-13.78
333,39081662,0.6284,-0.2046,0.3506,-62.07,10.18,-16.89
334,39086663,0.6401,-0.1943,0.3320,-61.10,9.76,-19.76
335,39091662,0.6514,-0.1895,0.3193,-60.24,9.70,-22.62
336,39096662,0.6572,-0.1846,0.3052,-59.57,9.51,-25.00
337,39101662,0.6479,-0.2090,0.2935,-58.90,9.39,-27.07
338,39106662,0.6572,-0.2183,0.2461,-56.77,9.02,-27.44
339,39111662,0.6626,-0.1279,0.2593,-53.96,8.41,-27.50
340,39116662,0.6548,-0.1216,0.2690,-51.34,7.87,-27.87
341,39121662,0.6479,-0.1270,0.2515,-49.27,7.74,-28.29
342,39126662,0.6577,-0.1299,0.2681,-47.80,7.93,-29.02
343,39131662,0.6631,-0.1211,0.2847,-46.89,8.23,-29.82
344,39136662,0.6353,-0.0889,0.3008,-46.28,9.02,-30.73
345,39141662,0.6538,-0.0781,0.2944,-45.67,10.06,-31.65
346,39146662,0.6831,-0.0601,0.3164,-45.12,11.34,-32.80
347,39151662,0.6807,-0.0571,0.3203,-44.88,12.56,-33.90
348,39156662,0.6816,-0.0557,0.3218,-44.82,13.84,-34.94
349,39161662,0.6528,-0.0498,0.3330,-45.18,15.61,-35.98
350,39166662,0.6514,-0.0332,0.3545,-46.04,17.44,-37.07
351,39171662,0.6792,-0.0059,0.3657,-47.50,19.39,-38.41
352,39176662,0.7139,0.0107,0.3545,-48.96,21.40,-39.94
353,39181662,0.7285,0.0269,0.3716,-50.67,23.29,-41.46
354,39186662,0.7402,0.0508,0.3730,-52.44,25.12,-43.17
355,39191662,0.7422,0.0645,0.3643,-54.39,27.01,-45.00
356,39196662,0.7446,0.0811,0.3604,-56.59,28.90,-46.71
357,39201662,0.7480,0.0952,0.3677,-58.66,30.73,-48.35
358,39206662,0.7515,0.1099,0.3589,-61.28,32.50,-50.18
359,39211662,0.7520,0.1157,0.3428,-64.09,33.90,-51.83
360,39216662,0.7642,0.1421,0.3438,-67.26,35.67,-53.41
361,39221662,0.7710,0.1460,0.3418,-70.55,37.20,-55.06
362,39226662,0.7632,0.1523,0.3311,-73.72,38.72,-56.65
363,39231662,0.7686,0.1489,0.3066,-76.77,39.88,-58.05
364,39236662,0.7656,0.1426,0.3149,-79.70,40.91,-59.15
365,39241662,0.7651,0.1475,0.3262,-82.80,42.32,-60.55
366,39246662,0.7617,0.1475,0.3286,-85.30,43.35,-61.34
367,39251662,0.7637,0.1572,0.3281,-89.39,44.76,-62.87
368,39256662,0.7642,0.1567,0.3350,-92.13,45.85,-64.02
369,39261662,0.7593,0.1636,0.3340,-95.43,47.13,-65.49
370,39266664,0.7417,0.1621,0.3296,-98.54,48.48,-67.13
371,39271662,0.7407,0.1709,0.3335,-101.40,49.76,-68.78
372,39276662,0.7471,0.1748,0.3369,-103.96,51.10,-70.55
373,39281662,0.7461,0.1841,0.3384,-106.16,52.44,-72.74
374,39286662,0.7422,0.1860,0.3521,-107.87,53.78,-74.76
375,39291662,0.7437,0.1846,0.3501,-108.96,55.37,-77.01
376,39296662,0.7388,0.2021,0.3433,-109.21,57.07,-79.39
377,39301662,0.7402,0.2124,0.3423,-108.72,59.15,-81.89
378,39306662,0.7798,0.2144,0.3457,-107.26,60.73,-84.39
379,39311662,0.8032,0.2441,0.3271,-105.43,62.93,-87.01
380,39316662,0.8472,0.3071,0.3359,-103.41,64.57,-89.82
381,39321662,0.8408,0.3164,0.3589,-101.83,66.40,-92.87
382,39326662,0.7798,0.2852,0.3818,-100.61,67.93,-95.85
383,39331662,0.7314,0.2500,0.3789,-99.45,69.27,-98.54
384,39336662,0.6929,0.2373,0.3940,-98.60,70.18,-101.16
385,39341662,0.7046,0.2607,0.4941,-98.29,70.91,-103.72
386,39346662,0.7056,0.2534,0.4160,-99.02,72.07,-106.28
387,39351662,0.7139,0.2461,0.3491,-99.57,72.07,-108.48
388,39356662,0.7095,0.2666,0.3462,-99.70,71.77,-110.24
389,39361662,0.6943,0.3032,0.3535,-99.21,71.40,-112.13
390,39366662,0.6719,0.3213,0.3408,-98.35,71.28,-113.84
391,39371662,0.6509,0.3276,0.3198,-96.59,71.22,-115.67
392,39376662,0.6289,0.3301,0.3320,-94.09,71.71,-117.26
393,39381662,0.6050,0.3394,0.3467,-90.85,72.38,-118.72
394,39387366,0.6157,0.3330,0.3838,-85.98,73.60,-120.30
395,39391666,0.6240,0.3618,0.3818,-82.68,74.70,-121.34
396,39396663,0.6260,0.3779,0.4126,-78.17,76.28,-122.74
397,39401662,0.6440,0.3853,0.4399,-74.21,77.87,-124.15
398,39406662,0.6274,0.4072,0.4487,-70.79,79.45,-125.91
399,39411962,0.6118,0.4326,0.4609,-67.56,81.52,-128.17
400,39416664,0.5996,0.4258,0.4561,-65.91,82.80,-129.88
401,39421663,0.5889,0.4351,0.4458,-64.76,84.45,-132.01
402,39426662,0.5776,0.4448,0.4443,-64.33,84.33,-134.27
403,39431664,0.5674,0.4634,0.4463,-64.51,85.43,-136.46
404,39436665,0.5620,0.4756,0.4312,-65.24,85.73,-138.54
405,39441662,0.5522,0.4829,0.4243,-66.22,85.73,-140.61
406,39446664,0.5537,0.4863,0.4175,-67.56,85.73,-142.26
407,39451665,0.5503,0.4946,0.4214,-69.09,85.79,-144.21
408,39456664,0.5488,0.5015,0.4268,-70.30,87.56,-145.98
409,39461662,0.5566,0.5088,0.4409,-71.40,88.72,-147.87
410,39466662,0.5610,0.5176,0.4565,-72.20,89.39,-149.57
411,39471662,0.5684,0.5264,0.4731,-72.62,90.79,-151.22
412,39476662,0.5679,0.5293,0.4736,-72.99,92.01,-152.93
413,39481662,0.5728,0.5425,0.4800,-73.48,93.29,-154.39
414,39486662,0.5625,0.5474,0.4854,-73.84,94.33,-156.04
415,39491662,0.5527,0.5635,0.4878,-74.82,95.37,-157.68
416,39496662,0.5356,0.5674,0.4819,-76.16,96.34,-159.33
417,39501662,0.5200,0.5659,0.4780,-77.87,97.26,-160.85
418,39506662,0.5054,0.5688,0.4800,-79.94,97.74,-162.38
419,39511662,0.4854,0.5718,0.4771,-82.32,98.29,-163.84
420,39516662,0.4663,0.5718,0.4688,-84.82,98.72,-165.00
421,39521662,0.4473,0.5781,0.4780,-87.32,99.09,-166.34
422,39526662,0.4219,0.5786,0.4707,-89.88,99.51,-167.44
423,39531729,0.3975,0.5786,0.4663,-92.20,99.63,-168.48
424,39536664,0.3794,0.5786,0.4707,-93.78,99.94,-169.33
425,39541662,0.3818,0.6025,0.4897,-95.06,100.30,-170.37
426,39546662,0.4048,0.6367,0.5103,-95.67,101.04,-171.77
427,39551662,0.4448,0.6626,0.5210,-95.98,101.89,-173.48
428,39557083,0.4863,0.6792,0.5254,-95.73,103.23,-176.04
429,39561665,0.4995,0.6851,0.5220,-95.43,104.09,-177.80
430,39566666,0.5000,0.6987,0.5195,-94.51,104.82,-180.06
431,39571753,0.4785,0.6982,0.5151,-93.11,105.55,-182.26
432,39576665,0.4609,0.6982,0.5181,-91.22,106.34,-184.27
433,39581664,0.4370,0.6973,0.5317,-88.48,106.95,-186.16
434,39586664,0.4146,0.6958,0.5381,-85.24,107.68,-187.87
435,39591974,0.3994,0.6963,0.5498,-81.52,108.41,-189.39
436,39596664,0.3784,0.6968,0.5586,-77.50,109.21,-190.73
437,39601987,0.3569,0.7017,0.5698,-73.48,109.88,-191.89
438,39606664,0.3359,0.7007,0.5679,-69.57,110.37,-192.80
439,39611664,0.3037,0.7046,0.5669,-65.67,110.79,-193.60
440,39616666,0.2773,0.7026,0.5645,-62.13,110.98,-194.15
441,39621664,0.2505,0.7085,0.5688,-58.60,110.98,-194.88
442,39626664,0.2383,0.7100,0.5830,-55.24,110.98,-195.49
443,39631662,0.2314,0.7178,0.5972,-52.20,111.04,-196.22
444,39636662,0.2388,0.7388,0.6104,-49.51,111.40,-196.95
445,39641662,0.2593,0.7583,0.6211,-46.83,111.77,-198.11
446,39646662,0.2856,0.7734,0.6416,-44.51,112.26,-199.51
447,39651662,0.3101,0.7793,0.6494,-42.44,112.87,-200.98
448,39656662,0.3154,0.7827,0.6484,-40.49,113.17,-202.44
449,39661662,0.3091,0.7988,0.6602,-38.72,113.35,-203.78
450,39666662,0.3115,0.8228,0.6865,-37.20,113.54,-205.18
451,39671662,0.3301,0.8413,0.7021,-35.49,113.60,-206.46
452,39676662,0.3540,0.8545,0.7173,-33.90,113.66,-208.05
453,39681662,0.3667,0.8633,0.7266,-32.26,113.72,-209.51
454,39686662,0.3706,0.8633,0.7290,-30.00,113.23,-210.79
455,39691662,0.3530,0.8652,0.7363,-27.20,112.80,-211.71
456,39696662,0.3320,0.8687,0.7480,-23.72,112.01,-212.56
457,39701664,0.2988,0.8652,0.7568,-19.51,111.04,-213.05
458,39706664,0.2612,0.8628,0.7671,-14.45,109.82,-213.23
459,39711663,0.2280,0.8662,0.7803,-8.54,108.35,-213.29
460,39716662,0.1938,0.8594,0.7905,-1.83,107.07,-213.17
461,39721662,0.1606,0.8525,0.7954,5.18,105.49,-212.80
462,39726662,0.1357,0.8452,0.8018,12.68,104.02,-212.13
463,39731662,0.1055,0.8438,0.8081,20.49,102.38,-211.59
464,39736664,0.0767,0.8345,0.8032,28.11,100.67,-210.98
465,39741664,0.0435,0.8252,0.8027,35.91,99.09,-210.24
466,39746662,0.0244,0.8325,0.8125,43.41,97.32,-209.63
467,39751662,0.0156,0.8394,0.8403,50.61,95.61,-209.27
468,39756662,0.0171,0.8447,0.8589,56.83,94.09,-208.96
469,39761697,0.0322,0.8569,0.8740,61.77,92.80,-208.90
470,39766662,0.0454,0.8667,0.8755,65.06,91.28,-208.90
471,39771662,0.0518,0.8740,0.8672,66.77,89.57,-209.21
472,39776662,0.0547,0.8774,0.8608,66.46,88.11,-209.63
473,39781662,0.0493,0.8853,0.8613,64.76,85.49,-210.43
474,39786662,0.0361,0.8823,0.8530,61.71,84.88,-211.22
475,39791662,0.0190,0.8716,0.8452,58.05,81.83,-212.01
476,39796662,-0.0010,0.8618,0.8374,54.15,79.51,-212.87
477,39801662,-0.0269,0.8521,0.8330,50.55,77.38,-213.60
478,39806662,-0.0435,0.8315,0.8262,47.74,75.67,-214.21
479,39811662,-0.0679,0.8149,0.8145,45.98,74.39,-215.06
480,39816662,-0.0898,0.8042,0.8120,45.61,73.23,-216.04
481,39821662,-0.1152,0.7896,0.8130,46.46,72.62,-217.13
482,39826662,-0.1401,0.7793,0.8032,48.84,72.44,-218.41
483,39831662,-0.1597,0.7686,0.7949,52.44,72.44,-219.76
484,39836662,-0.1870,0.7485,0.7769,56.83,72.80,-221.22
485,39841662,-0.2168,0.7568,0.7798,62.20,73.17,-222.93
486,39846662,-0.2437,0.7656,0.7969,68.23,73.84,-224.82
487,39851662,-0.2676,0.7568,0.8081,74.33,74.57,-226.77
488,39856662,-0.2988,0.7383,0.8062,80.37,75.18,-228.35
489,39861662,-0.3438,0.7485,0.8110,85.73,75.30,-229.57
490,39866662,-0.4072,0.7568,0.8096,89.82,75.06,-230.37
491,39871700,-0.4751,0.7651,0.7983,92.20,74.27,-231.04
492,39876664,-0.5425,0.7725,0.7856,92.74,72.50,-231.40
493,39881730,-0.5981,0.7837,0.7739,91.65,70.37,-231.65
494,39886662,-0.6357,0.8032,0.7710,89.09,67.99,-232.01
495,39891664,-0.6689,0.8057,0.7578,85.43,65.37,-232.44
496,39896664,-0.6963,0.8022,0.7505,81.16,62.87,-232.80
497,39901664,-0.7212,0.7979,0.7417,76.95,60.55,-233.11
498,39906664,-0.7344,0.7881,0.7334,72.87,58.23,-233.78
499,39911662,-0.7520,0.7793,0.7241,69.15,56.40,-234.33
500,39916664,-0.7661,0.7681,0.7095,66.16,54.94,-235.06
501,39921662,-0.8125,0.7646,0.7065,64.09,54.02,-236.16
502,39926662,-0.8457,0.7588,0.7056,62.62,53.17,-237.44
503,39931662,-0.8867,0.7593,0.6958,62.13,53.05,-239.02
504,39936662,-0.9092,0.7656,0.7070,62.26,53.05,-241.10
505,39941662,-0.9365,0.7827,0.7373,62.87,53.66,-243.35
506,39946662,-0.9746,0.7681,0.7520,63.60,54.45,-245.37
507,39951662,-1.0103,0.7383,0.7402,64.21,54.76,-246.52
508,39956662,-1.0649,0.7227,0.7402,64.51,54.45,-247.01
509,39961662,-1.1328,0.7271,0.7388,64.15,53.90,-246.89
510,39966662,-1.1938,0.7290,0.7251,62.74,52.93,-246.77
511,39971662,-1.2456,0.7173,0.7114,60.67,51.28,-246.10
512,39976662,-1.2812,0.7168,0.6963,58.05,49.45,-245.24
513,39981662,-1.3018,0.7188,0.6836,54.82,47.20,-244.51
514,39986662,-1.3262,0.7129,0.6641,51.34,44.70,-243.72
515,39991662,-1.3403,0.7070,0.6484,47.99,42.13,-243.17
516,39996662,-1.3457,0.7080,0.6406,45.06,39.51,-242.56
517,40001662,-1.3589,0.7002,0.6216,42.74,37.07,-242.26
518,40006662,-1.3662,0.6880,0.6099,41.10,34.57,-241.95
519,40011662,-1.3770,0.6777,0.5938,40.49,32.44,-242.01
520,40016662,-1.3877,0.6738,0.5869,40.91,30.37,-242.20
521,40021662,-1.3994,0.6665,0.5898,42.13,28.54,-242.50
522,40026662,-1.4092,0.6528,0.5781,44.33,26.77,-243.11
523,40031664,-1.4204,0.6436,0.5786,47.38,25.24,-243.66
524,40036662,-1.4204,0.6294,0.5757,51.34,23.90,-244.39
525,40041665,-1.3965,0.6074,0.5913,55.67,22.68,-244.76
526,40046662,-1.4028,0.5869,0.5889,60.73,21.34,-245.00
527,40051662,-1.4331,0.5605,0.5967,65.73,19.82,-244.76
528,40056662,-1.4458,0.5459,0.5991,70.49,17.99,-244.15
529,40061663,-1.4668,0.5332,0.6064,74.88,16.04,-243.05
530,40066664,-1.4956,0.5229,0.6104,78.90,13.90,-241.71
531,40071807,-1.5112,0.5073,0.6255,82.50,11.34,-239.94
532,40076664,-1.5142,0.4971,0.6191,85.61,8.48,-237.68
533,40081663,-1.5015,0.4829,0.6274,88.41,5.79,-235.00
534,40086662,-1.4658,0.4736,0.6440,91.16,2.56,-232.07
535,40091662,-1.4282,0.4629,0.6548,93.90,-0.37,-228.96
536,40096662,-1.4019,0.4531,0.6494,96.46,-3.78,-225.24
537,40101663,-1.3594,0.4448,0.6602,99.51,-6.95,-221.34
538,40106664,-1.3154,0.4287,0.6675,102.87,-10.12,-217.07
539,40111729,-1.2827,0.4214,0.6602,106.40,-13.60,-212.50
540,40116663,-1.2500,0.4189,0.6670,109.70,-16.10,-208.72
541,40121664,-1.2163,0.4116,0.6592,115.12,-20.12,-202.99
542,40126753,-1.1929,0.4082,0.6548,120.12,-23.35,-197.80
543,40131732,-1.1729,0.4043,0.6582,125.67,-26.59,-192.74
544,40136662,-1.1455,0.3979,0.6602,129.15,-28.90,-188.48
545,40141662,-1.1182,0.3945,0.6597,135.43,-31.95,-183.17
546,40147018,-1.0898,0.3896,0.6709,142.87,-35.06,-177.07
547,40151664,-1.0737,0.4009,0.6655,148.05,-36.89,-172.80
548,40156662,-1.0576,0.3936,0.6768,154.63,-39.33,-167.80
549,40161662,-1.0376,0.3862,0.6694,161.34,-41.10,-162.44
550,40166666,-1.0132,0.3623,0.6807,168.17,-42.87,-157.01
551,40171664,-1.0034,0.3555,0.6953,175.00,-44.21,-151.59
552,40176667,-1.0000,0.3545,0.7085,181.65,-45.30,-146.10
553,40181664,-1.0024,0.3340,0.7153,189.57,-46.28,-139.57
554,40186663,-1.0059,0.3467,0.7158,194.76,-46.59,-135.18
555,40191662,-1.0137,0.3325,0.7114,201.04,-47.13,-129.70
556,40196666,-1.0210,0.3213,0.7349,207.13,-47.20,-124.27
557,40201665,-1.0112,0.3047,0.7207,213.05,-47.07,-118.66
558,40206664,-1.0098,0.2827,0.7134,219.09,-47.01,-112.93
559,40211664,-1.0020,0.2725,0.7153,225.06,-46.71,-107.20
560,40216664,-0.9990,0.2700,0.7007,230.55,-46.46,-101.52
561,40221662,-0.9844,0.2793,0.6748,235.67,-46.34,-95.85
562,40226662,-0.9692,0.2964,0.6733,240.37,-45.98,-90.43
563,40231664,-0.9487,0.2861,0.6650,244.27,-45.91,-84.88
564,40236663,-0.9277,0.2871,0.6372,247.38,-45.79,-79.70
565,40241662,-0.9087,0.2881,0.6240,249.82,-45.55,-74.45
566,40246663,-0.8892,0.2876,0.6226,251.16,-45.55,-69.51
567,40251662,-0.8706,0.2886,0.6147,251.89,-45.24,-64.76
568,40256664,-0.8506,0.2905,0.5942,251.83,-44.94,-60.18
569,40261662,-0.8340,0.2900,0.5918,251.10,-44.33,-55.67
570,40266662,-0.8291,0.2900,0.5938,249.88,-43.72,-51.40
571,40271663,-0.8262,0.2837,0.5874,247.93,-42.80,-47.32
572,40276662,-0.8237,0.2749,0.5840,245.79,-41.89,-43.29
573,40281662,-0.8247,0.2676,0.5923,242.87,-40.49,-39.45
574,40286662,-0.8203,0.2671,0.5879,239.76,-38.96,-35.73
575,40291662,-0.8228,0.2622,0.5820,236.04,-37.38,-32.32
576,40296662,-0.8213,0.2637,0.5752,231.65,-35.61,-29.09
577,40301663,-0.8145,0.2651,0.5684,226.89,-33.84,-26.22
578,40306662,-0.8145,0.2666,0.5581,221.10,-32.26,-23.48
579,40311665,-0.8213,0.2720,0.5513,214.82,-30.61,-21.10
580,40316716,-0.8203,0.2783,0.5376,207.80,-29.21,-19.02
581,40321664,-0.8237,0.2788,0.5317,200.49,-27.87,-17.20
582,40326753,-0.8242,0.2808,0.5254,192.62,-26.34,-15.49
583,40331664,-0.8247,0.2827,0.5195,184.45,-25.12,-14.02
584,40336662,-0.8271,0.2881,0.5171,176.16,-23.78,-12.74
585,40341665,-0.8257,0.2847,0.5088,167.62,-22.87,-11.59
586,40346664,-0.8188,0.2856,0.5107,159.21,-21.52,-10.55
587,40351663,-0.8271,0.2852,0.5146,150.85,-20.43,-9.45
588,40356662,-0.8228,0.2754,0.5166,142.44,-19.27,-8.54
589,40361665,-0.8330,0.2803,0.5195,134.45,-17.87,-7.56
590,40366664,-0.8467,0.2808,0.5181,126.59,-16.71,-6.71
591,40371664,-0.8457,0.2720,0.5117,117.93,-15.37,-5.67
592,40376662,-0.8438,0.2710,0.5103,109.63,-14.09,-4.82
593,40381664,-0.8403,0.2710,0.5088,101.40,-13.17,-3.90
594,40386752,-0.8369,0.2666,0.5049,93.23,-11.71,-2.87
595,40391662,-0.8311,0.2705,0.5034,85.18,-10.67,-1.95
596,40396707,-0.8340,0.2695,0.5098,76.95,-9.63,-1.10
597,40401844,-0.8477,0.2754,0.5088,68.84,-8.48,-0.30
598,40406695,-0.8530,0.2769,0.5044,60.73,-7.50,0.55
599,40411666,-0.8594,0.2754,0.4985,53.05,-6.52,1.40
600,40417068,-0.8594,0.2759,0.4971,43.96,-5.61,2.38
601,40421664,-0.8579,0.2739,0.4995,37.93,-4.94,3.05
602,40426662,-0.8589,0.2808,0.5049,31.04,-4.39,3.96
603,40431665,-0.8599,0.2754,0.5078,24.51,-3.41,4.88
604,40436662,-0.8535,0.2778,0.5015,18.48,-2.80,5.73
605,40441698,-0.8560,0.2783,0.5044,12.87,-2.01,6.83
606,40446662,-0.8550,0.2822,0.5088,7.62,-1.10,7.68
607,40451662,-0.8530,0.2754,0.5142,2.80,-0.30,8.78
608,40456662,-0.8506,0.2817,0.5127,-1.59,0.55,9.76
609,40461662,-0.8374,0.2773,0.5166,-5.79,1.40,10.79
610,40466662,-0.8296,0.2739,0.5229,-9.51,2.20,11.89
611,40472435,-0.8530,0.2661,0.5210,-13.66,3.17,13.35
612,40476701,-0.8574,0.2671,0.5239,-16.34,3.72,14.33
613,40481663,-0.8604,0.2700,0.5273,-19.45,4.57,15.49
614,40486665,-0.8521,0.2710,0.5283,-22.38,5.30,16.59
615,40491662,-0.8438,0.2686,0.5259,-25.00,6.04,17.68
616,40496664,-0.8384,0.2661,0.5273,-27.62,6.77,18.96
617,40501665,-0.8408,0.2627,0.5303,-29.82,7.38,20.06
618,40506664,-0.8359,0.2651,0.5317,-31.89,7.99,21.16
619,40511664,-0.8403,0.2676,0.5293,-33.90,8.60,22.07
620,40516662,-0.8374,0.2671,0.5283,-35.79,9.15,23.05
621,40521665,-0.8311,0.2661,0.5283,-37.44,9.51,23.90
622,40526672,-0.8257,0.2651,0.5269,-38.84,9.88,24.82
623,40531664,-0.8193,0.2651,0.5356,-39.94,10.43,25.61
624,40536668,-0.8179,0.2627,0.5322,-40.79,10.73,26.40
625,40541664,-0.8306,0.2612,0.5381,-41.28,11.34,27.13
626,40546670,-0.8315,0.2622,0.5410,-41.59,11.77,27.99
627,40551663,-0.8257,0.2568,0.5435,-41.52,12.26,28.78
628,40557139,-0.8271,0.2505,0.5454,-40.98,12.80,29.57
629,40561665,-0.8262,0.2476,0.5518,-40.30,13.41,30.43
630,40566666,-0.8242,0.2427,0.5503,-39.21,14.09,31.22
631,40571662,-0.8247,0.2393,0.5557,-38.05,14.76,32.13
632,40576665,-0.8262,0.2378,0.5547,-36.71,15.37,33.11
633,40581666,-0.8311,0.2324,0.5610,-35.30,16.10,34.02
634,40586662,-0.8452,0.2280,0.5698,-34.02,16.77,34.88
635,40591666,-0.8516,0.2246,0.5703,-32.80,17.50,35.79
636,40596664,-0.8525,0.2246,0.5684,-31.59,18.29,36.59
637,40601663,-0.8525,0.2241,0.5664,-30.67,19.02,37.44
638,40606759,-0.8506,0.2212,0.5688,-29.88,19.57,38.11
639,40611663,-0.8472,0.2202,0.5703,-29.33,20.24,38.84
640,40616665,-0.8413,0.2163,0.5747,-28.90,20.98,39.57
641,40621666,-0.8428,0.2158,0.5728,-28.90,21.71,40.12
642,40626705,-0.8408,0.2173,0.5723,-29.21,22.13,40.55
643,40631662,-0.8433,0.2139,0.5742,-29.51,22.74,41.04
644,40636664,-0.8545,0.2114,0.5801,-30.06,23.29,41.40
645,40641666,-0.8608,0.2139,0.5732,-30.61,24.02,41.77
646,40646663,-0.8652,0.2119,0.5752,-31.40,24.45,42.07
647,40651664,-0.8608,0.2056,0.5737,-32.07,24.94,42.38
648,40657335,-0.8540,0.2041,0.5859,-32.87,25.49,42.74
649,40661664,-0.8560,0.2031,0.5894,-33.41,26.04,42.87
650,40666663,-0.8477,0.2007,0.5884,-33.90,26.65,43.05
651,40671668,-0.8511,0.2002,0.5869,-34.51,27.20,43.29
652,40676665,-0.8535,0.1963,0.5928,-35.06,27.80,43.35
653,40681662,-0.8540,0.1953,0.5952,-35.67,28.41,43.41
654,40686881,-0.8477,0.1914,0.5923,-36.46,29.02,43.48
655,40691665,-0.8486,0.1948,0.5977,-37.01,29.57,43.41
656,40696662,-0.8447,0.1934,0.6006,-37.74,30.12,43.41
657,40701663,-0.8408,0.1978,0.5942,-38.66,30.55,43.17
658,40706666,-0.8384,0.2031,0.5913,-39.63,30.85,43.05
659,40711664,-0.8438,0.2002,0.5918,-40.73,31.28,42.74
660,40716824,-0.8418,0.1953,0.5908,-42.07,31.59,42.56
661,40721663,-0.8418,0.1924,0.5996,-43.35,31.83,42.38
662,40726662,-0.8491,0.1890,0.6001,-44.57,32.26,42.07
663,40731666,-0.8477,0.1831,0.5889,-46.16,32.26,41.89
664,40736725,-0.8438,0.1855,0.5928,-47.56,32.44,41.59
665,40741662,-0.8423,0.1870,0.5913,-49.09,32.56,41.40
666,40746662,-0.8472,0.1836,0.5986,-50.43,32.74,41.10
667,40751662,-0.8516,0.1846,0.6016,-51.71,32.56,40.79
668,40756662,-0.8511,0.1831,0.6055,-52.99,32.74,40.49
669,40761826,-0.8530,0.1836,0.6069,-53.96,32.68,40.12
670,40766665,-0.8560,0.1802,0.6025,-54.76,32.56,39.82
671,40771721,-0.8555,0.1816,0.6045,-55.37,32.68,39.51
672,40776665,-0.8599,0.1855,0.5996,-55.79,32.38,39.02
673,40781665,-0.8589,0.1807,0.6108,-56.28,32.38,38.78
674,40786734,-0.8633,0.1821,0.6021,-56.40,32.13,38.35
675,40791665,-0.8647,0.1812,0.6069,-56.59,32.13,37.87
676,40796664,-0.8608,0.1802,0.6011,-56.59,31.95,37.44
677,40801663,-0.8584,0.1816,0.6045,-56.77,31.77,36.83
678,40806663,-0.8594,0.1807,0.6069,-56.59,31.40,36.40
679,40811662,-0.8564,0.1812,0.6104,-56.40,31.10,35.79
680,40816665,-0.8530,0.1792,0.6113,-56.40,30.67,35.24
681,40821664,-0.8633,0.1802,0.6099,-56.22,30.18,34.63
682,40826835,-0.8599,0.1807,0.6099,-56.04,29.82,34.09
683,40831663,-0.8667,0.1802,0.6133,-55.91,29.45,33.48
684,40836664,-0.8643,0.1807,0.6113,-55.49,29.02,32.87
685,40841665,-0.8730,0.1792,0.6152,-55.18,28.60,32.44
686,40846664,-0.8740,0.1782,0.6167,-54.70,28.23,31.83
687,40851838,-0.8848,0.1748,0.6133,-53.96,27.80,31.22
688,40856664,-0.8784,0.1758,0.6133,-52.99,27.26,30.79
689,40861666,-0.8794,0.1714,0.6123,-52.01,26.83,30.37
690,40866664,-0.8770,0.1646,0.6123,-50.79,26.22,30.00
691,40871666,-0.8789,0.1704,0.6084,-49.51,25.73,29.63
692,40876714,-0.8760,0.1650,0.6099,-47.87,25.30,29.27
693,40881665,-0.8789,0.1626,0.6060,-46.16,24.70,28.90
694,40886768,-0.8740,0.1646,0.6138,-44.45,24.33,28.66
695,40891662,-0.8701,0.1606,0.6064,-42.62,23.72,28.23
696,40896667,-0.8721,0.1626,0.6016,-40.85,23.35,27.80
697,40901663,-0.8687,0.1665,0.6089,-39.45,22.87,27.50
698,40906934,-0.8657,0.1621,0.6045,-37.62,22.26,26.95
699,40911663,-0.8657,0.1597,0.6064,-36.40,21.71,26.65
700,40916662,-0.8647,0.1611,0.6045,-35.06,21.22,26.16
701,40921662,-0.8584,0.1592,0.6006,-33.90,20.79,25.61
702,40926666,-0.8643,0.1606,0.6035,-32.68,20.18,24.94
703,40931666,-0.8647,0.1621,0.5996,-31.83,19.76,24.51
704,40936662,-0.8613,0.1597,0.6011,-31.46,19.39,24.09
705,40941668,-0.8657,0.1616,0.6064,-31.04,18.96,23.41
706,40946663,-0.8672,0.1616,0.6035,-30.73,18.66,22.93
707,40951662,-0.8716,0.1621,0.6001,-30.37,18.29,22.32
708,40956662,-0.8662,0.1621,0.5977,-30.30,17.93,21.71
709,40961662,-0.8628,0.1655,0.5908,-30.12,17.50,21.10
710,40966662,-0.8633,0.1641,0.5967,-30.30,17.07,20.49
711,40971662,-0.8613,0.1665,0.5913,-30.24,16.83,19.70
712,40976662,-0.8574,0.1714,0.5933,-30.37,16.46,19.09
713,40981663,-0.8589,0.1699,0.5845,-30.61,15.98,18.48
714,40986704,-0.8618,0.1719,0.5908,-31.10,15.61,17.74
715,40991666,-0.8599,0.1724,0.5864,-31.46,15.30,17.07
716,40996662,-0.8579,0.1650,0.5898,-32.20,14.88,16.16
717,41001663,-0.8594,0.1660,0.5898,-32.74,14.57,15.67
718,41006667,-0.8618,0.1636,0.5864,-33.60,14.21,15.06
719,41011662,-0.8628,0.1646,0.5879,-34.33,13.90,14.45
720,41016666,-0.8657,0.1587,0.5894,-35.00,13.66,13.90
721,41021662,-0.8677,0.1597,0.5898,-35.73,13.41,13.29
722,41026666,-0.8677,0.1528,0.5923,-36.59,13.35,12.93
723,41031664,-0.8696,0.1553,0.5908,-37.44,13.11,12.44
724,41036740,-0.8677,0.1597,0.5972,-38.35,12.80,12.01
725,41041662,-0.8662,0.1587,0.5879,-39.21,12.93,11.52
726,41046662,-0.8623,0.1611,0.5884,-40.06,12.68,10.98
727,41051662,-0.8667,0.1626,0.5859,-40.79,12.50,10.61
728,41056662,-0.8691,0.1621,0.5874,-41.52,12.20,10.06
729,41062035,-0.8667,0.1650,0.5825,-42.50,12.13,9.57
730,41066665,-0.8647,0.1660,0.5786,-43.05,11.95,9.15
731,41071662,-0.8716,0.1626,0.5850,-43.72,11.89,8.66
732,41076666,-0.8687,0.1631,0.5820,-44.45,11.59,8.17
733,41082116,-0.8721,0.1655,0.5762,-45.37,11.40,7.62
734,41086664,-0.8726,0.1675,0.5771,-46.04,11.22,7.20
735,41091662,-0.8765,0.1689,0.5815,-47.07,11.04,6.77
736,41096662,-0.8755,0.1655,0.5781,-47.93,10.98,6.28
737,41101665,-0.8711,0.1636,0.5845,-49.09,10.91,5.79
738,41106663,-0.8687,0.1646,0.5801,-50.43,10.85,5.37
739,41111666,-0.8740,0.1587,0.5806,-51.65,10.79,4.88
740,41116662,-0.8735,0.1558,0.5830,-53.29,10.73,4.70
741,41122091,-0.8735,0.1592,0.5771,-55.55,10.67,4.21
742,41126665,-0.8721,0.1582,0.5771,-57.13,10.55,3.90
743,41131662,-0.8809,0.1582,0.5762,-59.45,10.67,3.78
744,41136666,-0.8779,0.1538,0.5771,-61.95,10.67,3.41
745,41141805,-0.8730,0.1543,0.5757,-64.82,10.79,3.17
746,41146717,-0.8716,0.1587,0.5781,-67.80,10.98,2.80
747,41151664,-0.8672,0.1567,0.5796,-70.98,11.04,2.68
748,41156665,-0.8672,0.1548,0.5679,-74.15,11.16,2.38
749,41161664,-0.8667,0.1523,0.5684,-77.38,11.04,2.26
750,41166665,-0.8628,0.1504,0.5708,-80.98,11.10,2.01
751,41171663,-0.8604,0.1479,0.5635,-83.48,11.22,1.89
752,41176663,-0.8623,0.1494,0.5708,-86.10,11.34,1.89
753,41181667,-0.8618,0.1499,0.5732,-88.90,11.34,1.95
754,41186662,-0.8672,0.1523,0.5645,-91.46,11.40,1.89
755,41191664,-0.8667,0.1514,0.5605,-93.84,11.52,1.89
756,41196663,-0.8774,0.1548,0.5674,-96.04,11.59,1.89
757,41201745,-0.8804,0.1514,0.5605,-98.05,11.65,2.01
758,41206665,-0.8828,0.1523,0.5601,-99.70,11.59,2.20
759,41211663,-0.8823,0.1543,0.5679,-101.16,11.59,2.32
760,41216662,-0.8828,0.1548,0.5605,-102.26,11.71,2.50
761,41221671,-0.8853,0.1519,0.5615,-103.17,11.77,2.74
762,41226662,-0.8867,0.1509,0.5596,-103.78,12.07,2.93
763,41231663,-0.8901,0.1533,0.5630,-104.33,11.95,3.35
764,41236662,-0.8936,0.1523,0.5610,-104.33,12.20,3.66
765,41241662,-0.8940,0.1514,0.5645,-104.21,12.26,4.02
766,41246662,-0.8911,0.1465,0.5649,-104.02,12.44,4.27
767,41251662,-0.8877,0.1514,0.5610,-103.54,12.56,4.76
768,41256705,-0.8887,0.1494,0.5601,-102.99,12.56,5.18
769,41261665,-0.8926,0.1455,0.5562,-102.20,12.80,5.55
770,41266664,-0.8906,0.1455,0.5537,-101.28,12.74,5.98
771,41271665,-0.8906,0.1499,0.5552,-100.18,12.93,6.28
772,41276666,-0.8872,0.1548,0.5576,-99.27,12.99,6.71
773,41281662,-0.8818,0.1514,0.5508,-97.99,12.99,7.01
774,41287011,-0.8789,0.1533,0.5498,-96.59,13.23,7.32
775,41291665,-0.8760,0.1509,0.5493,-95.06,13.23,7.62
776,41296664,-0.8745,0.1499,0.5483,-93.29,13.29,8.05
777,41301665,-0.8755,0.1519,0.5415,-91.46,13.11,8.41
778,41306667,-0.8823,0.1465,0.5435,-89.33,13.17,8.72
779,41311662,-0.8809,0.1494,0.5513,-87.26,13.23,9.02
780,41316662,-0.8892,0.1465,0.5439,-84.76,13.23,9.51
781,41321662,-0.8906,0.1426,0.5479,-82.44,13.35,9.88
782,41326662,-0.8940,0.1436,0.5449,-79.94,13.41,10.12
783,41331670,-0.8921,0.1416,0.5498,-77.62,13.54,10.55
784,41336662,-0.8960,0.1431,0.5488,-75.30,13.54,10.85
785,41341666,-0.9033,0.1445,0.5508,-73.11,13.66,11.10
786,41346662,-0.9048,0.1475,0.5503,-71.04,13.90,11.46
787,41351662,-0.9165,0.1489,0.5532,-69.15,14.21,11.71
788,41356665,-0.9160,0.1484,0.5522,-67.62,14.33,11.89
789,41361927,-0.9194,0.1514,0.5605,-66.22,14.76,11.95
790,41366665,-0.9243,0.1465,0.5547,-64.76,15.12,12.32
791,41371774,-0.9282,0.1465,0.5605,-63.84,15.37,12.44
792,41376666,-0.9326,0.1494,0.5522,-63.11,15.79,12.56
793,41381666,-0.9321,0.1416,0.5542,-62.20,16.16,12.74
794,41386666,-0.9316,0.1440,0.5562,-61.71,16.59,13.05
795,41391662,-0.9346,0.1426,0.5581,-61.28,17.01,13.23
796,41396665,-0.9365,0.1401,0.5645,-61.04,17.44,13.54
797,41401662,-0.9307,0.1362,0.5537,-61.04,17.99,13.78
798,41406665,-0.9277,0.1411,0.5630,-61.04,18.35,14.15
799,41411663,-0.9189,0.1357,0.5664,-61.22,18.90,14.51
800,41416681,-0.9146,0.1357,0.5649,-61.71,19.39,15.00
801,41421666,-0.9175,0.1299,0.5664,-62.01,19.82,15.43
802,41426662,-0.9131,0.1289,0.5620,-62.50,20.12,16.04
803,41431662,-0.9116,0.1274,0.5693,-62.87,20.37,16.65
804,41436665,-0.9141,0.1206,0.5630,-63.05,20.91,17.38
805,41441662,-0.9102,0.1177,0.5640,-63.17,20.98,18.17
806,41446664,-0.9058,0.1113,0.5688,-63.35,21.28,19.09
807,41451663,-0.8975,0.1045,0.5693,-63.17,21.40,20.12
808,41456664,-0.8960,0.1035,0.5620,-63.29,21.59,21.16
809,41461665,-0.8833,0.0957,0.5688,-63.17,21.77,22.01
810,41466663,-0.8672,0.0967,0.5664,-63.11,21.95,23.05
811,41471665,-0.8560,0.0928,0.5659,-62.74,22.20,24.02
812,41476987,-0.8428,0.0889,0.5630,-62.56,22.32,25.00
813,41481664,-0.8237,0.0874,0.5576,-62.32,22.50,25.91
814,41486662,-0.8110,0.0850,0.5596,-62.13,22.62,26.77
815,41491664,-0.7974,0.0864,0.5581,-62.13,22.93,27.74
816,41496663,-0.7881,0.0801,0.5562,-62.13,23.11,28.48
817,41501665,-0.7764,0.0742,0.5542,-62.38,23.29,29.27
818,41506662,-0.7764,0.0752,0.5532,-62.68,23.29,30.06
819,41511664,-0.7720,0.0752,0.5513,-63.17,23.35,30.73
820,41517155,-0.7734,0.0757,0.5425,-63.96,23.23,31.22
821,41521664,-0.7852,0.0767,0.5371,-64.88,23.35,31.71
822,41526662,-0.7979,0.0752,0.5366,-66.28,23.05,32.13
823,41531696,-0.8057,0.0776,0.5391,-67.87,22.80,32.32
824,41536664,-0.8184,0.0732,0.5405,-69.76,22.50,32.44
825,41541664,-0.8335,0.0830,0.5366,-71.83,22.13,32.56
826,41546664,-0.8496,0.0859,0.5342,-74.15,21.89,32.44
827,41551666,-0.8667,0.0889,0.5303,-76.77,21.52,32.13
828,41556662,-0.8916,0.0869,0.5337,-79.27,21.16,31.71
829,41561666,-0.9111,0.0903,0.5361,-82.26,20.98,31.28
830,41566665,-0.9248,0.0854,0.5312,-85.18,20.73,30.79
831,41571663,-0.9419,0.0918,0.5381,-88.17,20.55,30.00
832,41577039,-0.9600,0.0962,0.5337,-91.52,20.30,29.21
833,41581665,-0.9780,0.0986,0.5308,-94.57,20.12,28.29
834,41586663,-0.9893,0.1069,0.5322,-97.93,19.88,27.32
835,41591665,-1.0112,0.1167,0.5312,-101.22,19.70,25.91
836,41596664,-1.0249,0.1143,0.5308,-104.76,19.76,24.70
837,41601662,-1.0361,0.1133,0.5327,-108.35,19.39,23.23
838,41606664,-1.0439,0.1157,0.5278,-111.77,19.21,21.65
839,41611663,-1.0508,0.1211,0.5225,-115.24,18.96,20.06
840,41616664,-1.0488,0.1289,0.5195,-118.48,18.84,18.41
841,41621662,-1.0498,0.1255,0.5161,-121.28,18.60,16.71
842,41626929,-1.0537,0.1304,0.5068,-123.96,18.41,15.00
843,41631664,-1.0488,0.1328,0.5190,-126.22,18.29,13.29
844,41636662,-1.0391,0.1333,0.5127,-128.23,18.11,11.59
845,41641664,-1.0303,0.1313,0.5063,-129.94,18.11,9.82
846,41646664,-1.0088,0.1318,0.5010,-131.40,17.87,8.11
847,41651662,-0.9976,0.1304,0.5005,-132.44,17.87,6.52
848,41656664,-0.9805,0.1294,0.4976,-133.05,17.80,4.94
849,41661662,-0.9658,0.1299,0.4888,-133.29,17.74,3.35
850,41666664,-0.9541,0.1294,0.4863,-133.05,17.50,1.77
851,41671662,-0.9370,0.1260,0.4878,-132.38,17.44,0.37
852,41676662,-0.9238,0.1265,0.4824,-131.65,17.26,-0.98
853,41681665,-0.9155,0.1187,0.4800,-130.30,17.32,-2.26
854,41686662,-0.9053,0.1172,0.4731,-128.84,17.26,-3.35
855,41691666,-0.8965,0.1162,0.4727,-126.65,17.01,-4.21
856,41696664,-0.8833,0.1172,0.4751,-124.51,17.07,-5.18
857,41701666,-0.8789,0.1099,0.4751,-121.77,16.89,-5.85
858,41706665,-0.8765,0.1069,0.4741,-118.78,17.01,-6.40
859,41711664,-0.8745,0.1035,0.4702,-115.43,17.07,-6.89
860,41716664,-0.8770,0.0981,0.4731,-111.77,16.83,-7.26
861,41721973,-0.8809,0.0952,0.4658,-107.80,16.89,-7.38
862,41726665,-0.8774,0.0923,0.4609,-103.66,16.83,-7.44
863,41731664,-0.8833,0.0884,0.4604,-99.33,16.71,-7.50
864,41736664,-0.8823,0.0879,0.4663,-95.67,16.59,-7.32
865,41741662,-0.8867,0.0874,0.4683,-91.04,16.40,-7.13
866,41746664,-0.8774,0.0845,0.4629,-86.22,16.46,-6.77
867,41751664,-0.8730,0.0845,0.4663,-81.04,16.16,-6.59
868,41756664,-0.8711,0.0801,0.4624,-75.98,16.16,-6.10
869,41761662,-0.8687,0.0791,0.4722,-70.79,16.10,-5.67
870,41766662,-0.8691,0.0742,0.4692,-65.37,16.10,-5.18
871,41771662,-0.8726,0.0767,0.4741,-60.00,15.98,-4.51
872,41776662,-0.8818,0.0728,0.4761,-54.63,15.91,-3.90
873,41781662,-0.8892,0.0752,0.4756,-49.21,15.67,-3.41
874,41786662,-0.8931,0.0693,0.4736,-43.84,15.49,-2.68
875,41791662,-0.9053,0.0703,0.4697,-38.72,15.24,-2.13
876,41796662,-0.9131,0.0684,0.4766,-33.60,14.88,-1.52
877,41801662,-0.9180,0.0698,0.4697,-28.60,14.39,-1.04
878,41806662,-0.9282,0.0688,0.4712,-23.84,14.02,-0.43
879,41811662,-0.9253,0.0640,0.4795,-19.21,13.48,0.06
880,41816662,-0.9238,0.0620,0.4707,-14.63,13.11,0.43
881,41821662,-0.9194,0.0620,0.4736,-10.18,12.62,0.85
882,41826662,-0.9180,0.0610,0.4766,-6.10,11.95,1.28
883,41831662,-0.9155,0.0581,0.4712,-2.13,11.46,1.71
884,41836662,-0.9185,0.0566,0.4854,1.40,10.91,1.89
885,41841662,-0.9194,0.0542,0.4844,4.70,10.24,2.20
886,41846662,-0.9229,0.0557,0.4736,7.62,9.63,2.44
887,41851662,-0.9233,0.0527,0.4731,10.30,8.84,2.62
888,41856662,-0.9229,0.0493,0.4775,12.62,8.23,2.74
889,41861662,-0.9219,0.0513,0.4771,14.76,7.26,2.87
890,41866662,-0.9199,0.0532,0.4697,16.71,6.28,2.93
891,41871662,-0.9258,0.0547,0.4761,18.29,5.49,2.87
892,41876858,-0.9546,0.0571,0.4717,19.57,4.39,2.87
893,41881666,-0.9854,0.0576,0.4683,20.79,3.29,2.68
894,41887101,-1.0269,0.0640,0.4736,21.65,1.95,2.38
895,41891683,-1.0586,0.0669,0.4697,21.83,0.98,2.20
896,41897511,-1.0952,0.0674,0.4727,21.95,-0.67,1.83
897,41901666,-1.1118,0.0708,0.4624,21.65,-1.89,1.52
898,41906665,-1.1226,0.0747,0.4639,21.16,-3.41,1.04
899,41911664,-1.1182,0.0688,0.4546,20.61,-4.88,0.61
900,41916664,-1.1143,0.0737,0.4609,19.94,-6.40,0.24
901,41921663,-1.1226,0.0742,0.4546,19.45,-7.62,-0.24
902,41926794,-1.1333,0.0703,0.4517,18.90,-9.09,-0.73
903,41931662,-1.1353,0.0703,0.4487,18.29,-10.43,-1.10
904,41936662,-1.1465,0.0654,0.4429,17.74,-11.77,-1.46
905,41941662,-1.1553,0.0654,0.4321,17.32,-13.23,-1.77
906,41946662,-1.1567,0.0645,0.4390,17.01,-14.63,-2.13
907,41951662,-1.1592,0.0581,0.4331,16.95,-15.98,-2.32
908,41956662,-1.1602,0.0566,0.4312,16.83,-17.26,-2.38
909,41961662,-1.1562,0.0493,0.4238,17.20,-18.54,-2.32
910,41966662,-1.1440,0.0449,0.4248,17.56,-19.63,-2.38
911,41971668,-1.1304,0.0391,0.4243,18.35,-20.55,-2.26
912,41976668,-1.1006,0.0312,0.4253,19.63,-21.34,-1.89
913,41981685,-1.0752,0.0254,0.4209,21.22,-22.20,-1.40
914,41986662,-1.0361,0.0166,0.4214,23.17,-22.56,-0.98
915,41991662,-1.0083,0.0083,0.4180,25.30,-22.74,-0.30
916,41996662,-0.9741,0.0063,0.4229,27.56,-23.05,0.43
917,42001662,-0.9482,0.0015,0.4146,30.00,-22.93,1.10
918,42006662,-0.9253,-0.0049,0.4189,32.50,-22.87,2.01
919,42011662,-0.9019,-0.0078,0.4155,35.12,-22.80,2.99
920,42016662,-0.8828,-0.0151,0.4121,37.80,-22.56,4.02
921,42021662,-0.8584,-0.0156,0.4053,40.30,-22.13,5.06
922,42026662,-0.8369,-0.0234,0.4023,42.93,-21.77,6.16
923,42031662,-0.8228,-0.0332,0.4009,45.37,-21.28,7.32
924,42036662,-0.8120,-0.0415,0.3979,47.99,-20.85,8.66
925,42041662,-0.8008,-0.0439,0.3965,50.49,-20.55,10.00
926,42046662,-0.7891,-0.0498,0.3921,53.05,-20.12,11.46
927,42051662,-0.7812,-0.0542,0.3843,55.49,-19.88,13.05
928,42056662,-0.7705,-0.0566,0.3843,57.93,-19.51,14.63
929,42061662,-0.7681,-0.0557,0.3818,60.18,-19.33,16.16
930,42066662,-0.7607,-0.0547,0.3809,62.26,-18.90,17.68
931,42071662,-0.7559,-0.0547,0.3765,64.09,-18.66,19.15
932,42076662,-0.7515,-0.0625,0.3740,65.73,-18.48,20.73
933,42081662,-0.7573,-0.0586,0.3770,66.83,-18.41,22.26
934,42086662,-0.7617,-0.0581,0.3735,68.05,-18.17,23.60
935,42091664,-0.7739,-0.0581,0.3774,68.60,-18.05,25.00
936,42096664,-0.7920,-0.0566,0.3745,69.02,-18.05,26.28
937,42101666,-0.8208,-0.0552,0.3701,68.96,-18.17,27.50
938,42106721,-0.8496,-0.0518,0.3750,68.60,-18.17,28.72
939,42111666,-0.8755,-0.0503,0.3691,68.05,-18.41,29.94
940,42116663,-0.8955,-0.0527,0.3740,67.07,-18.48,31.16
941,42121667,-0.9150,-0.0562,0.3652,65.85,-18.78,32.26
942,42126665,-0.9360,-0.0552,0.3721,64.51,-18.96,33.41
943,42131705,-0.9497,-0.0518,0.3745,62.87,-19.21,34.51
944,42136663,-0.9653,-0.0547,0.3677,60.98,-19.57,35.73
945,42141662,-0.9731,-0.0576,0.3770,59.15,-19.63,36.71
946,42146662,-0.9839,-0.0586,0.3813,57.07,-19.63,37.87
947,42151662,-0.9922,-0.0605,0.3813,54.88,-19.57,38.84
948,42156662,-1.0083,-0.0615,0.3818,52.68,-19.33,39.88
949,42161662,-1.0112,-0.0625,0.3872,50.12,-19.09,40.73
950,42166662,-1.0049,-0.0669,0.3901,47.56,-18.96,41.65
951,42171663,-1.0059,-0.0649,0.4023,44.82,-18.29,42.44
952,42176662,-1.0122,-0.0586,0.3975,41.77,-17.62,43.11
953,42181662,-1.0029,-0.0542,0.3901,38.66,-17.20,43.66
954,42186662,-0.9956,-0.0547,0.4146,35.12,-16.34,44.27
955,42191662,-0.9956,-0.0459,0.4087,31.40,-15.30,44.63
956,42196662,-0.9834,-0.0459,0.4053,27.26,-14.39,44.70
957,42201662,-0.9683,-0.0444,0.4067,22.74,-13.66,44.70
958,42206662,-0.9482,-0.0420,0.4023,18.05,-12.62,44.57
959,42211662,-0.9263,-0.0415,0.4102,12.99,-11.71,44.45
960,42216662,-0.9131,-0.0449,0.3940,7.80,-10.67,44.21
961,42221662,-0.8989,-0.0503,0.4014,2.87,-9.94,44.02
962,42227014,-0.8926,-0.0586,0.3984,-1.95,-8.90,43.90
963,42231741,-0.8916,-0.0610,0.4048,-6.52,-8.05,43.66
964,42236662,-0.8960,-0.0635,0.4062,-10.98,-6.95,43.60
965,42241662,-0.8979,-0.0640,0.4160,-14.88,-5.85,43.41
966,42246738,-0.8955,-0.0718,0.4238,-18.78,-4.45,43.41
967,42251662,-0.8911,-0.0713,0.4312,-22.32,-3.05,43.29
968,42256662,-0.8857,-0.0742,0.4404,-25.73,-1.59,43.17
969,42261666,-0.8760,-0.0693,0.4380,-29.02,0.00,43.17
970,42266666,-0.8711,-0.0693,0.4458,-32.13,1.52,43.11
971,42271664,-0.8706,-0.0664,0.4463,-35.18,3.23,42.74
972,42276664,-0.8657,-0.0610,0.4478,-38.48,4.82,42.50
973,42281662,-0.8652,-0.0522,0.4429,-41.59,6.34,42.20
974,42286662,-0.8643,-0.0469,0.4453,-44.94,7.68,41.77
975,42291662,-0.8643,-0.0396,0.4458,-48.17,9.02,41.16
976,42296662,-0.8672,-0.0293,0.4473,-51.77,10.30,40.49
977,42301662,-0.8696,-0.0244,0.4414,-55.43,11.52,39.70
978,42306663,-0.8770,-0.0210,0.4458,-59.09,12.50,38.84
979,42311664,-0.8789,-0.0200,0.4390,-62.80,13.72,37.99
980,42316877,-0.8760,-0.0186,0.4453,-66.34,14.45,36.95
981,42321664,-0.8755,-0.0156,0.4365,-69.76,15.43,36.10
982,42326666,-0.8735,-0.0161,0.4282,-73.05,16.16,35.24
983,42331663,-0.8730,-0.0210,0.4341,-75.98,17.01,34.57
984,42336663,-0.8799,-0.0264,0.4375,-78.66,17.87,34.02
985,42341665,-0.8862,-0.0293,0.4438,-80.98,18.60,33.35
986,42346664,-0.8921,-0.0303,0.4492,-82.87,19.51,33.11
987,42351665,-0.8970,-0.0361,0.4526,-84.57,20.30,32.74
988,42356662,-0.9004,-0.0454,0.4609,-85.98,21.46,32.62
989,42361662,-0.9033,-0.0474,0.4609,-86.89,22.44,32.68
990,42366778,-0.9033,-0.0493,0.4658,-87.80,23.48,32.62
991,42371664,-0.9009,-0.0513,0.4648,-88.29,24.33,32.74
992,42376663,-0.8999,-0.0479,0.4653,-88.78,25.18,32.87
993,42381664,-0.8970,-0.0483,0.4570,-89.21,25.98,33.11
994,42386662,-0.9019,-0.0449,0.4541,-89.45,26.83,33.11
995,42391666,-0.9023,-0.0396,0.4556,-89.70,27.44,33.17
996,42396664,-0.9111,-0.0352,0.4502,-89.94,27.99,33.29
997,42401666,-0.9229,-0.0332,0.4492,-90.37,28.48,33.23
998,42406663,-0.9351,-0.0293,0.4473,-90.61,28.84,33.23
999,42411662,-0.9536,-0.0249,0.4473,-90.85,29.21,33.11
1000,42416664,-0.9722,-0.0234,0.4502,-91.28,29.51,33.11
1001,42421664,-0.9854,-0.0239,0.4526,-91.71,29.82,33.05
1002,42426664,-0.9990,-0.0220,0.4497,-91.89,30.18,32.93
1003,42431663,-1.0137,-0.0181,0.4536,-92.26,30.61,32.74
1004,42436663,-1.0259,-0.0127,0.4575,-92.56,31.04,32.62
1005,42441706,-1.0386,-0.0083,0.4604,-92.87,31.40,32.44
1006,42446665,-1.0430,-0.0117,0.4595,-93.05,31.83,32.26
1007,42451664,-1.0444,-0.0127,0.4619,-93.05,32.50,32.07
1008,42456663,-1.0400,-0.0132,0.4600,-93.11,32.93,32.13
1009,42461787,-1.0342,-0.0112,0.4585,-93.05,33.54,31.95
1010,42466665,-1.0298,-0.0063,0.4536,-92.80,33.96,31.71
1011,42471668,-1.0200,-0.0054,0.4556,-92.68,34.51,31.65
1012,42476664,-1.0127,-0.0063,0.4531,-92.56,34.82,31.52
1013,42481663,-1.0000,-0.0049,0.4448,-92.32,35.12,31.34
1014,42486667,-0.9902,-0.0044,0.4409,-92.01,35.37,31.04
1015,42491664,-0.9839,-0.0020,0.4355,-91.83,35.24,30.98
1016,42497146,-0.9775,0.0005,0.4253,-91.65,35.37,30.67
1017,42502184,-0.9780,0.0044,0.4214,-91.40,35.24,30.37
1018,42506664,-0.9780,0.0049,0.4136,-91.28,35.00,30.06
1019,42512333,-0.9746,0.0117,0.4180,-91.22,34.57,29.51
1020,42516664,-0.9707,0.0132,0.4175,-91.10,34.57,29.21
1021,42521664,-0.9639,0.0127,0.4126,-91.04,34.15,28.60
1022,42526664,-0.9585,0.0151,0.4116,-90.98,33.66,27.99
1023,42531663,-0.9580,0.0166,0.4048,-90.73,33.41,27.38
1024,42536663,-0.9541,0.0181,0.4092,-90.49,33.05,26.83
1025,42541662,-0.9580,0.0244,0.4126,-90.37,32.80,26.10
1026,42546662,-0.9644,0.0278,0.4121,-90.00,32.32,25.43
1027,42551662,-0.9697,0.0259,0.4087,-89.63,31.95,24.76
1028,42556662,-0.9736,0.0303,0.4111,-89.09,31.59,24.09
1029,42562230,-0.9795,0.0332,0.3975,-88.54,30.91,23.23
1030,42566665,-0.9834,0.0342,0.4019,-87.87,30.61,22.62
1031,42571663,-0.9824,0.0332,0.3965,-87.38,30.00,21.89
1032,42576662,-0.9819,0.0410,0.3950,-86.59,29.45,21.22
1033,42581662,-0.9810,0.0435,0.3936,-85.79,28.90,20.55
1034,42586662,-0.9688,0.0425,0.3906,-84.82,28.05,19.70
1035,42591993,-0.9731,0.0420,0.3804,-83.66,27.13,18.90
1036,42596665,-0.9658,0.0430,0.3784,-82.74,26.46,18.29
1037,42602095,-0.9678,0.0439,0.3711,-81.22,25.30,17.56
1038,42606664,-0.9702,0.0483,0.3677,-80.12,24.45,17.13
1039,42611665,-0.9717,0.0493,0.3662,-78.54,23.48,16.52
1040,42616663,-0.9741,0.0474,0.3608,-77.01,22.44,15.91
1041,42621662,-0.9780,0.0493,0.3623,-75.30,21.22,15.18
1042,42626664,-0.9785,0.0527,0.3628,-73.66,20.18,14.51
1043,42631665,-0.9863,0.0547,0.3628,-71.59,18.90,14.02
1044,42636664,-0.9834,0.0532,0.3550,-69.57,17.74,13.29
1045,42641664,-0.9858,0.0532,0.3540,-67.44,16.71,12.80
1046,42646664,-0.9854,0.0547,0.3550,-65.18,15.49,12.26
1047,42651709,-0.9858,0.0576,0.3555,-62.87,14.15,11.89
1048,42656664,-0.9814,0.0562,0.3550,-60.24,13.05,11.40
1049,42662012,-0.9839,0.0532,0.3394,-56.95,11.65,10.85
1050,42666664,-0.9707,0.0562,0.3394,-54.76,10.55,10.61
1051,42671956,-0.9644,0.0586,0.3330,-51.40,9.15,10.12
1052,42676664,-0.9614,0.0581,0.3350,-49.09,8.11,9.82
1053,42681817,-0.9663,0.0610,0.3398,-46.34,6.77,9.57
1054,42686664,-0.9678,0.0610,0.3364,-43.54,5.67,9.21
1055,42691664,-0.9653,0.0581,0.3315,-40.43,4.39,8.90
1056,42696982,-0.9653,0.0571,0.3286,-36.83,2.87,8.60
1057,42701665,-0.9658,0.0576,0.3315,-34.45,1.89,8.41
1058,42706665,-0.9673,0.0591,0.3325,-31.52,0.61,8.23
1059,42711665,-0.9658,0.0610,0.3311,-28.35,-0.61,7.99
1060,42716662,-0.9683,0.0596,0.3276,-25.55,-1.71,7.74
1061,42721776,-0.9722,0.0596,0.3276,-22.56,-2.87,7.62
1062,42726664,-0.9736,0.0610,0.3345,-19.76,-3.84,7.50
1063,42731663,-0.9731,0.0586,0.3271,-16.34,-5.24,7.44
1064,42736664,-0.9702,0.0620,0.3237,-13.96,-5.98,7.20
1065,42741664,-0.9614,0.0542,0.3315,-11.22,-6.95,7.01
1066,42746664,-0.9580,0.0552,0.3237,-8.35,-7.87,7.07
1067,42751664,-0.9570,0.0562,0.3271,-5.73,-8.78,7.01
1068,42756948,-0.9595,0.0552,0.3242,-3.05,-9.51,6.89
1069,42761664,-0.9600,0.0601,0.3223,-0.49,-10.30,6.65
1070,42766664,-0.9595,0.0601,0.3281,1.95,-11.04,6.65
1071,42771664,-0.9590,0.0649,0.3286,4.45,-11.65,6.52
1072,42776663,-0.9600,0.0684,0.3281,6.46,-12.32,6.34
1073,42782009,-0.9609,0.0635,0.3271,8.48,-12.87,6.10
1074,42786664,-0.9570,0.0649,0.3311,10.43,-13.35,5.85
1075,42792073,-0.9644,0.0635,0.3311,12.44,-13.78,5.67
1076,42796664,-0.9639,0.0659,0.3325,13.78,-14.09,5.37
1077,42801927,-0.9692,0.0698,0.3335,15.18,-14.27,5.06
1078,42806664,-0.9678,0.0693,0.3296,16.65,-14.57,4.88
1079,42811877,-0.9653,0.0718,0.3330,17.93,-14.76,4.57
1080,42816664,-0.9634,0.0728,0.3354,19.39,-14.88,4.21
1081,42821664,-0.9702,0.0737,0.3330,20.37,-14.94,3.78
1082,42826664,-0.9697,0.0732,0.3481,21.40,-14.88,3.66
1083,42831664,-0.9717,0.0718,0.3433,22.26,-14.70,3.23
1084,42836663,-0.9751,0.0767,0.3374,23.11,-14.57,2.93
1085,42841662,-0.9819,0.0752,0.3418,23.72,-14.27,2.50
1086,42846664,-0.9819,0.0767,0.3467,24.33,-14.21,2.20
1087,42851662,-0.9761,0.0781,0.3408,24.82,-13.90,1.77
1088,42856662,-0.9790,0.0757,0.3384,25.18,-13.60,1.34
1089,42861664,-0.9756,0.0781,0.3418,25.55,-13.29,1.10
1090,42866664,-0.9766,0.0776,0.3457,25.67,-12.99,0.67
1091,42871664,-0.9712,0.0757,0.3447,25.73,-12.44,0.43
1092,42876663,-0.9722,0.0767,0.3457,25.67,-12.20,0.00
1093,42881664,-0.9697,0.0767,0.3374,25.55,-11.65,-0.30
1094,42886665,-0.9678,0.0762,0.3442,25.30,-11.28,-0.61
1095,42891662,-0.9702,0.0747,0.3423,25.06,-10.79,-0.98
1096,42896666,-0.9722,0.0801,0.3403,24.70,-10.24,-1.16
1097,42901672,-0.9727,0.0767,0.3418,24.27,-9.76,-1.40
1098,42906886,-0.9722,0.0732,0.3428,23.84,-9.21,-1.65
1099,42911666,-0.9731,0.0767,0.3408,23.17,-8.84,-1.89
1100,42916663,-0.9722,0.0718,0.3413,22.56,-8.29,-2.20
1101,42921662,-0.9702,0.0757,0.3413,21.95,-7.80,-2.32
1102,42926662,-0.9658,0.0742,0.3452,21.22,-7.26,-2.56
1103,42931664,-0.9629,0.0708,0.3423,20.43,-6.65,-2.56
1104,42936664,-0.9648,0.0747,0.3462,19.70,-5.91,-2.74
1105,42941665,-0.9629,0.0698,0.3467,18.90,-5.43,-2.87
1106,42946663,-0.9658,0.0698,0.3540,18.11,-4.76,-2.99
1107,42951662,-0.9585,0.0718,0.3472,17.07,-4.15,-3.05
1108,42956679,-0.9609,0.0732,0.3501,16.28,-3.54,-3.11
1109,42961666,-0.9673,0.0737,0.3467,15.37,-3.11,-3.11
1110,42966665,-0.9619,0.0752,0.3472,14.51,-2.26,-3.29
1111,42971666,-0.9609,0.0762,0.3491,13.48,-1.59,-3.29
1112,42976663,-0.9648,0.0742,0.3491,12.50,-1.04,-3.23
1113,42981665,-0.9639,0.0723,0.3506,11.34,-0.49,-3.29
1114,42986664,-0.9619,0.0742,0.3481,10.37,0.18,-3.23
1115,42991665,-0.9639,0.0776,0.3403,9.27,0.61,-3.23
1116,42996665,-0.9619,0.0771,0.3413,8.17,1.10,-3.23
1117,43001665,-0.9639,0.0771,0.3442,7.07,1.46,-3.17
1118,43006666,-0.9673,0.0762,0.3521,5.91,2.13,-2.99
1119,43011662,-0.9688,0.0781,0.3481,4.76,2.68,-2.99
1120,43016744,-0.9678,0.0752,0.3521,3.72,3.29,-2.87
1121,43021693,-0.9683,0.0776,0.3467,2.68,3.54,-2.80
1122,43026682,-0.9673,0.0747,0.3521,1.71,4.02,-2.68
1123,43031662,-0.9707,0.0767,0.3511,0.49,4.45,-2.38
1124,43036666,-0.9736,0.0737,0.3501,-0.37,4.94,-2.32
1125,43041662,-0.9756,0.0771,0.3481,-1.52,5.30,-2.13
1126,43046663,-0.9702,0.0776,0.3486,-2.32,5.61,-1.83
1127,43051663,-0.9697,0.0771,0.3452,-3.17,6.04,-1.65
1128,43056662,-0.9634,0.0767,0.3462,-4.21,6.40,-1.52
1129,43061663,-0.9604,0.0767,0.3516,-4.94,6.89,-1.34
1130,43066663,-0.9541,0.0786,0.3481,-5.73,7.32,-1.10
1131,43071971,-0.9526,0.0757,0.3472,-6.59,7.50,-0.91
1132,43076664,-0.9492,0.0767,0.3477,-7.20,7.87,-0.67
1133,43081662,-0.9497,0.0806,0.3433,-8.05,8.05,-0.49
1134,43086666,-0.9517,0.0806,0.3462,-8.84,8.48,-0.30
1135,43091705,-0.9565,0.0811,0.3486,-9.57,8.72,-0.06
1136,43096665,-0.9517,0.0825,0.3447,-10.37,8.78,0.12
1137,43101664,-0.9478,0.0781,0.3438,-11.04,8.96,0.37
1138,43106662,-0.9434,0.0820,0.3447,-11.89,9.02,0.55
1139,43111665,-0.9419,0.0811,0.3428,-12.56,9.45,0.73
1140,43116994,-0.9409,0.0820,0.3481,-13.11,9.51,0.73
1141,43121666,-0.9463,0.0854,0.3467,-13.72,9.57,1.04
1142,43126666,-0.9424,0.0820,0.3491,-14.27,9.82,1.10
1143,43131663,-0.9502,0.0874,0.3447,-14.76,10.06,1.28
1144,43136664,-0.9482,0.0884,0.3525,-15.24,10.37,1.34
1145,43141664,-0.9507,0.0894,0.3525,-15.55,10.55,1.59
1146,43146682,-0.9546,0.0898,0.3535,-15.91,10.67,1.77
1147,43151665,-0.9546,0.0898,0.3574,-16.28,10.98,1.77
1148,43156692,-0.9565,0.0933,0.3516,-16.52,11.22,1.89
1149,43161662,-0.9575,0.0923,0.3599,-16.77,11.40,1.95
1150,43166665,-0.9575,0.0972,0.3535,-16.89,11.65,1.95
1151,43171663,-0.9595,0.0991,0.3560,-16.95,11.83,2.07
1152,43176669,-0.9565,0.0967,0.3579,-16.95,12.01,2.07
1153,43181662,-0.9561,0.1030,0.3521,-17.07,12.20,2.07
1154,43186663,-0.9531,0.1025,0.3564,-16.95,12.56,2.07
1155,43191664,-0.9541,0.1045,0.3516,-16.83,12.74,2.01
1156,43196667,-0.9541,0.1108,0.3574,-16.71,12.93,1.95
1157,43201663,-0.9565,0.1040,0.3540,-16.52,13.11,1.89
1158,43206665,-0.9570,0.1094,0.3560,-16.34,13.35,1.77
1159,43211665,-0.9619,0.1084,0.3584,-16.28,13.41,1.65
1160,43216699,-0.9614,0.1074,0.3608,-15.91,13.48,1.52
1161,43221664,-0.9585,0.1084,0.3696,-15.73,13.72,1.52
1162,43226665,-0.9321,0.1108,0.3374,-15.43,13.90,1.34
1163,43231666,-0.9399,0.1089,0.3726,-15.67,13.72,1.16
1164,43236662,-0.9658,0.1230,0.3647,-15.67,13.96,0.91
1165,43241663,-0.9673,0.1245,0.3486,-15.55,14.21,0.73
1166,43246665,-0.9746,0.1118,0.3745,-15.55,14.15,0.55
1167,43251666,-0.9883,0.1143,0.3604,-15.18,14.15,0.43
1168,43256663,-0.9824,0.1123,0.3525,-14.39,14.15,0.37
1169,43261664,-0.9692,0.1104,0.3628,-13.54,14.39,0.43
1170,43266663,-0.9404,0.1108,0.3584,-12.68,14.21,0.43
1171,43271665,-0.9551,0.1230,0.3579,-11.95,14.33,0.49
1172,43276666,-0.9673,0.1250,0.3735,-11.16,14.51,0.37
1173,43281662,-0.9634,0.1245,0.3765,-9.94,14.51,0.37
1174,43286667,-0.9360,0.1221,0.3452,-8.78,14.27,0.43
1175,43291762,-0.9507,0.1382,0.3608,-7.80,14.21,0.43
1176,43296666,-0.9600,0.1396,0.3711,-6.89,14.15,0.30
1177,43301665,-0.9390,0.1387,0.3467,-5.91,13.96,0.18
1178,43306667,-0.9482,0.1450,0.3506,-4.82,13.48,0.12
1179,43311669,-0.9390,0.1567,0.3452,-3.78,13.35,-0.12
1180,43316722,-0.9448,0.1621,0.3584,-2.56,12.93,-0.43
1181,43321664,-0.9380,0.1729,0.3330,-1.22,12.32,-0.67
1182,43326665,-0.9399,0.1699,0.3462,-0.06,11.95,-1.04
1183,43331664,-0.9282,0.1772,0.3481,1.46,11.28,-1.40
1184,43336665,-0.9243,0.1851,0.3418,3.11,11.10,-1.83
1185,43341666,-0.9233,0.1890,0.3481,4.94,10.49,-2.13
1186,43346663,-0.9238,0.1846,0.3545,6.77,9.88,-2.50
1187,43351664,-0.9150,0.2061,0.3481,8.66,9.39,-2.80
1188,43356664,-0.9111,0.2188,0.3628,10.37,9.27,-3.29
1189,43361697,-0.8979,0.2329,0.3442,12.13,8.96,-4.09
1190,43366755,-0.8901,0.2202,0.3442,14.63,8.11,-4.51
1191,43371663,-0.8721,0.2104,0.3354,16.34,7.80,-4.82
1192,43377061,-0.8403,0.2559,0.3584,18.60,7.07,-5.43
1193,43381664,-0.8545,0.2534,0.3589,19.88,6.95,-6.16
1194,43386665,-0.8496,0.2393,0.3701,21.77,6.95,-6.83
1195,43391663,-0.8101,0.2959,0.4019,23.48,7.44,-7.62
1196,43396664,-0.7856,0.2544,0.3833,24.94,8.23,-8.78
1197,43401663,-0.7686,0.2666,0.4355,26.40,9.15,-9.82
1198,43406664,-0.8315,0.1826,0.3242,27.32,10.98,-10.79
1199,43411665,-0.8779,0.2026,0.3950,28.17,11.40,-11.71
1200,43416665,-0.9233,0.2803,0.4702,28.78,12.62,-13.54
1201,43421662,-0.9546,0.3184,0.3823,29.02,14.33,-15.49
1202,43426666,-1.0142,0.3184,0.3477,28.90,16.52,-17.74
1203,43431662,-1.0698,0.3071,0.4175,28.96,18.17,-19.76
1204,43436665,-1.1187,0.2305,0.3486,28.96,18.96,-21.40
1205,43441663,-1.1006,0.1582,0.2622,29.39,19.70,-22.87
1206,43446664,-1.0610,0.1982,0.3286,30.30,20.55,-24.33
1207,43451663,-1.0635,0.2119,0.4185,31.77,21.59,-26.16
1208,43456665,-1.0596,0.2295,0.3960,33.48,23.05,-27.80
1209,43461664,-1.0566,0.2520,0.3188,35.24,25.18,-29.27
1210,43466664,-1.0850,0.2290,0.3301,37.32,26.65,-30.43
1211,43471662,-1.1162,0.1890,0.3652,39.51,27.80,-30.98
1212,43476665,-1.1445,0.1353,0.3169,41.89,28.96,-31.34
1213,43481663,-1.1870,0.0723,0.3105,44.15,30.55,-31.10
1214,43486664,-1.2188,0.0317,0.3550,46.83,32.13,-30.55
1215,43491760,-1.2432,0.0400,0.3750,49.94,33.48,-29.88
1216,43496664,-1.2554,0.0522,0.3154,53.48,35.00,-28.96
1217,43501665,-1.2607,0.0703,0.2886,57.68,36.46,-27.99
1218,43506664,-1.2505,0.0752,0.3018,62.50,37.20,-26.34
1219,43511663,-1.2334,0.0684,0.2900,67.68,37.80,-24.57
1220,43516663,-1.2012,0.0356,0.2466,73.48,38.29,-22.56
1221,43521664,-1.1611,0.0181,0.2476,79.27,38.48,-20.43
1222,43526671,-1.1206,0.0220,0.2642,85.24,38.66,-18.35
1223,43531664,-1.0869,0.0591,0.2510,90.85,38.72,-16.65
1224,43536662,-1.0625,0.1040,0.2173,95.55,38.60,-15.30
1225,43541663,-1.0435,0.1504,0.2310,99.45,38.41,-14.15
1226,43546666,-1.0361,0.1948,0.2681,102.38,38.29,-13.35
1227,43551662,-1.0347,0.2036,0.2524,104.45,38.29,-12.93
1228,43556915,-1.0312,0.2012,0.2368,105.49,38.29,-12.44
1229,43561664,-1.0293,0.1851,0.2456,105.67,38.11,-12.50
1230,43566662,-1.0283,0.1753,0.2612,105.24,37.99,-12.50
1231,43572113,-1.0181,0.1865,0.2520,104.51,37.80,-12.62
1232,43576699,-1.0049,0.2168,0.2446,103.48,37.74,-12.68
1233,43581768,-0.9966,0.2583,0.2593,102.50,37.74,-12.87
1234,43586663,-0.9937,0.2632,0.2573,101.22,37.56,-13.35
1235,43591664,-0.9951,0.2378,0.2383,100.30,37.38,-13.54
1236,43596672,-0.9922,0.2144,0.2227,99.33,37.26,-13.48
1237,43601663,-0.9961,0.1626,0.2183,98.90,36.71,-13.23
1238,43606664,-1.0029,0.1377,0.2251,99.02,36.28,-12.50
1239,43611662,-0.9995,0.1235,0.1934,99.57,35.85,-11.40
1240,43616663,-0.9956,0.1616,0.1826,100.43,35.18,-10.06
1241,43621663,-0.9961,0.1807,0.1748,101.16,34.27,-8.72
1242,43626664,-0.9951,0.1797,0.1665,101.83,33.17,-7.38
1243,43631667,-0.9844,0.1602,0.1489,102.56,32.20,-5.85
1244,43636664,-0.9829,0.1533,0.1484,103.35,31.04,-4.27
1245,43641666,-0.9814,0.1387,0.1470,103.96,29.76,-2.74
1246,43646669,-0.9609,0.1382,0.1113,104.70,28.48,-1.22
1247,43651664,-0.9512,0.1592,0.1284,105.67,27.20,0.18
1248,43656662,-0.9326,0.1782,0.1167,106.34,25.98,1.59
1249,43661666,-0.9189,0.1953,0.1206,107.07,24.76,2.99
1250,43666758,-0.9009,0.1846,0.1138,107.87,23.48,4.45
1251,43671663,-0.8950,0.1650,0.1128,108.41,22.38,6.04
1252,43676665,-0.8926,0.1431,0.1094,109.02,21.34,7.56
1253,43681662,-0.8862,0.1392,0.1060,109.82,20.30,9.15
1254,43686666,-0.8945,0.1494,0.1011,110.61,19.33,10.73
1255,43691662,-0.8882,0.1606,0.0938,111.22,18.17,12.38
1256,43696666,-0.8989,0.1719,0.0981,112.13,17.32,13.78
1257,43701662,-0.9155,0.1758,0.0913,112.99,16.28,15.43
1258,43706663,-0.9390,0.1597,0.0898,113.72,15.43,17.01
1259,43711665,-0.9561,0.1353,0.0806,114.39,14.45,18.72
1260,43716662,-0.9556,0.1104,0.0605,115.12,13.41,20.67
1261,43721663,-0.9473,0.0977,0.0576,115.73,12.38,22.62
1262,43726668,-0.9331,0.1006,0.0425,116.16,10.98,24.57
1263,43731662,-0.9136,0.1055,0.0278,116.40,9.70,26.40
1264,43736663,-0.9009,0.1108,0.0298,116.65,8.54,28.48
1265,43741662,-0.8896,0.1025,0.0273,116.65,7.07,30.55
1266,43746662,-0.8828,0.0874,0.0215,116.65,5.73,32.68
1267,43751663,-0.8765,0.0669,0.0317,116.52,4.63,34.94
1268,43756664,-0.8652,0.0449,0.0225,116.40,3.54,37.20
1269,43761662,-0.8545,0.0342,0.0225,116.10,2.44,39.63
1270,43766665,-0.8423,0.0293,0.0239,115.49,1.52,41.89
1271,43771696,-0.8369,0.0308,0.0273,114.57,0.43,44.21
1272,43776856,-0.8267,0.0342,0.0361,113.54,-0.24,46.28
1273,43781664,-0.8203,0.0371,0.0386,112.13,-0.85,48.29
1274,43786662,-0.8218,0.0352,0.0483,110.43,-1.46,50.12
1275,43791665,-0.8315,0.0322,0.0464,108.41,-1.95,51.95
1276,43796718,-0.8472,0.0234,0.0537,106.10,-2.50,53.35
1277,43801663,-0.8657,0.0146,0.0537,103.60,-2.80,54.94
1278,43806666,-0.8799,0.0195,0.0527,100.79,-2.99,56.28
1279,43811662,-0.8945,0.0186,0.0532,97.56,-3.29,57.44
1280,43816663,-0.9062,0.0190,0.0562,94.39,-3.54,58.48
1281,43821666,-0.9087,0.0225,0.0562,90.85,-3.72,59.57
1282,43826663,-0.9097,0.0142,0.0513,87.20,-3.90,60.67
1283,43831696,-0.8955,0.0044,0.0444,83.35,-4.15,61.65
1284,43836664,-0.8931,-0.0029,0.0474,79.33,-4.39,62.56
1285,43841664,-0.8887,-0.0005,0.0249,75.24,-4.76,63.41
1286,43846664,-0.8750,0.0171,0.0068,70.67,-5.55,63.96
1287,43851665,-0.8984,-0.0200,0.0381,65.98,-6.34,64.33
1288,43856904,-0.9307,-0.0391,0.0552,61.34,-6.77,65.24
1289,43861664,-0.9526,-0.0630,0.0757,56.71,-6.95,66.10
1290,43866665,-0.9727,-0.0767,0.0859,52.50,-6.77,67.20
1291,43872348,-0.9990,-0.0771,0.1074,48.29,-6.52,68.41
1292,43876664,-0.9976,-0.0820,0.1064,44.27,-6.04,69.70
1293,43881664,-0.9741,-0.0923,0.1084,40.37,-5.55,70.91
1294,43886664,-0.9756,-0.0659,0.1021,36.52,-5.00,72.20
1295,43892047,-0.9731,-0.0513,0.1143,32.56,-4.63,72.99
1296,43896664,-0.9756,-0.0312,0.1226,28.78,-3.90,73.90
1297,43901664,-0.9707,-0.0337,0.2119,24.70,-3.41,74.45
1298,43906664,-0.9331,0.0073,0.2622,18.84,0.06,74.76
1299,43911664,-0.9365,0.0449,0.1206,13.11,0.37,74.63
1300,43916664,-0.9043,0.0664,0.2563,7.20,-0.24,74.27
1301,43921664,-0.8794,0.0771,0.2427,0.67,0.85,73.66
1302,43926664,-0.8706,0.0767,0.2031,-5.98,2.01,72.87
1303,43931665,-0.8755,0.1060,0.3999,-13.41,2.93,71.83
1304,43936663,-0.8521,0.1382,0.5537,-22.32,5.18,70.43
1305,43941667,-0.8057,0.1016,0.3989,-32.32,7.56,68.96
1306,43946800,-0.7788,0.0859,0.3110,-42.20,8.96,67.99
1307,43951664,-0.7886,0.0796,0.4062,-51.59,9.82,67.13
1308,43956664,-0.7876,0.0742,0.4355,-59.02,10.79,66.52
1309,43961665,-0.7480,0.0371,0.4487,-70.00,13.05,65.79
1310,43967111,-0.7388,0.0342,0.4570,-79.39,15.18,65.24
1311,43971665,-0.7314,0.0405,0.5449,-87.13,16.52,64.82
1312,43976663,-0.7368,0.0859,0.4404,-96.65,18.11,63.84
1313,43981693,-0.6816,0.0210,0.3267,-105.79,19.15,62.93
1314,43986665,-0.6323,0.0483,0.3760,-113.84,19.27,62.62
1315,43991664,-0.6260,0.1338,0.4238,-120.85,19.94,61.34
1316,43996662,-0.5811,0.1201,0.3467,-126.83,20.79,59.94
1317,44001662,-0.6050,0.2241,0.2954,-132.56,21.34,57.68
1318,44006666,-0.6055,0.2617,0.3096,-136.10,21.59,55.12
1319,44011662,-0.6348,0.2627,0.3525,-137.93,21.77,52.93
1320,44016663,-0.7383,0.2935,0.2549,-139.33,22.20,50.12
1321,44021663,-0.8569,0.3311,0.2100,-139.70,22.56,47.20
1322,44026664,-0.8916,0.3652,0.2202,-139.76,22.32,43.90
1323,44031663,-0.8447,0.3721,0.1802,-139.45,21.52,40.43
1324,44036664,-0.8037,0.3770,0.1230,-138.72,21.10,37.01
1325,44041662,-0.8071,0.3960,0.1348,-137.74,20.43,33.48
1326,44046664,-0.8325,0.4058,0.1548,-136.28,19.33,29.70
1327,44051761,-0.7964,0.3281,0.1509,-134.21,18.72,26.34
1328,44056994,-0.9141,0.4312,0.1084,-130.55,18.35,22.20
1329,44061664,-0.9292,0.4028,0.1611,-127.87,18.17,19.02
1330,44066665,-0.9199,0.3838,0.1987,-123.90,18.29,15.30
1331,44071665,-0.9331,0.3862,0.1621,-119.21,18.66,12.01
1332,44076663,-0.9492,0.3564,0.1436,-113.41,19.02,8.78
1333,44081663,-0.9521,0.3223,0.1748,-106.83,19.45,6.10
1334,44086665,-0.9922,0.3477,0.2119,-99.33,19.76,3.66
1335,44091666,-0.9907,0.3120,0.1782,-90.98,20.67,1.04
1336,44096669,-0.9824,0.2686,0.1826,-81.34,21.46,-1.22
1337,44101664,-0.9668,0.2432,0.2192,-70.73,22.26,-2.87
1338,44106664,-1.0088,0.2251,0.2227,-58.96,22.93,-4.33
1339,44111666,-1.0591,0.2563,0.2368,-44.02,23.90,-6.10
1340,44116667,-1.0693,0.2451,0.2319,-33.35,24.57,-7.50
1341,44121662,-1.0801,0.2476,0.2559,-19.57,25.37,-9.15
1342,44127006,-1.0713,0.2739,0.2661,-2.56,25.85,-11.71
1343,44131695,-1.0537,0.2607,0.2397,8.72,26.34,-13.41
1344,44136665,-1.0356,0.2124,0.2588,22.80,26.89,-15.37
1345,44141663,-1.0361,0.2539,0.2769,36.89,27.20,-17.13
1346,44146662,-1.0425,0.2783,0.2637,50.55,27.26,-19.09
1347,44151662,-1.0376,0.2808,0.2417,63.35,27.32,-21.28
1348,44156662,-1.0229,0.2764,0.2588,75.30,27.13,-23.48
1349,44161664,-1.0107,0.2583,0.2808,86.16,26.59,-25.79
1350,44166664,-1.0005,0.2402,0.2788,95.98,26.22,-27.87
1351,44171663,-1.0068,0.2310,0.2617,104.27,25.73,-29.76
1352,44176664,-1.0186,0.2280,0.2715,111.28,24.94,-31.59
1353,44181663,-1.0371,0.2207,0.2793,116.89,24.02,-33.05
1354,44186665,-1.0454,0.2114,0.2476,120.98,22.87,-34.39
1355,44191878,-1.0537,0.1973,0.2310,123.66,21.52,-35.37
1356,44196668,-1.0586,0.1841,0.2339,124.88,20.18,-36.16
1357,44201662,-1.0605,0.1753,0.2329,124.51,18.48,-36.83
1358,44206662,-1.0552,0.1636,0.1978,122.93,16.71,-37.01
1359,44211662,-1.0532,0.1587,0.1929,120.06,14.88,-37.20
1360,44216665,-1.0508,0.1606,0.1953,116.22,12.99,-37.32
1361,44221665,-1.0425,0.1719,0.1743,111.46,10.67,-37.32
1362,44226664,-1.0396,0.1772,0.1509,105.91,8.48,-37.26
1363,44231664,-1.0308,0.1753,0.1562,99.70,6.28,-37.26
1364,44236664,-1.0171,0.1782,0.1611,92.87,4.09,-37.32
1365,44241663,-1.0059,0.1816,0.1519,85.85,1.71,-37.20
1366,44246664,-0.9917,0.1953,0.1396,77.07,-0.91,-37.32
1367,44251664,-0.9888,0.2002,0.1499,71.22,-2.56,-37.38
1368,44256664,-0.9966,0.2090,0.1401,63.78,-4.57,-37.56
1369,44261664,-1.0068,0.2173,0.1328,56.34,-6.83,-37.80
1370,44266886,-1.0107,0.2227,0.1284,49.09,-8.60,-37.87
1371,44271664,-1.0166,0.2202,0.1279,41.89,-10.37,-38.17
1372,44276666,-1.0254,0.2207,0.1426,34.76,-11.77,-38.17
1373,44281662,-1.0259,0.2158,0.1318,27.74,-13.35,-38.17
1374,44286662,-1.0337,0.2061,0.1240,21.10,-14.51,-38.17
1375,44291666,-1.0229,0.1929,0.1367,14.63,-15.30,-37.93
1376,44296696,-1.0190,0.1768,0.1514,8.60,-16.34,-37.50
1377,44301663,-1.0210,0.1685,0.1431,2.74,-16.89,-36.71
1378,44306669,-1.0259,0.1592,0.1328,-2.50,-17.32,-36.04
1379,44311665,-1.0454,0.1514,0.1445,-7.38,-17.62,-35.12
1380,44316664,-1.0552,0.1504,0.1406,-11.83,-17.80,-34.15
1381,44321665,-1.0586,0.1445,0.1196,-15.85,-17.74,-32.99
1382,44326667,-1.0518,0.1377,0.1152,-19.45,-17.99,-31.83
1383,44331663,-1.0381,0.1411,0.1265,-22.50,-18.17,-30.85
1384,44336662,-1.0239,0.1377,0.1260,-25.12,-18.23,-29.70
1385,44341662,-1.0117,0.1357,0.1108,-27.38,-18.11,-28.72
1386,44346662,-0.9897,0.1401,0.1079,-29.39,-18.17,-27.80
1387,44351666,-1.0107,0.1426,0.1152,-30.67,-18.17,-27.07
1388,44356662,-1.0088,0.1450,0.1074,-31.95,-18.35,-26.16
1389,44361665,-1.0049,0.1382,0.1069,-32.80,-18.11,-25.37
1390,44366666,-0.9961,0.1377,0.1094,-33.66,-17.99,-24.51
1391,44371664,-0.9849,0.1338,0.1172,-34.02,-17.68,-23.78
1392,44376909,-0.9941,0.1348,0.1045,-34.39,-17.44,-22.87
1393,44381664,-0.9917,0.1167,0.0962,-34.39,-17.13,-22.32
1394,44387120,-1.0107,0.1221,0.1045,-34.33,-17.07,-21.40
1395,44391662,-1.0166,0.1167,0.1074,-34.02,-16.65,-20.61
1396,44396666,-1.0200,0.1162,0.0967,-33.78,-16.16,-19.63
1397,44401665,-1.0234,0.1191,0.1001,-33.11,-15.61,-18.78
1398,44406664,-1.0352,0.1250,0.1035,-32.44,-15.06,-17.99
1399,44411664,-1.0513,0.1279,0.0884,-31.59,-14.76,-17.26
1400,44416662,-1.0679,0.1372,0.0830,-30.43,-14.15,-16.59
1401,44421662,-1.0835,0.1387,0.0762,-29.39,-13.66,-15.91
1402,44426666,-1.0820,0.1353,0.0718,-28.05,-13.17,-15.49
1403,44431663,-1.1045,0.1460,0.0913,-26.59,-12.56,-14.82
1404,44436664,-1.1040,0.1411,0.0835,-25.00,-11.89,-14.27
1405,44441664,-1.1069,0.1406,0.0942,-23.41,-11.10,-13.90
1406,44446664,-1.1147,0.1387,0.1011,-21.71,-10.06,-13.41
1407,44451664,-1.1172,0.1353,0.1040,-19.88,-8.96,-12.80
1408,44456662,-1.1270,0.1333,0.1104,-17.87,-7.80,-12.32
1409,44461813,-1.1128,0.1313,0.1157,-15.79,-6.59,-11.71
1410,44466666,-1.1226,0.1318,0.1211,-13.60,-5.24,-11.10
1411,44471662,-1.1143,0.1226,0.1157,-11.59,-3.90,-10.49
1412,44476665,-1.0977,0.1221,0.1167,-9.51,-2.62,-9.76
1413,44481665,-1.0859,0.1177,0.1284,-7.32,-1.28,-9.15
1414,44486867,-1.0649,0.1206,0.1274,-5.30,0.12,-8.60
1415,44491662,-1.0464,0.1240,0.1196,-3.35,1.28,-8.05
1416,44496662,-1.0269,0.1274,0.1201,-1.40,2.44,-7.56
1417,44501666,-1.0151,0.1382,0.1260,0.49,3.66,-7.32
1418,44506662,-1.0000,0.1421,0.1240,2.01,4.63,-7.01
1419,44511662,-0.9893,0.1450,0.1196,3.41,5.73,-6.83
1420,44516665,-0.9844,0.1460,0.1211,4.63,6.52,-6.83
1421,44521664,-0.9756,0.1489,0.1133,5.67,7.38,-6.83
1422,44526719,-0.9829,0.1504,0.1167,6.28,8.11,-7.01
1423,44531663,-0.9868,0.1558,0.1094,6.71,8.78,-7.07
1424,44536666,-0.9897,0.1514,0.1069,6.95,9.21,-7.26
1425,44541663,-0.9849,0.1475,0.1123,6.95,9.70,-7.56
1426,44546664,-0.9824,0.1450,0.1104,6.59,10.24,-7.50
1427,44551662,-0.9780,0.1465,0.1045,6.22,10.73,-7.62
1428,44556662,-0.9722,0.1489,0.1079,5.61,11.34,-7.74
1429,44561665,-0.9746,0.1465,0.1162,5.12,11.71,-7.87
1430,44566663,-0.9731,0.1494,0.1133,4.51,12.13,-8.05
1431,44571665,-0.9736,0.1543,0.1060,4.02,12.44,-8.23
1432,44576664,-0.9780,0.1519,0.1089,3.54,12.93,-8.48
1433,44581665,-0.9702,0.1509,0.1025,3.29,13.23,-8.60
1434,44586664,-0.9736,0.1572,0.1055,2.87,13.54,-8.84
1435,44591681,-0.9663,0.1592,0.1089,2.80,13.78,-9.09
1436,44596664,-0.9688,0.1660,0.1123,2.80,14.09,-9.39
1437,44601663,-0.9702,0.1675,0.1138,2.87,14.51,-9.82
1438,44606664,-0.9683,0.1655,0.1060,3.11,14.63,-10.18
1439,44611664,-0.9644,0.1655,0.1045,3.29,14.82,-10.61
1440,44616664,-0.9673,0.1626,0.1128,3.41,15.12,-11.04
1441,44621664,-0.9639,0.1577,0.1084,3.35,15.43,-11.28
1442,44626664,-0.9648,0.1514,0.1050,3.23,15.55,-11.52
1443,44631664,-0.9658,0.1494,0.1030,2.93,15.67,-11.83
1444,44636662,-0.9658,0.1440,0.1084,2.62,15.73,-12.01
1445,44641662,-0.9619,0.1382,0.1045,2.07,15.73,-12.13
1446,44646662,-0.9609,0.1353,0.1016,1.46,15.79,-12.20
1447,44651663,-0.9541,0.1362,0.1045,0.79,15.91,-12.20
1448,44656664,-0.9551,0.1353,0.0981,0.18,15.91,-12.20
1449,44661664,-0.9565,0.1362,0.0913,-0.67,15.55,-12.26
1450,44666664,-0.9536,0.1377,0.0825,-1.40,15.30,-12.38
1451,44672112,-0.9541,0.1411,0.0791,-2.26,14.88,-12.32
1452,44676663,-0.9546,0.1416,0.0796,-2.56,14.51,-12.44
1453,44681663,-0.9580,0.1445,0.0732,-2.80,14.09,-12.56
1454,44686665,-0.9600,0.1436,0.0674,-2.87,13.72,-12.50
1455,44691692,-0.9619,0.1411,0.0757,-2.68,13.23,-12.50
1456,44696706,-0.9629,0.1392,0.0767,-2.26,12.80,-12.44
1457,44701665,-0.9712,0.1401,0.0767,-1.52,12.50,-12.44
1458,44706668,-0.9722,0.1416,0.0850,-0.79,12.13,-12.32
1459,44711662,-0.9751,0.1411,0.0894,0.30,11.95,-12.20
1460,44716707,-0.9795,0.1450,0.0850,1.46,11.83,-12.07
1461,44721673,-0.9795,0.1416,0.0791,2.74,11.59,-11.95
1462,44726665,-0.9766,0.1387,0.0874,3.72,11.65,-11.95
1463,44731666,-0.9658,0.1396,0.0854,4.88,11.28,-11.71
1464,44736662,-0.9575,0.1387,0.0791,5.91,11.22,-11.59
1465,44741662,-0.9561,0.1357,0.0820,6.89,10.67,-11.52
1466,44746662,-0.9541,0.1348,0.0762,7.80,10.37,-11.22
1467,44751667,-0.9609,0.1304,0.0698,8.66,10.00,-11.10
1468,44756662,-0.9663,0.1221,0.0654,9.39,9.51,-10.91
1469,44761923,-0.9707,0.1230,0.0625,9.88,8.84,-10.55
1470,44766663,-0.9790,0.1167,0.0591,10.30,8.41,-10.18
1471,44771669,-0.9829,0.1138,0.0522,10.73,8.05,-9.82
1472,44776724,-0.9883,0.1118,0.0591,11.28,7.56,-9.39
1473,44781665,-0.9893,0.1143,0.0566,11.65,7.07,-8.90
1474,44786708,-0.9893,0.1123,0.0625,12.38,6.83,-8.54
1475,44791662,-0.9902,0.1118,0.0649,13.35,6.52,-7.99
1476,44796665,-0.9888,0.1118,0.0693,14.33,6.34,-7.56
1477,44801691,-0.9854,0.1118,0.0713,15.67,6.28,-7.13
1478,44806790,-0.9829,0.1118,0.0767,17.13,6.34,-6.52
1479,44811664,-0.9785,0.1152,0.0737,18.41,6.34,-6.10
1480,44816665,-0.9863,0.1182,0.0684,20.00,6.34,-5.67
1481,44821666,-0.9990,0.1191,0.0581,21.22,6.34,-5.24
1482,44826697,-1.0190,0.1162,0.0571,22.26,6.22,-4.82
1483,44831662,-1.0332,0.1138,0.0596,23.05,6.16,-4.39
1484,44836662,-1.0449,0.1167,0.0576,23.48,6.22,-3.96
1485,44841667,-1.0449,0.1138,0.0635,23.90,6.28,-3.60
1486,44846664,-1.0449,0.1133,0.0630,24.21,6.22,-3.17
1487,44851664,-1.0454,0.1147,0.0654,24.45,6.46,-2.68
1488,44856866,-1.0498,0.1108,0.0723,24.57,6.71,-2.20
1489,44861664,-1.0405,0.1147,0.0718,24.70,6.89,-1.83
1490,44866662,-1.0371,0.1167,0.0737,24.82,7.20,-1.28
1491,44871662,-1.0327,0.1162,0.0757,24.82,7.26,-0.91
1492,44876662,-1.0283,0.1152,0.0767,24.63,7.56,-0.43
1493,44881667,-1.0176,0.1152,0.0757,24.27,7.87,-0.06
1494,44886664,-1.0093,0.1113,0.0708,23.78,8.17,0.43
1495,44891663,-1.0044,0.1104,0.0742,23.23,8.17,0.91
1496,44896664,-1.0015,0.1094,0.0693,22.26,8.29,1.28
1497,44901663,-1.1182,0.1572,0.1143,20.55,7.93,1.89
1498,44906662,-1.5288,0.3960,0.2842,14.51,5.30,3.96
1499,44911667,-1.7476,0.3901,0.3081,3.84,-0.12,8.41
1500,44916664,-1.2690,0.0864,0.2275,-1.89,-2.62,10.12
1501,44921665,-0.6606,0.0552,0.3203,-3.11,-2.26,9.94
1502,44926664,-0.6040,0.0854,0.2314,-3.48,-1.04,10.00
1503,44931662,-0.8950,0.1548,0.0938,-2.56,0.37,9.45
1504,44936662,-1.2148,0.1870,0.0195,-0.43,1.22,8.60
1505,44941662,-1.2085,0.1455,0.0264,1.89,1.77,7.56
1506,44946666,-0.9863,0.0850,0.0708,3.41,2.13,6.95
1507,44951665,-0.8726,0.0615,0.1001,3.60,2.32,6.95
1508,44956664,-0.9263,0.0757,0.0947,3.41,2.62,6.95
1509,44961662,-1.0166,0.0986,0.0527,3.41,2.38,6.89
1510,44966662,-1.0361,0.1025,0.0293,4.02,2.32,6.83
1511,44971662,-0.9932,0.0889,0.0420,4.57,2.20,6.95
1512,44976662,-0.9487,0.0908,0.0771,5.24,2.26,7.13
1513,44981664,-0.9502,0.0879,0.0757,5.55,2.26,7.38
1514,44986665,-0.9692,0.0874,0.0405,5.98,2.26,7.62
1515,44991663,-0.9805,0.0913,0.0366,6.59,2.38,7.93
1516,44996662,-0.9697,0.0889,0.0527,7.32,1.95,8.05
1517,45001893,-0.9629,0.0952,0.0547,7.80,1.95,8.29
1518,45006688,-0.9561,0.1035,0.0259,8.41,1.59,8.48
1519,45011666,-0.9600,0.1060,0.0303,8.84,1.46,8.72
1520,45016662,-0.9751,0.1069,0.0312,9.39,1.34,8.78
1521,45021664,-0.9761,0.1035,0.0215,9.88,1.04,9.02
1522,45026729,-0.9761,0.0928,0.0137,10.24,0.73,9.02
1523,45031732,-0.9736,0.0918,0.0288,10.55,0.67,9.15
1524,45036663,-0.9731,0.0898,0.0449,10.98,0.49,9.21
1525,45041662,-0.9824,0.0957,0.0312,11.28,0.30,9.33
1526,45046712,-0.9810,0.1025,0.0293,11.65,0.24,9.27
1527,45051663,-0.9780,0.1104,0.0396,12.13,0.00,9.21
1528,45056662,-0.9780,0.1108,0.0444,12.56,-0.06,9.09
1529,45062175,-0.9727,0.1104,0.0479,13.05,0.18,9.15
1530,45066664,-0.9805,0.1128,0.0356,13.54,-0.06,9.09
1531,45071665,-0.9790,0.1128,0.0483,13.90,0.00,9.02
1532,45076663,-0.9829,0.1079,0.0547,14.27,0.00,8.90
1533,45081662,-0.9795,0.1055,0.0425,14.33,0.06,8.72
1534,45086730,-0.9824,0.1108,0.0361,14.21,0.00,8.60
1535,45091663,-0.9800,0.1069,0.0361,13.84,-0.30,8.66
1536,45096666,-0.9839,0.1074,0.0312,13.17,-0.49,8.54
1537,45101664,-0.9731,0.1021,0.0107,12.44,-0.55,8.48
1538,45106928,-0.9727,0.0967,0.0073,11.59,-1.04,8.54
1539,45111666,-0.9683,0.0967,0.0117,10.85,-1.34,8.72
1540,45116664,-0.9653,0.1016,0.0073,10.12,-1.71,8.66
1541,45121666,-0.9639,0.0962,-0.0020,9.51,-2.13,8.78
1542,45126662,-0.9717,0.0991,0.0005,9.21,-2.38,8.90
1543,45131707,-0.9678,0.0996,0.0176,9.09,-2.68,8.78
1544,45136664,-0.9697,0.1040,-0.0005,8.96,-2.74,8.78
1545,45141666,-0.9702,0.1064,0.0059,8.96,-3.11,8.90
1546,45146662,-0.9712,0.1055,0.0132,9.09,-3.54,9.02
1547,45151667,-0.9639,0.1099,0.0283,9.15,-3.72,9.09
1548,45156662,-0.9629,0.1064,0.0127,9.33,-4.09,9.09
1549,45161666,-0.9634,0.1050,0.0122,9.33,-4.57,9.21
1550,45166667,-0.9722,0.1050,0.0127,9.51,-4.76,9.39
1551,45172062,-0.9648,0.1079,0.0195,9.57,-5.30,9.45
1552,45176666,-1.8389,0.0059,-0.0210,9.88,-4.70,9.09
1553,45181724,-0.7261,0.1914,0.1968,12.44,-5.37,5.55
1554,45186768,-1.0767,0.0562,-0.1738,12.20,-2.32,5.18
1555,45191664,-0.8096,0.0093,0.1978,12.26,-4.27,4.15
1556,45196666,-1.1177,0.0576,-0.1382,10.49,-3.66,4.45
1557,45201664,-0.9507,0.1226,0.1426,8.78,-0.85,4.27
1558,45206662,-0.9482,0.1680,-0.0391,6.52,-1.16,3.90
1559,45211666,-1.0088,0.1172,0.1089,4.51,-1.71,3.78
1560,45216888,-0.9658,0.1001,-0.0229,2.32,-1.95,3.60
1561,45221664,-0.9893,0.1348,0.0894,0.67,-1.52,3.48
1562,45226663,-0.9683,0.1392,-0.0039,-0.67,-1.40,3.11
1563,45231662,-0.9775,0.1079,0.0737,-1.59,-1.40,2.99
1564,45236662,-0.9746,0.1123,-0.0044,-2.32,-1.46,2.93
1565,45241662,-0.9814,0.1206,0.0596,-2.68,-1.40,3.05
1566,45246662,-0.9741,0.1064,-0.0059,-2.87,-1.59,2.99
1567,45251665,-0.9854,0.0928,0.0405,-2.62,-1.77,3.17
1568,45256664,-0.9780,0.1030,-0.0034,-2.44,-2.01,3.29
1569,45261662,-0.9800,0.1045,0.0308,-1.89,-1.95,3.41
1570,45266664,-0.9756,0.0942,0.0024,-1.28,-2.32,3.66
1571,45271666,-0.9746,0.1021,0.0303,-0.55,-2.50,3.84
1572,45276662,-0.9756,0.1064,0.0132,0.24,-2.74,3.96
1573,45281662,-0.9751,0.1030,0.0303,0.91,-2.74,4.21
1574,45286662,-0.9741,0.1123,0.0234,1.77,-2.87,4.15
1575,45291664,-0.9751,0.1172,0.0312,2.44,-3.23,4.51
1576,45296664,-0.9771,0.1245,0.0298,3.11,-3.41,4.82
1577,45301665,-0.9766,0.1172,0.0283,3.78,-3.66,4.88
1578,45306662,-0.9751,0.1118,0.0308,4.45,-3.96,5.00
1579,45311662,-0.9727,0.1143,0.0371,5.18,-3.96,5.06
1580,45316665,-0.9761,0.1196,0.0283,5.85,-4.21,5.12
1581,45321663,-0.9717,0.1172,0.0332,6.40,-4.39,5.30
1582,45326717,-0.9731,0.1187,0.0405,6.89,-4.76,5.49
1583,45331797,-0.9805,0.1162,0.0337,7.50,-5.00,5.55
1584,45336665,-0.9854,0.1152,0.0259,8.05,-5.06,5.67
1585,45341664,-0.9766,0.1177,0.0298,8.78,-5.06,5.79
1586,45346665,-0.9810,0.1123,0.0459,9.21,-5.00,5.79
1587,45351664,-0.9800,0.1177,0.0503,9.70,-5.24,5.79
1588,45356665,-0.9780,0.1143,0.0493,9.94,-5.24,5.67
1589,45362109,-0.9819,0.1230,0.0605,10.18,-5.18,5.67
1590,45366726,-0.9741,0.1260,0.0635,10.18,-5.18,5.79
1591,45371662,-0.9785,0.1206,0.0601,9.94,-5.30,6.04
1592,45376665,-0.9722,0.1221,0.0537,10.30,-5.06,5.98
1593,45381663,-0.9697,0.1260,0.0557,10.49,-5.06,5.98
1594,45386662,-0.9756,0.1201,0.0576,10.24,-5.00,6.16
1595,45391666,-0.9810,0.1152,0.0405,10.12,-4.94,6.28
1596,45396663,-0.9712,0.1069,0.0542,10.06,-4.94,6.28
1597,45401664,-0.9785,0.1133,0.0410,10.06,-4.82,6.28
1598,45406662,-0.9849,0.1133,0.0327,9.94,-4.76,6.28
1599,45411663,-0.9790,0.1260,0.0479,9.70,-4.57,6.28
1600,45416662,-0.9702,0.1309,0.0552,9.39,-4.82,6.22
1601,45421665,-0.9805,0.1318,0.0352,9.02,-4.88,6.34
1602,45426925,-0.9736,0.1260,0.0459,8.78,-4.76,6.22
1603,45431664,-0.9790,0.1367,0.0361,8.72,-4.76,6.16
1604,45436741,-0.9741,0.1348,0.0498,8.54,-4.45,5.98
1605,45441667,-0.9766,0.1445,0.0601,8.35,-4.33,5.85
1606,45446664,-0.9746,0.1436,0.0596,8.23,-4.39,5.67
1607,45451662,-0.9756,0.1489,0.0625,7.99,-4.33,5.49
1608,45456667,-0.9761,0.1509,0.0591,7.93,-4.15,5.37
1609,45461662,-0.9766,0.1514,0.0620,7.93,-4.09,5.18
1610,45466713,-0.9722,0.1504,0.0732,8.05,-3.96,5.06
1611,45471672,-0.9727,0.1504,0.0513,7.80,-3.90,4.88
1612,45476663,-0.9839,0.1470,0.0498,7.62,-3.84,4.76
1613,45481665,-0.9756,0.1377,0.0601,7.62,-3.72,4.57
1614,45486664,-0.9795,0.1426,0.0386,7.56,-3.41,4.33
1615,45491731,-0.9707,0.1357,0.0532,7.13,-3.23,4.21
1616,45496662,-0.9756,0.1436,0.0449,6.77,-3.48,3.96
