# skilleye imu stream v1
# device=xiao_esp32c6 imu=mpu6050 addr=0x68
# rate_hz=200 accel_range_g=16 gyro_range_dps=2000 dlpf_hz=94
# units: accel in g, gyro in deg/s, t_us in microseconds since boot (monotonic)
# no shared clock with the camera -- tap the racket once before each take
# so both recordings share a spike to align on
seq,t_us,ax,ay,az,gx,gy,gz
0,139315442,0.3413,0.9209,0.4351,8.96,6.28,25.98
1,139320445,0.3477,0.9146,0.4253,8.84,5.30,26.16
2,139325442,0.3481,0.9170,0.4233,8.72,4.45,26.28
3,139330442,0.3521,0.9219,0.4233,8.35,3.66,26.46
4,139335440,0.3618,0.9194,0.4224,8.17,2.68,26.52
5,139340442,0.3579,0.9258,0.4180,7.87,1.65,26.46
6,139345441,0.3594,0.9233,0.4214,7.87,0.85,26.40
7,139350442,0.3584,0.9258,0.4253,7.68,0.12,26.40
8,139355440,0.3608,0.9258,0.4214,7.44,-0.61,26.28
9,139360442,0.3628,0.9224,0.4214,7.38,-1.46,26.10
10,139365498,0.3652,0.9185,0.4165,7.32,-2.01,25.98
11,139370440,0.3638,0.9209,0.4209,7.20,-2.74,25.79
12,139375442,0.3643,0.9229,0.4204,6.89,-3.23,25.43
13,139380442,0.3711,0.9277,0.4146,6.65,-3.90,25.06
14,139385442,0.3701,0.9268,0.4053,6.52,-4.45,24.82
15,139390441,0.3735,0.9243,0.3955,6.22,-4.88,24.39
16,139395443,0.3730,0.9243,0.3955,6.04,-5.73,24.02
17,139400440,0.3774,0.9248,0.3955,5.61,-6.16,23.54
18,139405442,0.3784,0.9238,0.3896,5.30,-6.77,23.23
19,139410441,0.3804,0.9243,0.3936,4.88,-7.32,22.68
20,139415440,0.3857,0.9209,0.3906,4.39,-7.99,22.50
21,139420442,0.3862,0.9219,0.3804,3.84,-8.41,21.95
22,139425442,0.3833,0.9199,0.3740,3.35,-8.90,21.46
23,139430442,0.3843,0.9194,0.3745,2.74,-9.33,21.10
24,139435440,0.3818,0.9204,0.3691,2.26,-9.70,20.73
25,139440442,0.3813,0.9199,0.3643,1.71,-10.37,20.24
26,139445442,0.3848,0.9229,0.3638,1.28,-10.79,19.88
27,139450442,0.3789,0.9209,0.3623,0.85,-11.34,19.39
28,139455440,0.3818,0.9258,0.3564,0.49,-11.71,18.90
29,139460442,0.3794,0.9253,0.3569,0.24,-12.20,18.41
30,139465441,0.3774,0.9248,0.3501,-0.12,-12.38,17.93
31,139470442,0.3774,0.9224,0.3501,-0.30,-12.62,17.44
32,139475440,0.3779,0.9233,0.3442,-0.43,-12.87,16.95
33,139480442,0.3799,0.9214,0.3364,-0.43,-13.11,16.52
34,139485442,0.3789,0.9243,0.3301,-0.61,-13.48,15.91
35,139490442,0.3774,0.9238,0.3335,-0.49,-13.66,15.49
36,139495440,0.3784,0.9199,0.3350,-0.61,-13.90,14.88
37,139500442,0.3760,0.9224,0.3276,-0.49,-13.84,14.51
38,139505441,0.3779,0.9209,0.3271,-0.43,-14.02,14.02
39,139510441,0.3760,0.9194,0.3276,-0.18,-14.02,13.48
40,139515442,0.3760,0.9189,0.3223,-0.18,-14.15,13.05
41,139520444,0.3706,0.9155,0.3213,0.12,-14.21,12.68
42,139525441,0.3657,0.9102,0.3169,0.12,-13.96,12.26
43,139530442,0.3691,0.9150,0.3145,0.30,-13.84,11.89
44,139535440,0.3716,0.9048,0.3174,0.55,-13.66,11.52
45,139540442,0.3711,0.9062,0.3110,0.49,-13.66,11.22
46,139545555,0.3726,0.9004,0.3130,0.61,-13.48,10.85
47,139550446,0.3809,0.9023,0.3032,0.67,-13.41,10.55
48,139555441,0.3843,0.8970,0.3145,0.55,-13.17,10.37
49,139560442,0.3867,0.8931,0.3096,0.61,-12.99,10.00
50,139565441,0.3892,0.8936,0.3076,0.37,-12.56,9.70
51,139570444,0.3979,0.8887,0.2988,0.24,-12.50,9.45
52,139575440,0.4009,0.8877,0.3013,0.06,-12.32,9.21
53,139580442,0.3999,0.8857,0.2959,-0.30,-12.20,8.90
54,139585441,0.4058,0.8818,0.2944,-0.55,-11.95,8.78
55,139590442,0.4053,0.8755,0.2925,-0.85,-11.77,8.72
56,139595850,0.4062,0.8696,0.2920,-1.22,-11.52,8.66
57,139600630,0.4077,0.8628,0.2896,-1.52,-11.22,8.41
58,139605441,0.4116,0.8608,0.2900,-1.77,-11.04,8.41
59,139610442,0.4126,0.8574,0.2905,-2.01,-10.79,8.41
60,139615441,0.4121,0.8564,0.2910,-2.26,-10.55,8.41
61,139620444,0.4136,0.8521,0.2842,-2.32,-10.12,8.29
62,139625440,0.4146,0.8564,0.2827,-2.32,-10.06,8.29
63,139630442,0.4106,0.8481,0.2876,-2.07,-9.51,8.35
64,139635440,0.4141,0.8501,0.2842,-1.71,-9.15,8.29
65,139640444,0.4102,0.8501,0.2900,-1.22,-8.84,8.35
66,139645440,0.4136,0.8467,0.2837,-0.49,-8.35,8.48
67,139650442,0.4150,0.8462,0.2803,0.37,-7.74,8.41
68,139655440,0.4180,0.8516,0.2773,1.46,-7.38,8.60
69,139660444,0.4141,0.8540,0.2798,2.68,-6.77,8.54
70,139665440,0.4170,0.8579,0.2808,4.21,-6.10,8.66
71,139670442,0.4209,0.8555,0.2769,5.98,-5.67,8.72
72,139675440,0.4233,0.8623,0.2744,7.74,-5.30,8.84
73,139680440,0.4229,0.8633,0.2715,9.76,-4.70,8.96
74,139685443,0.4229,0.8638,0.2666,11.77,-4.09,8.96
75,139690442,0.4258,0.8706,0.2598,13.72,-3.48,9.09
76,139695442,0.4287,0.8789,0.2549,15.85,-2.99,9.09
77,139700443,0.4287,0.8848,0.2563,18.17,-2.50,9.09
78,139705442,0.4287,0.8926,0.2539,20.67,-1.95,9.09
79,139710442,0.4302,0.8975,0.2500,23.29,-1.34,9.09
80,139715442,0.4277,0.9072,0.2520,25.91,-0.49,9.02
81,139720440,0.4297,0.9111,0.2510,28.72,0.18,8.96
82,139725444,0.4214,0.9170,0.2559,31.46,0.85,8.90
83,139730442,0.4243,0.9136,0.2534,33.96,1.46,8.84
84,139735440,0.4238,0.9224,0.2471,36.71,2.26,8.96
85,139740444,0.4209,0.9243,0.2368,39.02,2.93,8.96
86,139745440,0.4263,0.9302,0.2339,41.10,3.48,8.90
87,139750442,0.4292,0.9316,0.2305,43.17,3.90,9.02
88,139755440,0.4351,0.9385,0.2207,45.18,4.45,9.09
89,139760444,0.4380,0.9414,0.2153,47.20,4.88,9.27
90,139765440,0.4419,0.9453,0.2114,49.21,5.49,9.57
91,139770442,0.4448,0.9468,0.2041,51.16,5.79,9.82
92,139775440,0.4438,0.9478,0.2095,53.29,6.46,10.24
93,139780444,0.4448,0.9453,0.2061,55.18,6.89,10.61
94,139785440,0.4502,0.9473,0.2085,56.89,7.50,11.16
95,139790442,0.4561,0.9424,0.2080,58.35,8.05,11.65
96,139795440,0.4644,0.9448,0.2041,59.57,8.90,12.38
97,139800444,0.4678,0.9424,0.1973,60.73,9.33,13.05
98,139805440,0.4717,0.9478,0.2007,61.46,9.94,13.72
99,139810442,0.4731,0.9507,0.1924,61.95,10.61,14.63
100,139815440,0.4761,0.9551,0.1826,62.32,11.16,15.37
101,139820442,0.4810,0.9590,0.1655,62.62,11.71,16.28
102,139825440,0.4800,0.9595,0.1577,62.80,12.07,17.20
103,139830444,0.4849,0.9609,0.1455,62.80,12.50,18.29
104,139835441,0.4888,0.9604,0.1353,63.11,12.74,19.21
105,139840442,0.4937,0.9634,0.1274,63.54,13.17,20.43
106,139845440,0.4971,0.9619,0.1133,64.09,13.66,21.59
107,139850442,0.5078,0.9614,0.1099,64.82,14.09,22.80
108,139855441,0.5186,0.9624,0.1045,65.73,14.57,24.09
109,139860442,0.5239,0.9722,0.1025,66.77,15.06,25.37
110,139865440,0.5391,1.0103,0.0718,68.17,15.43,26.52
111,139870442,0.5439,0.9805,0.0718,70.06,15.67,27.38
112,139875441,0.5513,0.9556,0.0659,71.95,16.16,28.84
113,139880442,0.5615,0.9526,0.0723,73.78,16.46,30.18
114,139885440,0.5630,0.9478,0.0698,75.79,16.71,31.77
115,139890442,0.5630,0.9453,0.0522,77.62,17.20,33.35
116,139895441,0.5786,0.9561,0.0425,79.45,17.50,34.88
117,139900444,0.5962,0.9668,0.0303,81.22,17.99,36.40
118,139905440,0.6069,0.9707,0.0137,83.23,18.54,37.68
119,139910444,0.6270,0.9775,-0.0049,84.94,18.90,39.27
120,139915441,0.6377,0.9834,-0.0176,86.40,19.33,40.24
121,139920441,0.6519,0.9912,-0.0356,88.23,19.63,41.65
122,139925457,0.6641,0.9897,-0.0547,90.00,20.00,42.93
123,139930450,0.6787,0.9902,-0.0718,91.65,20.37,44.27
124,139935441,0.6855,0.9917,-0.0933,93.35,20.73,45.37
125,139940442,0.6899,0.9917,-0.1167,94.94,20.91,46.52
126,139945440,0.6909,0.9878,-0.1333,96.40,21.16,47.56
127,139950442,0.6938,0.9888,-0.1543,97.74,21.71,48.72
128,139955441,0.7021,0.9883,-0.1689,99.09,22.01,49.76
129,139960444,0.6958,0.9912,-0.1831,100.30,22.44,50.55
130,139965440,0.7002,0.9897,-0.1943,101.40,22.80,51.52
131,139970442,0.7056,0.9985,-0.1807,102.32,23.35,52.26
132,139975441,0.7046,1.0210,-0.1743,103.11,24.15,52.93
133,139980444,0.6729,1.0161,-0.2183,103.78,24.88,53.35
134,139985440,0.6870,1.0073,-0.2173,104.82,25.73,53.72
135,139990442,0.6914,0.9907,-0.2104,105.73,26.71,54.21
136,139995441,0.8760,0.8218,-0.8462,108.66,23.05,56.04
137,140000442,0.8062,0.9121,-0.0918,112.99,19.63,57.93
138,140005440,0.9312,0.7583,-0.3340,116.83,16.10,62.01
139,140010442,0.8423,0.8560,-0.5269,121.22,10.18,65.49
140,140015441,0.8276,0.8457,-0.1860,125.12,7.44,68.48
141,140020441,0.7544,0.9160,0.1963,129.21,8.54,71.16
142,140025440,0.7246,0.9326,-0.1157,129.70,10.06,72.93
143,140030444,0.7300,0.9116,-0.3589,131.95,10.61,74.33
144,140035441,0.7109,0.8887,-0.1865,133.60,11.71,75.67
145,140040442,0.7539,0.9487,-0.0479,135.61,13.41,76.77
146,140045440,0.6724,0.8872,-0.3589,138.84,14.21,77.50
147,140050442,0.6519,0.9053,-0.4624,142.38,14.02,78.17
148,140055441,0.5977,0.8770,-0.2451,146.04,15.67,78.54
149,140060442,0.5610,0.8711,-0.1885,149.88,17.87,78.66
150,140065440,0.5557,0.8760,-0.4458,154.02,18.84,78.48
151,140070442,0.5371,0.8901,-0.4917,158.29,19.09,77.80
152,140075441,0.5000,0.8916,-0.2515,162.20,20.91,76.89
153,140080442,0.4644,0.9009,-0.2529,166.04,23.11,75.49
154,140085440,0.4312,0.9336,-0.4404,170.79,24.45,73.90
155,140090442,0.4707,0.9253,-0.3574,176.16,25.73,71.95
156,140095441,0.4326,0.8994,-0.1753,181.34,28.11,70.00
157,140100540,0.4536,0.8872,-0.2104,186.52,30.67,67.93
158,140105440,0.4678,0.8408,-0.3486,191.83,32.13,66.04
159,140110444,0.4863,0.7915,-0.2529,197.56,33.66,64.51
160,140115441,0.4937,0.6665,-0.0527,203.41,35.98,63.78
161,140120440,0.5605,0.4478,0.0845,208.78,40.85,66.34
162,140125440,0.5610,0.2114,-0.1362,215.00,45.37,72.56
163,140130504,0.5850,0.0679,0.0005,221.16,50.00,83.11
164,140135442,0.5806,0.2056,0.0352,225.85,56.04,94.09
165,140140443,0.5557,0.4746,-0.1621,229.51,60.85,102.38
166,140145442,0.5278,0.6577,-0.3706,232.26,63.29,106.65
167,140150441,0.5073,0.7437,-0.4429,234.09,63.72,107.38
168,140155442,0.5522,0.7842,-0.4985,234.63,63.11,105.98
169,140160442,0.5767,0.7656,-0.5522,234.94,61.59,103.35
170,140165445,0.5981,0.7251,-0.4434,234.33,59.15,98.78
171,140170444,0.5908,0.6543,-0.3862,232.50,58.17,95.61
172,140175443,0.5713,0.5864,-0.4160,228.60,56.95,91.71
173,140180444,0.5498,0.5122,-0.3906,223.90,54.94,88.35
174,140185441,0.5337,0.4722,-0.3389,218.72,52.93,85.98
175,140190440,0.5581,0.4487,-0.2969,212.87,50.85,82.62
176,140195444,0.6172,0.4331,-0.2617,206.16,49.02,79.45
177,140200442,0.6929,0.4263,-0.2485,198.90,47.01,75.85
178,140205443,0.7681,0.3950,-0.2290,191.16,44.88,71.77
179,140210441,0.7920,0.3340,-0.1914,182.74,42.87,67.44
180,140215442,0.8267,0.3247,-0.2036,174.15,40.85,63.11
181,140220441,0.8579,0.2974,-0.1470,165.30,39.09,58.60
182,140225440,0.8823,0.2695,-0.1055,155.85,37.87,53.96
183,140230440,1.0488,0.2305,-0.0151,144.76,36.77,49.51
184,140235443,1.0596,0.2236,-0.0044,130.43,36.16,45.06
185,140240442,1.0137,0.2148,-0.0640,116.65,35.00,40.55
186,140245441,0.9648,0.1914,-0.1050,100.61,33.54,36.71
187,140250853,0.9404,0.1523,-0.1206,83.72,31.89,33.48
188,140255442,0.9390,0.1318,-0.1626,66.46,29.94,30.91
189,140260443,0.9346,0.1445,-0.1558,49.57,28.29,28.48
190,140265442,0.9531,0.1226,-0.1650,33.35,27.07,26.10
191,140270441,0.9600,0.1377,-0.1768,18.60,26.10,24.21
192,140275442,0.9468,0.1562,-0.2007,5.73,25.30,22.26
193,140280442,0.9438,0.1543,-0.1987,-4.63,24.82,20.30
194,140285442,0.9375,0.1450,-0.2041,-12.56,24.94,18.66
195,140290440,0.9336,0.1475,-0.2197,-18.29,25.43,17.07
196,140295444,0.9219,0.1494,-0.2207,-21.65,26.22,15.55
197,140300441,0.9053,0.1587,-0.2241,-23.17,27.38,14.15
198,140305442,0.8940,0.1689,-0.2456,-23.29,28.48,12.68
199,140310467,0.8926,0.1821,-0.2837,-21.95,29.94,11.16
200,140315442,0.8833,0.1792,-0.2744,-19.21,31.28,9.88
201,140320442,0.8774,0.1787,-0.2949,-15.49,32.74,8.66
202,140325442,0.8652,0.1948,-0.3135,-11.40,34.27,7.32
203,140330441,0.8438,0.2163,-0.3403,-7.26,35.49,5.91
204,140335444,0.7759,0.2505,-0.3774,-3.29,36.10,4.09
205,140340442,0.8135,0.1899,-0.3486,0.49,37.01,2.44
206,140345441,0.7070,0.2573,-0.4868,4.27,37.87,1.16
207,140350442,0.5449,0.4902,-0.6909,7.13,37.20,-0.85
208,140355441,0.6768,0.1636,-0.3237,10.24,37.87,-2.38
209,140360442,0.8281,0.2026,-0.6372,16.83,40.55,-1.04
210,140365441,0.7505,0.2700,-0.8296,24.76,40.06,-1.34
211,140370442,0.6807,0.2744,-0.8081,34.51,40.43,-1.65
212,140375441,0.7158,0.3013,-0.8477,46.40,41.71,-1.28
213,140380442,0.7729,0.3315,-0.9531,60.00,43.23,-0.43
214,140385441,0.7910,0.3320,-1.0083,73.96,44.76,0.30
215,140390442,0.8267,0.3584,-0.9604,87.50,46.71,1.16
216,140395440,0.8760,0.3569,-0.9839,100.00,49.02,1.77
217,140400444,0.9004,0.3184,-1.0000,110.73,51.10,2.32
218,140405441,0.9180,0.3384,-0.9912,120.24,53.29,2.87
219,140410442,0.9272,0.3354,-0.9082,128.29,55.61,2.74
220,140415441,0.9399,0.3403,-0.8550,133.96,58.29,2.20
221,140420442,0.9336,0.3721,-0.8325,139.70,60.85,1.28
222,140425441,0.9194,0.4072,-0.7695,144.02,63.60,-0.43
223,140430443,0.8657,0.4097,-0.7051,147.68,66.71,-2.32
224,140435441,0.8496,0.4180,-0.6777,151.16,69.82,-4.51
225,140440444,0.8330,0.4326,-0.6660,154.94,73.23,-6.52
226,140445441,0.8032,0.5044,-0.6260,158.35,76.95,-8.72
227,140450443,0.7764,0.5596,-0.5928,162.01,80.91,-11.46
228,140455441,0.7500,0.5425,-0.5967,166.16,85.12,-14.21
229,140460444,0.7153,0.4834,-0.6284,170.67,86.34,-16.40
230,140465441,0.6963,0.4390,-0.6606,175.55,90.00,-17.80
231,140470442,0.7280,0.4219,-0.7471,180.73,92.13,-19.27
232,140475441,0.7295,0.3579,-0.6963,186.46,93.41,-20.49
233,140480621,0.7051,0.3081,-0.7339,191.77,94.94,-21.52
234,140485442,0.7031,0.3159,-0.7217,196.28,96.71,-22.62
235,140490442,0.7393,0.2715,-0.7861,200.37,97.68,-23.72
236,140495442,0.7344,0.2769,-0.7095,204.02,98.48,-24.88
237,140500441,0.7778,0.2910,-0.7734,208.23,98.78,-25.79
238,140505442,0.7163,0.4468,-0.7295,212.50,99.27,-27.99
239,140510442,0.6230,0.4512,-0.6743,215.98,100.79,-31.34
240,140515442,0.5186,0.4800,-0.6338,219.21,102.56,-34.88
241,140520440,0.4507,0.4482,-0.6401,221.40,104.82,-38.66
242,140525442,0.4409,0.3706,-0.6665,222.13,107.07,-41.71
243,140530441,0.4526,0.3018,-0.6919,220.67,108.90,-43.41
244,140535742,0.5059,0.3013,-0.6699,217.01,109.76,-44.15
245,140540443,0.5605,0.2798,-0.6958,210.85,109.57,-44.21
246,140545528,0.6133,0.3667,-0.6567,202.68,108.72,-44.15
247,140550444,0.6504,0.3799,-0.5962,192.87,107.50,-44.15
248,140555440,0.6816,0.4771,-0.5562,181.95,106.04,-44.70
249,140560442,0.6934,0.4888,-0.5557,170.18,104.51,-45.91
250,140565441,0.6729,0.4985,-0.5635,157.99,102.74,-47.20
251,140570444,0.6411,0.4893,-0.5571,145.98,101.10,-48.78
252,140575441,0.6392,0.4692,-0.5596,134.09,99.51,-50.24
253,140580442,0.6567,0.4429,-0.5605,123.84,97.99,-51.65
254,140585440,0.6719,0.4199,-0.5474,114.02,96.89,-52.68
255,140590441,0.6743,0.4097,-0.5283,105.55,96.04,-53.54
256,140595440,0.6611,0.4082,-0.5220,98.35,95.24,-54.33
257,140600443,0.6641,0.4189,-0.5078,92.80,94.57,-55.12
258,140605442,0.6636,0.4165,-0.5005,88.60,94.33,-55.91
259,140610696,0.6626,0.4116,-0.4971,86.22,93.78,-56.59
260,140615442,0.6577,0.4155,-0.4937,85.43,93.41,-57.32
261,140620445,0.6562,0.4170,-0.4849,85.85,92.93,-57.99
262,140625441,0.6567,0.4258,-0.4702,87.26,92.20,-58.72
263,140630440,0.6636,0.4409,-0.5068,89.33,91.28,-59.70
264,140635440,0.6660,0.4517,-0.4438,92.80,89.94,-60.85
265,140640440,0.6450,0.4014,-0.3579,98.48,88.72,-62.13
266,140645442,0.6094,0.3647,-0.3374,103.90,88.84,-62.80
267,140650442,0.5908,0.3511,-0.3608,109.63,88.60,-62.93
268,140655441,0.5874,0.3525,-0.3452,114.57,88.78,-63.35
269,140660442,0.5859,0.3677,-0.3608,120.49,88.96,-64.21
270,140665441,0.5791,0.3716,-0.3726,125.55,88.17,-65.43
271,140670442,0.5684,0.3604,-0.3438,129.70,85.85,-66.95
272,140675441,0.5503,0.3462,-0.3335,133.48,85.06,-68.41
273,140680442,0.5283,0.3438,-0.3232,136.34,85.37,-70.00
274,140685441,0.5073,0.3442,-0.3110,138.23,85.24,-71.59
275,140690442,0.4824,0.3403,-0.3081,139.39,83.29,-73.60
276,140695441,0.4541,0.3330,-0.3018,140.12,81.89,-75.73
277,140700440,0.4263,0.3291,-0.2925,140.18,80.06,-77.87
278,140705442,0.3965,0.3252,-0.2915,139.76,78.60,-79.82
279,140710442,0.3721,0.3193,-0.2695,139.02,76.89,-81.95
280,140715442,0.3442,0.3154,-0.2729,138.41,75.37,-84.02
281,140720442,0.3174,0.3066,-0.2661,137.93,73.41,-86.04
282,140725442,0.2925,0.3096,-0.2539,137.62,71.40,-88.05
283,140730442,0.2720,0.3154,-0.2310,137.44,69.33,-90.18
284,140735440,0.2549,0.3105,-0.2168,137.56,67.20,-92.44
285,140740441,0.2388,0.3154,-0.2119,137.93,65.18,-94.76
286,140745442,0.2148,0.3086,-0.1890,138.29,62.99,-97.13
287,140750442,0.1987,0.3096,-0.1724,139.09,60.79,-99.57
288,140755442,0.1797,0.3086,-0.1572,139.76,58.41,-102.07
289,140760442,0.1655,0.3135,-0.1470,140.61,55.73,-104.76
290,140765441,0.1348,0.3159,-0.1230,141.28,53.41,-107.44
291,140770442,0.1118,0.3179,-0.1133,142.26,50.61,-110.37
292,140775441,0.0923,0.3179,-0.1011,143.29,47.80,-113.17
293,140780442,0.0757,0.3125,-0.0884,144.51,45.37,-116.40
294,140785442,0.0146,0.2915,-0.1211,145.18,42.38,-119.57
295,140790442,0.0063,0.2925,-0.1162,145.00,39.45,-122.80
296,140795441,0.0068,0.2935,-0.0776,144.45,36.46,-126.22
297,140800442,0.0049,0.3018,-0.0571,143.60,33.90,-129.82
298,140805482,-0.0103,0.3027,-0.0601,142.87,31.28,-133.48
299,140810442,-0.0273,0.3296,-0.0425,142.07,28.41,-137.26
300,140815441,-0.0503,0.3462,-0.0493,140.98,25.67,-141.34
301,140820444,-0.0557,0.3467,-0.0371,139.33,23.05,-145.43
302,140825441,-0.0547,0.3560,-0.0312,137.07,20.00,-149.57
303,140830442,-0.0649,0.3711,-0.0195,133.96,17.01,-153.66
304,140835441,-0.0781,0.3931,-0.0137,130.00,14.02,-157.80
305,140840441,-0.1240,0.4180,-0.0103,128.17,10.85,-162.01
306,140845440,-0.1172,0.4336,-0.0093,123.48,7.50,-165.98
307,140850442,-0.1133,0.4609,-0.0156,119.21,3.96,-169.88
308,140855441,-0.1006,0.4834,0.0098,114.88,0.67,-173.72
309,140860442,-0.1289,0.5000,0.0503,110.49,-2.56,-177.38
310,140865441,-0.1650,0.5303,0.0581,105.91,-5.91,-180.85
311,140870442,-0.2114,0.5513,0.0537,101.46,-9.51,-184.21
312,140875441,-0.2598,0.5698,0.0571,96.83,-13.23,-187.44
313,140880442,-0.3071,0.5854,0.0547,92.44,-16.65,-190.43
314,140885441,-0.3403,0.6016,0.0576,88.29,-20.18,-193.35
315,140890442,-0.3589,0.6167,0.0679,84.15,-23.90,-196.10
316,140895441,-0.3740,0.6270,0.0801,80.24,-27.38,-198.84
317,140900442,-0.3965,0.6445,0.0918,76.16,-30.85,-201.28
318,140905441,-0.4141,0.6636,0.0845,72.26,-34.45,-203.72
319,140910442,-0.4370,0.6851,0.0894,68.78,-37.74,-205.79
320,140915441,-0.4614,0.7061,0.0781,65.43,-41.28,-207.87
321,140920442,-0.4951,0.7324,0.0688,62.62,-44.82,-209.88
322,140925441,-0.4951,0.7437,0.0552,60.18,-48.48,-211.52
323,140930442,-0.5312,0.7783,0.0649,57.56,-52.20,-212.99
324,140935441,-0.5879,0.8076,0.0532,55.24,-55.91,-214.15
325,140940440,-0.6265,0.8330,0.0576,53.17,-59.70,-215.12
326,140945440,-0.6543,0.8521,0.0820,51.28,-63.66,-215.91
327,140950442,-0.6743,0.8706,0.0889,49.33,-67.68,-216.46
328,140955441,-0.6631,0.8887,0.1050,47.26,-71.65,-216.71
329,140960442,-0.6704,0.9053,0.1235,44.57,-75.73,-216.59
330,140965441,-0.7070,0.9316,0.1343,41.89,-79.94,-216.52
331,140970442,-0.6631,0.9595,0.1289,39.76,-84.21,-215.98
332,140975441,-0.7603,1.0068,0.1958,38.05,-88.72,-215.30
333,140980442,-0.8237,1.0430,0.1875,37.44,-93.05,-214.51
334,140985441,-0.8750,1.0771,0.1880,38.17,-98.29,-213.35
335,140990442,-0.9180,1.1099,0.2437,40.06,-103.72,-211.89
336,140995441,-0.9561,1.1450,0.2646,43.41,-109.33,-209.88
337,141000442,-1.0078,1.1763,0.2817,47.44,-115.61,-207.62
338,141005442,-1.0635,1.2012,0.2983,52.32,-122.26,-205.12
339,141010442,-1.1162,1.2148,0.3096,57.68,-129.51,-202.20
340,141015442,-1.1738,1.2378,0.3032,63.11,-137.26,-198.90
341,141020440,-1.2383,1.2476,0.3032,69.39,-147.44,-194.76
342,141025442,-1.2725,1.2559,0.3042,73.29,-154.45,-191.65
343,141030442,-1.3086,1.2764,0.3037,77.80,-163.54,-187.32
344,141035442,-1.3423,1.2891,0.2915,82.56,-173.23,-182.80
345,141040442,-1.3750,1.3237,0.2900,87.50,-183.23,-177.87
346,141045443,-1.4346,1.3481,0.2607,92.20,-193.60,-172.62
347,141050440,-1.4751,1.3833,0.2393,97.07,-204.27,-167.07
348,141055442,-1.5039,1.4126,0.2261,102.07,-215.61,-161.04
349,141060442,-1.5410,1.4409,0.2188,106.89,-227.32,-154.82
350,141065442,-1.5635,1.4600,0.1953,111.34,-239.39,-148.11
351,141070442,-1.5981,1.4810,0.1782,115.30,-251.59,-140.98
352,141075442,-1.6533,1.4795,0.1558,118.54,-264.51,-133.78
353,141080442,-1.7090,1.4790,0.1211,120.73,-277.44,-125.98
354,141085443,-1.7749,1.4897,0.0811,122.32,-290.85,-118.11
355,141090442,-1.8296,1.4937,0.0420,123.54,-304.45,-109.63
356,141095442,-1.8887,1.5039,-0.0083,125.00,-318.48,-100.85
357,141100442,-1.9424,1.5073,-0.0386,127.26,-332.62,-91.52
358,141105443,-2.0132,1.5142,-0.0986,129.63,-346.83,-81.77
359,141110442,-2.0791,1.5215,-0.1528,134.33,-360.85,-71.52
360,141115441,-2.1543,1.5210,-0.1992,139.45,-374.82,-60.61
361,141120443,-2.2153,1.5283,-0.2510,144.82,-388.48,-49.02
362,141125442,-2.2886,1.5249,-0.3105,150.73,-402.13,-36.83
363,141130442,-2.3608,1.5327,-0.3374,156.83,-415.18,-24.02
364,141135442,-2.4556,1.5337,-0.4067,162.68,-427.68,-10.73
365,141140441,-2.5459,1.5293,-0.4512,167.93,-440.00,3.11
366,141145442,-2.6479,1.5342,-0.4844,172.38,-451.28,17.44
367,141150441,-2.7529,1.5288,-0.5532,175.61,-461.83,31.89
368,141155544,-2.8501,1.5308,-0.5972,177.74,-471.65,46.89
369,141160442,-2.9419,1.5288,-0.6567,178.54,-480.67,62.07
370,141165442,-3.0244,1.5146,-0.7476,177.50,-489.33,77.20
371,141170443,-3.1094,1.5288,-0.7881,174.76,-497.13,92.32
372,141175442,-3.2104,1.5283,-0.8882,170.12,-504.88,107.87
373,141181359,-3.3359,1.5273,-0.9946,163.05,-513.35,126.59
374,141185442,-3.4248,1.5273,-1.0278,158.17,-518.23,139.27
375,141190441,-3.5078,1.5283,-1.0654,152.80,-523.60,155.06
376,141195445,-3.5840,1.5332,-1.1128,148.66,-527.80,170.98
377,141200442,-3.6694,1.5425,-1.1318,146.46,-530.55,186.89
378,141205442,-3.7671,1.5596,-1.1558,145.18,-532.01,202.56
379,141210441,-3.8564,1.5737,-1.1826,144.39,-532.99,218.11
380,141215444,-3.9502,1.5889,-1.1899,143.23,-532.87,233.23
381,141220441,-4.0371,1.6094,-1.2056,141.16,-532.13,247.99
382,141225443,-4.1099,1.6216,-1.2090,137.38,-530.85,262.07
383,141230442,-4.1670,1.6440,-1.2368,131.52,-529.57,275.61
384,141235442,-4.2505,1.6812,-1.2769,126.10,-527.87,288.29
385,141240442,-4.3618,1.6836,-1.3320,118.66,-526.34,300.18
386,141245442,-4.4307,1.6924,-1.3770,110.98,-524.45,311.46
387,141250441,-4.4863,1.7109,-1.4326,102.74,-522.32,321.77
388,141255442,-4.5508,1.7378,-1.4873,93.54,-520.24,330.98
389,141260441,-4.6118,1.7666,-1.5405,83.41,-517.99,339.21
390,141265442,-4.6592,1.8042,-1.5918,72.44,-515.98,346.04
391,141270441,-4.6919,1.8491,-1.6270,61.52,-513.23,351.83
392,141275444,-4.7207,1.8936,-1.6460,51.10,-510.55,356.46
393,141280441,-4.7378,1.9385,-1.6577,41.65,-507.20,360.37
394,141285442,-4.7539,1.9736,-1.6719,33.29,-503.23,363.60
395,141290441,-4.7603,1.9980,-1.6953,25.24,-498.60,366.59
396,141295442,-4.7554,2.0225,-1.7188,17.56,-493.78,369.39
397,141300866,-4.7485,2.0283,-1.7505,10.12,-488.23,372.13
398,141305442,-4.7397,2.0303,-1.7925,2.74,-482.32,374.82
399,141310441,-4.7075,2.0449,-1.8335,-3.84,-475.98,377.62
400,141315442,-4.6636,2.0513,-1.8696,-9.33,-469.45,380.55
401,141320441,-4.6221,2.0605,-1.8945,-14.27,-462.38,383.60
402,141325442,-4.5615,2.0776,-1.9282,-17.32,-454.76,386.89
403,141330443,-4.5049,2.0908,-1.9443,-20.06,-446.52,390.37
404,141335442,-4.4575,2.1118,-1.9780,-22.26,-437.74,393.90
405,141340441,-4.3940,2.1484,-2.0054,-24.57,-428.66,397.44
406,141345444,-4.3281,2.1650,-2.0317,-27.20,-419.27,401.22
407,141350441,-4.2646,2.1851,-2.0527,-29.82,-409.63,404.82
408,141355443,-4.1973,2.2080,-2.0986,-32.56,-399.51,408.66
409,141360441,-4.1226,2.2095,-2.1230,-35.67,-389.70,412.68
410,141365442,-4.0513,2.1968,-2.1538,-38.72,-379.82,416.77
411,141370441,-3.9775,2.2026,-2.1816,-41.83,-369.88,421.34
412,141375442,-3.9404,2.1763,-2.2334,-44.21,-359.88,426.10
413,141380442,-3.8770,2.1572,-2.2505,-45.73,-350.06,431.34
414,141385442,-3.8008,2.1382,-2.2637,-46.77,-340.24,436.89
415,141390441,-3.7148,2.1069,-2.3057,-46.89,-330.37,443.17
416,141395442,-3.7012,2.1055,-2.3154,-46.28,-320.55,449.76
417,141400441,-3.6528,2.0703,-2.3271,-45.49,-310.85,457.07
418,141405442,-3.5537,2.0146,-2.3418,-45.67,-301.52,464.82
419,141410441,-3.4971,1.9731,-2.3320,-46.71,-292.50,472.93
420,141415442,-3.4580,1.9141,-2.3354,-48.17,-283.29,481.46
421,141420442,-3.3711,1.8452,-2.3486,-51.04,-274.70,490.30
422,141425442,-3.2998,1.7817,-2.3340,-55.00,-266.04,499.45
423,141430440,-3.2529,1.7061,-2.3335,-58.54,-257.62,508.72
424,141435442,-3.2148,1.6333,-2.3262,-61.89,-249.45,518.11
425,141440441,-3.1797,1.5601,-2.3052,-64.76,-241.22,527.32
426,141445442,-3.1499,1.5015,-2.2769,-66.40,-232.93,536.34
427,141450442,-3.1226,1.4312,-2.2632,-66.59,-224.21,545.12
428,141455443,-3.1064,1.3633,-2.2227,-65.61,-215.49,553.54
429,141460441,-3.0815,1.2715,-2.1992,-63.41,-206.65,561.52
430,141465442,-3.1025,1.2212,-2.1567,-60.43,-197.56,569.09
431,141470441,-3.0913,1.1372,-2.1401,-55.49,-188.35,575.85
432,141475442,-3.0586,1.0566,-2.1172,-49.45,-178.72,582.26
433,141480441,-3.0044,0.9604,-2.0742,-42.56,-168.96,588.05
434,141485442,-2.9976,0.8828,-2.0068,-36.04,-159.09,592.99
435,141490441,-2.9951,0.8101,-1.9941,-31.28,-151.16,596.34
436,141495442,-2.9551,0.7124,-1.9771,-25.73,-140.98,600.12
437,141500443,-2.9282,0.6191,-1.9355,-20.24,-128.72,603.60
438,141505443,-2.9170,0.5679,-1.8750,-17.32,-120.37,605.24
439,141510441,-2.9131,0.4785,-1.8491,-14.63,-110.55,606.65
440,141515442,-2.8867,0.4165,-1.8008,-13.29,-101.04,607.68
441,141520440,-2.8511,0.3579,-1.7583,-12.99,-91.71,607.80
442,141525440,-2.7949,0.3096,-1.7324,-13.41,-82.50,607.20
443,141530442,-2.7437,0.2461,-1.6528,-13.90,-73.48,605.79
444,141535441,-2.7246,0.1689,-1.5962,-15.91,-64.39,603.29
445,141540442,-2.7231,0.1724,-1.5498,-17.62,-55.79,600.49
446,141545442,-2.7114,0.1572,-1.4526,-17.50,-46.65,597.38
447,141550442,-2.6680,0.1152,-1.4414,-15.73,-37.26,593.90
448,141555592,-2.5986,0.0513,-1.4087,-11.65,-26.04,589.51
449,141560481,-2.5464,-0.0093,-1.3662,-8.41,-18.48,586.40
450,141565442,-2.5049,-0.0449,-1.3179,-3.72,-9.02,582.13
451,141570442,-2.4629,-0.0698,-1.3184,2.01,0.24,577.93
452,141575442,-2.4424,-0.1152,-1.2710,8.41,9.33,573.48
453,141580442,-2.4111,-0.1494,-1.2290,15.67,18.84,568.84
454,141585442,-2.3770,-0.1938,-1.1919,23.54,28.35,564.15
455,141590442,-2.3418,-0.2334,-1.1562,31.71,38.23,559.02
456,141595442,-2.2759,-0.2676,-1.1177,40.24,47.93,553.54
457,141600442,-2.2373,-0.3120,-1.0815,49.02,57.80,547.74
458,141605442,-2.1987,-0.3481,-1.0518,57.44,67.87,541.28
459,141610442,-2.1606,-0.3779,-1.0381,65.37,77.80,534.27
460,141615442,-2.1250,-0.3950,-1.0151,72.68,86.83,526.40
461,141620442,-2.0776,-0.4512,-0.9619,78.72,96.65,517.62
462,141625443,-2.0425,-0.4976,-0.9316,82.62,105.91,508.60
463,141630442,-1.9761,-0.5288,-0.9404,83.90,114.82,498.84
464,141635443,-1.9546,-0.5688,-0.8848,83.05,122.62,488.35
465,141640442,-1.9185,-0.5977,-0.8584,80.49,129.51,477.44
466,141645442,-1.8896,-0.6396,-0.8369,75.85,136.04,466.28
467,141650443,-1.8447,-0.6675,-0.8228,69.45,141.89,455.00
468,141655440,-1.8169,-0.6929,-0.7920,61.16,146.89,443.41
469,141660442,-1.7900,-0.7388,-0.7642,52.32,151.40,432.07
470,141665442,-1.7168,-0.7524,-0.7725,42.99,155.12,421.10
471,141670442,-1.6431,-0.8003,-0.6538,31.28,158.54,409.94
472,141675442,-1.6616,-0.8242,-0.6289,18.17,161.52,399.15
473,141680440,-1.7095,-0.8931,-0.6475,6.59,163.84,389.15
474,141685442,-1.7139,-0.9307,-0.5781,-2.74,165.24,380.12
475,141690442,-1.7583,-0.9468,-0.5024,-9.63,166.71,371.65
476,141695442,-1.7856,-0.9736,-0.5361,-13.84,168.11,363.41
477,141700440,-1.7563,-0.9971,-0.4966,-15.91,169.39,355.30
478,141705442,-1.7305,-1.0122,-0.4688,-16.46,170.98,347.26
479,141710441,-1.7349,-1.0474,-0.4243,-15.73,172.56,339.33
480,141715442,-1.7090,-1.0913,-0.3604,-14.09,174.51,331.65
481,141720440,-1.7002,-1.1191,-0.3472,-12.87,176.71,324.21
482,141725442,-1.7314,-1.1597,-0.2788,-11.40,178.60,316.89
483,141730441,-1.7363,-1.2305,-0.2163,-10.73,180.98,309.94
484,141735441,-1.7515,-1.2642,-0.2051,-11.10,183.60,303.29
485,141740443,-1.7788,-1.3174,-0.1445,-12.62,185.98,296.46
486,141745441,-1.7749,-1.3706,-0.0942,-15.30,188.54,289.76
487,141750442,-1.7681,-1.4248,-0.0752,-18.78,190.79,283.11
488,141755444,-1.7686,-1.4810,-0.0161,-22.87,193.17,276.46
489,141760442,-1.7910,-1.5347,0.0200,-27.13,195.37,270.00
490,141765567,-1.8062,-1.5874,0.0493,-31.52,197.50,263.54
491,141770442,-1.8203,-1.6333,0.0898,-36.10,199.15,257.20
492,141775442,-1.8296,-1.6860,0.1396,-40.55,200.49,250.91
493,141780442,-1.8164,-1.7480,0.1748,-44.63,201.95,244.57
494,141785442,-1.7891,-1.8013,0.2451,-48.05,203.05,238.41
495,141790442,-1.7812,-1.8281,0.2700,-50.79,203.84,232.13
496,141795442,-1.8003,-1.8633,0.2803,-52.80,204.63,225.67
497,141800442,-1.7969,-1.9023,0.3027,-53.90,205.00,219.27
498,141805442,-1.7964,-1.9419,0.3154,-53.48,204.88,212.99
499,141810442,-1.7642,-1.9512,0.3252,-51.77,204.45,206.46
500,141815442,-1.7300,-1.9971,0.3335,-49.39,203.96,199.70
501,141820442,-1.6914,-2.0234,0.3340,-45.37,202.68,192.93
502,141825442,-1.6519,-2.0200,0.3223,-39.39,200.67,185.91
503,141830442,-1.6045,-2.0093,0.3115,-31.65,198.78,178.48
504,141835441,-1.5513,-1.9790,0.3223,-22.26,196.52,170.30
505,141840442,-1.4590,-2.0093,0.3682,-12.20,193.60,161.34
506,141845442,-1.3984,-1.9966,0.3306,-2.07,190.61,152.26
507,141850441,-1.3315,-1.9468,0.2886,8.84,186.77,142.32
508,141855442,-1.2593,-1.9170,0.3247,20.55,182.13,131.95
509,141860440,-1.1958,-1.9087,0.3350,32.56,177.26,121.10
510,141865444,-1.1045,-1.9180,0.3530,44.15,171.89,109.88
511,141870519,-0.9893,-1.9282,0.4004,54.45,165.91,98.48
512,141875442,-0.9351,-1.8882,0.4199,62.26,159.76,86.83
513,141880440,-0.8472,-1.9126,0.4346,67.99,152.93,74.63
514,141885442,-0.7944,-1.8833,0.4297,71.59,145.55,62.26
515,141890441,-0.7231,-1.8735,0.4434,73.60,137.62,49.63
516,141895444,-0.6792,-1.8496,0.4478,74.70,129.94,36.89
517,141900440,-0.6465,-1.8672,0.4878,74.51,121.83,24.15
518,141905442,-0.6323,-1.8628,0.4985,73.84,113.78,11.65
519,141910441,-0.6045,-1.8354,0.4902,73.17,105.55,-0.61
520,141915444,-0.5815,-1.8047,0.5142,72.87,97.01,-12.38
521,141920442,-0.5830,-1.7715,0.5215,73.66,88.96,-23.60
522,141925442,-0.5918,-1.7295,0.5332,75.37,81.22,-34.39
523,141930441,-0.6079,-1.6948,0.5591,77.62,72.99,-44.39
524,141935442,-0.6260,-1.6172,0.5786,79.21,65.12,-53.78
525,141940441,-0.6602,-1.5811,0.5391,80.30,57.56,-62.62
526,141945442,-0.6851,-1.5483,0.5063,80.98,50.18,-70.61
527,141950441,-0.7202,-1.4800,0.5142,81.34,42.80,-77.87
528,141955442,-0.7529,-1.4058,0.4951,81.65,36.16,-84.70
529,141960442,-0.7715,-1.3843,0.5264,81.10,30.00,-90.91
530,141965442,-0.7983,-1.3359,0.5356,79.21,24.33,-96.65
531,141970441,-0.8105,-1.2974,0.5015,76.83,18.78,-101.95
532,141975440,-0.8096,-1.2642,0.4995,74.51,13.54,-106.89
533,141980442,-0.8149,-1.2300,0.4990,72.68,8.66,-111.28
534,141985441,-0.8105,-1.1953,0.4824,71.34,4.21,-115.30
535,141990441,-0.8062,-1.1709,0.4746,70.55,0.00,-118.96
536,141995442,-0.7974,-1.1416,0.4619,70.18,-4.09,-122.20
537,142000441,-0.7861,-1.1157,0.4526,69.88,-7.80,-125.12
538,142005442,-0.7715,-1.0850,0.4399,69.94,-11.77,-127.56
539,142010441,-0.7495,-1.0532,0.4375,70.24,-15.18,-129.94
540,142015442,-0.7305,-1.0303,0.4297,70.61,-18.48,-131.89
541,142020441,-0.7124,-1.0107,0.4155,70.98,-21.65,-133.66
542,142025442,-0.6943,-0.9907,0.4053,70.98,-24.76,-135.12
543,142030441,-0.6714,-0.9658,0.3882,70.67,-27.50,-136.28
544,142035442,-0.6479,-0.9497,0.3804,70.00,-30.24,-137.44
545,142040441,-0.6270,-0.9297,0.3652,68.96,-32.93,-138.54
546,142045444,-0.6064,-0.9224,0.3564,67.50,-35.37,-139.45
547,142050441,-0.5898,-0.8921,0.3442,65.37,-37.80,-140.49
548,142055444,-0.5605,-0.8745,0.3232,62.87,-40.24,-141.52
549,142060441,-0.5264,-0.8599,0.3145,60.55,-42.32,-142.68
550,142065443,-0.5063,-0.8481,0.3076,58.29,-44.51,-143.78
551,142070441,-0.4839,-0.8345,0.2837,56.10,-46.83,-144.63
552,142075440,-0.4727,-0.8364,0.2402,54.09,-48.90,-145.61
553,142080442,-0.4751,-0.8384,0.2368,51.40,-51.46,-146.28
554,142085446,-0.4595,-0.8286,0.2368,49.27,-53.60,-147.13
555,142090955,-0.4448,-0.8218,0.2397,47.93,-55.18,-147.93
556,142095442,-0.4316,-0.8164,0.2217,47.56,-57.07,-148.78
557,142100441,-0.4160,-0.7974,0.2300,47.93,-58.72,-149.57
558,142105442,-0.4033,-0.7681,0.2480,48.54,-60.37,-150.18
559,142110441,-0.3853,-0.7563,0.2280,49.09,-62.13,-150.67
560,142115442,-0.3721,-0.7480,0.2407,49.57,-63.78,-150.79
561,142120442,-0.3633,-0.7456,0.2588,49.88,-65.24,-150.61
562,142125442,-0.3477,-0.7505,0.2437,49.76,-66.83,-149.88
563,142130441,-0.3252,-0.7568,0.2383,49.39,-68.48,-148.96
564,142135442,-0.2988,-0.7578,0.2437,48.78,-69.88,-147.87
565,142140441,-0.2788,-0.7715,0.2500,48.11,-71.22,-146.71
566,142145442,-0.2500,-0.7837,0.2729,47.20,-72.13,-145.55
567,142150441,-0.2168,-0.7905,0.3013,45.91,-72.80,-144.39
568,142155442,-0.1772,-0.7783,0.3096,44.21,-73.05,-143.48
569,142160441,-0.1367,-0.7617,0.2969,41.77,-73.35,-142.68
570,142165442,-0.1108,-0.7490,0.2788,38.66,-73.54,-142.01
571,142170442,-0.1035,-0.7388,0.2632,35.24,-73.78,-141.34
572,142175779,-0.1162,-0.7407,0.2441,31.22,-73.78,-140.43
573,142181636,-0.1284,-0.7515,0.2280,25.55,-73.84,-139.09
574,142185444,-0.1221,-0.7588,0.2158,21.34,-73.72,-138.11
575,142190440,-0.1069,-0.7583,0.2007,15.67,-73.60,-136.83
576,142195444,-0.0791,-0.7690,0.1797,9.94,-73.48,-135.61
577,142200442,-0.0537,-0.7739,0.1675,4.45,-73.23,-134.45
578,142205442,-0.0200,-0.7749,0.1689,-0.67,-72.68,-133.54
579,142210441,0.0215,-0.7700,0.1694,-5.55,-71.89,-132.68
580,142215442,0.0435,-0.7725,0.1440,-10.00,-71.04,-132.20
581,142220441,0.0698,-0.7856,0.1426,-14.39,-70.00,-131.65
582,142225442,0.0928,-0.7930,0.1509,-18.78,-68.90,-131.28
583,142230441,0.1240,-0.8115,0.1162,-23.17,-67.80,-130.91
584,142235442,0.1147,-0.8105,0.1113,-28.17,-66.52,-130.61
585,142240441,0.1133,-0.7983,0.1411,-33.17,-65.37,-130.79
586,142245442,0.1323,-0.8027,0.1094,-37.74,-64.15,-131.34
587,142250441,0.1533,-0.8369,0.0757,-41.34,-63.11,-131.89
588,142255442,0.1938,-0.8501,0.1011,-43.96,-62.20,-132.26
589,142260441,0.2471,-0.8579,0.0972,-45.06,-60.91,-132.44
590,142265442,0.2539,-0.8213,0.0796,-43.72,-59.76,-131.89
591,142270442,0.2344,-0.8447,0.0737,-41.16,-58.41,-131.83
592,142275873,0.2686,-0.8735,0.0542,-38.11,-57.50,-132.13
593,142280442,0.4473,-0.9683,-0.0205,-36.52,-57.38,-132.20
594,142285440,0.3833,-0.8604,0.1250,-37.32,-57.20,-132.44
595,142290444,0.3345,-0.8848,0.0610,-40.79,-57.07,-133.35
596,142295442,0.3252,-0.8491,0.0063,-44.02,-57.56,-134.33
597,142300442,0.3315,-0.8521,0.0913,-49.15,-57.32,-135.79
598,142305442,0.3896,-0.8813,0.0938,-55.30,-56.59,-137.50
599,142310440,0.5293,-0.9248,-0.0537,-62.93,-57.26,-138.96
600,142315444,0.4941,-0.8765,0.1919,-74.27,-57.56,-140.55
601,142320441,0.4600,-0.8589,0.0591,-85.49,-56.65,-142.44
602,142325442,0.4053,-0.8442,0.0029,-95.79,-55.85,-144.51
603,142330442,0.3794,-0.8516,0.0942,-105.49,-54.09,-146.10
604,142335442,0.3999,-0.8604,0.0947,-114.21,-51.77,-147.62
605,142340441,0.4268,-0.8579,0.0122,-121.95,-49.57,-148.96
606,142345444,0.4512,-0.8589,-0.0234,-129.15,-46.52,-150.30
607,142350440,0.5225,-0.8555,0.0713,-133.11,-44.45,-151.10
608,142355442,0.4883,-0.8638,0.0322,-136.77,-41.10,-151.65
609,142360441,0.4492,-0.8506,-0.0508,-138.17,-38.48,-151.95
610,142365442,0.4902,-0.8486,-0.0508,-136.95,-36.04,-151.89
611,142370441,0.6411,-0.8286,0.0537,-132.50,-33.66,-152.50
612,142375443,0.8135,-0.7778,-0.2964,-123.48,-34.70,-152.99
613,142380440,0.7964,-0.7144,-0.1689,-111.95,-36.77,-153.23
614,142385441,0.7437,-0.7031,0.0967,-100.24,-36.83,-153.05
615,142390442,0.6953,-0.7280,0.0327,-88.35,-37.01,-152.62
616,142395441,0.7900,-0.8159,-0.2578,-75.91,-38.35,-151.34
617,142400442,0.7334,-0.8472,-0.1206,-63.05,-39.70,-149.51
618,142405442,0.6387,-0.8125,0.0869,-50.73,-39.51,-147.32
619,142410442,0.6011,-0.7427,-0.0825,-38.72,-39.76,-145.49
620,142415442,0.5972,-0.6675,-0.2749,-26.71,-40.98,-143.78
621,142420442,0.5981,-0.6167,-0.0977,-15.85,-41.65,-142.01
622,142425442,0.6016,-0.6030,0.0605,-6.34,-41.22,-140.12
623,142430442,0.6162,-0.6133,-0.1152,1.89,-41.34,-138.11
624,142435442,0.6318,-0.6416,-0.2285,8.96,-42.07,-135.91
625,142440442,0.6216,-0.6538,-0.0361,14.39,-42.20,-133.66
626,142445442,0.6133,-0.6372,0.0547,18.72,-41.28,-131.22
627,142450442,0.6265,-0.6021,-0.1250,21.95,-40.98,-128.96
628,142455443,0.6382,-0.5542,-0.1646,24.21,-41.04,-126.71
629,142460442,0.6372,-0.5151,0.0142,25.49,-40.24,-124.70
630,142465442,0.6431,-0.4922,0.0391,25.85,-38.96,-122.68
631,142470442,0.6484,-0.4941,-0.1084,25.18,-38.41,-120.73
632,142475442,0.6514,-0.4917,-0.0854,23.78,-37.87,-119.02
633,142480442,0.6460,-0.4873,0.0596,21.46,-36.71,-117.44
634,142485442,0.6484,-0.4653,0.0493,18.35,-35.18,-116.10
635,142490442,0.6650,-0.4473,-0.0869,14.51,-34.27,-114.88
636,142495447,0.6689,-0.4224,-0.0371,10.30,-33.41,-113.90
637,142500444,0.6748,-0.4023,0.0801,5.18,-31.77,-113.05
638,142505515,0.6924,-0.3853,0.0283,-0.06,-30.49,-112.32
639,142510442,0.7207,-0.3848,-0.0698,-5.49,-29.70,-111.77
640,142515441,0.7310,-0.3843,-0.0083,-10.98,-28.90,-111.16
641,142520442,0.7412,-0.3774,0.0737,-16.40,-27.74,-110.85
642,142525442,0.7632,-0.3691,0.0054,-21.59,-26.71,-110.55
643,142530442,0.7769,-0.3501,-0.0718,-26.52,-26.40,-110.24
644,142535442,0.7959,-0.3345,0.0000,-31.16,-25.85,-110.12
645,142540442,0.8115,-0.3257,0.0420,-35.61,-25.00,-109.88
646,142545442,0.8296,-0.3242,-0.0391,-39.88,-24.63,-109.70
647,142550442,0.8447,-0.3286,-0.0796,-43.72,-24.57,-109.51
648,142555442,0.8516,-0.3330,-0.0103,-47.68,-24.33,-109.27
649,142560444,0.8599,-0.3350,0.0005,-51.10,-23.78,-109.15
650,142565441,0.8682,-0.3267,-0.0352,-54.94,-23.54,-108.96
651,142570442,0.8770,-0.3105,-0.1035,-56.83,-23.78,-108.90
652,142575441,0.8867,-0.2974,-0.0425,-58.78,-23.54,-108.78
653,142580442,0.8926,-0.2842,-0.0396,-60.06,-23.23,-108.84
654,142585442,0.9014,-0.2754,-0.1191,-60.43,-23.35,-108.78
655,142590442,0.9072,-0.2720,-0.1089,-60.06,-23.35,-108.78
656,142595441,0.9092,-0.2676,-0.0605,-59.02,-23.23,-108.60
657,142600442,0.9185,-0.2666,-0.0781,-57.68,-22.93,-108.48
658,142605459,0.9229,-0.2583,-0.1411,-56.04,-23.11,-108.17
659,142610442,0.9229,-0.2466,-0.1343,-53.90,-23.17,-107.80
660,142615444,0.9180,-0.2358,-0.0967,-51.83,-22.99,-107.38
661,142620442,0.9189,-0.2295,-0.1348,-49.63,-22.80,-106.95
662,142625440,0.9233,-0.2251,-0.1743,-47.62,-22.80,-106.46
663,142630440,0.9224,-0.2231,-0.1553,-45.61,-22.99,-105.85
664,142635442,0.9297,-0.2202,-0.1279,-43.84,-22.68,-105.06
665,142640442,0.9346,-0.2183,-0.1748,-41.89,-22.62,-104.27
666,142645442,0.9321,-0.2080,-0.1968,-39.63,-22.87,-103.29
667,142650457,0.9331,-0.1904,-0.1743,-37.44,-22.74,-102.38
668,142655442,0.9316,-0.1787,-0.1538,-35.24,-22.38,-101.28
669,142660441,0.9282,-0.1689,-0.1978,-32.62,-22.38,-100.12
670,142665492,0.9312,-0.1572,-0.2119,-30.30,-22.01,-98.90
671,142670441,0.9258,-0.1528,-0.1855,-27.74,-21.52,-97.62
672,142675442,0.9268,-0.1489,-0.1802,-25.43,-21.10,-96.28
673,142680971,0.9302,-0.1406,-0.1978,-22.74,-20.61,-94.39
674,142685442,0.9282,-0.1333,-0.2139,-21.10,-20.24,-93.23
675,142690467,0.9214,-0.1221,-0.1963,-19.02,-19.76,-91.65
676,142695442,0.9194,-0.1143,-0.1982,-17.13,-18.96,-89.88
677,142700441,0.9185,-0.1079,-0.2290,-15.24,-18.54,-88.11
678,142705442,0.9189,-0.0991,-0.2222,-13.48,-18.23,-86.22
679,142710441,0.9136,-0.0903,-0.1997,-11.77,-17.56,-84.33
680,142715442,0.9033,-0.0825,-0.2139,-10.18,-16.95,-82.38
681,142720441,0.9023,-0.0762,-0.2339,-8.60,-16.46,-80.43
682,142725442,0.8994,-0.0664,-0.2285,-6.95,-15.73,-78.29
683,142730441,0.8979,-0.0552,-0.2124,-5.37,-15.30,-76.34
684,142735442,0.9004,-0.0464,-0.2319,-3.66,-14.57,-74.39
685,142740441,0.9067,-0.0371,-0.2373,-2.13,-14.02,-72.26
686,142745442,0.9092,-0.0298,-0.2280,-0.73,-13.48,-70.30
687,142750878,0.9155,-0.0210,-0.2158,0.49,-12.93,-68.17
688,142755442,0.9233,-0.0161,-0.2241,1.65,-12.26,-65.98
689,142760441,0.9268,-0.0107,-0.2373,2.56,-11.71,-64.02
690,142765442,0.9248,0.0010,-0.2173,3.29,-11.28,-61.95
691,142770441,0.9297,0.0137,-0.2065,4.09,-10.73,-60.06
692,142775442,0.9277,0.0244,-0.2212,4.82,-10.30,-58.11
693,142780441,0.9302,0.0366,-0.2183,5.49,-9.63,-56.28
694,142785442,0.9321,0.0464,-0.2139,6.16,-9.21,-54.57
695,142790440,0.9336,0.0576,-0.2144,6.95,-8.66,-52.93
696,142795442,0.9321,0.0708,-0.2241,7.87,-8.23,-51.34
697,142800441,0.9380,0.0869,-0.2183,8.72,-7.93,-50.00
698,142805442,0.9448,0.0913,-0.2139,9.70,-7.56,-48.66
699,142810442,0.9463,0.1040,-0.2148,10.85,-7.20,-47.32
700,142815444,0.9521,0.1123,-0.2271,11.65,-7.07,-46.16
701,142820442,0.9590,0.1216,-0.2207,12.56,-6.83,-45.00
702,142825442,0.9590,0.1274,-0.2100,13.23,-6.65,-43.96
703,142830442,0.9629,0.1357,-0.2192,14.02,-6.65,-42.99
704,142835442,0.9683,0.1396,-0.2251,14.39,-6.59,-42.13
705,142840442,0.9678,0.1411,-0.2261,14.63,-6.59,-41.22
706,142845442,0.9678,0.1479,-0.2192,14.70,-6.65,-40.30
707,142850442,0.9712,0.1494,-0.2324,14.45,-6.83,-39.51
708,142855442,0.9741,0.1548,-0.2427,13.96,-7.01,-38.66
709,142860442,0.9692,0.1543,-0.2393,13.35,-7.38,-37.74
710,142865442,0.9634,0.1572,-0.2417,12.62,-7.62,-36.89
711,142870443,0.9619,0.1572,-0.2451,11.40,-8.11,-36.16
712,142875442,0.9614,0.1587,-0.2407,10.24,-8.54,-35.00
713,142880440,0.9590,0.1562,-0.2358,9.02,-8.78,-34.02
714,142885440,0.9536,0.1699,-0.2324,7.50,-8.96,-32.93
715,142890441,0.9688,0.1606,-0.2456,5.98,-9.15,-32.01
716,142895444,0.9731,0.1553,-0.2402,4.21,-9.33,-30.85
717,142900442,0.9712,0.1528,-0.2339,2.38,-9.45,-29.57
718,142905443,0.9707,0.1519,-0.2300,0.73,-9.27,-28.35
719,142910442,0.9712,0.1533,-0.2368,-0.91,-9.27,-27.13
720,142915443,0.9722,0.1509,-0.2334,-2.50,-9.09,-25.85
721,142920625,0.9668,0.1562,-0.2368,-3.78,-8.90,-24.33
722,142925442,0.9600,0.1567,-0.2407,-4.70,-8.66,-23.11
723,142930441,0.9619,0.1567,-0.2441,-5.49,-8.35,-21.65
724,142935442,0.9609,0.1611,-0.2432,-6.04,-8.05,-20.30
725,142940441,0.9595,0.1597,-0.2437,-6.28,-7.68,-19.02
726,142945444,0.9585,0.1606,-0.2485,-6.40,-7.44,-17.56
727,142950441,0.9575,0.1650,-0.2520,-6.40,-7.32,-16.22
728,142955444,0.9565,0.1694,-0.2559,-6.16,-7.13,-14.88
729,142960441,0.9497,0.1714,-0.2412,-5.67,-6.71,-13.54
730,142965442,0.9502,0.1729,-0.2549,-5.18,-6.34,-12.50
731,142970441,0.9521,0.1714,-0.2544,-4.45,-6.04,-11.34
732,142975442,0.9536,0.1792,-0.2520,-3.54,-5.91,-10.18
733,142980441,0.9541,0.1768,-0.2583,-2.62,-5.61,-9.09
734,142985442,0.9521,0.1792,-0.2583,-1.65,-5.43,-8.11
735,142990440,0.9551,0.1787,-0.2593,-0.61,-5.06,-6.95
736,142995441,0.9526,0.1743,-0.2603,0.49,-5.06,-5.98
737,143000442,0.9502,0.1812,-0.2563,1.40,-4.70,-4.94
738,143005443,0.9512,0.1763,-0.2617,2.38,-4.57,-3.96
739,143010442,0.9502,0.1782,-0.2583,3.29,-4.15,-2.87
740,143015442,0.9473,0.1763,-0.2612,4.15,-4.02,-1.89
741,143020443,0.9468,0.1748,-0.2524,4.94,-3.78,-0.91
742,143025442,0.9458,0.1709,-0.2544,5.61,-3.48,0.00
743,143030442,0.9492,0.1704,-0.2598,6.16,-2.99,0.91
744,143035442,0.9492,0.1689,-0.2559,6.71,-2.93,1.83
745,143040442,0.9492,0.1631,-0.2583,6.95,-2.44,2.80
746,143045442,0.9473,0.1636,-0.2539,7.38,-2.20,3.78
747,143050442,0.9468,0.1631,-0.2559,7.50,-1.89,4.63
748,143055442,0.9487,0.1592,-0.2544,7.68,-1.46,5.55
749,143060442,0.9492,0.1587,-0.2515,7.74,-1.16,6.40
750,143065442,0.9473,0.1543,-0.2549,7.87,-0.91,7.26
751,143070443,0.9487,0.1499,-0.2515,7.80,-0.73,8.05
752,143075442,0.9468,0.1499,-0.2490,7.56,-0.30,8.90
753,143080442,0.9473,0.1484,-0.2515,7.32,-0.18,9.63
754,143085442,0.9536,0.1436,-0.2524,6.77,0.18,10.49
755,143090442,0.9551,0.1377,-0.2539,6.28,0.49,11.22
756,143095441,0.9570,0.1377,-0.2456,5.98,0.61,11.89
757,143100440,0.9570,0.1333,-0.2495,5.55,0.73,12.56
758,143105444,0.9609,0.1289,-0.2495,5.00,0.98,13.41
759,143110441,0.9624,0.1265,-0.2422,4.70,1.22,13.96
760,143115442,0.9580,0.1191,-0.2427,4.57,1.34,14.57
761,143120442,0.9590,0.1191,-0.2378,4.57,1.52,15.06
762,143125442,0.9570,0.1143,-0.2397,4.82,1.83,15.73
763,143130441,0.9580,0.1108,-0.2456,5.18,2.07,16.22
764,143135530,0.9531,0.1060,-0.2344,5.67,2.20,16.83
765,143140441,0.9575,0.1025,-0.2437,6.16,2.56,17.07
766,143145442,0.9551,0.1011,-0.2393,6.71,2.74,17.62
767,143150441,0.9561,0.0923,-0.2300,7.01,2.74,18.05
768,143155442,0.9565,0.0850,-0.2383,7.32,2.99,18.35
769,143160442,0.9551,0.0825,-0.2334,7.62,3.11,18.78
770,143165442,0.9551,0.0762,-0.2378,7.62,3.29,19.21
771,143170848,0.9526,0.0723,-0.2275,7.56,3.48,19.45
772,143175442,0.9507,0.0664,-0.2314,7.50,3.41,19.82
773,143180441,0.9512,0.0596,-0.2280,7.44,3.41,20.06
774,143185442,0.9463,0.0586,-0.2290,7.32,3.48,20.30
775,143190440,0.9438,0.0547,-0.2207,7.20,3.60,20.49
776,143195440,0.9351,0.0469,-0.2246,7.07,3.66,20.61
777,143200440,0.9346,0.0479,-0.2251,6.65,3.60,20.79
778,143205442,0.9341,0.0410,-0.2207,6.40,3.84,20.98
779,143210441,0.9312,0.0366,-0.2129,6.16,3.90,21.04
780,143215442,0.9307,0.0352,-0.2188,5.91,3.96,21.10
781,143220441,0.9287,0.0317,-0.2114,5.49,3.84,21.22
782,143225442,0.9277,0.0293,-0.2109,5.06,3.78,21.16
783,143230441,0.9263,0.0254,-0.2100,4.57,3.90,21.04
784,143235444,0.9263,0.0225,-0.2173,3.90,3.78,20.91
785,143240441,0.9302,0.0166,-0.2114,3.05,3.60,20.79
786,143245442,0.9307,0.0151,-0.2183,1.89,3.48,20.73
787,143250441,0.9351,0.0083,-0.2075,0.91,3.05,20.55
788,143255442,0.9385,0.0059,-0.2085,-0.30,2.93,20.43
789,143260440,0.9385,-0.0034,-0.2051,-1.46,2.62,20.24
790,143265443,0.9346,-0.0029,-0.2046,-2.50,2.38,20.12
791,143270442,0.9331,-0.0083,-0.1968,-3.66,2.01,20.00
792,143275442,0.9326,-0.0142,-0.2031,-4.51,1.59,19.82
793,143280442,0.9312,-0.0200,-0.2095,-5.37,1.22,19.76
794,143285442,0.9316,-0.0234,-0.2036,-6.16,1.04,19.63
795,143290442,0.9365,-0.0200,-0.2046,-6.52,0.55,19.45
796,143295441,0.9287,-0.0229,-0.2031,-7.01,0.30,19.27
797,143300443,0.9287,-0.0269,-0.2021,-6.95,-0.12,19.09
798,143305440,0.9224,-0.0298,-0.1997,-7.32,-0.55,18.84
799,143310442,0.9263,-0.0303,-0.2075,-7.44,-0.79,18.66
800,143315441,0.9233,-0.0400,-0.2002,-7.50,-1.16,18.48
801,143320442,0.9268,-0.0420,-0.2080,-7.32,-1.46,18.41
802,143325442,0.9253,-0.0435,-0.1987,-7.62,-1.83,18.11
803,143330442,0.9214,-0.0464,-0.2002,-7.44,-2.01,17.87
804,143335442,0.9146,-0.0493,-0.2007,-7.32,-2.32,17.62
805,143340442,0.9165,-0.0532,-0.2002,-7.26,-2.62,17.32
806,143345442,0.9170,-0.0527,-0.1943,-6.83,-2.93,17.13
807,143350442,0.9204,-0.0557,-0.2021,-6.52,-3.11,16.95
808,143355442,0.9189,-0.0591,-0.2031,-6.10,-3.29,16.77
809,143360442,0.9224,-0.0635,-0.2002,-5.79,-3.60,16.59
810,143365443,0.9248,-0.0605,-0.2017,-5.24,-3.78,16.40
811,143370442,0.9258,-0.0664,-0.2021,-4.88,-3.90,16.28
812,143375442,0.9238,-0.0684,-0.1973,-4.39,-4.27,16.04
813,143380442,0.9287,-0.0684,-0.2051,-3.78,-4.57,15.91
814,143385442,0.9292,-0.0684,-0.2085,-3.17,-4.82,15.79
815,143390442,0.9302,-0.0693,-0.2026,-2.32,-5.00,15.67
816,143395442,0.9292,-0.0693,-0.2061,-1.59,-5.37,15.37
817,143400440,0.9297,-0.0684,-0.2017,-0.98,-5.49,15.18
818,143405441,0.9331,-0.0718,-0.2061,-0.06,-5.85,14.88
819,143410442,0.9312,-0.0698,-0.2124,0.30,-6.04,14.70
820,143415442,0.9297,-0.0723,-0.2163,0.85,-6.40,14.57
821,143420442,0.9287,-0.0742,-0.2061,1.34,-6.59,14.33
822,143425442,0.9307,-0.0757,-0.2148,1.77,-6.89,14.09
823,143430442,0.9316,-0.0757,-0.2153,2.20,-7.01,13.90
824,143435442,0.9282,-0.0752,-0.2173,2.56,-7.20,13.54
825,143440442,0.9268,-0.0732,-0.2134,2.87,-7.38,13.29
826,143445442,0.9263,-0.0742,-0.2251,3.05,-7.50,12.99
827,143450442,0.9302,-0.0723,-0.2173,3.41,-7.80,12.87
828,143455442,0.9258,-0.0786,-0.2168,3.66,-7.93,12.56
829,143460442,0.9282,-0.0776,-0.2192,3.72,-8.11,12.32
830,143465442,0.9253,-0.0757,-0.2222,4.02,-8.35,12.07
831,143470442,0.9272,-0.0776,-0.2275,3.84,-8.35,11.77
832,143475443,0.9268,-0.0776,-0.2266,3.72,-8.54,11.52
833,143480442,0.9272,-0.0767,-0.2344,3.72,-8.54,11.34
834,143485442,0.9243,-0.0781,-0.2266,3.54,-8.96,11.04
835,143490442,0.9180,-0.0796,-0.2256,3.48,-9.02,10.85
836,143495442,0.9204,-0.0747,-0.2354,3.17,-9.21,10.61
837,143500442,0.9155,-0.0752,-0.2412,3.11,-9.39,10.61
838,143505443,0.9136,-0.0771,-0.2363,2.87,-9.39,10.24
839,143510442,0.9111,-0.0786,-0.2407,2.80,-9.51,10.24
840,143515442,0.9116,-0.0791,-0.2417,2.50,-9.57,10.00
841,143520442,0.9072,-0.0791,-0.2358,2.44,-9.70,9.94
842,143525442,0.9121,-0.0796,-0.2368,2.38,-9.70,9.88
843,143530442,0.9175,-0.0767,-0.2422,2.13,-9.63,9.70
844,143535442,0.9131,-0.0830,-0.2456,1.95,-9.94,9.76
845,143540443,0.9053,-0.0781,-0.2451,1.83,-9.94,9.51
846,143545442,0.9053,-0.0776,-0.2397,1.59,-9.94,9.51
847,143550444,0.9053,-0.0815,-0.2441,1.40,-9.94,9.39
848,143555538,0.9087,-0.0840,-0.2407,1.28,-9.94,9.27
849,143560442,0.9106,-0.0796,-0.2471,1.16,-10.00,9.27
850,143565442,0.9155,-0.0801,-0.2446,1.04,-10.06,9.15
851,143570442,0.9199,-0.0786,-0.2485,1.10,-10.00,9.02
852,143575442,0.9229,-0.0767,-0.2490,1.16,-10.06,8.72
853,143580442,0.9243,-0.0825,-0.2476,1.22,-10.24,8.66
854,143585442,0.9248,-0.0796,-0.2471,1.28,-10.30,8.41
855,143590442,0.9209,-0.0806,-0.2520,1.34,-10.43,8.35
856,143595442,0.9165,-0.0791,-0.2485,1.52,-10.37,8.23
857,143600442,0.9146,-0.0815,-0.2549,1.89,-10.37,8.05
858,143605443,0.9106,-0.0811,-0.2529,2.20,-10.37,7.99
859,143610440,0.9165,-0.0791,-0.2559,2.62,-10.43,7.80
860,143615442,0.9194,-0.0762,-0.2554,3.17,-10.43,7.62
861,143620442,0.9185,-0.0801,-0.2559,3.48,-10.43,7.56
862,143625441,0.9146,-0.0786,-0.2642,4.09,-10.49,7.44
863,143630442,0.9121,-0.0840,-0.2666,4.33,-10.43,7.20
864,143635442,0.9165,-0.0854,-0.2676,4.57,-10.43,7.20
865,143640442,0.9126,-0.0825,-0.2695,4.94,-10.37,6.95
866,143645442,0.9155,-0.0840,-0.2690,5.24,-10.30,6.95
867,143650443,0.9189,-0.0889,-0.2671,5.43,-10.30,6.89
868,143655442,0.9209,-0.0859,-0.2690,5.73,-10.06,6.77
869,143660442,0.9214,-0.0918,-0.2734,5.98,-10.24,6.71
870,143665443,0.9194,-0.0884,-0.2769,6.22,-10.18,6.77
871,143670443,0.9204,-0.0903,-0.2754,6.34,-10.00,6.71
872,143675442,0.9214,-0.0874,-0.2729,6.52,-9.82,6.71
873,143680442,0.9165,-0.0933,-0.2769,6.59,-9.76,6.77
874,143685442,0.9141,-0.0923,-0.2798,6.52,-9.57,6.77
875,143690618,0.9194,-0.0913,-0.2754,6.52,-9.45,6.71
876,143695442,0.9175,-0.0864,-0.2783,6.34,-9.21,6.83
877,143700441,0.9180,-0.0874,-0.2744,6.22,-9.21,6.71
878,143705442,0.9141,-0.0913,-0.2744,6.04,-9.09,6.77
879,143710442,0.9170,-0.0889,-0.2832,5.73,-9.02,6.71
880,143715441,0.9175,-0.0879,-0.2866,5.49,-8.72,6.71
881,143720442,0.9141,-0.0913,-0.2861,5.18,-8.60,6.71
882,143725442,0.9150,-0.0898,-0.2861,4.76,-8.48,6.83
883,143730442,0.9165,-0.0894,-0.2915,4.39,-8.41,6.71
884,143735442,0.9150,-0.0869,-0.2920,4.21,-8.29,6.71
885,143740442,0.9165,-0.0859,-0.2891,4.09,-7.93,6.71
886,143745443,0.9160,-0.0864,-0.2876,3.72,-7.80,6.71
887,143750442,0.9150,-0.0884,-0.2959,3.66,-7.62,6.71
888,143755442,0.9062,-0.0884,-0.2925,3.29,-7.32,6.65
889,143760442,0.9097,-0.0879,-0.2896,3.29,-7.20,6.71
890,143765442,0.9111,-0.0840,-0.2896,3.17,-6.95,6.65
891,143770442,0.9082,-0.0874,-0.2920,3.23,-6.77,6.52
892,143775443,0.9102,-0.0903,-0.2920,3.23,-6.52,6.52
893,143780442,0.9106,-0.0874,-0.2881,3.17,-6.28,6.65
894,143785443,0.9058,-0.0918,-0.2905,3.23,-6.22,6.59
895,143790442,0.9058,-0.0889,-0.2993,3.23,-5.73,6.59
896,143795442,0.9077,-0.0903,-0.2964,3.29,-5.67,6.52
897,143800443,0.9043,-0.0972,-0.2935,3.41,-5.37,6.65
898,143805440,0.9116,-0.0952,-0.2949,3.48,-5.30,6.77
899,143810440,0.9097,-0.0952,-0.2949,3.60,-5.00,6.83
900,143815442,0.9087,-0.0962,-0.2974,3.78,-4.82,6.89
901,143820442,0.9067,-0.0952,-0.3018,3.96,-4.63,7.01
902,143825444,0.9097,-0.0938,-0.2998,4.15,-4.45,6.95
903,143830441,0.9077,-0.0903,-0.2993,4.21,-4.33,6.89
904,143835442,0.9131,-0.0962,-0.2925,4.45,-4.02,7.07
905,143840440,0.9106,-0.0947,-0.2935,4.63,-3.96,7.07
906,143845442,0.9111,-0.0967,-0.2949,4.70,-3.84,7.01
907,143850441,0.9087,-0.0947,-0.3003,4.82,-3.72,7.01
908,143855442,0.9116,-0.0972,-0.2915,4.88,-3.60,7.01
909,143860440,0.9067,-0.0957,-0.2979,5.00,-3.54,7.01
910,143865444,0.9067,-0.0986,-0.3008,4.94,-3.29,7.07
911,143870441,0.9038,-0.1025,-0.2983,5.06,-3.17,7.13
912,143875442,0.9058,-0.1016,-0.2993,4.82,-3.05,7.13
913,143880440,0.9043,-0.1050,-0.3003,4.94,-2.99,7.13
914,143885442,0.9038,-0.1001,-0.2974,5.00,-2.80,7.07
915,143890441,0.9038,-0.0986,-0.2964,4.88,-2.68,7.20
916,143895442,0.9023,-0.1064,-0.2969,4.88,-2.38,7.20
917,143900442,0.9043,-0.1045,-0.2993,4.94,-2.32,7.07
918,143905440,0.9009,-0.1064,-0.2964,5.00,-2.20,7.20
919,143910442,0.9023,-0.1108,-0.3013,4.94,-2.20,7.13
920,143915460,0.9023,-0.1104,-0.2988,5.00,-2.07,7.32
921,143920442,0.9043,-0.1108,-0.2959,5.00,-1.89,7.32
922,143925442,0.9058,-0.1104,-0.2983,5.12,-1.83,7.26
923,143930441,0.9038,-0.1128,-0.3018,5.06,-1.83,7.26
924,143935442,0.8994,-0.1133,-0.2944,5.18,-1.83,7.38
925,143940440,0.8994,-0.1147,-0.2935,5.37,-1.65,7.32
926,143945553,0.9014,-0.1196,-0.2998,5.73,-1.59,7.38
927,143950444,0.9043,-0.1182,-0.2998,5.79,-1.40,7.26
928,143955441,0.9009,-0.1235,-0.3013,6.04,-1.40,7.32
929,143960442,0.9028,-0.1226,-0.2925,6.28,-1.28,7.38
930,143965442,0.9082,-0.1270,-0.2969,6.34,-1.28,7.20
931,143970442,0.9102,-0.1294,-0.2959,6.71,-1.10,7.20
932,143975442,0.9077,-0.1265,-0.2974,7.07,-0.91,7.07
933,143980443,0.9072,-0.1348,-0.2983,7.38,-0.79,7.01
934,143985442,0.9062,-0.1304,-0.2974,7.74,-0.61,6.83
935,143990812,0.9087,-0.1294,-0.2964,7.93,-0.61,6.59
936,143995442,0.9053,-0.1343,-0.2969,8.17,-0.61,6.52
937,144000441,0.9033,-0.1343,-0.2979,8.54,-0.55,6.40
938,144005442,0.9062,-0.1357,-0.2983,8.78,-0.43,6.28
939,144010440,0.9023,-0.1392,-0.3037,9.02,-0.37,5.98
940,144015440,0.9004,-0.1367,-0.3027,9.33,-0.18,5.85
941,144020440,0.8989,-0.1401,-0.2993,9.63,-0.18,5.61
942,144025441,0.9004,-0.1367,-0.2959,9.82,-0.18,5.37
943,144030442,0.9043,-0.1396,-0.2998,10.06,-0.06,5.12
944,144035442,0.9038,-0.1401,-0.2949,10.30,0.24,4.88
945,144040442,0.9023,-0.1392,-0.2915,10.43,0.18,4.70
946,144045442,0.9023,-0.1426,-0.2886,10.43,0.18,4.33
947,144050442,0.9058,-0.1421,-0.2886,10.55,0.37,4.09
948,144055442,0.9043,-0.1470,-0.2886,10.55,0.67,4.09
949,144060442,0.9043,-0.1475,-0.2871,10.55,0.67,3.78
950,144065442,0.8984,-0.1455,-0.2876,10.49,0.73,3.66
951,144070442,0.9014,-0.1484,-0.2856,10.37,0.73,3.48
952,144075442,0.8936,-0.1416,-0.2842,10.24,0.67,3.41
953,144080442,0.8940,-0.1455,-0.2808,10.18,0.73,3.05
954,144085442,0.8994,-0.1416,-0.2808,10.00,0.73,2.87
955,144090442,0.8921,-0.1411,-0.2808,9.88,0.79,2.62
956,144095442,0.8979,-0.1411,-0.2817,9.94,0.79,2.44
957,144100442,0.8926,-0.1406,-0.2778,9.82,0.73,2.26
958,144105442,0.8931,-0.1401,-0.2720,9.70,0.67,2.01
959,144110442,0.8931,-0.1406,-0.2739,9.51,0.61,1.83
960,144115441,0.8945,-0.1372,-0.2749,9.57,0.49,1.59
961,144120442,0.8984,-0.1406,-0.2700,9.39,0.37,1.52
962,144125442,0.8994,-0.1421,-0.2734,9.33,0.12,1.34
963,144130442,0.9033,-0.1465,-0.2715,9.09,0.00,1.16
964,144135441,0.9014,-0.1426,-0.2705,8.96,-0.12,1.04
965,144140442,0.9004,-0.1455,-0.2749,8.90,-0.18,0.98
966,144145441,0.8975,-0.1450,-0.2710,8.90,-0.43,0.91
967,144150442,0.8975,-0.1431,-0.2676,8.90,-0.67,0.79
968,144155441,0.9009,-0.1489,-0.2720,9.09,-0.85,0.73
969,144160442,0.9004,-0.1465,-0.2725,9.33,-0.91,0.67
970,144165441,0.8979,-0.1484,-0.2764,9.57,-1.10,0.79
971,144170442,0.8989,-0.1494,-0.2734,9.94,-1.34,0.67
972,144175441,0.9028,-0.1494,-0.2705,10.49,-1.34,0.73
973,144180442,0.9043,-0.1455,-0.2798,10.85,-1.52,0.67
974,144185441,0.9028,-0.1450,-0.2720,11.28,-1.59,0.61
975,144190442,0.9033,-0.1479,-0.2749,11.89,-1.89,0.61
976,144195447,0.9023,-0.1465,-0.2783,12.32,-1.83,0.61
977,144200442,0.9019,-0.1475,-0.2812,12.62,-2.07,0.55
978,144205441,0.9043,-0.1455,-0.2686,13.17,-2.13,0.49
979,144210442,0.9067,-0.1465,-0.2700,13.54,-2.20,0.43
980,144215440,0.9033,-0.1499,-0.2686,14.02,-2.26,0.49
981,144220440,0.9019,-0.1514,-0.2725,14.39,-2.38,0.43
982,144225441,0.8999,-0.1416,-0.2690,14.76,-2.32,0.37
983,144230442,0.9033,-0.1455,-0.2656,15.06,-2.38,0.43
984,144235443,0.9019,-0.1450,-0.2705,15.30,-2.32,0.30
985,144240442,0.9038,-0.1445,-0.2695,15.37,-2.38,0.30
986,144245442,0.8999,-0.1436,-0.2715,15.37,-2.20,0.06
987,144250441,0.8989,-0.1431,-0.2754,15.24,-2.13,0.00
988,144255442,0.9009,-0.1465,-0.2778,15.12,-2.32,-0.12
989,144260442,0.9014,-0.1460,-0.2744,14.94,-2.20,-0.24
990,144265442,0.8999,-0.1475,-0.2749,14.70,-2.20,-0.37
991,144270441,0.9048,-0.1470,-0.2764,14.39,-1.89,-0.43
992,144275442,0.9014,-0.1475,-0.2783,13.96,-1.89,-0.55
993,144280442,0.9062,-0.1484,-0.2725,13.60,-1.89,-0.55
994,144285442,0.9102,-0.1489,-0.2754,13.23,-1.77,-0.61
995,144290442,0.9116,-0.1543,-0.2739,12.62,-1.77,-0.61
996,144295441,0.9116,-0.1538,-0.2759,12.20,-1.59,-0.73
997,144300442,0.9146,-0.1553,-0.2812,11.77,-1.65,-0.73
998,144305441,0.9141,-0.1528,-0.2783,11.46,-1.59,-0.79
999,144310440,0.9092,-0.1436,-0.2847,11.04,-1.40,-0.85
1000,144315442,0.9160,-0.1504,-0.2729,10.73,-1.28,-1.10
1001,144320440,0.9160,-0.1514,-0.2769,10.37,-1.22,-1.16
1002,144325440,0.9141,-0.1514,-0.2832,10.30,-0.98,-1.28
1003,144330441,0.9146,-0.1489,-0.2769,10.00,-0.85,-1.40
1004,144335442,0.9141,-0.1465,-0.2671,9.76,-0.49,-1.52
1005,144340441,0.9136,-0.1445,-0.2769,9.63,-0.37,-1.59
1006,144345442,0.9121,-0.1411,-0.2773,9.57,-0.30,-1.65
1007,144350441,0.9116,-0.1465,-0.2744,9.39,-0.24,-1.83
1008,144355442,0.9141,-0.1484,-0.2773,9.21,-0.12,-1.89
1009,144360441,0.9097,-0.1484,-0.2710,9.09,-0.06,-1.89
1010,144365442,0.9097,-0.1465,-0.2690,9.09,0.18,-2.01
1011,144370441,0.9082,-0.1475,-0.2700,8.84,0.12,-2.07
1012,144375440,0.9077,-0.1465,-0.2695,8.78,0.24,-2.20
1013,144380442,0.9092,-0.1455,-0.2676,8.72,0.49,-2.20
1014,144385442,0.9097,-0.1436,-0.2725,8.72,0.55,-2.32
1015,144390441,0.9116,-0.1426,-0.2705,8.54,0.61,-2.44
1016,144395442,0.9072,-0.1406,-0.2656,8.48,0.73,-2.38
1017,144400442,0.9077,-0.1421,-0.2612,8.29,0.85,-2.44
1018,144405442,0.9072,-0.1387,-0.2583,7.93,0.98,-2.62
1019,144410442,0.9058,-0.1421,-0.2563,7.56,1.04,-2.68
1020,144415442,0.9092,-0.1387,-0.2637,7.32,1.10,-2.62
1021,144420440,0.9097,-0.1367,-0.2563,6.77,1.04,-2.74
1022,144425440,0.9058,-0.1377,-0.2554,6.28,0.91,-2.80
1023,144430441,0.9062,-0.1313,-0.2563,5.91,0.91,-2.87
1024,144435918,0.9038,-0.1328,-0.2480,5.55,0.91,-2.80
1025,144440442,0.9087,-0.1313,-0.2520,5.06,0.79,-2.80
1026,144445442,0.9097,-0.1299,-0.2461,4.63,0.67,-2.80
1027,144450442,0.9111,-0.1289,-0.2524,4.09,0.49,-2.87
1028,144455441,0.9106,-0.1270,-0.2480,3.66,0.37,-2.93
1029,144460442,0.9136,-0.1270,-0.2563,3.23,0.18,-2.74
1030,144465442,0.9106,-0.1260,-0.2500,2.80,0.00,-2.56
1031,144470443,0.9092,-0.1343,-0.2515,2.44,-0.18,-2.50
1032,144475441,0.9102,-0.1284,-0.2500,2.20,-0.12,-2.44
1033,144480442,0.9106,-0.1284,-0.2534,2.07,-0.30,-2.26
1034,144485442,0.9106,-0.1235,-0.2534,1.89,-0.67,-2.20
1035,144490442,0.9077,-0.1255,-0.2534,1.83,-0.85,-2.07
1036,144495441,0.9077,-0.1216,-0.2568,1.83,-0.91,-1.89
1037,144500442,0.9062,-0.1211,-0.2510,1.89,-0.98,-1.71
1038,144505442,0.9048,-0.1226,-0.2524,2.07,-1.28,-1.46
1039,144510442,0.9058,-0.1230,-0.2505,2.20,-1.52,-1.16
1040,144515441,0.9038,-0.1245,-0.2451,2.32,-1.59,-1.04
1041,144520442,0.9077,-0.1235,-0.2549,2.62,-1.71,-0.73
1042,144525440,0.9067,-0.1230,-0.2495,2.80,-1.95,-0.49
1043,144530441,0.9077,-0.1211,-0.2480,3.05,-2.13,-0.18
1044,144535442,0.9072,-0.1157,-0.2490,3.35,-2.26,0.00
1045,144540441,0.9043,-0.1221,-0.2563,3.54,-2.68,0.37
1046,144545442,0.9043,-0.1255,-0.2588,3.84,-2.74,0.61
1047,144550441,0.9014,-0.1279,-0.2588,4.09,-2.87,0.91
1048,144555442,0.9038,-0.1240,-0.2549,4.51,-3.17,1.10
1049,144560441,0.9048,-0.1270,-0.2676,5.06,-3.29,1.40
1050,144565442,0.9023,-0.1274,-0.2671,5.55,-3.54,1.77
1051,144570442,0.9004,-0.1284,-0.2593,6.04,-3.60,1.95
1052,144575442,0.9062,-0.1274,-0.2700,6.77,-3.78,2.20
1053,144580441,0.9058,-0.1240,-0.2695,7.50,-3.96,2.44
1054,144585442,0.9043,-0.1226,-0.2681,8.23,-3.96,2.68
1055,144590441,0.9028,-0.1265,-0.2725,8.84,-3.84,2.87
1056,144595442,0.9038,-0.1274,-0.2690,9.57,-3.96,3.17
1057,144600442,0.9058,-0.1265,-0.2749,10.06,-3.96,3.41
1058,144605440,0.9082,-0.1304,-0.2710,10.43,-4.09,3.48
1059,144610442,0.9092,-0.1279,-0.2788,10.67,-4.15,3.78
1060,144615442,0.9072,-0.1318,-0.2788,10.73,-4.09,3.90
1061,144620441,0.9116,-0.1338,-0.2778,10.85,-3.96,4.15
1062,144625440,0.9082,-0.1304,-0.2744,10.79,-3.84,4.27
1063,144630440,0.9023,-0.1333,-0.2822,10.61,-3.90,4.33
1064,144635440,0.9097,-0.1313,-0.2749,10.43,-3.78,4.39
1065,144640442,0.9077,-0.1328,-0.2817,10.24,-3.72,4.57
1066,144645442,0.9062,-0.1377,-0.2827,10.06,-3.54,4.57
1067,144650442,0.9043,-0.1343,-0.2856,9.70,-3.54,4.51
1068,144655441,0.9082,-0.1353,-0.2842,9.39,-3.35,4.51
1069,144660443,0.9062,-0.1392,-0.2793,9.09,-2.99,4.39
1070,144665646,0.9023,-0.1431,-0.2812,8.72,-2.93,4.33
1071,144670442,0.9102,-0.1431,-0.2837,8.35,-2.87,4.33
1072,144675441,0.9062,-0.1411,-0.2891,7.87,-2.74,4.21
1073,144680442,0.9067,-0.1431,-0.2905,7.44,-2.38,4.21
1074,144685442,0.9058,-0.1426,-0.2881,7.20,-2.13,4.15
1075,144690442,0.9067,-0.1494,-0.2798,6.83,-1.95,3.90
1076,144695441,0.9092,-0.1499,-0.2832,6.65,-1.71,3.84
1077,144700443,0.9062,-0.1460,-0.2783,6.34,-1.40,3.72
1078,144705442,0.9072,-0.1489,-0.2842,6.04,-1.22,3.60
1079,144710442,0.9097,-0.1543,-0.2764,5.85,-1.10,3.41
1080,144715441,0.9092,-0.1528,-0.2817,5.67,-0.79,3.17
1081,144720442,0.9087,-0.1523,-0.2749,5.43,-0.49,3.05
1082,144725441,0.9072,-0.1514,-0.2695,5.30,-0.24,2.87
1083,144730440,0.9053,-0.1523,-0.2778,5.12,-0.24,2.80
1084,144735487,0.9072,-0.1548,-0.2769,4.88,0.06,2.62
1085,144740441,0.9111,-0.1538,-0.2769,4.63,0.06,2.56
1086,144745444,0.9136,-0.1543,-0.2739,4.51,0.18,2.50
1087,144750441,0.9141,-0.1533,-0.2720,4.33,0.24,2.32
1088,144755442,0.9126,-0.1538,-0.2666,4.02,0.30,2.20
1089,144760441,0.9111,-0.1553,-0.2676,3.96,0.43,2.07
1090,144765442,0.9160,-0.1519,-0.2686,3.90,0.37,2.01
1091,144770442,0.9160,-0.1523,-0.2627,3.72,0.30,1.89
1092,144775442,0.9121,-0.1514,-0.2671,3.66,0.24,1.83
1093,144780441,0.9160,-0.1548,-0.2622,3.35,0.12,1.83
1094,144785442,0.9155,-0.1504,-0.2627,3.35,0.06,1.83
1095,144790441,0.9146,-0.1523,-0.2544,3.23,0.12,1.71
1096,144795442,0.9106,-0.1514,-0.2642,3.17,-0.18,1.59
1097,144800441,0.9058,-0.1519,-0.2603,3.41,-0.12,1.52
1098,144805442,0.9043,-0.1440,-0.2563,3.41,-0.18,1.40
1099,144810442,0.9058,-0.1421,-0.2578,3.54,-0.30,1.46
1100,144815874,0.9067,-0.1460,-0.2515,3.72,-0.49,1.40
1101,144820443,0.9053,-0.1426,-0.2529,3.90,-0.61,1.34
1102,144825441,0.9062,-0.1450,-0.2549,4.15,-0.67,1.28
1103,144830441,0.9072,-0.1450,-0.2637,4.39,-0.91,1.16
1104,144835678,0.9058,-0.1455,-0.2534,4.45,-0.91,1.22
1105,144840441,0.9014,-0.1450,-0.2500,4.63,-0.98,1.22
1106,144845566,0.9023,-0.1450,-0.2524,4.70,-1.10,1.22
1107,144850442,0.9028,-0.1455,-0.2490,4.88,-1.16,1.22
1108,144855442,0.9058,-0.1455,-0.2505,4.82,-1.28,1.22
1109,144860442,0.9062,-0.1470,-0.2539,4.76,-1.52,1.28
1110,144865441,0.9087,-0.1460,-0.2598,4.70,-1.71,1.34
1111,144870443,0.9033,-0.1450,-0.2554,4.76,-1.77,1.40
1112,144875442,0.9072,-0.1460,-0.2461,4.70,-2.01,1.40
1113,144880442,0.9077,-0.1426,-0.2539,4.45,-2.13,1.40
1114,144885441,0.9087,-0.1470,-0.2573,4.21,-2.26,1.52
1115,144890442,0.9058,-0.1470,-0.2563,4.09,-2.50,1.52
1116,144895443,0.9077,-0.1445,-0.2544,3.78,-2.62,1.52
1117,144900442,0.9048,-0.1484,-0.2622,3.48,-2.80,1.52
1118,144905441,0.9033,-0.1470,-0.2622,3.29,-2.74,1.52
1119,144910443,0.9023,-0.1445,-0.2544,3.05,-2.93,1.52
1120,144915564,0.9043,-0.1445,-0.2583,2.74,-2.93,1.40
1121,144920442,0.9043,-0.1416,-0.2598,2.50,-3.23,1.52
1122,144925441,0.9082,-0.1445,-0.2573,2.44,-3.23,1.46
1123,144930442,0.9038,-0.1499,-0.2612,2.07,-3.41,1.40
1124,144935440,0.9043,-0.1475,-0.2607,2.01,-3.29,1.28
1125,144940441,0.9072,-0.1494,-0.2705,1.89,-3.23,1.34
1126,144945442,0.9067,-0.1460,-0.2627,2.01,-3.29,1.28
1127,144950442,0.9102,-0.1465,-0.2681,1.95,-3.23,1.28
1128,144955442,0.9097,-0.1460,-0.2549,2.07,-3.23,1.16
1129,144960441,0.9126,-0.1455,-0.2646,2.20,-3.23,1.16
1130,144965442,0.9102,-0.1450,-0.2720,2.38,-3.23,1.04
1131,144970441,0.9170,-0.1455,-0.2739,2.56,-3.29,1.04
1132,144975442,0.9106,-0.1455,-0.2759,2.68,-3.29,1.10
1133,144980441,0.9126,-0.1436,-0.2700,2.99,-3.35,0.98
1134,144985442,0.9121,-0.1460,-0.2734,3.05,-3.23,1.04
1135,144990441,0.9111,-0.1416,-0.2778,3.11,-3.29,1.22
1136,144995442,0.9126,-0.1426,-0.2798,3.48,-3.17,1.16
1137,145000442,0.9131,-0.1382,-0.2793,3.66,-3.23,1.16
1138,145005442,0.9131,-0.1440,-0.2803,3.72,-3.05,1.16
1139,145010441,0.9121,-0.1367,-0.2769,3.96,-2.99,1.10
1140,145015444,0.9072,-0.1387,-0.2749,4.09,-2.93,1.34
1141,145020441,0.9062,-0.1421,-0.2725,4.27,-2.87,1.28
1142,145025442,0.9053,-0.1392,-0.2769,4.39,-2.50,1.34
1143,145030441,0.9092,-0.1382,-0.2720,4.57,-2.44,1.46
1144,145035440,0.9077,-0.1416,-0.2808,4.63,-2.44,1.46
1145,145040440,0.9077,-0.1377,-0.2739,4.76,-2.32,1.59
1146,145045440,0.9053,-0.1357,-0.2739,4.82,-2.13,1.71
1147,145050442,0.9053,-0.1382,-0.2837,4.76,-2.01,1.71
1148,145055442,0.8999,-0.1392,-0.2798,4.88,-1.89,1.71
1149,145060441,0.9009,-0.1362,-0.2783,4.82,-1.77,1.89
1150,145065442,0.9067,-0.1406,-0.2788,4.82,-1.65,1.95
1151,145070441,0.9087,-0.1396,-0.2812,4.82,-1.46,2.01
1152,145075440,0.9077,-0.1392,-0.2754,4.63,-1.46,1.95
1153,145080442,0.9077,-0.1406,-0.2754,4.51,-1.46,2.07
1154,145085442,0.9072,-0.1401,-0.2764,4.39,-1.22,2.13
1155,145090442,0.9072,-0.1426,-0.2764,4.33,-1.04,2.20
1156,145095441,0.9087,-0.1416,-0.2715,4.21,-1.10,2.26
1157,145100442,0.9087,-0.1431,-0.2715,4.09,-0.98,2.32
1158,145105442,0.9072,-0.1455,-0.2749,3.90,-0.91,2.38
1159,145110443,0.9102,-0.1431,-0.2729,3.78,-0.73,2.38
1160,145115440,0.9053,-0.1440,-0.2705,3.54,-0.73,2.44
1161,145120443,0.9072,-0.1421,-0.2725,3.48,-0.61,2.44
1162,145125442,0.9067,-0.1396,-0.2764,3.35,-0.73,2.50
1163,145130441,0.9102,-0.1426,-0.2666,3.29,-0.67,2.62
1164,145135440,0.9082,-0.1406,-0.2700,2.99,-0.61,2.62
1165,145140440,0.9023,-0.1431,-0.2700,3.11,-0.79,2.74
1166,145145450,0.9004,-0.1455,-0.2671,3.05,-0.98,2.74
1167,145150440,0.9028,-0.1426,-0.2690,3.05,-0.85,2.62
1168,145155440,0.9028,-0.1416,-0.2642,3.11,-0.79,2.74
1169,145160440,0.9028,-0.1426,-0.2661,3.23,-0.91,2.80
1170,145165442,0.9038,-0.1431,-0.2700,3.17,-0.98,2.87
1171,145170442,0.8984,-0.1460,-0.2622,3.48,-0.85,2.87
1172,145175441,0.9072,-0.1455,-0.2603,3.48,-0.98,2.93
1173,145180440,0.9033,-0.1455,-0.2603,3.60,-0.98,2.87
1174,145185444,0.9062,-0.1460,-0.2666,3.78,-1.16,2.99
1175,145190440,0.9087,-0.1470,-0.2690,4.02,-1.22,2.99
1176,145195443,0.9062,-0.1519,-0.2612,4.21,-1.34,3.11
1177,145200440,0.9048,-0.1499,-0.2656,4.51,-1.46,3.05
1178,145205442,0.9062,-0.1514,-0.2676,4.82,-1.46,3.11
1179,145210441,0.9062,-0.1514,-0.2690,5.12,-1.46,3.11
1180,145215483,0.9077,-0.1543,-0.2637,5.37,-1.59,3.05
1181,145220442,0.9043,-0.1509,-0.2666,5.61,-1.65,3.05
1182,145225442,0.9058,-0.1553,-0.2656,5.91,-1.65,3.05
1183,145230441,0.9058,-0.1533,-0.2671,6.22,-1.77,2.93
1184,145235442,0.9043,-0.1543,-0.2676,6.46,-1.89,2.93
1185,145240440,0.9043,-0.1538,-0.2690,6.71,-1.83,3.05
1186,145245440,0.9048,-0.1548,-0.2671,6.83,-1.95,2.99
1187,145250440,0.9014,-0.1592,-0.2715,6.89,-1.89,2.93
1188,145255442,0.9038,-0.1567,-0.2681,7.13,-2.13,2.74
1189,145260441,0.9009,-0.1592,-0.2617,7.20,-2.13,2.74
1190,145265442,0.9038,-0.1592,-0.2637,7.20,-2.13,2.68
1191,145270441,0.8975,-0.1582,-0.2676,7.26,-2.13,2.62
1192,145275442,0.9014,-0.1577,-0.2637,7.32,-2.13,2.56
1193,145280441,0.9028,-0.1621,-0.2690,7.38,-2.07,2.50
1194,145285442,0.9058,-0.1592,-0.2710,7.50,-2.20,2.50
1195,145290441,0.9028,-0.1631,-0.2695,7.38,-2.32,2.32
1196,145295442,0.9028,-0.1587,-0.2715,7.56,-2.26,2.26
1197,145300441,0.9053,-0.1616,-0.2729,7.50,-2.26,2.26
1198,145305442,0.9092,-0.1646,-0.2646,7.50,-2.50,2.07
1199,145310441,0.9082,-0.1582,-0.2661,7.56,-2.13,2.07
1200,145315442,0.9077,-0.1621,-0.2661,7.44,-2.20,1.89
1201,145320441,0.9082,-0.1587,-0.2715,7.44,-2.38,1.77
1202,145325442,0.9067,-0.1621,-0.2671,7.32,-2.13,1.71
1203,145330442,0.9048,-0.1602,-0.2603,7.20,-2.32,1.59
1204,145335442,0.9043,-0.1587,-0.2671,7.13,-2.13,1.46
1205,145340440,0.9058,-0.1611,-0.2681,7.07,-1.95,1.46
1206,145345440,0.9014,-0.1572,-0.2720,6.83,-2.13,1.28
1207,145350441,0.9043,-0.1592,-0.2681,6.59,-2.13,1.34
1208,145355442,0.9053,-0.1602,-0.2627,6.28,-2.07,1.10
1209,145360441,0.9072,-0.1572,-0.2607,6.04,-2.13,1.04
1210,145365442,0.9053,-0.1572,-0.2622,5.67,-2.07,0.91
1211,145370441,0.9048,-0.1562,-0.2632,5.30,-2.13,0.91
1212,145375442,0.9004,-0.1533,-0.2607,5.12,-2.20,0.85
1213,145380441,0.9033,-0.1577,-0.2681,4.82,-2.20,0.79
1214,145385442,0.9028,-0.1572,-0.2583,4.45,-2.32,0.79
1215,145390441,0.8994,-0.1562,-0.2637,4.27,-2.26,0.73
1216,145395444,0.9014,-0.1577,-0.2632,4.15,-2.32,0.79
1217,145400441,0.9043,-0.1587,-0.2656,4.15,-2.26,0.79
1218,145405440,0.8999,-0.1558,-0.2646,4.27,-2.20,0.67
1219,145410442,0.9014,-0.1543,-0.2725,4.15,-2.20,0.67
1220,145415442,0.9038,-0.1533,-0.2710,4.27,-2.13,0.73
1221,145420443,0.9004,-0.1523,-0.2686,4.45,-2.26,0.73
1222,145425440,0.9033,-0.1548,-0.2671,4.57,-2.13,0.79
1223,145430442,0.9072,-0.1553,-0.2646,4.63,-2.20,0.91
1224,145435443,0.9053,-0.1592,-0.2651,4.82,-2.20,0.91
1225,145440442,0.9092,-0.1587,-0.2666,4.94,-2.13,0.91
1226,145445440,0.9082,-0.1562,-0.2642,5.00,-2.13,1.04
1227,145450610,0.9136,-0.1558,-0.2686,5.06,-2.20,1.04
1228,145455442,0.9136,-0.1538,-0.2617,4.88,-2.26,1.16
1229,145460442,0.9136,-0.1548,-0.2612,4.88,-2.32,1.22
1230,145465442,0.9126,-0.1577,-0.2725,4.88,-2.13,1.28
1231,145470441,0.9204,-0.1597,-0.2598,4.82,-2.13,1.28
1232,145475442,0.9272,-0.1582,-0.2705,4.57,-2.20,1.28
1233,145480441,0.9263,-0.1655,-0.2690,4.51,-2.13,1.46
1234,145485444,0.9258,-0.1631,-0.2661,4.51,-2.13,1.52
1235,145490441,0.9297,-0.1646,-0.2695,4.45,-2.13,1.46
1236,145495442,0.9307,-0.1660,-0.2690,4.51,-2.07,1.59
1237,145500442,0.9268,-0.1709,-0.2671,4.45,-2.01,1.71
1238,145505442,0.9316,-0.1733,-0.2637,4.51,-1.83,1.71
1239,145510441,0.9302,-0.1714,-0.2720,4.70,-1.71,1.77
1240,145515442,0.9326,-0.1763,-0.2729,4.94,-1.46,1.83
1241,145520441,0.9312,-0.1753,-0.2715,5.30,-1.40,1.95
1242,145525442,0.9253,-0.1724,-0.2686,5.49,-1.10,2.01
1243,145530441,0.9253,-0.1714,-0.2671,5.73,-0.85,2.13
1244,145535442,0.9282,-0.1709,-0.2729,6.10,-0.73,2.20
1245,145540441,0.9248,-0.1724,-0.2690,6.40,-0.43,2.26
1246,145545440,0.9214,-0.1729,-0.2710,6.65,-0.12,2.38
1247,145550440,0.9233,-0.1753,-0.2632,7.13,0.12,2.50
1248,145555440,0.9219,-0.1719,-0.2632,7.38,0.30,2.68
1249,145560442,0.9229,-0.1719,-0.2598,7.56,0.91,2.74
1250,145565442,0.9194,-0.1719,-0.2651,7.93,1.28,2.93
1251,145570441,0.9150,-0.1709,-0.2656,7.80,1.52,3.17
1252,145575442,0.9150,-0.1738,-0.2578,7.93,1.77,3.23
1253,145580441,0.9067,-0.1689,-0.2588,8.05,2.07,3.41
1254,145585442,0.9038,-0.1694,-0.2510,8.11,2.56,3.60
1255,145590442,0.9043,-0.1680,-0.2495,7.93,2.87,3.72
1256,145595442,0.9014,-0.1650,-0.2480,7.93,3.11,3.78
1257,145600442,0.9023,-0.1699,-0.2451,7.74,3.54,3.90
1258,145605442,0.9009,-0.1694,-0.2417,7.38,3.78,4.02
1259,145610441,0.9023,-0.1709,-0.2427,7.20,3.90,4.02
1260,145615442,0.9048,-0.1763,-0.2417,6.65,4.21,4.21
1261,145620441,0.9014,-0.1733,-0.2422,6.40,4.45,4.27
1262,145625442,0.9043,-0.1797,-0.2437,5.79,4.63,4.33
1263,145630442,0.9053,-0.1797,-0.2441,5.30,4.70,4.51
1264,145635442,0.9058,-0.1865,-0.2485,4.94,4.88,4.63
1265,145640441,0.9077,-0.1914,-0.2500,4.70,5.06,4.76
1266,145645442,0.9058,-0.1895,-0.2559,4.63,5.06,4.82
1267,145650442,0.9033,-0.1924,-0.2539,4.76,5.24,4.82
1268,145655521,0.9009,-0.1934,-0.2529,5.00,5.55,4.88
1269,145660442,0.9023,-0.1992,-0.2563,5.24,5.67,4.88
1270,145665442,0.8999,-0.2002,-0.2549,5.61,5.91,4.94
1271,145670441,0.8984,-0.2065,-0.2686,6.04,6.10,4.94
1272,145675923,0.8975,-0.2090,-0.2563,6.65,6.22,4.88
1273,145680442,0.8994,-0.2075,-0.2661,7.26,6.34,4.82
1274,145685442,0.8921,-0.2080,-0.2749,7.87,6.59,4.82
1275,145690443,0.8950,-0.2148,-0.2646,8.41,6.71,4.63
1276,145695441,0.8921,-0.2090,-0.2725,9.15,6.95,4.45
1277,145701059,0.8867,-0.2104,-0.2676,10.00,7.13,4.33
1278,145705445,0.8828,-0.2065,-0.2705,10.67,7.32,4.15
1279,145710440,0.8726,-0.2090,-0.2676,11.52,7.50,3.96
1280,145715442,0.8696,-0.2070,-0.2686,12.32,7.44,3.60
1281,145720440,0.8662,-0.2075,-0.2676,13.05,7.68,3.35
1282,145725444,0.8574,-0.2026,-0.2676,13.72,7.87,3.11
1283,145730440,0.8535,-0.2012,-0.2607,14.33,7.99,2.74
1284,145735442,0.8511,-0.2051,-0.2607,15.12,8.05,2.44
1285,145740440,0.8452,-0.2075,-0.2598,15.61,8.17,2.01
1286,145745444,0.8438,-0.2046,-0.2529,15.98,8.17,1.59
1287,145750440,0.8433,-0.2046,-0.2476,16.40,8.23,1.34
1288,145755441,0.8398,-0.1997,-0.2480,16.71,8.29,0.91
1289,145760440,0.8433,-0.2017,-0.2446,16.89,8.41,0.43
1290,145765442,0.8442,-0.1997,-0.2402,16.71,8.54,0.06
1291,145770441,0.8418,-0.1982,-0.2427,16.83,8.29,-0.43
1292,145775442,0.8481,-0.2021,-0.2417,16.65,8.41,-0.98
1293,145780441,0.8477,-0.2031,-0.2437,16.22,8.23,-1.40
1294,145785444,0.8467,-0.2036,-0.2446,15.79,8.05,-1.83
1295,145790441,0.8511,-0.2056,-0.2437,15.30,7.87,-2.50
1296,145795440,0.8564,-0.2075,-0.2373,14.70,7.62,-2.93
1297,145800442,0.8604,-0.2075,-0.2368,14.02,7.26,-3.48
1298,145805441,0.8594,-0.2090,-0.2407,12.99,6.71,-4.15
1299,145810442,0.8647,-0.2090,-0.2446,12.38,6.65,-4.51
1300,145815442,0.8662,-0.2090,-0.2437,11.59,6.16,-5.12
1301,145820442,0.8735,-0.2095,-0.2441,10.67,5.67,-5.67
1302,145825441,0.8770,-0.2134,-0.2461,9.76,5.06,-6.22
1303,145830442,0.8926,-0.2183,-0.2461,8.90,4.70,-6.71
1304,145835443,0.8994,-0.2207,-0.2417,7.87,4.39,-7.07
1305,145840442,0.9062,-0.2251,-0.2466,6.83,3.90,-7.62
1306,145845441,0.9126,-0.2266,-0.2466,5.98,3.41,-7.99
1307,145850442,0.9141,-0.2300,-0.2480,5.12,2.99,-8.48
1308,145855441,0.9199,-0.2349,-0.2485,4.27,2.62,-8.78
1309,145860441,0.9272,-0.2334,-0.2441,3.29,2.13,-8.96
1310,145865440,0.9360,-0.2417,-0.2471,2.62,1.83,-9.33
1311,145870442,0.9375,-0.2441,-0.2593,1.83,1.46,-9.45
1312,145875442,0.9448,-0.2446,-0.2549,1.28,1.04,-9.76
1313,145880441,0.9468,-0.2471,-0.2627,0.67,0.67,-9.76
1314,145885442,0.9438,-0.2476,-0.2612,0.18,0.37,-9.94
1315,145890441,0.9380,-0.2456,-0.2578,-0.12,0.12,-10.06
1316,145895444,0.9365,-0.2471,-0.2622,-0.43,-0.12,-10.06
1317,145900441,0.9346,-0.2441,-0.2637,-0.55,-0.49,-10.00
1318,145905880,0.9282,-0.2383,-0.2661,-0.73,-0.55,-10.12
1319,145910442,0.9258,-0.2397,-0.2695,-0.67,-0.85,-10.12
1320,145915442,0.9165,-0.2368,-0.2559,-0.73,-1.10,-10.00
1321,145920442,0.9077,-0.2349,-0.2583,-0.67,-1.16,-10.00
1322,145925484,0.8994,-0.2314,-0.2573,-0.61,-1.28,-9.94
1323,145930442,0.8882,-0.2280,-0.2549,-0.37,-1.28,-9.88
1324,145935442,0.8862,-0.2266,-0.2656,-0.24,-1.28,-9.88
1325,145940442,0.8750,-0.2241,-0.2612,0.06,-1.28,-9.70
1326,145945441,0.8701,-0.2212,-0.2588,0.24,-1.22,-9.51
1327,145950442,0.8584,-0.2227,-0.2588,0.55,-1.16,-9.45
1328,145955442,0.8472,-0.2217,-0.2588,0.79,-1.22,-9.21
1329,145960443,0.8408,-0.2163,-0.2588,1.16,-0.98,-9.09
1330,145965442,0.8330,-0.2158,-0.2598,1.40,-0.85,-8.90
1331,145970441,0.8301,-0.2183,-0.2573,1.77,-0.73,-8.78
1332,145975442,0.8281,-0.2158,-0.2554,2.13,-0.67,-8.60
1333,145980442,0.8198,-0.2119,-0.2603,2.68,-0.61,-8.48
1334,145985442,0.8159,-0.2148,-0.2510,2.80,-0.30,-8.11
1335,145990442,0.8159,-0.2134,-0.2417,3.23,0.00,-7.87
1336,145995442,0.8179,-0.2129,-0.2437,3.41,0.12,-7.68
1337,146000441,0.8125,-0.2197,-0.2461,3.54,0.37,-7.44
1338,146005444,0.8154,-0.2168,-0.2456,3.78,0.49,-7.20
1339,146010441,0.8145,-0.2212,-0.2471,3.78,0.73,-7.07
1340,146015442,0.8086,-0.2178,-0.2549,3.72,0.98,-6.83
1341,146020441,0.8086,-0.2173,-0.2510,3.60,1.28,-6.77
1342,146025442,0.8115,-0.2168,-0.2539,3.41,1.28,-6.71
1343,146030441,0.8135,-0.2144,-0.2480,3.29,1.46,-6.65
1344,146035442,0.8091,-0.2104,-0.2568,2.93,1.40,-6.52
1345,146040441,0.8101,-0.2144,-0.2490,2.68,1.52,-6.77
1346,146045442,0.8120,-0.2114,-0.2495,2.32,1.65,-6.77
1347,146050442,0.8140,-0.2100,-0.2500,1.89,1.77,-6.83
1348,146055441,0.8203,-0.2124,-0.2495,1.28,1.77,-6.89
1349,146060442,0.8228,-0.2075,-0.2422,0.67,1.83,-6.95
1350,146065442,0.8330,-0.2090,-0.2383,0.12,1.89,-7.07
1351,146070441,0.8345,-0.2080,-0.2407,-0.55,1.95,-7.26
1352,146075440,0.8369,-0.2021,-0.2422,-1.59,1.95,-7.38
1353,146080442,0.8374,-0.2065,-0.2339,-2.26,2.13,-7.50
1354,146085442,0.8442,-0.2036,-0.2344,-3.23,1.95,-7.68
1355,146090442,0.8511,-0.1997,-0.2378,-4.21,2.07,-7.93
1356,146095441,0.8545,-0.1992,-0.2285,-5.24,2.13,-8.11
1357,146100442,0.8550,-0.1987,-0.2339,-6.34,2.13,-8.29
1358,146105442,0.8560,-0.1958,-0.2280,-7.56,2.13,-8.41
1359,146110442,0.8574,-0.1997,-0.2285,-8.72,2.32,-8.66
1360,146115440,0.8633,-0.1992,-0.2266,-9.94,2.38,-8.84
1361,146120442,0.8706,-0.1958,-0.2290,-11.16,2.50,-9.02
1362,146125442,0.8706,-0.1934,-0.2246,-12.38,2.56,-9.15
1363,146130442,0.8740,-0.1978,-0.2153,-13.54,2.50,-9.39
1364,146135442,0.8818,-0.1997,-0.2300,-14.82,2.50,-9.51
1365,146140442,0.8931,-0.2007,-0.2354,-16.04,2.50,-9.70
1366,146145442,0.9004,-0.2031,-0.2329,-17.20,2.44,-9.88
1367,146150441,0.9106,-0.2061,-0.2402,-18.48,2.62,-9.94
1368,146155442,0.9180,-0.2075,-0.2441,-19.57,2.50,-10.00
1369,146160442,0.9243,-0.2090,-0.2593,-20.67,2.62,-10.24
1370,146165443,0.9336,-0.2109,-0.2515,-21.59,2.62,-10.37
1371,146170511,0.9370,-0.2119,-0.2563,-22.44,2.68,-10.49
1372,146175442,0.9375,-0.2163,-0.2759,-23.17,2.56,-10.73
1373,146180441,0.9404,-0.2134,-0.2817,-23.66,2.38,-10.61
1374,146185443,0.9448,-0.2197,-0.2832,-24.09,2.32,-10.79
1375,146190440,0.9458,-0.2266,-0.2852,-24.39,2.26,-10.85
1376,146195445,0.9424,-0.2310,-0.2954,-24.33,2.07,-10.85
1377,146200441,0.9395,-0.2354,-0.3008,-24.39,2.20,-10.73
1378,146205442,0.9380,-0.2363,-0.3022,-23.90,1.95,-10.79
1379,146210441,0.9297,-0.2393,-0.3145,-23.35,1.89,-10.67
1380,146215442,0.9233,-0.2407,-0.3105,-22.62,1.89,-10.73
1381,146220441,0.9238,-0.2427,-0.3110,-21.83,1.77,-10.67
1382,146225442,0.9160,-0.2456,-0.3101,-20.73,1.65,-10.43
1383,146230441,0.9136,-0.2485,-0.3169,-19.51,1.59,-10.37
1384,146235442,0.9116,-0.2549,-0.3071,-18.29,1.46,-10.06
1385,146240441,0.9092,-0.2534,-0.3037,-16.89,1.46,-9.76
1386,146245444,0.9087,-0.2549,-0.3018,-15.43,1.46,-9.39
1387,146250441,0.9141,-0.2559,-0.2979,-13.72,1.40,-9.15
1388,146255442,0.9087,-0.2573,-0.2832,-11.89,1.65,-8.72
1389,146260441,0.9077,-0.2461,-0.2808,-9.70,1.71,-8.41
1390,146265442,0.9053,-0.2432,-0.2700,-7.50,1.71,-8.05
1391,146270442,0.8999,-0.2378,-0.2598,-5.18,2.07,-7.74
1392,146275442,0.8950,-0.2314,-0.2373,-2.68,2.32,-7.50
1393,146280441,0.8887,-0.2261,-0.2373,-0.18,2.56,-7.26
1394,146285442,0.8813,-0.2114,-0.2344,2.20,2.80,-7.07
1395,146290441,0.8774,-0.2026,-0.2183,4.51,3.17,-6.89
1396,146295442,0.8735,-0.1895,-0.1968,6.77,3.60,-6.77
1397,146300441,0.8696,-0.1797,-0.1929,8.84,3.78,-6.71
1398,146305442,0.8608,-0.1719,-0.1890,10.73,4.15,-6.77
1399,146310441,0.8574,-0.1650,-0.1748,12.50,4.45,-6.83
1400,146315442,0.8594,-0.1582,-0.1621,14.09,4.82,-6.83
1401,146320441,0.8657,-0.1572,-0.1665,15.43,5.12,-7.07
1402,146325442,0.8755,-0.1577,-0.1562,16.59,5.24,-7.01
1403,146330441,0.8911,-0.1597,-0.1519,17.38,5.61,-7.01
1404,146335442,0.9170,-0.1606,-0.1489,17.87,5.85,-7.07
1405,146340442,0.9419,-0.1660,-0.1460,18.23,6.10,-7.07
1406,146345441,0.9639,-0.1694,-0.1519,18.48,6.16,-7.01
1407,146350442,0.9829,-0.1680,-0.1509,18.54,6.34,-7.07
1408,146355442,1.0078,-0.1670,-0.1484,18.48,6.22,-7.13
1409,146360443,1.0273,-0.1660,-0.1592,18.48,5.98,-7.13
1410,146365440,1.0518,-0.1558,-0.1592,18.35,5.98,-7.44
1411,146370440,1.0581,-0.1460,-0.1562,18.35,5.85,-7.56
1412,146375440,1.0737,-0.1313,-0.1548,18.54,5.43,-8.05
1413,146380440,1.0845,-0.1138,-0.1553,18.60,5.37,-8.48
1414,146385441,1.0845,-0.0972,-0.1509,18.66,5.12,-9.21
1415,146390443,1.0811,-0.0850,-0.1528,18.72,5.12,-10.06
1416,146395442,1.0688,-0.0679,-0.1553,18.96,4.57,-11.10
1417,146400442,1.0635,-0.0488,-0.1470,19.09,4.39,-12.13
1418,146405441,1.0503,-0.0386,-0.1460,19.02,4.09,-13.35
1419,146410442,1.0444,-0.0215,-0.1411,19.02,3.84,-14.82
1420,146415442,1.0332,-0.0117,-0.1396,18.96,3.54,-16.22
1421,146420442,1.0308,-0.0029,-0.1362,18.78,3.29,-17.56
1422,146425441,1.0151,0.0068,-0.1348,18.41,2.87,-19.45
1423,146430442,1.0039,0.0068,-0.1323,18.05,2.68,-20.85
1424,146435442,0.9976,0.0171,-0.1392,17.32,2.26,-22.80
1425,146440442,0.9902,0.0195,-0.1401,16.83,2.01,-24.27
1426,146445443,0.9834,0.0278,-0.1406,15.73,1.59,-26.22
1427,146450442,0.9771,0.0288,-0.1406,15.00,1.28,-27.68
1428,146455442,0.9634,0.0347,-0.1436,13.96,0.98,-29.33
1429,146460442,0.9546,0.0435,-0.1450,12.80,0.61,-30.91
1430,146465441,0.9453,0.0420,-0.1484,11.22,0.18,-32.56
1431,146470442,0.9375,0.0410,-0.1499,9.63,-0.12,-34.21
1432,146475442,0.9258,0.0449,-0.1445,7.80,-0.49,-35.61
1433,146480442,0.9214,0.0454,-0.1445,5.73,-0.98,-37.07
1434,146485442,0.9111,0.0513,-0.1484,3.41,-1.22,-38.48
1435,146490441,0.9048,0.0542,-0.1509,0.73,-1.59,-40.00
1436,146495442,0.9009,0.0596,-0.1489,-1.95,-1.95,-41.28
1437,146500441,0.8970,0.0630,-0.1465,-5.00,-2.26,-42.50
1438,146505442,0.8906,0.0708,-0.1436,-8.11,-2.62,-43.84
1439,146510442,0.8921,0.0781,-0.1484,-11.28,-2.93,-45.06
1440,146515442,0.8921,0.0859,-0.1489,-14.45,-3.29,-46.40
1441,146520441,0.8945,0.0947,-0.1460,-17.62,-3.60,-47.68
1442,146525442,0.8965,0.1045,-0.1470,-20.73,-3.96,-48.96
1443,146530441,0.8984,0.1123,-0.1484,-23.60,-4.39,-50.24
1444,146535442,0.9038,0.1226,-0.1426,-26.46,-4.82,-51.59
1445,146540442,0.9072,0.1274,-0.1421,-29.09,-4.94,-52.87
1446,146545442,0.9121,0.1309,-0.1401,-31.77,-5.12,-54.02
1447,146550442,0.9150,0.1401,-0.1436,-34.09,-5.30,-55.30
1448,146555442,0.9199,0.1455,-0.1411,-36.59,-5.49,-56.52
1449,146560441,0.9253,0.1440,-0.1377,-38.84,-5.85,-57.74
1450,146565442,0.9272,0.1523,-0.1401,-40.91,-5.79,-58.78
1451,146570441,0.9360,0.1548,-0.1406,-42.74,-5.79,-60.06
1452,146575441,0.9458,0.1621,-0.1372,-44.51,-5.98,-61.16
1453,146580442,0.9492,0.1685,-0.1348,-46.40,-5.98,-62.13
1454,146585442,0.9609,0.1743,-0.1343,-47.87,-5.85,-63.05
1455,146590442,0.9727,0.1768,-0.1396,-49.39,-5.85,-64.09
1456,146595441,0.9844,0.1807,-0.1377,-50.73,-5.67,-64.94
1457,146600442,0.9888,0.1855,-0.1382,-51.95,-5.30,-65.67
1458,146605442,0.9966,0.1870,-0.1416,-53.11,-5.12,-66.34
1459,146610442,0.9995,0.1948,-0.1401,-54.09,-4.76,-66.89
1460,146615441,0.9932,0.2002,-0.1504,-54.94,-4.33,-67.32
1461,146620442,0.9912,0.2090,-0.1436,-55.73,-4.02,-67.80
1462,146625442,0.9858,0.2129,-0.1465,-56.34,-3.54,-68.11
1463,146630442,0.9766,0.2236,-0.1504,-56.83,-2.99,-68.17
1464,146635441,0.9766,0.2388,-0.1562,-56.89,-2.38,-68.29
1465,146640442,0.9727,0.2520,-0.1533,-56.71,-1.71,-68.23
1466,146645477,0.9683,0.2627,-0.1523,-56.28,-1.16,-68.11
1467,146650441,0.9629,0.2769,-0.1470,-55.61,-0.55,-67.93
1468,146655442,0.9580,0.2900,-0.1509,-54.70,-0.06,-67.62
1469,146660441,0.9507,0.3066,-0.1528,-53.66,0.55,-67.13
1470,146665442,0.9458,0.3159,-0.1523,-52.50,1.10,-66.65
1471,146670441,0.9385,0.3281,-0.1494,-51.34,1.59,-66.04
1472,146675443,0.9414,0.3398,-0.1440,-50.30,2.20,-65.37
1473,146680441,0.9395,0.3540,-0.1504,-49.27,2.74,-64.51
1474,146685442,0.9370,0.3638,-0.1587,-48.23,2.99,-63.48
1475,146690441,0.9346,0.3721,-0.1558,-47.38,3.41,-62.56
1476,146695442,0.9346,0.3857,-0.1509,-46.59,3.96,-61.46
1477,146700441,0.9316,0.3950,-0.1582,-45.91,4.39,-60.30
1478,146705445,0.9268,0.4023,-0.1577,-45.37,4.76,-59.02
1479,146710441,0.9253,0.4106,-0.1602,-44.88,5.06,-57.62
1480,146715442,0.9248,0.4219,-0.1636,-44.45,5.43,-56.16
1481,146720441,0.9199,0.4268,-0.1650,-43.90,5.67,-54.57
1482,146725442,0.9219,0.4380,-0.1704,-43.23,5.98,-52.74
1483,146730441,0.9214,0.4478,-0.1611,-42.50,6.22,-50.91
1484,146735442,0.9258,0.4590,-0.1646,-41.65,6.34,-48.96
1485,146740441,0.9248,0.4727,-0.1616,-40.61,6.59,-46.77
1486,146745444,0.9292,0.4873,-0.1626,-39.57,6.65,-44.70
1487,146750441,0.9302,0.4976,-0.1606,-38.41,6.77,-42.68
1488,146755442,0.9355,0.5088,-0.1577,-37.13,6.77,-40.49
1489,146760441,0.9390,0.5142,-0.1582,-35.61,6.83,-38.23
1490,146765442,0.9424,0.5220,-0.1538,-33.90,6.89,-36.04
1491,146770441,0.9419,0.5347,-0.1484,-31.89,6.77,-33.78
1492,146775440,0.9380,0.5435,-0.1450,-29.45,6.83,-31.40
1493,146780440,0.9365,0.5576,-0.1484,-26.83,6.89,-29.15
1494,146785707,0.9248,0.5605,-0.1431,-23.84,6.71,-26.95
1495,146790442,0.9243,0.5708,-0.1372,-20.67,6.77,-24.39
1496,146795442,0.9189,0.5762,-0.1426,-17.44,6.52,-22.01
1497,146800442,0.9146,0.5952,-0.1489,-13.96,6.22,-19.82
1498,146805443,0.9238,0.5776,-0.1362,-10.30,5.73,-17.56
1499,146810442,0.9297,0.5693,-0.1182,-6.77,5.73,-15.18
1500,146815442,0.9233,0.5684,-0.1245,-3.48,5.61,-12.68
1501,146820446,0.9224,0.5659,-0.1191,-0.61,5.18,-10.24
1502,146825444,0.9160,0.5581,-0.1162,1.77,4.88,-7.93
1503,146830440,0.9136,0.5640,-0.1099,3.66,4.63,-5.49
1504,146835444,0.9004,0.5630,-0.1187,5.24,4.15,-3.17
1505,146840441,0.8936,0.5620,-0.1250,6.34,3.72,-0.73
1506,146845442,0.8916,0.5620,-0.1182,7.07,3.29,1.46
1507,146850441,0.8906,0.5591,-0.1138,7.32,2.87,3.72
1508,146855442,0.8901,0.5557,-0.1104,7.07,2.44,5.79
1509,146860441,0.8867,0.5557,-0.1108,6.52,2.07,7.80
1510,146865442,0.8887,0.5493,-0.1030,5.61,1.71,9.63
1511,146870441,0.8877,0.5459,-0.0972,4.21,1.28,11.52
1512,146875442,0.8848,0.5410,-0.1016,2.44,1.10,13.17
1513,146880441,0.8838,0.5356,-0.0996,0.55,0.55,14.76
1514,146885442,0.8887,0.5254,-0.0923,-1.40,0.06,16.16
1515,146890441,0.8901,0.5239,-0.0986,-3.48,-0.24,17.62
1516,146895442,0.8916,0.5151,-0.1016,-5.55,-0.61,18.96
1517,146900441,0.8931,0.5029,-0.0908,-7.50,-1.04,20.12
1518,146905442,0.8911,0.4980,-0.0967,-9.39,-1.34,21.28
1519,146910441,0.8950,0.4946,-0.0928,-10.91,-1.65,22.26
1520,146915442,0.9004,0.4839,-0.0986,-12.62,-2.13,23.29
1521,146920442,0.8960,0.4746,-0.0903,-13.96,-2.68,24.21
1522,146925442,0.8975,0.4673,-0.0854,-15.37,-3.05,25.06
1523,146930441,0.9028,0.4536,-0.0938,-16.52,-3.60,25.91
1524,146935442,0.9067,0.4448,-0.0947,-17.38,-4.09,26.65
1525,146940441,0.9033,0.4268,-0.0996,-18.05,-4.39,27.50
1526,146945442,0.8994,0.4194,-0.0938,-18.72,-5.00,28.29
1527,146950442,0.9072,0.4102,-0.1006,-18.96,-5.49,29.02
1528,146955442,0.9121,0.3989,-0.1055,-19.21,-6.10,29.63
1529,146960441,0.9111,0.3887,-0.1021,-19.02,-6.65,30.12
1530,146965442,0.9111,0.3735,-0.1055,-18.78,-7.26,30.85
1531,146970441,0.9126,0.3623,-0.1084,-18.11,-7.62,31.40
1532,146975444,0.9102,0.3540,-0.1104,-17.32,-8.17,32.01
1533,146980440,0.9092,0.3389,-0.1162,-16.28,-8.78,32.50
1534,146985441,0.9058,0.3286,-0.1187,-15.06,-9.15,32.99
1535,146990988,0.9067,0.3193,-0.1196,-13.54,-9.45,33.60
1536,146995697,0.9087,0.3086,-0.1255,-11.95,-10.06,34.02
1537,147000442,0.9092,0.2993,-0.1226,-10.06,-10.43,34.57
1538,147005442,0.9116,0.2886,-0.1250,-8.05,-10.61,35.00
1539,147010442,0.9136,0.2793,-0.1362,-6.10,-11.10,35.30
1540,147015443,0.9082,0.2686,-0.1367,-3.96,-11.28,35.67
1541,147020442,0.9121,0.2627,-0.1406,-1.71,-11.59,35.85
1542,147025442,0.9102,0.2529,-0.1436,0.73,-11.77,36.16
1543,147030442,0.9136,0.2476,-0.1499,2.80,-11.83,36.34
1544,147035441,0.9150,0.2427,-0.1499,5.18,-11.95,36.40
1545,147040442,0.9170,0.2354,-0.1592,7.38,-12.20,36.34
1546,147045443,0.9136,0.2290,-0.1602,9.39,-12.13,36.16
1547,147050442,0.9175,0.2192,-0.1694,11.46,-12.20,36.04
1548,147055441,0.9106,0.2129,-0.1675,13.29,-12.13,35.73
1549,147060442,0.9131,0.2085,-0.1729,15.37,-12.07,35.79
1550,147065442,0.9189,0.2051,-0.1792,16.95,-11.95,35.24
1551,147070442,0.9214,0.1997,-0.1768,18.72,-12.01,34.88
1552,147075441,0.9170,0.1987,-0.1807,20.24,-11.77,34.45
1553,147080442,0.9165,0.1948,-0.1802,21.65,-11.52,33.84
1554,147085440,0.9170,0.1924,-0.1807,22.87,-11.40,33.29
1555,147090441,0.9146,0.1895,-0.1821,24.02,-11.16,32.68
1556,147095442,0.9131,0.1846,-0.1836,24.94,-10.73,31.95
1557,147100441,0.9165,0.1782,-0.1846,25.79,-10.55,31.34
1558,147105442,0.9243,0.1729,-0.1865,26.46,-10.12,30.61
1559,147110441,0.9224,0.1738,-0.1865,26.95,-9.70,29.82
1560,147115442,0.9224,0.1758,-0.1899,27.26,-9.51,29.02
1561,147120442,0.9204,0.1748,-0.1885,27.32,-9.21,28.23
1562,147125442,0.9229,0.1689,-0.1904,27.32,-8.78,27.38
1563,147130441,0.9248,0.1680,-0.1895,27.26,-8.41,26.40
1564,147135442,0.9209,0.1641,-0.1895,26.95,-8.17,25.49
1565,147140441,0.9224,0.1675,-0.1919,26.46,-7.62,24.51
1566,147145442,0.9229,0.1636,-0.1953,25.85,-7.26,23.60
1567,147150441,0.9243,0.1602,-0.1909,25.12,-6.95,22.68
1568,147155444,0.9204,0.1631,-0.1919,24.45,-6.65,21.59
1569,147160441,0.9229,0.1567,-0.1963,23.35,-6.22,20.61
1570,147165442,0.9253,0.1577,-0.2012,22.32,-5.85,19.51
1571,147170441,0.9229,0.1533,-0.1973,21.28,-5.55,18.66
1572,147175442,0.9224,0.1504,-0.2002,20.00,-5.12,17.50
1573,147180441,0.9224,0.1543,-0.2041,18.60,-4.88,16.40
1574,147185441,0.9219,0.1484,-0.1948,17.26,-4.45,15.30
1575,147190440,0.9253,0.1479,-0.2007,15.91,-4.15,14.27
1576,147195843,0.9219,0.1494,-0.1919,14.51,-3.78,13.17
1577,147200442,0.9219,0.1440,-0.1992,13.05,-3.66,12.20
1578,147205442,0.9258,0.1470,-0.1914,11.65,-3.23,11.10
1579,147210442,0.9263,0.1401,-0.1978,10.30,-2.93,10.06
1580,147215441,0.9268,0.1426,-0.1982,8.90,-2.56,9.02
1581,147220442,0.9312,0.1392,-0.1885,7.50,-2.07,7.93
1582,147225442,0.9346,0.1401,-0.1904,6.16,-1.89,6.89
1583,147230442,0.9375,0.1426,-0.1899,5.18,-1.65,5.98
1584,147235441,0.9370,0.1392,-0.1919,3.78,-1.52,4.76
1585,147240442,0.9365,0.1382,-0.1904,2.87,-1.16,3.90
1586,147245442,0.9390,0.1396,-0.1919,1.65,-0.98,2.80
1587,147250442,0.9355,0.1377,-0.1895,0.85,-0.91,2.01
1588,147255440,0.9399,0.1377,-0.1904,0.00,-0.73,1.16
1589,147260443,0.9351,0.1406,-0.1934,-0.55,-0.49,0.24
1590,147265442,0.9331,0.1387,-0.1875,-1.22,-0.30,-0.67
1591,147270442,0.9302,0.1401,-0.1924,-1.65,-0.24,-1.52
1592,147275532,0.9341,0.1411,-0.1860,-2.01,0.00,-2.44
1593,147280442,0.9336,0.1460,-0.1885,-2.38,-0.06,-2.99
1594,147285442,0.9307,0.1455,-0.1812,-2.56,0.18,-3.78
1595,147290441,0.9302,0.1484,-0.1782,-2.74,0.24,-4.45
1596,147295440,0.9307,0.1499,-0.1807,-2.80,0.18,-5.00
1597,147300442,0.9287,0.1519,-0.1763,-2.93,0.12,-5.67
1598,147305442,0.9312,0.1572,-0.1719,-2.93,0.24,-6.22
1599,147310442,0.9277,0.1606,-0.1729,-3.05,0.18,-6.77
1600,147315442,0.9292,0.1646,-0.1733,-3.11,0.18,-7.32
1601,147320441,0.9307,0.1680,-0.1772,-3.23,0.18,-7.80
1602,147325442,0.9287,0.1714,-0.1694,-3.41,0.18,-8.35
1603,147330441,0.9341,0.1694,-0.1665,-3.48,0.06,-8.90
1604,147335649,0.9351,0.1777,-0.1655,-3.66,-0.12,-9.27
1605,147340443,0.9321,0.1826,-0.1675,-3.78,0.00,-9.51
1606,147345442,0.9326,0.1763,-0.1631,-3.90,-0.37,-9.88
1607,147350442,0.9336,0.1797,-0.1729,-3.90,-0.30,-10.24
1608,147355441,0.9336,0.1826,-0.1685,-3.84,-0.37,-10.43
1609,147360442,0.9302,0.1880,-0.1694,-3.84,-0.55,-10.67
1610,147365442,0.9307,0.1880,-0.1660,-4.15,-0.55,-11.04
1611,147370442,0.9375,0.1914,-0.1641,-4.09,-0.85,-11.04
1612,147375441,0.9355,0.1948,-0.1636,-3.96,-0.85,-11.22
1613,147380442,0.9321,0.1978,-0.1699,-3.90,-1.10,-11.40
