# skilleye imu stream v1
# device=xiao_esp32c6 imu=mpu6050 addr=0x68
# rate_hz=200 accel_range_g=16 gyro_range_dps=2000 dlpf_hz=94
# units: accel in g, gyro in deg/s, t_us in microseconds since boot (monotonic)
# no shared clock with the camera -- tap the racket once before each take
# so both recordings share a spike to align on
seq,t_us,ax,ay,az,gx,gy,gz
0,108649792,0.8809,0.4780,0.1733,0.85,-13.54,8.84
1,108654788,0.8838,0.4810,0.1714,1.46,-13.60,9.21
2,108659786,0.8882,0.4863,0.1631,2.01,-13.41,9.70
3,108664789,0.8838,0.4878,0.1606,2.56,-13.48,10.12
4,108669785,0.8867,0.4888,0.1548,3.05,-13.48,10.61
5,108674787,0.8984,0.4912,0.1450,3.35,-13.23,11.22
6,108679786,0.9038,0.4883,0.1421,3.41,-13.17,11.83
7,108684789,0.9121,0.4883,0.1323,3.41,-12.99,12.50
8,108689785,0.9194,0.4863,0.1235,3.29,-12.68,13.11
9,108694787,0.9263,0.4854,0.1284,3.35,-12.44,13.96
10,108699786,0.9287,0.4839,0.1143,3.11,-12.38,14.70
11,108704787,0.9326,0.4805,0.1143,3.05,-12.07,15.61
12,108709785,0.9312,0.4785,0.1118,3.11,-11.59,16.40
13,108714787,0.9268,0.4775,0.1045,3.17,-11.28,17.13
14,108719786,0.9258,0.4717,0.1069,3.23,-10.85,17.93
15,108724787,0.9170,0.4697,0.1030,3.66,-10.55,18.78
16,108729785,0.9175,0.4668,0.0918,4.21,-10.18,19.51
17,108734785,0.9106,0.4678,0.0898,4.82,-9.88,20.24
18,108740062,0.9092,0.4614,0.0874,5.43,-9.57,20.91
19,108744787,0.9106,0.4551,0.0825,6.10,-9.21,21.71
20,108749786,0.9150,0.4517,0.0723,6.77,-8.90,22.50
21,108754787,0.9160,0.4497,0.0669,7.38,-8.48,23.29
22,108759785,0.9150,0.4468,0.0527,8.05,-7.93,24.27
23,108764931,0.9185,0.4419,0.0503,8.84,-7.50,25.12
24,108769787,0.9106,0.4385,0.0439,9.70,-7.20,25.91
25,108774787,0.9092,0.4370,0.0366,10.37,-6.89,26.83
26,108779787,0.9062,0.4326,0.0288,10.85,-6.77,27.50
27,108784786,0.8994,0.4297,0.0288,11.40,-6.28,28.29
28,108789787,0.8921,0.4268,0.0249,11.71,-5.91,28.78
29,108795112,0.8872,0.4243,0.0269,11.77,-5.67,29.51
30,108799787,0.8794,0.4209,0.0186,11.59,-5.18,29.88
31,108804786,0.8813,0.4209,0.0186,11.34,-4.94,30.24
32,108809790,0.8770,0.4170,0.0181,10.67,-4.45,30.61
33,108814787,0.8726,0.4111,0.0142,9.94,-3.96,31.04
34,108819786,0.8730,0.4102,0.0195,8.84,-3.84,31.34
35,108824789,0.8711,0.4072,0.0205,7.68,-3.29,31.59
36,108829786,0.8799,0.4023,0.0127,6.46,-2.80,31.95
37,108834785,0.8813,0.4004,0.0083,5.12,-2.26,32.01
38,108839785,0.8867,0.3931,0.0073,4.02,-1.65,32.20
39,108844787,0.8940,0.3921,0.0127,2.87,-1.28,32.56
40,108849786,0.8999,0.3867,0.0059,1.77,-0.79,32.68
41,108854787,0.9023,0.3833,0.0059,0.85,-0.12,32.87
42,108859787,0.9097,0.3745,0.0098,0.12,0.12,33.29
43,108864787,0.9106,0.3691,0.0146,-0.37,0.67,33.54
44,108869786,0.9092,0.3643,0.0132,-0.91,1.10,33.78
45,108874787,0.9087,0.3662,0.0151,-1.16,1.65,33.90
46,108879787,0.9053,0.3652,0.0166,-1.16,2.13,34.09
47,108884787,0.9067,0.3657,0.0220,-1.22,2.56,34.27
48,108889787,0.9009,0.3604,0.0269,-1.16,3.11,34.21
49,108894786,0.9028,0.3564,0.0347,-1.10,3.72,34.27
50,108899787,0.9067,0.3530,0.0347,-1.16,4.15,34.21
51,108904785,0.9077,0.3550,0.0420,-1.10,5.00,34.09
52,108909787,0.9121,0.3545,0.0508,-1.04,5.55,34.15
53,108914786,0.9146,0.3530,0.0488,-0.79,6.04,34.15
54,108919787,0.9189,0.3589,0.0518,-0.61,6.77,34.09
55,108924787,0.9185,0.3530,0.0625,-0.30,7.50,34.09
56,108929787,0.9136,0.3525,0.0693,0.12,8.17,34.09
57,108934785,0.9170,0.3481,0.0781,0.67,8.90,34.33
58,108939785,0.9214,0.3472,0.0864,1.40,9.57,34.39
59,108944785,0.9282,0.3472,0.1001,2.62,10.49,34.70
60,108949787,0.9243,0.3511,0.0981,3.35,10.85,34.94
61,108954786,0.9243,0.3506,0.1045,4.33,11.59,35.18
62,108959787,0.9204,0.3496,0.1113,5.24,12.01,35.55
63,108964785,0.9131,0.3511,0.1201,5.98,12.50,35.91
64,108969787,0.9067,0.3594,0.1211,6.65,12.93,36.40
65,108974786,0.9019,0.3647,0.1274,7.13,13.29,36.95
66,108979787,0.8950,0.3677,0.1353,7.68,13.66,37.50
67,108984787,0.8892,0.3774,0.1426,7.99,14.02,38.29
68,108989787,0.8843,0.3804,0.1514,8.29,14.21,38.90
69,108994787,0.8828,0.3931,0.1567,8.78,14.39,39.76
70,108999787,0.8784,0.3892,0.1665,9.51,14.51,40.67
71,109004787,0.8828,0.3916,0.1812,10.49,14.63,41.83
72,109009787,0.8779,0.3901,0.1753,11.71,14.45,42.93
73,109014787,0.8735,0.3970,0.1846,13.23,14.33,44.15
74,109019787,0.8740,0.4014,0.1997,14.88,14.09,45.55
75,109024789,0.8813,0.3989,0.2114,17.01,13.96,47.26
76,109029787,0.8843,0.3921,0.2163,18.48,13.54,48.48
77,109034787,0.8911,0.3882,0.2236,19.94,13.11,49.88
78,109039787,0.8911,0.3813,0.2324,21.46,12.87,51.71
79,109044785,0.8892,0.3760,0.2393,22.99,12.32,53.54
80,109049789,0.8882,0.3706,0.2446,24.15,11.65,55.30
81,109054786,0.8823,0.3735,0.2578,25.06,11.10,57.32
82,109059787,0.8760,0.3662,0.2671,25.61,10.49,59.15
83,109064845,0.8701,0.3623,0.2681,25.85,9.88,61.04
84,109069787,0.8574,0.3564,0.2749,25.98,9.21,62.99
85,109074787,0.8516,0.3486,0.2788,25.91,8.54,65.00
86,109079787,0.8457,0.3408,0.2896,25.55,7.68,67.20
87,109084787,0.8330,0.3315,0.3052,25.18,7.07,69.33
88,109089788,0.8320,0.3223,0.3052,25.00,6.10,71.34
89,109094787,0.8262,0.3047,0.3110,24.82,5.30,73.66
90,109099787,0.8257,0.2881,0.3184,25.06,4.51,75.98
91,109104785,0.8169,0.2690,0.3223,25.55,3.60,78.48
92,109109787,0.8042,0.2627,0.3311,26.40,2.50,80.91
93,109114788,0.7944,0.2476,0.3350,27.38,1.52,83.35
94,109119788,0.7827,0.2485,0.3379,28.72,0.37,86.77
95,109124787,0.7744,0.2319,0.3359,30.37,-0.73,87.74
96,109129787,0.7637,0.2285,0.3486,32.13,-1.77,90.24
97,109134787,0.7612,0.2153,0.3496,33.96,-2.93,92.62
98,109139787,0.7690,0.2017,0.3550,36.04,-3.96,95.12
99,109144785,0.7695,0.1860,0.3726,38.05,-5.00,97.68
100,109150019,0.7744,0.1729,0.3804,40.24,-5.91,100.24
101,109154787,0.7734,0.1606,0.3774,42.32,-6.71,102.99
102,109159787,0.7773,0.1436,0.3838,44.51,-7.44,105.61
103,109165166,0.7744,0.1216,0.3901,46.77,-8.48,108.60
104,109169788,0.7773,0.0972,0.3936,48.90,-9.15,111.83
105,109174787,0.7773,0.0820,0.3828,50.79,-10.18,114.94
106,109179787,0.7705,0.0469,0.4009,52.07,-11.04,118.41
107,109184787,0.7593,0.0767,0.3779,52.62,-11.95,122.01
108,109189787,0.7642,0.0728,0.4121,52.68,-12.80,125.30
109,109194790,0.7583,0.0547,0.3862,52.50,-13.90,128.35
110,109199788,0.7388,0.0356,0.3726,52.20,-15.06,131.28
111,109204785,0.7197,0.0312,0.3936,51.59,-16.34,134.15
112,109210177,0.7119,0.0293,0.4043,51.22,-17.32,136.95
113,109214787,0.7021,0.0234,0.3867,50.98,-18.48,139.76
114,109219787,0.7051,0.0229,0.3828,50.79,-19.63,142.20
115,109224787,0.7051,0.0127,0.3955,50.73,-20.61,145.00
116,109229786,0.7148,-0.0107,0.3940,51.28,-21.77,147.62
117,109234787,0.7246,-0.0381,0.3745,52.07,-22.80,150.37
118,109239786,0.7412,-0.0723,0.3774,53.29,-24.02,153.48
119,109244785,0.7500,-0.0918,0.3833,54.76,-24.88,156.83
120,109249785,0.7588,-0.1177,0.3706,56.46,-25.98,160.37
121,109255277,0.7461,-0.1294,0.3662,58.41,-27.07,163.90
122,109259787,0.7197,-0.1353,0.3506,60.43,-28.29,167.38
123,109264787,0.7524,-0.1475,0.3711,62.32,-29.27,170.79
124,109269787,0.7778,-0.1636,0.3843,64.27,-30.30,174.15
125,109274787,0.7666,-0.1787,0.3560,66.28,-31.04,177.56
126,109279787,0.7417,-0.1963,0.3491,68.29,-31.95,180.91
127,109284787,0.7212,-0.2134,0.3198,70.12,-32.99,184.27
128,109289787,0.7007,-0.2251,0.3057,71.71,-34.45,187.38
129,109295302,0.7183,-0.2500,0.2852,73.41,-35.85,190.49
130,109299787,0.7080,-0.2505,0.2988,74.70,-37.32,193.60
131,109304786,0.6997,-0.2524,0.2803,75.85,-38.96,196.22
132,109310176,0.6729,-0.2803,0.2920,76.89,-40.24,198.54
133,109314787,0.6460,-0.2910,0.3208,77.80,-41.16,200.67
134,109319787,0.6221,-0.3325,0.3232,78.35,-41.40,202.32
135,109324787,0.5913,-0.3423,0.3389,78.96,-41.40,203.66
136,109329787,0.5518,-0.3569,0.3438,79.57,-41.04,204.21
137,109334787,0.5420,-0.3901,0.2910,80.12,-40.85,204.33
138,109339787,0.5215,-0.4390,0.3037,80.49,-40.73,204.15
139,109344785,0.5034,-0.4951,0.2881,80.61,-40.79,203.72
140,109349785,0.4697,-0.5513,0.2539,80.43,-41.16,203.05
141,109354787,0.4292,-0.5977,0.2422,79.88,-41.22,202.01
142,109359787,0.4028,-0.6309,0.2388,78.90,-41.34,200.73
143,109364859,0.3838,-0.6768,0.2383,77.44,-41.40,199.09
144,109369787,0.3667,-0.6982,0.2236,75.73,-41.28,197.01
145,109374787,0.3545,-0.7446,0.2231,73.41,-40.85,194.70
146,109379787,0.3521,-0.7793,0.2075,71.59,-40.37,192.13
147,109384787,0.3511,-0.8184,0.1831,69.63,-40.18,189.63
148,109389787,0.3525,-0.8467,0.1685,68.17,-40.06,186.77
149,109394787,0.3643,-0.8867,0.1597,67.01,-39.94,183.90
150,109399787,0.3652,-0.9033,0.1450,66.10,-40.00,180.67
151,109404787,0.3579,-0.9111,0.1284,65.12,-40.06,177.07
152,109409787,0.3569,-0.9297,0.1162,64.15,-40.61,173.23
153,109414785,0.3608,-0.9629,0.1108,62.87,-41.16,169.45
154,109419787,0.3916,-0.9976,0.1196,61.10,-41.83,165.79
155,109424787,0.4336,-1.0293,0.1245,59.15,-42.13,162.20
156,109429786,0.4624,-1.0444,0.1294,57.50,-42.44,159.33
157,109434787,0.5000,-1.0654,0.1118,54.88,-42.93,154.88
158,109439786,0.5156,-1.0815,0.1040,53.11,-43.41,151.71
159,109444787,0.5361,-1.1025,0.1118,50.73,-44.02,147.87
160,109449785,0.5552,-1.1182,0.1104,47.99,-44.51,143.78
161,109454910,0.5718,-1.1318,0.1133,44.45,-44.76,138.66
162,109459787,0.5845,-1.1479,0.1064,42.01,-45.00,135.37
163,109464787,0.5918,-1.1636,0.1021,38.84,-45.12,131.04
164,109469787,0.6079,-1.1738,0.0967,35.85,-45.18,126.77
165,109474936,0.6182,-1.1816,0.0898,32.20,-45.18,121.46
166,109479787,0.6328,-1.1836,0.0801,29.76,-45.30,117.87
167,109484787,0.6367,-1.1846,0.0776,26.52,-45.37,113.48
168,109489787,0.6406,-1.1860,0.0801,23.23,-45.37,108.96
169,109494787,0.6484,-1.1772,0.0752,20.00,-45.18,104.70
170,109499787,0.6729,-1.1807,0.0542,16.77,-45.37,100.37
171,109504787,0.8062,-1.2280,-0.0376,12.93,-45.24,95.85
172,109509787,0.7954,-1.1772,-0.0718,7.93,-44.94,90.73
173,109514785,0.7690,-1.1982,0.0098,3.05,-44.33,87.13
174,109519789,0.7749,-1.1699,-0.0146,-2.80,-43.84,82.26
175,109524787,0.8125,-1.1680,-0.0986,-6.10,-43.84,79.39
176,109529786,0.8589,-1.1665,-0.1152,-9.76,-44.09,76.10
177,109534787,0.8838,-1.1294,-0.0801,-13.05,-43.90,72.68
178,109539786,0.8896,-1.0923,-0.0898,-16.04,-43.54,69.63
179,109544787,0.8887,-1.0562,-0.1055,-18.72,-43.05,66.83
180,109549786,0.8975,-1.0376,-0.1099,-20.73,-42.56,64.33
181,109554785,0.8979,-1.0386,-0.1108,-22.50,-42.07,62.32
182,109559787,0.8774,-1.0278,-0.1108,-23.41,-41.52,60.55
183,109564867,0.8398,-1.0078,-0.0854,-23.54,-41.16,58.66
184,109569786,0.8037,-0.9980,-0.0596,-22.38,-40.43,56.77
185,109575202,0.7769,-0.9937,-0.0371,-19.21,-40.06,54.76
186,109579788,0.7603,-0.9766,-0.0244,-16.77,-39.70,53.41
187,109584786,0.7417,-0.9443,-0.0010,-13.23,-39.02,51.65
188,109589787,0.7148,-0.9131,0.0083,-9.82,-38.35,50.00
189,109594787,0.6758,-0.8809,0.0342,-6.28,-37.44,48.54
190,109599787,0.6450,-0.8442,0.0552,-3.05,-36.52,47.38
191,109604787,0.6240,-0.8247,0.0591,0.18,-35.61,46.34
192,109609787,0.5977,-0.8101,0.0664,2.99,-34.76,45.73
193,109614855,0.5869,-0.8037,0.0776,5.49,-33.96,45.37
194,109619787,0.5815,-0.8174,0.0845,7.74,-33.23,45.18
195,109624787,0.5767,-0.8413,0.0967,10.00,-32.32,45.30
196,109629787,0.5903,-0.8696,0.1118,12.07,-31.65,45.43
197,109634787,0.6084,-0.9053,0.1172,14.21,-31.22,45.85
198,109639787,0.6230,-0.9375,0.1021,16.28,-30.91,46.04
199,109644863,0.6079,-0.9644,0.1035,18.48,-30.61,46.22
200,109649787,0.5464,-1.0020,0.0737,20.43,-30.61,46.16
201,109654787,0.6323,-1.0205,0.0552,21.95,-30.73,46.28
202,109659787,0.7007,-1.0464,0.0605,22.93,-31.28,46.46
203,109664785,0.7461,-1.3037,0.1260,22.32,-30.73,48.41
204,109669788,0.7314,-1.0327,0.0215,18.66,-30.00,51.95
205,109675166,0.7046,-0.9883,-0.0317,12.68,-29.57,55.00
206,109679787,0.6841,-0.8784,-0.0542,8.60,-29.63,56.22
207,109684787,0.6694,-0.8579,-0.1284,2.87,-30.43,57.50
208,109689787,0.6484,-0.8862,-0.1899,-3.11,-31.34,58.17
209,109694787,0.6714,-0.9175,-0.2661,-10.18,-32.32,58.90
210,109699787,0.6621,-1.0107,-0.3730,-19.39,-34.02,60.55
211,109704787,0.6992,-0.9072,-0.5010,-29.02,-36.59,62.93
212,109709787,0.7622,-0.7114,-0.4746,-38.60,-39.39,63.66
213,109714787,0.8110,-0.5776,-0.3501,-48.05,-40.98,62.56
214,109719787,0.8101,-0.5830,-0.2988,-56.40,-41.52,60.43
215,109725183,0.7212,-0.6924,-0.3506,-63.23,-42.01,57.99
216,109729787,0.6055,-0.8037,-0.3120,-68.05,-42.87,56.28
217,109734787,0.5137,-0.8989,-0.2368,-70.55,-43.54,54.94
218,109739787,0.4712,-0.9395,-0.2583,-71.22,-44.63,54.09
219,109744787,0.4751,-0.9448,-0.2930,-70.06,-46.40,53.23
220,109749787,0.4956,-0.9409,-0.2495,-67.80,-47.93,52.07
221,109754785,0.5356,-0.9214,-0.2021,-64.15,-49.15,50.73
222,109759785,0.5684,-0.9131,-0.2100,-59.39,-50.24,48.90
223,109764787,0.5845,-0.9150,-0.2246,-53.48,-51.40,46.89
224,109769787,0.5776,-0.9253,-0.2017,-46.52,-52.20,44.88
225,109774785,0.5693,-0.9302,-0.2021,-38.54,-52.74,42.87
226,109779785,0.5625,-0.9238,-0.2422,-29.82,-53.41,40.79
227,109784787,0.5474,-0.9058,-0.2671,-20.24,-54.39,38.72
228,109789786,0.5283,-0.8999,-0.2573,-10.06,-54.88,36.28
229,109794787,0.5029,-0.9023,-0.2524,0.73,-55.06,33.96
230,109799786,0.4814,-0.9097,-0.2871,11.40,-54.76,31.65
231,109804787,0.4604,-0.9131,-0.3057,22.20,-54.02,29.63
232,109809787,0.4434,-0.9009,-0.3027,32.20,-53.11,27.80
233,109814786,0.4365,-0.9019,-0.3071,41.83,-51.77,25.98
234,109819787,0.4336,-0.9097,-0.3247,50.49,-49.88,24.45
235,109824787,0.4321,-0.9155,-0.3350,58.54,-47.74,23.05
236,109829786,0.4258,-0.9170,-0.3296,65.43,-45.24,21.89
237,109834785,0.4292,-0.9243,-0.3354,71.46,-42.80,21.16
238,109839787,0.4170,-0.9570,-0.3442,76.52,-40.18,20.30
239,109844786,0.4170,-0.9409,-0.3242,80.18,-37.80,19.88
240,109849787,0.4175,-0.9287,-0.2842,82.80,-35.00,19.33
241,109854785,0.4253,-0.9272,-0.3184,84.70,-32.26,18.66
242,109859785,0.3687,-0.9199,-0.3276,85.61,-29.82,17.80
243,109864787,0.3818,-0.9492,-0.2783,85.49,-27.32,16.89
244,109869787,0.4165,-0.9292,-0.2485,84.57,-24.57,16.28
245,109874787,0.4033,-0.9443,-0.2471,83.11,-21.59,15.37
246,109879787,0.4082,-0.9351,-0.2622,80.55,-18.78,14.88
247,109884787,0.4136,-0.9409,-0.2402,77.26,-16.22,14.21
248,109889787,0.4180,-0.9482,-0.2441,73.66,-13.72,13.54
249,109894913,0.4189,-0.9614,-0.2354,70.12,-11.40,12.87
250,109899787,0.4058,-0.9863,-0.2104,66.16,-9.02,12.07
251,109904787,0.3813,-0.9805,-0.1689,62.13,-6.83,11.46
252,109909788,0.4004,-0.9663,-0.1602,58.29,-4.51,10.85
253,109914787,0.4258,-0.9678,-0.1714,54.33,-2.50,10.06
254,109919787,0.4365,-0.9814,-0.1582,50.18,-0.55,9.51
255,109924785,0.4507,-0.9893,-0.1333,46.28,1.46,9.15
256,109929787,0.4409,-0.9893,-0.1235,42.68,3.17,8.54
257,109934787,0.4312,-0.9854,-0.1196,39.33,5.06,8.17
258,109939787,0.4263,-0.9937,-0.0981,36.22,6.77,7.99
259,109944785,0.4204,-0.9810,-0.0884,33.72,8.48,7.68
260,109949787,0.3950,-0.9814,-0.0977,31.28,10.06,7.62
261,109954787,0.3955,-0.9741,-0.0938,29.21,11.34,7.87
262,109959786,0.4053,-0.9536,-0.0835,27.68,12.68,7.99
263,109964785,0.3936,-0.9468,-0.0854,26.52,13.84,8.23
264,109969787,0.3940,-0.9409,-0.0703,25.61,14.94,8.54
265,109974801,0.4072,-0.9277,-0.0762,25.12,15.73,8.90
266,109979787,0.4106,-0.9131,-0.0620,24.88,16.46,8.96
267,109984785,0.4058,-0.9043,-0.0586,25.00,17.13,9.39
268,109989787,0.4062,-0.9009,-0.0605,25.55,17.50,9.70
269,109994787,0.3926,-0.8867,-0.0532,26.40,17.68,10.00
270,109999788,0.3848,-0.8857,-0.0327,27.44,17.74,10.30
271,110004787,0.3696,-0.8779,-0.0244,28.72,17.56,10.49
272,110009787,0.3638,-0.8643,-0.0029,30.30,17.32,10.43
273,110014787,0.3506,-0.8555,0.0112,31.89,17.01,10.12
274,110019787,0.3350,-0.8579,0.0229,33.29,16.77,9.70
275,110024785,0.3252,-0.8657,0.0264,34.33,16.28,9.21
276,110029787,0.3262,-0.8682,0.0435,34.88,16.10,8.60
277,110034787,0.3281,-0.8691,0.0444,35.00,15.91,7.93
278,110039789,0.3228,-0.8687,0.0464,34.45,15.43,7.44
279,110044800,0.3257,-0.8760,0.0454,33.11,15.30,6.83
280,110049787,0.3237,-0.8794,0.0498,31.16,15.12,6.40
281,110054787,0.3271,-0.8867,0.0459,28.78,14.76,5.85
282,110059787,0.3228,-0.8843,0.0430,26.22,14.45,5.55
283,110064785,0.3276,-0.8906,0.0449,24.09,14.21,5.24
284,110070117,0.3423,-0.8838,0.0400,21.16,13.35,4.88
285,110074787,0.3550,-0.8765,0.0518,18.48,12.68,4.39
286,110079786,0.3594,-0.8765,0.0596,16.34,12.07,4.15
287,110084785,0.3564,-0.8818,0.0630,13.41,11.22,3.48
288,110089787,0.3438,-0.8833,0.0635,10.24,10.43,2.74
289,110094787,0.3179,-0.8857,0.0522,6.83,9.57,2.13
290,110099788,0.2339,-0.8062,0.0757,3.84,8.90,0.43
291,110104787,0.2856,-0.8853,0.0083,0.91,8.23,-1.10
292,110109787,0.3389,-0.9238,-0.0459,-2.44,7.13,-1.83
293,110114787,0.3677,-0.9458,-0.0508,-5.79,5.79,-2.01
294,110119789,0.3823,-0.9634,-0.0356,-9.51,4.51,-2.01
295,110124786,0.3901,-0.9365,-0.0415,-13.29,3.78,-1.89
296,110129785,0.3823,-0.9243,-0.0684,-16.89,2.74,-1.95
297,110134787,0.3901,-0.9229,-0.0894,-19.94,1.83,-1.95
298,110139786,0.4033,-0.9341,-0.1094,-22.68,0.61,-1.52
299,110144787,0.4385,-0.9131,-0.2109,-25.24,-0.98,-1.04
300,110149787,0.4844,-0.9385,-0.1382,-29.45,-2.68,-0.49
301,110154787,0.4399,-0.9883,-0.0981,-33.11,-3.35,0.61
302,110159788,0.3887,-1.0400,-0.1611,-36.59,-4.57,2.07
303,110164785,0.3965,-1.0586,-0.1714,-39.82,-5.43,4.15
304,110169785,0.4229,-1.0322,-0.1460,-42.74,-5.79,6.40
305,110174787,0.4482,-0.9946,-0.1572,-45.37,-5.30,8.60
306,110179787,0.4155,-0.9907,-0.2026,-47.26,-4.51,10.49
307,110184787,0.3901,-0.9155,-0.2529,-48.29,-3.29,11.59
308,110189786,0.3945,-0.9004,-0.3135,-48.23,-1.52,11.77
309,110194793,0.4077,-0.8994,-0.3364,-47.32,0.61,11.46
310,110199787,0.4155,-0.9116,-0.3740,-45.61,3.35,10.67
311,110204785,0.4092,-0.9224,-0.4321,-42.87,6.77,9.21
312,110209787,0.4155,-0.9082,-0.4551,-40.61,8.84,7.93
313,110214786,0.4492,-0.9082,-0.5723,-38.05,11.59,6.59
314,110219787,0.4624,-1.0015,-0.4946,-36.95,14.45,5.67
315,110224786,0.3638,-1.0850,-0.4453,-35.91,17.20,5.67
316,110229787,0.3086,-1.1152,-0.5156,-35.12,19.51,6.40
317,110234785,0.3330,-1.0747,-0.5112,-34.45,21.65,6.59
318,110239787,0.3594,-1.0259,-0.4429,-33.78,25.06,6.28
319,110244786,0.3672,-0.9941,-0.4834,-32.99,29.02,5.24
320,110249787,0.4082,-0.9937,-0.5454,-32.13,32.74,3.35
321,110255044,0.4243,-1.0288,-0.5625,-30.91,36.22,1.59
322,110259787,0.4219,-1.0552,-0.5615,-29.33,39.82,-0.24
323,110264786,0.4238,-1.0718,-0.5991,-27.44,43.17,-1.95
324,110269787,0.4248,-1.0918,-0.6270,-25.06,46.10,-3.78
325,110274789,0.4375,-1.1240,-0.6069,-21.65,48.84,-5.79
326,110279786,0.4595,-1.1460,-0.6094,-17.26,51.89,-7.74
327,110284787,0.4722,-1.1724,-0.5571,-11.83,55.37,-9.76
328,110289786,0.5073,-1.1831,-0.5581,-5.91,59.45,-11.89
329,110294787,0.5386,-1.1807,-0.5742,0.30,63.29,-14.15
330,110299787,0.5547,-1.1704,-0.5742,7.01,66.65,-16.83
331,110304787,0.5806,-1.1587,-0.5605,13.96,69.45,-19.94
332,110309787,0.6255,-1.1587,-0.5400,20.55,71.89,-23.23
333,110314787,0.6699,-1.1606,-0.4937,26.59,74.15,-26.65
334,110319787,0.7031,-1.1772,-0.4326,30.98,76.34,-30.00
335,110324786,0.7275,-1.2095,-0.3906,33.41,78.72,-33.23
336,110329787,0.7314,-1.2026,-0.3862,34.33,80.73,-36.22
337,110334785,0.7192,-1.1782,-0.3843,33.78,83.11,-39.09
338,110339789,0.7192,-1.1665,-0.3613,32.07,84.33,-42.13
339,110344786,0.7388,-1.1665,-0.3535,29.33,85.67,-45.18
340,110349787,0.7358,-1.1631,-0.3218,25.43,85.67,-48.05
341,110354786,0.7368,-1.1714,-0.3008,21.16,85.67,-50.85
342,110359787,0.7427,-1.1792,-0.3018,16.95,85.55,-53.35
343,110364786,0.7476,-1.1831,-0.2979,13.29,85.43,-55.85
344,110369787,0.7744,-1.1904,-0.2881,10.06,84.57,-58.17
345,110374785,0.7920,-1.1909,-0.2671,7.26,82.32,-60.30
346,110379789,0.8145,-1.2051,-0.2446,4.70,80.43,-62.44
347,110384787,0.8267,-1.2251,-0.2275,2.50,78.78,-64.27
348,110389787,0.8154,-1.2280,-0.2183,0.73,77.13,-65.61
349,110394787,0.8105,-1.2466,-0.2085,-0.18,75.73,-67.13
350,110399787,0.7769,-1.2603,-0.2319,0.12,74.33,-68.78
351,110404787,0.7344,-1.2661,-0.2441,1.83,72.80,-70.73
352,110409788,0.7300,-1.2822,-0.2671,4.45,71.40,-72.93
353,110414787,0.6704,-1.3130,-0.2812,8.17,70.00,-75.30
354,110419787,0.6929,-1.3306,-0.2896,11.89,68.72,-77.87
355,110424785,0.6724,-1.3813,-0.2915,15.12,67.62,-80.37
356,110429787,0.6650,-1.4175,-0.2886,17.01,67.01,-83.05
357,110434786,0.6895,-1.4531,-0.2773,17.99,66.95,-85.85
358,110439786,0.6904,-1.4888,-0.2827,17.50,67.20,-88.84
359,110444869,0.7085,-1.5078,-0.2812,15.73,67.80,-91.89
360,110449786,0.6675,-1.5483,-0.2881,12.87,68.60,-95.24
361,110454787,0.6377,-1.5801,-0.2974,8.96,69.76,-98.90
362,110459787,0.6436,-1.5977,-0.3076,4.15,71.28,-102.87
363,110464787,0.6333,-1.6045,-0.3018,-0.91,73.23,-107.32
364,110469786,0.6089,-1.6143,-0.3018,-5.79,75.30,-112.01
365,110474785,0.5825,-1.6196,-0.3008,-10.30,77.44,-117.20
366,110479916,0.5728,-1.6270,-0.2974,-14.09,79.63,-122.44
367,110485263,0.5547,-1.6265,-0.2920,-16.83,82.20,-127.99
368,110489787,0.5312,-1.6245,-0.2954,-18.66,85.06,-133.66
369,110494786,0.5225,-1.6133,-0.2886,-19.88,85.98,-139.45
370,110499787,0.5127,-1.6021,-0.2769,-20.79,87.01,-145.18
371,110504785,0.4980,-1.5894,-0.2598,-21.46,89.76,-151.22
372,110509787,0.4878,-1.5674,-0.2461,-22.13,91.83,-157.13
373,110514786,0.4775,-1.5415,-0.2197,-23.11,93.72,-162.99
374,110519787,0.4712,-1.5166,-0.1943,-24.70,95.43,-168.78
375,110524787,0.4688,-1.4814,-0.1631,-26.89,97.07,-174.21
376,110529788,0.4634,-1.4341,-0.1411,-29.45,98.48,-179.45
377,110534786,0.4614,-1.3945,-0.1074,-32.20,99.70,-184.45
378,110539787,0.4614,-1.3428,-0.0757,-35.30,100.85,-188.72
379,110544786,0.4512,-1.2964,-0.0386,-38.96,101.65,-192.62
380,110549787,0.4424,-1.2441,-0.0122,-42.74,102.87,-196.10
381,110554786,0.4287,-1.1958,0.0303,-46.71,103.60,-199.09
382,110559787,0.4189,-1.1528,0.0615,-50.79,104.63,-201.59
383,110564786,0.4155,-1.1021,0.0908,-54.88,105.55,-203.66
384,110569787,0.4116,-1.0532,0.1250,-59.15,106.52,-205.24
385,110574785,0.4097,-1.0103,0.1548,-63.35,107.44,-206.40
386,110579785,0.3970,-0.9624,0.1841,-67.38,108.54,-207.13
387,110584789,0.3862,-0.9126,0.2124,-71.34,109.57,-207.44
388,110589786,0.3726,-0.8643,0.2461,-75.24,110.61,-207.44
389,110594787,0.3589,-0.8218,0.2749,-78.72,111.83,-207.07
390,110599787,0.3428,-0.7695,0.2988,-81.65,112.93,-206.40
391,110604787,0.3276,-0.7241,0.3198,-84.09,114.15,-205.49
392,110609787,0.3105,-0.6748,0.3403,-85.67,115.18,-204.27
393,110614787,0.2910,-0.6270,0.3740,-86.40,116.28,-202.87
394,110619787,0.2817,-0.5820,0.3916,-86.22,117.38,-201.16
395,110624785,0.2666,-0.5356,0.4121,-85.18,118.35,-199.27
396,110629787,0.2510,-0.4961,0.4370,-82.99,119.57,-197.13
397,110635220,0.2334,-0.4556,0.4507,-80.00,120.67,-194.88
398,110639787,0.2178,-0.4209,0.4668,-76.22,121.59,-192.44
399,110644785,0.2026,-0.3794,0.4922,-71.83,122.44,-190.12
400,110649787,0.1914,-0.3462,0.5005,-66.77,123.17,-187.68
401,110655331,0.1772,-0.3140,0.5117,-61.16,123.60,-185.18
402,110659787,0.1689,-0.2778,0.5249,-55.55,123.96,-182.74
403,110664787,0.1587,-0.2388,0.5288,-49.88,124.21,-180.37
404,110669787,0.1523,-0.2080,0.5366,-44.21,124.02,-177.93
405,110674785,0.1372,-0.1816,0.5508,-38.90,124.09,-175.49
406,110679785,0.1367,-0.1504,0.5679,-33.96,124.02,-172.93
407,110684911,0.1191,-0.1216,0.5874,-29.57,123.90,-170.55
408,110689787,0.1167,-0.0981,0.5967,-25.85,123.66,-167.80
409,110694787,0.1118,-0.0693,0.6123,-22.38,123.41,-165.18
410,110699786,0.1025,-0.0430,0.6328,-19.21,123.35,-162.56
411,110704977,0.0938,-0.0181,0.6387,-16.16,122.99,-159.82
412,110709787,0.0923,0.0166,0.6460,-13.23,122.50,-157.07
413,110714787,0.0986,0.0571,0.6504,-10.30,122.13,-154.51
414,110719787,0.1040,0.0874,0.6499,-8.11,121.28,-152.50
415,110724818,0.1079,0.1318,0.6475,-5.06,120.06,-149.57
416,110729788,0.1084,0.1655,0.6455,-2.99,118.90,-147.01
417,110734787,0.1108,0.1919,0.6421,-1.46,117.44,-145.00
418,110739786,0.1064,0.2139,0.6548,-0.12,115.67,-142.56
419,110744867,0.1011,0.2456,0.6870,0.12,113.66,-139.39
420,110749787,0.0938,0.2671,0.7246,-0.61,111.65,-136.65
421,110755054,0.0894,0.2939,0.7363,-1.71,110.12,-133.60
422,110759787,0.0776,0.3135,0.7690,-2.87,109.02,-131.16
423,110764786,0.0845,0.3369,0.7915,-3.66,107.56,-127.87
424,110769787,0.0903,0.3613,0.8086,-3.66,105.91,-124.39
425,110774786,0.1055,0.3789,0.8271,-2.50,104.21,-120.67
426,110779787,0.1157,0.4165,0.8403,-0.49,102.32,-116.89
427,110784785,0.1333,0.4336,0.8447,2.74,100.12,-113.11
428,110789961,0.1323,0.4541,0.8564,7.62,97.07,-108.23
429,110794787,0.1401,0.4717,0.8604,11.10,94.82,-104.94
430,110799787,0.1353,0.4912,0.8652,15.30,92.07,-100.73
431,110804787,0.1460,0.5078,0.8735,19.39,89.21,-96.34
432,110809788,0.1499,0.5225,0.8799,22.93,85.24,-91.65
433,110814787,0.1523,0.5376,0.9043,25.30,84.63,-86.71
434,110819787,0.1426,0.5522,0.9116,26.71,81.28,-81.52
435,110824788,0.1440,0.5654,0.9424,26.71,78.84,-76.16
436,110829787,0.1421,0.5786,0.9624,25.73,76.71,-70.61
437,110834787,0.1270,0.5962,0.9844,23.90,74.63,-64.82
438,110839787,0.1201,0.6094,0.9995,21.52,72.74,-58.66
439,110844864,0.1191,0.6157,1.0132,18.41,70.61,-51.04
440,110849787,0.1167,0.6284,1.0195,16.71,69.21,-45.73
441,110854787,0.1094,0.6484,1.0288,15.37,67.32,-38.90
442,110859787,0.1147,0.6528,1.0288,15.06,65.12,-32.01
443,110864787,0.0962,0.6489,1.0322,15.91,62.87,-25.06
444,110869787,0.1011,0.6592,1.0142,17.68,60.55,-17.74
445,110874787,0.0723,0.6777,1.0137,20.12,57.74,-10.49
446,110879787,0.0703,0.6914,1.0107,22.74,55.06,-3.48
447,110884787,0.0562,0.6953,0.9927,25.18,52.32,3.84
448,110889787,0.0449,0.7061,0.9951,27.20,49.21,11.16
449,110894786,0.0308,0.7056,0.9956,28.72,46.22,18.48
450,110899787,0.0283,0.7041,0.9917,29.70,43.35,26.22
451,110904785,0.0210,0.7124,0.9893,30.37,40.30,34.02
452,110909787,-0.0059,0.7090,0.9839,30.18,37.38,42.32
453,110914787,-0.0166,0.6997,0.9883,29.45,34.33,50.49
454,110919787,-0.0298,0.6963,0.9663,28.41,31.71,59.15
455,110924785,-0.0591,0.6982,0.9531,27.62,28.96,67.56
456,110929787,-0.0874,0.6987,0.9365,27.01,26.40,76.04
457,110934786,-0.1123,0.6958,0.9243,26.83,23.96,84.88
458,110939788,-0.1392,0.6777,0.9072,26.95,21.59,92.32
459,110944785,-0.1655,0.6680,0.8872,27.62,19.39,100.49
460,110949931,-0.1875,0.6592,0.8540,29.02,17.07,108.23
461,110954787,-0.2046,0.6421,0.8389,31.16,15.18,115.85
462,110959786,-0.2183,0.6279,0.8149,33.96,13.48,123.35
463,110964788,-0.2285,0.6030,0.7944,37.38,11.77,130.85
464,110969787,-0.2305,0.5776,0.7852,41.46,10.37,138.35
465,110974787,-0.2500,0.5571,0.7749,45.73,9.76,145.61
466,110979787,-0.2520,0.5347,0.7563,50.55,9.09,152.99
467,110984785,-0.2554,0.5078,0.7427,55.85,8.90,160.30
468,110989785,-0.2534,0.4888,0.7261,61.46,8.78,167.74
469,110994788,-0.2588,0.4614,0.7114,67.26,8.84,175.00
470,110999787,-0.2603,0.4375,0.6953,72.38,9.15,182.44
471,111004787,-0.2578,0.4146,0.6987,76.83,9.63,190.00
472,111009787,-0.2539,0.3823,0.7007,80.06,10.49,197.62
473,111014959,-0.2339,0.3428,0.6909,82.01,11.52,205.43
474,111019787,-0.2178,0.3105,0.7056,82.87,12.93,213.35
475,111024786,-0.1938,0.2681,0.7222,82.87,14.39,221.46
476,111029787,-0.1655,0.1997,0.7363,81.95,15.85,229.76
477,111034785,-0.1431,0.1353,0.7520,80.30,17.50,238.11
478,111039786,-0.1235,0.0649,0.7622,78.35,19.09,246.40
479,111044787,-0.1128,-0.0073,0.7656,76.40,20.37,254.57
480,111049786,-0.0967,-0.0845,0.7856,74.51,21.71,262.44
481,111054787,-0.0713,-0.1816,0.7983,73.23,22.50,270.24
482,111059785,-0.0435,-0.2764,0.8149,72.56,23.41,278.11
483,111064891,-0.0229,-0.3550,0.8164,72.01,23.90,285.55
484,111069787,-0.0181,-0.4419,0.8369,71.22,24.33,292.32
485,111074787,-0.0122,-0.5469,0.8462,69.94,24.51,298.60
486,111079787,0.0098,-0.6719,0.8672,67.44,24.63,304.51
487,111084786,0.0337,-0.7930,0.8877,63.11,25.00,309.70
488,111089785,0.0386,-0.9097,0.9038,56.52,25.00,313.90
489,111094785,0.0239,-1.0366,0.9341,47.13,24.88,316.77
490,111099787,0.0151,-1.1719,0.9634,36.22,24.70,318.11
491,111104786,0.0103,-1.2998,0.9766,24.88,24.21,318.23
492,111109787,0.0039,-1.4375,0.9736,14.57,23.23,316.65
493,111114785,0.0015,-1.5737,0.9897,6.71,21.95,313.72
494,111119787,-0.0039,-1.7070,0.9883,1.52,20.55,309.39
495,111124787,0.0005,-1.8291,0.9805,-0.49,18.78,303.60
496,111129786,0.0088,-1.9482,0.9717,0.55,17.13,296.34
497,111134787,0.0205,-2.0508,0.9663,3.78,15.00,287.87
498,111139786,0.0361,-2.1475,0.9570,8.41,13.11,277.93
499,111144788,0.0664,-2.2305,0.9517,13.29,10.91,266.89
500,111149785,0.0986,-2.2969,0.9580,17.62,8.96,255.12
501,111154787,0.1646,-2.3467,0.9678,20.30,7.01,242.38
502,111159786,0.2227,-2.3916,0.9697,20.79,4.39,229.15
503,111164787,0.2974,-2.4155,0.9849,18.48,2.38,215.55
504,111169786,0.3789,-2.4224,0.9888,13.90,0.06,201.89
505,111174787,0.4590,-2.4106,0.9819,7.20,-2.68,188.29
506,111179786,0.5352,-2.3843,0.9902,-0.61,-5.24,175.00
507,111184786,0.6011,-2.3462,0.9854,-8.84,-8.29,162.20
508,111189785,0.6694,-2.3042,0.9829,-16.95,-11.34,149.88
509,111194785,0.7246,-2.2549,0.9800,-24.21,-14.33,138.29
510,111199792,0.7715,-2.2026,0.9741,-30.43,-17.07,127.38
511,111204787,0.8013,-2.1421,0.9629,-35.37,-19.51,117.13
512,111209787,0.8296,-2.0879,0.9600,-38.96,-21.77,107.68
513,111214786,0.8511,-2.0229,0.9517,-41.28,-23.54,98.84
514,111219787,0.8745,-1.9565,0.9399,-42.50,-24.94,90.61
515,111224787,0.8945,-1.8901,0.9316,-42.68,-26.10,83.84
516,111229787,0.9175,-1.8247,0.9160,-42.01,-26.95,77.26
517,111234786,0.9365,-1.7573,0.9038,-40.61,-27.38,71.16
518,111239788,0.9448,-1.6958,0.8857,-38.48,-27.74,65.85
519,111244787,0.9585,-1.6338,0.8608,-35.91,-27.93,60.98
520,111249787,0.9663,-1.5703,0.8418,-32.87,-27.99,56.77
521,111254785,0.9624,-1.5093,0.8281,-29.09,-27.87,52.99
522,111259789,0.9590,-1.4570,0.8125,-25.18,-27.62,49.57
523,111264787,0.9526,-1.4082,0.7983,-21.22,-27.38,46.65
524,111269787,0.9414,-1.3545,0.7822,-17.26,-27.20,43.96
525,111274785,0.9238,-1.3101,0.7603,-13.54,-27.01,41.71
526,111279787,0.9062,-1.2671,0.7510,-9.88,-26.89,39.51
527,111284787,0.8809,-1.2305,0.7300,-6.83,-26.65,37.50
528,111289786,0.8560,-1.1938,0.7212,-4.27,-26.59,35.67
529,111294787,0.8291,-1.1577,0.7036,-2.13,-26.34,34.02
530,111299786,0.8022,-1.1289,0.6997,-0.85,-26.22,32.50
531,111304787,0.7827,-1.1030,0.6875,0.00,-26.22,31.04
532,111309786,0.7573,-1.0762,0.6670,0.24,-25.98,29.76
533,111314785,0.7373,-1.0527,0.6558,0.30,-26.16,28.29
534,111319787,0.7168,-1.0303,0.6509,0.24,-26.34,27.01
535,111324787,0.6924,-1.0142,0.6333,-0.18,-26.59,25.55
536,111329787,0.6699,-1.0000,0.6230,-0.98,-26.77,24.02
537,111334786,0.6519,-0.9810,0.6162,-2.01,-27.07,22.68
538,111339787,0.6362,-0.9639,0.6118,-3.05,-27.20,21.16
539,111344787,0.6177,-0.9541,0.6025,-4.21,-27.38,19.76
540,111349787,0.5981,-0.9453,0.5977,-5.37,-27.68,18.29
541,111354785,0.5806,-0.9355,0.5908,-6.59,-27.80,16.83
542,111359786,0.5630,-0.9297,0.5947,-7.62,-28.05,15.55
543,111364787,0.5464,-0.9209,0.5874,-8.66,-28.11,14.15
544,111369786,0.5269,-0.9194,0.5918,-9.63,-28.23,12.99
545,111374787,0.5190,-0.9146,0.5879,-10.67,-27.99,11.77
546,111379786,0.5020,-0.9097,0.5908,-11.59,-27.99,10.67
547,111384785,0.4932,-0.9072,0.6025,-12.50,-27.87,9.76
548,111389789,0.4897,-0.9038,0.6089,-13.23,-27.68,8.78
549,111394786,0.4844,-0.9067,0.6016,-13.54,-27.56,8.05
550,111399785,0.4819,-0.9092,0.6084,-13.78,-27.26,7.13
551,111404787,0.4741,-0.9058,0.6050,-13.60,-27.07,6.16
552,111409786,0.4683,-0.9092,0.6040,-13.41,-26.71,5.55
553,111414787,0.4634,-0.9087,0.5986,-12.80,-26.40,4.76
554,111419785,0.4546,-0.9111,0.6011,-12.01,-26.04,3.96
555,111424787,0.4463,-0.9126,0.6069,-11.04,-25.73,3.05
556,111429797,0.4399,-0.9150,0.6035,-10.06,-25.24,2.26
557,111434881,0.4346,-0.9204,0.6040,-9.33,-24.63,1.22
558,111439788,0.4297,-0.9263,0.6084,-8.78,-23.96,0.61
559,111444786,0.4272,-0.9287,0.6104,-8.60,-23.35,-0.06
560,111449787,0.4224,-0.9355,0.6182,-8.41,-22.62,-0.85
561,111454786,0.4272,-0.9370,0.6270,-8.48,-21.89,-1.52
562,111459785,0.4238,-0.9385,0.6338,-8.54,-21.04,-2.20
563,111464787,0.4321,-0.9497,0.6367,-8.29,-20.30,-2.99
564,111469787,0.4434,-0.9541,0.6323,-7.87,-19.51,-3.72
565,111474980,0.4473,-0.9639,0.6377,-6.95,-18.78,-4.63
566,111479787,0.4531,-0.9683,0.6421,-6.34,-18.41,-5.12
567,111484796,0.4624,-0.9805,0.6450,-5.12,-17.93,-5.91
568,111489786,0.4648,-0.9863,0.6436,-4.09,-17.62,-6.71
569,111494787,0.4727,-0.9971,0.6436,-2.80,-17.44,-7.56
570,111499785,0.4819,-1.0127,0.6572,-1.59,-17.20,-8.41
571,111504787,0.4854,-1.0254,0.6587,-0.55,-16.89,-9.27
572,111509786,0.4932,-1.0386,0.6631,0.37,-16.77,-10.18
573,111514787,0.5024,-1.0537,0.6689,1.22,-16.52,-11.28
574,111519786,0.5078,-1.0649,0.6816,1.89,-16.34,-12.44
575,111524787,0.5093,-1.0737,0.6841,2.56,-16.28,-13.66
576,111529786,0.5215,-1.0776,0.6836,3.17,-15.91,-15.06
577,111534787,0.5132,-1.0938,0.6792,3.60,-15.85,-16.34
578,111539786,0.5259,-1.1118,0.7051,3.90,-15.79,-17.62
579,111544787,0.5322,-1.1265,0.6953,4.09,-15.67,-19.33
580,111549786,0.5342,-1.1323,0.7017,4.02,-15.91,-20.73
581,111554788,0.5410,-1.1440,0.7158,3.78,-15.98,-22.32
582,111559785,0.5449,-1.1577,0.7197,3.35,-16.22,-24.09
583,111564787,0.5454,-1.1699,0.7192,2.93,-16.46,-25.85
584,111569786,0.5474,-1.1797,0.7246,2.68,-16.83,-27.62
585,111574787,0.5537,-1.1855,0.7261,2.93,-17.26,-29.76
586,111579786,0.5503,-1.1904,0.7271,3.48,-17.99,-31.89
587,111584787,0.5449,-1.2002,0.7178,4.45,-18.78,-34.09
588,111589786,0.5474,-1.2031,0.7188,5.67,-19.57,-36.34
589,111594787,0.5391,-1.2070,0.7144,7.20,-20.61,-38.72
590,111599785,0.5396,-1.2114,0.7124,8.54,-21.59,-41.28
591,111604785,0.5342,-1.2075,0.7065,9.76,-22.80,-43.66
592,111609789,0.5342,-1.2061,0.7031,10.67,-24.02,-46.28
593,111614787,0.5376,-1.2095,0.6978,11.28,-25.30,-48.78
594,111619787,0.5415,-1.2080,0.7075,11.34,-26.22,-51.16
595,111624786,0.5459,-1.2134,0.7085,10.85,-27.44,-53.72
596,111629787,0.5620,-1.2119,0.7046,9.88,-28.48,-55.98
597,111634787,0.5620,-1.2075,0.7056,8.72,-29.51,-58.29
598,111639787,0.5537,-1.2129,0.7065,7.26,-30.49,-60.67
599,111644786,0.5483,-1.2031,0.7051,5.61,-31.46,-63.23
600,111649788,0.5439,-1.2026,0.7041,4.15,-32.38,-65.85
601,111654787,0.5264,-1.1909,0.7002,2.87,-33.41,-68.60
602,111659787,0.5195,-1.1748,0.6875,1.83,-34.45,-71.40
603,111664785,0.5107,-1.1631,0.6816,0.85,-35.49,-74.45
604,111669787,0.5010,-1.1494,0.6841,0.18,-36.46,-77.62
605,111674787,0.5015,-1.1431,0.6792,-0.43,-37.44,-80.73
606,111679787,0.4941,-1.1230,0.6694,-0.91,-38.23,-84.02
607,111685133,0.4888,-1.1084,0.6587,-1.46,-39.02,-87.07
608,111689787,0.4849,-1.0894,0.6499,-1.95,-40.00,-90.12
609,111694787,0.4819,-1.0654,0.6470,-2.50,-40.79,-92.99
610,111699787,0.4878,-1.0396,0.6299,-2.93,-41.65,-95.85
611,111704786,0.4849,-1.0107,0.6260,-3.60,-42.38,-98.54
612,111709787,0.4849,-0.9844,0.6162,-4.15,-42.99,-101.34
613,111714787,0.4956,-0.9624,0.6094,-4.94,-43.84,-103.90
614,111719786,0.4976,-0.9331,0.6108,-5.85,-44.39,-106.04
615,111724787,0.5044,-0.9048,0.6035,-7.01,-44.94,-108.17
616,111729786,0.5112,-0.8721,0.5913,-8.41,-45.37,-110.37
617,111734787,0.5142,-0.8384,0.5830,-9.57,-46.04,-112.32
618,111739786,0.5288,-0.8096,0.5713,-10.91,-46.46,-114.09
619,111744787,0.5303,-0.7729,0.5581,-12.20,-47.20,-115.91
620,111749786,0.5342,-0.7456,0.5459,-13.54,-47.68,-117.62
621,111754785,0.5400,-0.7153,0.5371,-15.12,-48.29,-119.09
622,111759786,0.5352,-0.6855,0.5283,-16.83,-48.78,-120.67
623,111764920,0.5293,-0.6514,0.5142,-18.66,-49.57,-122.13
624,111769785,0.5181,-0.6235,0.5000,-20.98,-49.88,-123.60
625,111774787,0.5112,-0.5938,0.4839,-23.23,-50.55,-125.06
626,111779789,0.5117,-0.5688,0.4702,-26.04,-51.22,-126.40
627,111784786,0.5098,-0.5459,0.4609,-29.02,-51.59,-127.68
628,111789787,0.5088,-0.5210,0.4644,-32.38,-51.95,-128.72
629,111794787,0.5093,-0.4937,0.4551,-36.22,-52.13,-129.76
630,111799787,0.5098,-0.4683,0.4517,-40.24,-52.26,-130.61
631,111804787,0.4946,-0.4419,0.4399,-44.39,-52.20,-131.52
632,111809788,0.4897,-0.4160,0.4414,-48.48,-52.20,-132.32
633,111814785,0.4966,-0.3926,0.4346,-52.38,-52.01,-133.05
634,111819785,0.5024,-0.3770,0.4351,-55.79,-51.65,-133.54
635,111824850,0.5186,-0.3589,0.4307,-58.84,-51.16,-133.72
636,111829786,0.5308,-0.3452,0.4355,-61.40,-50.55,-133.90
637,111834787,0.5439,-0.3359,0.4399,-63.60,-49.63,-133.41
638,111839787,0.5542,-0.3135,0.4395,-65.24,-48.90,-133.11
639,111844789,0.5522,-0.2939,0.4424,-66.22,-47.74,-132.56
640,111849786,0.5542,-0.2783,0.4399,-66.65,-46.71,-131.89
641,111854837,0.5508,-0.2593,0.4360,-66.59,-45.61,-131.10
642,111859787,0.5503,-0.2422,0.4297,-66.04,-44.76,-130.30
643,111864786,0.5454,-0.2285,0.4331,-64.82,-43.84,-129.51
644,111869786,0.5439,-0.2168,0.4253,-63.54,-42.93,-128.54
645,111874787,0.5430,-0.1992,0.4243,-61.77,-42.13,-127.62
646,111879786,0.5391,-0.1851,0.4219,-59.82,-41.52,-126.65
647,111884786,0.5430,-0.1729,0.4272,-57.80,-40.55,-125.55
648,111889787,0.5503,-0.1611,0.4277,-55.49,-39.76,-124.39
649,111894787,0.5601,-0.1533,0.4268,-53.41,-39.09,-123.23
650,111899787,0.5732,-0.1416,0.4214,-51.16,-38.54,-121.77
651,111905090,0.5840,-0.1318,0.4233,-49.02,-37.74,-120.18
652,111909787,0.5972,-0.1226,0.4209,-46.89,-36.95,-118.66
653,111914789,0.6133,-0.1104,0.4219,-44.88,-36.28,-116.95
654,111919786,0.6235,-0.1025,0.4180,-43.23,-35.79,-115.12
655,111924785,0.6260,-0.0869,0.4146,-41.71,-35.00,-113.35
656,111929787,0.6265,-0.0713,0.4087,-40.30,-34.27,-111.40
657,111934787,0.6377,-0.0684,0.4082,-39.09,-33.72,-109.63
658,111939787,0.6499,-0.0669,0.4097,-38.23,-32.99,-107.62
659,111944786,0.6675,-0.0601,0.4126,-37.74,-32.26,-105.49
660,111949788,0.6758,-0.0508,0.4097,-37.74,-31.65,-103.35
661,111954787,0.6753,-0.0400,0.4062,-37.99,-30.79,-101.16
662,111959787,0.6729,-0.0303,0.3989,-38.60,-30.18,-99.15
663,111964786,0.6714,-0.0186,0.4092,-39.51,-29.45,-97.07
664,111969787,0.6782,-0.0137,0.3936,-40.49,-28.72,-95.24
665,111974787,0.6812,-0.0049,0.3862,-41.83,-28.11,-93.11
666,111979787,0.6841,0.0049,0.3838,-43.11,-27.50,-91.22
667,111984800,0.6899,0.0171,0.3745,-44.33,-26.89,-89.39
668,111989787,0.7021,0.0254,0.3745,-45.55,-26.16,-87.62
669,111994787,0.7046,0.0225,0.3745,-46.59,-25.43,-85.73
670,111999787,0.7271,0.0283,0.3652,-47.80,-24.88,-83.84
671,112004786,0.7412,0.0278,0.3628,-48.78,-24.21,-81.89
672,112009788,0.7642,0.0151,0.3589,-49.70,-23.17,-79.63
673,112014787,0.7817,0.0098,0.3594,-50.61,-22.44,-77.32
674,112019786,0.8027,0.0103,0.3608,-51.40,-21.71,-74.88
675,112025324,0.8149,0.0112,0.3667,-52.32,-20.67,-72.68
676,112029787,0.8223,0.0098,0.3706,-53.54,-19.57,-70.37
677,112034787,0.8257,0.0049,0.3569,-54.70,-18.54,-68.29
678,112039787,0.8320,0.0063,0.3521,-55.91,-17.62,-66.28
679,112044786,0.8315,0.0093,0.3564,-57.07,-16.52,-64.33
680,112049787,0.8276,0.0024,0.3462,-57.68,-15.85,-62.68
681,112054787,0.8267,0.0083,0.3447,-58.05,-14.82,-60.91
682,112059788,0.8247,0.0093,0.3389,-57.93,-13.96,-59.21
683,112064786,0.8252,0.0093,0.3340,-57.07,-13.05,-57.50
684,112069787,0.8228,0.0088,0.3267,-55.73,-12.56,-55.85
685,112074786,0.8257,0.0117,0.3228,-54.09,-11.95,-54.21
686,112079789,0.8276,0.0063,0.3267,-52.13,-11.34,-52.74
687,112085023,0.8242,0.0083,0.3203,-49.88,-10.79,-50.91
688,112089787,0.8276,0.0054,0.3213,-48.41,-10.12,-49.76
689,112094787,0.8286,0.0015,0.3145,-46.65,-9.63,-48.35
690,112099787,0.8267,0.0044,0.3047,-45.06,-9.02,-47.07
691,112104786,0.8301,0.0054,0.3057,-43.78,-8.48,-45.85
692,112109787,0.8247,0.0103,0.3027,-42.93,-7.80,-44.57
693,112114787,0.8237,0.0098,0.3066,-42.01,-7.01,-43.54
694,112119789,0.8267,0.0068,0.3047,-41.46,-6.40,-42.44
695,112124804,0.8345,0.0073,0.3032,-41.04,-5.79,-41.22
696,112129785,0.8481,0.0039,0.3047,-40.55,-4.82,-39.76
697,112134788,0.8569,0.0000,0.3047,-40.61,-4.39,-38.72
698,112139787,0.8574,-0.0015,0.3042,-40.67,-3.72,-37.50
699,112144787,0.8604,0.0063,0.3027,-40.91,-3.05,-36.22
700,112149787,0.8530,0.0093,0.3037,-41.28,-2.26,-35.30
701,112154787,0.8521,0.0215,0.3022,-41.59,-1.71,-34.33
702,112159787,0.8511,0.0234,0.3032,-41.95,-1.04,-33.41
703,112164787,0.8560,0.0249,0.2949,-41.77,-0.49,-32.50
704,112169788,0.8555,0.0332,0.2905,-41.40,0.06,-31.65
705,112174785,0.8594,0.0337,0.2915,-40.85,0.18,-30.79
706,112179787,0.8589,0.0430,0.2925,-40.06,0.67,-29.94
707,112184786,0.8682,0.0469,0.2900,-39.09,0.91,-29.09
708,112189787,0.8701,0.0469,0.2905,-38.11,1.28,-28.29
709,112194789,0.8784,0.0469,0.2856,-37.01,1.46,-27.38
710,112199787,0.8872,0.0537,0.2822,-35.85,1.65,-26.46
711,112204785,0.8965,0.0552,0.2876,-34.88,1.95,-25.55
712,112209787,0.9121,0.0498,0.2871,-33.90,2.20,-24.51
713,112214786,0.9243,0.0425,0.2920,-33.23,2.50,-23.48
714,112219786,0.9346,0.0513,0.3003,-32.62,2.50,-22.26
715,112224787,0.9326,0.0557,0.3052,-32.13,2.74,-21.28
716,112229786,0.9326,0.0659,0.3096,-31.71,2.93,-20.37
717,112234787,0.9385,0.0723,0.3076,-31.28,3.05,-19.63
718,112239787,0.9360,0.0718,0.3052,-30.91,3.11,-18.90
719,112244787,0.9355,0.0732,0.3086,-30.49,3.17,-18.05
720,112249788,0.9370,0.0835,0.3105,-30.06,3.23,-17.38
721,112254787,0.9370,0.0854,0.3174,-29.70,2.93,-16.77
722,112259787,0.9414,0.0854,0.3120,-29.57,2.87,-16.10
723,112264788,0.9473,0.0830,0.3096,-29.57,2.80,-15.37
724,112269785,0.9551,0.0908,0.3110,-29.63,2.80,-14.70
725,112274785,0.9609,0.0918,0.3105,-29.88,2.74,-13.84
726,112279787,0.9590,0.0913,0.3140,-30.37,2.80,-13.23
727,112285317,0.9668,0.0908,0.3110,-30.85,2.80,-12.32
728,112289787,0.9707,0.0898,0.3149,-31.28,2.80,-11.77
729,112294787,0.9775,0.0884,0.3247,-32.01,2.74,-11.04
730,112299785,0.9805,0.0923,0.3242,-32.32,2.87,-10.18
731,112304787,0.9824,0.0977,0.3267,-32.68,2.80,-9.57
732,112309786,0.9780,0.0986,0.3301,-32.68,2.68,-9.09
733,112314787,0.9834,0.0986,0.3354,-32.87,2.50,-8.41
734,112319785,0.9814,0.0947,0.3325,-32.50,2.50,-7.93
735,112324787,0.9834,0.0972,0.3442,-32.01,2.50,-7.38
736,112329787,0.9873,0.0967,0.3452,-31.46,2.13,-6.71
737,112334787,0.9897,0.0933,0.3530,-30.61,2.20,-6.04
738,112339787,0.9976,0.0938,0.3530,-29.33,2.13,-5.37
739,112344787,1.0063,0.0908,0.3457,-28.05,2.01,-4.57
740,112349785,1.0044,0.0894,0.3506,-26.71,1.89,-3.90
741,112354787,1.0088,0.0889,0.3525,-25.24,2.01,-3.17
742,112359787,1.0103,0.0869,0.3545,-23.90,2.01,-2.32
743,112364785,1.0161,0.0757,0.3530,-22.68,1.95,-1.40
744,112369785,1.0239,0.0723,0.3555,-21.40,2.01,-0.55
745,112374788,1.0239,0.0684,0.3496,-20.06,2.01,0.30
746,112379787,1.0190,0.0645,0.3506,-18.78,1.89,1.16
747,112384787,1.0151,0.0605,0.3418,-17.44,2.01,1.89
748,112389787,1.0068,0.0620,0.3442,-15.98,2.07,2.62
749,112394787,0.9966,0.0586,0.3462,-14.51,1.89,3.29
750,112399788,0.9907,0.0513,0.3477,-12.87,1.77,4.02
751,112404786,0.9844,0.0464,0.3389,-11.10,1.65,4.76
752,112409786,0.9844,0.0425,0.3374,-9.21,1.28,5.37
753,112414787,0.9780,0.0381,0.3345,-7.26,1.04,6.10
754,112419786,0.9707,0.0405,0.3242,-5.67,0.91,6.89
755,112424786,0.9644,0.0371,0.3203,-3.96,0.61,7.56
756,112429785,0.9585,0.0347,0.3203,-2.38,0.12,8.05
757,112434787,0.9497,0.0254,0.3130,-1.10,-0.12,8.60
758,112439786,0.9419,0.0254,0.3081,-0.06,-0.55,9.09
759,112444787,0.9355,0.0186,0.3052,0.61,-0.85,9.70
760,112449785,0.9282,0.0166,0.3032,0.91,-1.52,10.18
761,112454787,0.9292,0.0107,0.3013,0.98,-1.89,10.67
762,112460112,0.9243,0.0068,0.3022,0.85,-2.20,11.04
763,112464787,0.9224,-0.0005,0.2998,0.43,-2.87,11.65
764,112469787,0.9224,-0.0093,0.3037,0.12,-3.29,12.01
765,112474788,0.9243,-0.0166,0.2954,-0.43,-3.78,12.62
766,112479786,0.9233,-0.0239,0.2993,-0.91,-4.09,13.23
767,112484785,0.9302,-0.0312,0.3027,-1.28,-4.39,13.84
768,112489787,0.9282,-0.0332,0.3013,-1.40,-4.76,14.57
769,112494787,0.9351,-0.0454,0.3057,-1.46,-5.18,15.18
770,112499787,0.9390,-0.0552,0.3018,-1.46,-5.24,15.79
771,112504787,0.9453,-0.0586,0.3022,-1.40,-5.43,16.46
772,112509787,0.9429,-0.0620,0.3042,-1.22,-5.67,16.95
773,112514788,0.9414,-0.0679,0.3018,-1.22,-5.73,17.44
774,112519787,0.9443,-0.0737,0.3076,-1.22,-5.67,18.17
775,112524787,0.9487,-0.0825,0.2983,-1.22,-5.98,18.54
776,112529787,0.9546,-0.0869,0.2969,-1.28,-5.98,19.02
777,112534787,0.9536,-0.0898,0.3027,-1.52,-5.73,19.51
778,112539787,0.9561,-0.0933,0.3027,-1.83,-5.67,20.06
779,112544787,0.9619,-0.1035,0.2959,-2.01,-5.49,20.37
780,112549788,0.9678,-0.1104,0.3013,-2.38,-5.24,20.91
781,112554787,0.9702,-0.1167,0.2988,-2.56,-5.06,21.34
782,112559787,0.9722,-0.1167,0.2993,-2.62,-4.57,21.83
783,112564785,0.9810,-0.1230,0.2954,-2.56,-4.33,22.32
784,112569787,0.9800,-0.1284,0.2944,-2.13,-3.90,22.80
785,112574787,0.9883,-0.1318,0.2969,-1.71,-3.60,23.23
786,112579787,0.9902,-0.1377,0.2915,-0.85,-3.23,23.78
787,112584787,0.9912,-0.1465,0.2866,0.12,-2.74,24.15
788,112589785,0.9937,-0.1479,0.2822,1.22,-2.50,24.51
789,112594787,0.9868,-0.1489,0.2744,2.68,-2.20,25.06
790,112599787,0.9883,-0.1548,0.2788,4.21,-1.95,25.37
791,112604787,0.9883,-0.1587,0.2690,5.73,-1.65,25.67
792,112609787,0.9873,-0.1621,0.2651,7.32,-1.28,25.91
793,112614785,0.9873,-0.1655,0.2651,8.29,-1.16,26.10
794,112619788,0.9854,-0.1670,0.2603,9.82,-0.67,26.28
795,112624785,0.9854,-0.1753,0.2603,10.61,-0.49,26.22
796,112630496,0.9873,-0.1777,0.2490,11.65,-0.18,26.28
797,112634787,0.9824,-0.1821,0.2529,12.01,0.00,26.16
798,112639842,0.9805,-0.1880,0.2549,12.32,0.43,26.10
799,112644787,0.9800,-0.1890,0.2515,12.32,0.61,25.91
800,112649786,0.9790,-0.1968,0.2471,12.26,1.10,25.79
801,112654787,0.9795,-0.1978,0.2471,11.89,1.46,25.49
802,112659789,0.9790,-0.2065,0.2471,11.34,1.89,25.30
803,112664786,0.9780,-0.2070,0.2441,10.98,2.01,24.94
804,112669785,0.9766,-0.2095,0.2441,10.55,2.38,24.39
805,112674785,0.9653,-0.2085,0.2422,10.06,2.74,24.09
806,112680177,0.9653,-0.2100,0.2412,9.82,3.05,23.35
807,112684787,0.9644,-0.2124,0.2349,9.70,2.99,22.93
808,112689786,0.9668,-0.2139,0.2368,9.45,3.23,22.26
809,112694822,0.9663,-0.2100,0.2358,9.33,3.72,21.52
810,112699787,0.9722,-0.2158,0.2349,9.27,3.72,20.85
811,112704786,0.9775,-0.2134,0.2334,9.15,3.72,20.06
812,112709873,0.9878,-0.2153,0.2363,9.02,3.90,19.27
813,112714788,0.9941,-0.2158,0.2368,8.96,3.96,18.48
814,112719811,1.0059,-0.2163,0.2432,8.60,4.09,17.68
815,112724785,1.0107,-0.2163,0.2412,7.99,4.09,16.77
816,112729785,1.0137,-0.2158,0.2446,7.32,4.09,16.04
817,112734789,1.0098,-0.2158,0.2427,6.46,4.15,15.00
818,112739787,1.0146,-0.2114,0.2383,5.67,4.21,14.09
819,112744787,1.0190,-0.2134,0.2402,4.70,4.21,13.11
820,112749787,1.0151,-0.2153,0.2476,3.66,4.15,12.20
821,112754787,1.0161,-0.2129,0.2432,2.56,4.21,11.22
822,112759787,1.0210,-0.2124,0.2466,1.52,4.15,10.30
823,112764788,1.0210,-0.2144,0.2417,0.67,4.15,9.33
824,112769787,1.0259,-0.2153,0.2534,-0.18,4.21,8.35
825,112774787,1.0254,-0.2202,0.2549,-0.91,4.21,7.68
826,112779787,1.0269,-0.2139,0.2583,-1.40,4.33,6.83
827,112784787,1.0259,-0.2178,0.2627,-1.71,4.51,6.16
828,112789787,1.0269,-0.2134,0.2646,-1.65,4.39,5.30
829,112794787,1.0273,-0.2163,0.2622,-1.59,4.45,4.51
830,112799787,1.0376,-0.2197,0.2729,-1.40,4.33,3.84
831,112804787,1.0356,-0.2202,0.2725,-1.10,4.33,3.23
832,112809787,1.0366,-0.2212,0.2754,-0.79,4.15,2.68
833,112814787,1.0327,-0.2197,0.2832,-0.37,4.09,2.07
834,112819787,1.0259,-0.2236,0.2827,-0.06,4.15,1.46
835,112824787,1.0186,-0.2227,0.2764,0.12,3.90,0.73
836,112829785,1.0205,-0.2251,0.2817,0.37,3.72,-0.06
837,112834978,1.0117,-0.2212,0.2817,0.37,3.60,-0.67
838,112839787,1.0034,-0.2241,0.2876,0.43,3.29,-1.46
839,112844786,1.0059,-0.2271,0.2910,0.24,2.99,-2.01
840,112849787,1.0044,-0.2256,0.2979,0.06,2.87,-2.80
841,112854787,1.0020,-0.2256,0.3027,-0.24,2.50,-3.41
842,112859785,1.0000,-0.2212,0.2983,-0.85,2.20,-4.09
843,112864787,0.9932,-0.2212,0.3013,-1.16,2.01,-4.63
844,112869815,0.9907,-0.2231,0.3027,-1.52,1.77,-5.18
845,112874787,0.9868,-0.2173,0.2988,-1.77,1.59,-5.85
846,112879787,0.9858,-0.2163,0.3057,-2.01,1.40,-6.40
847,112884788,0.9800,-0.2134,0.3081,-2.20,1.10,-7.01
848,112889786,0.9829,-0.2109,0.3125,-2.26,0.85,-7.50
849,112894785,0.9834,-0.2085,0.3115,-2.26,0.55,-7.87
850,112899787,0.9819,-0.2090,0.3174,-2.26,0.43,-8.23
851,112904789,0.9795,-0.2090,0.3149,-2.01,-0.06,-8.54
852,112909993,0.9780,-0.2051,0.3159,-1.95,-0.24,-8.90
853,112914787,0.9707,-0.2051,0.3203,-1.65,-0.67,-9.27
854,112919787,0.9697,-0.2031,0.3198,-1.52,-0.91,-9.51
855,112924787,0.9692,-0.1978,0.3184,-1.40,-1.28,-9.76
856,112929786,0.9673,-0.1890,0.3193,-1.16,-1.59,-10.00
857,112934785,0.9663,-0.1929,0.3232,-1.16,-1.77,-10.30
858,112939787,0.9702,-0.1899,0.3301,-1.16,-2.01,-10.49
859,112944787,0.9692,-0.1880,0.3281,-1.34,-2.50,-10.55
860,112949786,0.9683,-0.1860,0.3276,-1.59,-2.80,-10.73
861,112954787,0.9692,-0.1816,0.3296,-1.77,-3.11,-10.73
862,112959787,0.9663,-0.1792,0.3325,-1.77,-3.29,-10.79
863,112964787,0.9648,-0.1768,0.3315,-1.95,-3.60,-11.04
864,112969786,0.9629,-0.1748,0.3291,-1.95,-3.96,-10.98
865,112974789,0.9580,-0.1689,0.3271,-2.01,-4.39,-11.10
866,112979828,0.9551,-0.1641,0.3252,-1.95,-4.63,-11.04
867,112984786,0.9517,-0.1611,0.3296,-1.89,-4.76,-11.22
868,112989853,0.9575,-0.1528,0.3286,-1.89,-5.18,-11.28
869,112994786,0.9526,-0.1543,0.3286,-1.65,-5.49,-11.16
870,112999787,0.9526,-0.1484,0.3252,-1.40,-5.91,-11.10
871,113004870,0.9561,-0.1470,0.3281,-1.22,-6.28,-10.98
872,113009787,0.9570,-0.1440,0.3247,-1.16,-6.28,-10.91
873,113014787,0.9531,-0.1382,0.3252,-0.98,-6.59,-10.67
874,113019787,0.9565,-0.1372,0.3247,-0.91,-6.77,-10.73
875,113024787,0.9556,-0.1338,0.3237,-0.91,-7.07,-10.55
876,113029787,0.9595,-0.1328,0.3237,-0.79,-7.20,-10.24
877,113034785,0.9639,-0.1323,0.3179,-0.67,-7.38,-9.88
878,113039785,0.9658,-0.1260,0.3066,-0.61,-7.62,-9.63
879,113044787,0.9663,-0.1250,0.3188,-0.49,-7.74,-9.33
880,113049786,0.9658,-0.1211,0.3184,-0.24,-7.87,-8.96
881,113054787,0.9712,-0.1206,0.3135,0.06,-7.99,-8.78
882,113059785,0.9644,-0.1167,0.3110,0.37,-8.05,-8.41
883,113064787,0.9634,-0.1104,0.3081,0.73,-8.23,-8.11
884,113069786,0.9688,-0.1016,0.3086,1.22,-8.35,-7.80
885,113074789,0.9648,-0.1055,0.3071,1.65,-8.48,-7.62
886,113079785,0.9629,-0.1035,0.3066,2.01,-8.60,-7.20
887,113084787,0.9634,-0.1011,0.3105,2.38,-8.78,-6.83
888,113089788,0.9673,-0.1011,0.3027,2.56,-8.66,-6.46
889,113094787,0.9629,-0.0991,0.3008,2.74,-8.54,-6.16
890,113100347,0.9648,-0.0952,0.2979,2.80,-8.54,-5.73
891,113104787,0.9673,-0.0967,0.3003,2.50,-8.41,-5.24
892,113109786,0.9663,-0.0947,0.2983,2.44,-8.23,-4.88
893,113114789,0.9658,-0.0942,0.2939,2.50,-8.11,-4.51
894,113119787,0.9683,-0.0947,0.2974,2.38,-7.80,-3.96
895,113124787,0.9722,-0.0981,0.2964,2.20,-7.62,-3.48
896,113129786,0.9697,-0.0962,0.2979,2.13,-7.38,-3.05
897,113134787,0.9683,-0.0942,0.2910,2.20,-7.26,-2.68
898,113139785,0.9683,-0.0933,0.2905,2.32,-7.01,-2.20
899,113144789,0.9658,-0.0898,0.2891,2.62,-6.77,-1.71
900,113149787,0.9683,-0.0898,0.2837,2.87,-6.52,-1.34
901,113154787,0.9648,-0.0894,0.2866,3.29,-6.59,-0.98
902,113159787,0.9585,-0.0869,0.2852,3.78,-6.28,-0.55
903,113164787,0.9565,-0.0913,0.2783,4.33,-6.16,-0.18
904,113169787,0.9595,-0.0884,0.2744,5.00,-5.91,0.24
905,113174787,0.9624,-0.0894,0.2725,5.55,-5.67,0.49
906,113179787,0.9609,-0.0879,0.2734,5.98,-5.55,0.91
907,113184787,0.9619,-0.0854,0.2720,6.34,-5.43,1.16
908,113189786,0.9619,-0.0854,0.2681,6.71,-5.37,1.40
909,113194813,0.9595,-0.0811,0.2671,7.13,-5.24,1.83
910,113199786,0.9546,-0.0820,0.2627,7.20,-5.00,2.01
911,113204788,0.9624,-0.0859,0.2598,7.38,-4.88,2.32
912,113210311,0.9624,-0.0835,0.2632,7.32,-4.82,2.56
913,113214787,0.9678,-0.0854,0.2603,7.44,-4.63,2.80
914,113219786,0.9629,-0.0879,0.2646,7.26,-4.39,3.11
915,113224787,0.9692,-0.0850,0.2646,7.26,-4.45,3.41
916,113229785,0.9663,-0.0879,0.2617,7.07,-4.27,3.66
917,113234787,0.9668,-0.0859,0.2578,6.83,-4.27,3.84
918,113239785,0.9692,-0.0820,0.2573,6.40,-4.21,3.96
919,113244788,0.9712,-0.0854,0.2505,5.98,-4.15,4.21
920,113249787,0.9692,-0.0869,0.2549,5.79,-4.21,4.45
921,113254786,0.9736,-0.0859,0.2607,5.30,-4.09,4.57
922,113259787,0.9741,-0.0918,0.2490,4.88,-4.02,4.57
923,113264788,0.9795,-0.0928,0.2593,4.57,-4.27,4.76
924,113270133,0.9849,-0.0962,0.2549,4.21,-4.02,5.00
925,113274787,0.9819,-0.0962,0.2559,4.09,-4.21,5.12
926,113279787,0.9873,-0.0986,0.2524,3.78,-4.15,5.30
927,113284787,0.9829,-0.0972,0.2529,3.72,-4.15,5.43
928,113289787,0.9819,-0.0986,0.2568,3.78,-4.15,5.43
929,113294786,0.9819,-0.1016,0.2559,3.66,-4.15,5.43
930,113299787,0.9849,-0.0981,0.2539,3.66,-4.39,5.67
931,113304820,0.9829,-0.1030,0.2520,3.72,-4.39,5.67
932,113310162,0.9844,-0.1079,0.2500,3.66,-4.33,5.79
933,113314787,0.9844,-0.1099,0.2544,3.54,-4.51,5.91
934,113319787,0.9839,-0.1089,0.2510,3.41,-4.45,5.79
935,113324787,0.9858,-0.1118,0.2485,3.11,-4.39,5.85
936,113329786,0.9810,-0.1118,0.2534,2.93,-4.27,6.04
937,113334787,0.9800,-0.1074,0.2461,2.56,-4.15,5.98
938,113339785,0.9814,-0.1187,0.2461,2.26,-4.15,5.85
939,113344785,0.9844,-0.1152,0.2427,1.95,-3.78,5.85
940,113349787,0.9834,-0.1177,0.2417,1.59,-3.96,5.79
941,113354787,0.9858,-0.1211,0.2466,1.22,-4.02,5.67
942,113359788,0.9897,-0.1196,0.2451,1.10,-3.84,5.61
943,113364787,0.9893,-0.1226,0.2407,0.79,-3.60,5.61
944,113369785,0.9888,-0.1201,0.2466,0.67,-3.60,5.55
945,113374787,0.9917,-0.1226,0.2451,0.73,-3.41,5.55
946,113379786,0.9927,-0.1230,0.2451,0.85,-3.17,5.24
947,113384787,0.9937,-0.1211,0.2476,1.10,-2.93,5.24
948,113389787,0.9985,-0.1284,0.2427,1.40,-2.80,5.30
949,113394788,0.9941,-0.1255,0.2456,1.83,-2.74,5.18
950,113399786,0.9946,-0.1260,0.2476,2.38,-2.56,5.12
951,113404787,0.9966,-0.1279,0.2417,2.80,-2.26,5.12
952,113409787,0.9980,-0.1348,0.2432,3.41,-2.07,5.06
953,113414787,0.9932,-0.1289,0.2466,3.96,-1.95,4.94
954,113419787,0.9917,-0.1333,0.2480,4.45,-1.59,4.94
955,113424787,0.9941,-0.1333,0.2441,4.88,-1.34,4.82
956,113429793,0.9946,-0.1333,0.2441,5.12,-1.22,4.63
957,113434787,0.9956,-0.1289,0.2417,5.49,-0.91,4.45
958,113439785,0.9902,-0.1338,0.2437,5.49,-0.73,4.39
959,113444785,0.9917,-0.1343,0.2451,5.73,-0.49,4.27
960,113449785,0.9912,-0.1353,0.2490,5.49,-0.30,4.21
961,113454787,0.9854,-0.1372,0.2393,5.55,-0.12,3.84
962,113459786,0.9868,-0.1357,0.2500,5.37,0.00,3.60
963,113464787,0.9912,-0.1338,0.2422,5.24,0.12,3.35
964,113469785,0.9927,-0.1406,0.2471,5.18,0.37,3.23
965,113474787,0.9897,-0.1343,0.2549,4.94,0.49,3.05
966,113479787,0.9878,-0.1357,0.2510,4.70,0.73,2.74
967,113484787,0.9849,-0.1353,0.2485,4.45,0.73,2.50
968,113489787,0.9868,-0.1353,0.2490,4.27,0.79,2.38
969,113494787,0.9897,-0.1353,0.2539,4.15,0.91,2.13
970,113499787,0.9888,-0.1338,0.2568,3.90,0.85,1.95
971,113504807,0.9966,-0.1353,0.2495,3.72,1.04,1.77
972,113509975,0.9893,-0.1372,0.2549,3.60,1.04,1.71
973,113514787,0.9883,-0.1333,0.2539,3.60,1.04,1.40
974,113519786,0.9829,-0.1338,0.2524,3.41,1.04,1.34
975,113524787,0.9873,-0.1333,0.2524,3.35,1.04,1.10
976,113529787,0.9824,-0.1313,0.2563,3.48,1.04,0.91
977,113534787,0.9844,-0.1299,0.2603,3.29,0.98,0.79
978,113539942,0.9785,-0.1338,0.2588,3.05,0.98,0.55
979,113544787,0.9775,-0.1323,0.2588,3.11,0.91,0.30
980,113549785,0.9795,-0.1289,0.2578,2.93,0.73,0.12
981,113554787,0.9751,-0.1274,0.2612,2.80,0.73,-0.06
982,113559787,0.9790,-0.1260,0.2651,2.44,0.55,-0.24
983,113564787,0.9761,-0.1289,0.2622,2.13,0.30,-0.55
984,113569787,0.9805,-0.1255,0.2676,1.77,0.30,-0.79
985,113574787,0.9834,-0.1260,0.2676,1.40,0.06,-0.79
986,113579787,0.9819,-0.1250,0.2695,1.10,0.06,-1.04
987,113584788,0.9893,-0.1240,0.2593,0.67,-0.12,-1.22
988,113589939,0.9873,-0.1265,0.2695,0.24,-0.30,-1.22
989,113594787,0.9927,-0.1279,0.2686,-0.18,-0.43,-1.28
990,113599786,0.9878,-0.1284,0.2734,-0.49,-0.55,-1.46
991,113604939,0.9854,-0.1240,0.2710,-0.73,-0.73,-1.52
992,113609785,0.9849,-0.1221,0.2715,-0.79,-0.85,-1.77
993,113614785,0.9834,-0.1216,0.2739,-0.79,-1.22,-1.65
994,113619787,0.9873,-0.1226,0.2705,-0.85,-1.28,-1.89
995,113624786,0.9829,-0.1206,0.2676,-0.73,-1.65,-1.89
996,113629787,0.9844,-0.1191,0.2705,-0.67,-1.83,-2.01
997,113634787,0.9854,-0.1196,0.2715,-0.61,-2.07,-2.20
998,113639787,0.9839,-0.1157,0.2764,-0.67,-2.26,-2.07
999,113644855,0.9839,-0.1187,0.2729,-0.79,-2.44,-2.20
1000,113649785,0.9902,-0.1177,0.2773,-0.98,-2.62,-2.32
1001,113654787,0.9922,-0.1196,0.2778,-1.16,-2.99,-2.38
1002,113659787,0.9961,-0.1191,0.2764,-1.40,-3.23,-2.50
1003,113664789,0.9990,-0.1196,0.2744,-1.71,-3.41,-2.50
1004,113669786,0.9971,-0.1216,0.2852,-2.07,-3.66,-2.44
1005,113674787,1.0010,-0.1187,0.2808,-2.26,-3.78,-2.50
1006,113679785,1.0005,-0.1191,0.2798,-2.50,-3.96,-2.50
1007,113684787,0.9941,-0.1206,0.2734,-2.74,-4.21,-2.44
1008,113689786,0.9922,-0.1167,0.2778,-2.80,-4.51,-2.38
1009,113694789,0.9912,-0.1172,0.2715,-2.80,-4.76,-2.56
1010,113699785,0.9873,-0.1182,0.2783,-2.74,-5.00,-2.56
1011,113704788,0.9868,-0.1206,0.2773,-2.56,-5.18,-2.56
1012,113709786,0.9805,-0.1147,0.2705,-2.56,-5.61,-2.62
1013,113714825,0.9810,-0.1162,0.2720,-2.50,-5.98,-2.50
1014,113719787,0.9819,-0.1177,0.2739,-2.32,-6.22,-2.56
1015,113724789,0.9819,-0.1172,0.2739,-2.44,-6.40,-2.50
1016,113729786,0.9707,-0.1182,0.2690,-2.50,-6.77,-2.62
1017,113734787,0.9678,-0.1191,0.2725,-2.56,-7.07,-2.56
1018,113739785,0.9673,-0.1138,0.2690,-2.80,-7.20,-2.68
1019,113744787,0.9619,-0.1099,0.2710,-2.93,-7.50,-2.80
1020,113749786,0.9614,-0.1104,0.2710,-3.35,-7.87,-2.99
1021,113754785,0.9614,-0.1099,0.2661,-3.48,-8.05,-2.99
1022,113759788,0.9604,-0.1108,0.2700,-4.15,-8.41,-3.11
1023,113764787,0.9604,-0.1123,0.2734,-4.70,-8.66,-3.17
1024,113769787,0.9619,-0.1133,0.2690,-5.37,-8.78,-3.29
1025,113774787,0.9648,-0.1094,0.2749,-5.98,-8.90,-3.35
1026,113779787,0.9604,-0.1074,0.2729,-6.89,-8.96,-3.48
1027,113784787,0.9619,-0.1089,0.2739,-7.56,-9.33,-3.35
1028,113790163,0.9639,-0.1108,0.2749,-8.41,-9.39,-3.48
1029,113794787,0.9644,-0.1084,0.2729,-8.90,-9.63,-3.41
1030,113799787,0.9668,-0.1040,0.2773,-9.76,-9.63,-3.29
1031,113804786,0.9673,-0.1006,0.2720,-10.18,-9.70,-3.29
1032,113809859,0.9722,-0.1050,0.2734,-10.79,-10.06,-3.23
1033,113814786,0.9707,-0.1001,0.2720,-11.04,-10.06,-3.17
1034,113819787,0.9727,-0.0967,0.2783,-11.04,-10.06,-3.11
1035,113824787,0.9761,-0.0952,0.2788,-10.98,-10.24,-2.93
1036,113829786,0.9790,-0.0967,0.2773,-10.85,-10.24,-2.80
1037,113834787,0.9819,-0.0938,0.2734,-10.49,-10.37,-2.74
1038,113839785,0.9829,-0.0938,0.2729,-10.06,-10.61,-2.56
1039,113844787,0.9819,-0.0908,0.2744,-9.39,-10.49,-2.38
1040,113849786,0.9819,-0.0889,0.2764,-8.72,-10.49,-2.26
1041,113854787,0.9839,-0.0913,0.2764,-7.99,-10.61,-2.13
1042,113859785,0.9810,-0.0918,0.2788,-7.44,-10.49,-2.01
1043,113864788,0.9785,-0.0903,0.2720,-6.71,-10.55,-1.95
1044,113869785,0.9785,-0.0869,0.2739,-6.10,-10.43,-1.65
1045,113874787,0.9819,-0.0874,0.2773,-5.49,-10.43,-1.46
1046,113879787,0.9834,-0.0884,0.2720,-4.82,-10.43,-1.46
1047,113884787,0.9883,-0.0884,0.2710,-4.27,-10.37,-1.22
1048,113889787,0.9873,-0.0854,0.2646,-3.60,-10.43,-1.16
1049,113894787,0.9854,-0.0884,0.2637,-3.23,-10.24,-0.91
1050,113899787,0.9868,-0.0879,0.2642,-2.50,-10.24,-0.73
1051,113904787,0.9907,-0.0889,0.2666,-1.95,-10.24,-0.49
1052,113909787,0.9907,-0.0889,0.2617,-1.52,-10.12,-0.37
1053,113914785,0.9907,-0.0874,0.2529,-1.10,-10.18,-0.18
1054,113919787,0.9937,-0.0908,0.2549,-0.55,-10.12,0.00
1055,113924787,0.9932,-0.0874,0.2505,0.00,-10.06,0.06
1056,113929787,0.9946,-0.0908,0.2559,0.43,-9.94,0.30
1057,113934787,0.9893,-0.0918,0.2520,0.91,-10.00,0.55
1058,113939787,0.9893,-0.0874,0.2471,1.16,-9.82,0.67
1059,113944787,0.9897,-0.0952,0.2515,1.52,-9.63,0.98
1060,113949787,0.9897,-0.0933,0.2515,1.89,-9.57,0.91
1061,113954785,0.9893,-0.0962,0.2461,2.07,-9.45,1.10
1062,113959785,0.9883,-0.0981,0.2417,2.32,-9.45,1.34
1063,113964790,0.9888,-0.0972,0.2402,2.68,-9.33,1.40
1064,113969786,0.9902,-0.0962,0.2407,2.87,-9.21,1.46
1065,113974787,0.9912,-0.1021,0.2393,3.35,-9.09,1.59
1066,113979785,0.9912,-0.1045,0.2324,3.66,-8.96,1.77
1067,113984789,0.9932,-0.1006,0.2280,3.96,-9.02,1.83
1068,113989786,0.9878,-0.1025,0.2310,4.21,-8.96,2.01
1069,113994787,0.9897,-0.1025,0.2290,4.57,-8.78,2.01
1070,113999785,0.9878,-0.1035,0.2280,4.88,-8.78,2.01
1071,114004789,0.9888,-0.1040,0.2241,5.24,-8.72,2.07
1072,114009786,0.9937,-0.1084,0.2192,5.30,-8.72,2.07
1073,114014787,0.9932,-0.1094,0.2227,5.61,-8.72,2.20
1074,114019785,0.9858,-0.1055,0.2109,5.73,-8.48,2.07
1075,114024787,0.9868,-0.1050,0.2192,5.73,-8.54,2.07
1076,114029786,0.9849,-0.1089,0.2144,5.79,-8.54,2.01
1077,114034787,0.9883,-0.1118,0.2095,5.79,-8.29,1.95
1078,114039785,0.9888,-0.1128,0.2109,5.79,-8.11,1.89
1079,114044787,0.9863,-0.1147,0.2104,5.67,-8.17,1.89
1080,114049786,0.9863,-0.1133,0.2070,5.73,-8.05,1.71
1081,114054787,0.9863,-0.1138,0.2104,5.67,-7.87,1.65
1082,114059785,0.9849,-0.1162,0.2041,5.67,-7.80,1.59
1083,114064788,0.9902,-0.1162,0.2031,5.67,-7.62,1.59
1084,114069787,0.9863,-0.1206,0.1948,5.73,-7.44,1.40
1085,114074786,0.9912,-0.1211,0.2046,5.79,-7.32,1.46
1086,114079848,0.9834,-0.1221,0.1973,5.73,-7.26,1.28
1087,114084788,0.9834,-0.1245,0.1934,5.61,-6.89,1.10
1088,114089787,0.9858,-0.1221,0.1982,5.55,-6.77,1.04
1089,114094787,0.9834,-0.1240,0.1953,5.30,-6.52,1.04
1090,114099787,0.9863,-0.1245,0.1924,5.24,-6.28,0.79
1091,114104787,0.9873,-0.1279,0.1899,5.12,-6.04,0.61
1092,114109787,0.9849,-0.1245,0.1851,4.94,-5.79,0.43
1093,114114787,0.9824,-0.1255,0.1895,4.82,-5.49,0.30
1094,114119787,0.9868,-0.1240,0.1860,4.63,-5.12,0.24
1095,114124787,0.9888,-0.1216,0.1836,4.82,-4.88,0.00
1096,114129786,0.9937,-0.1230,0.1860,5.00,-4.70,-0.06
1097,114134789,0.9951,-0.1226,0.1860,5.24,-4.27,-0.06
1098,114139785,0.9985,-0.1255,0.1782,5.73,-3.96,-0.18
1099,114144787,1.0000,-0.1216,0.1797,6.04,-3.84,-0.24
1100,114149786,1.0010,-0.1255,0.1768,6.52,-3.48,-0.24
1101,114154787,0.9985,-0.1270,0.1777,6.95,-3.23,-0.12
1102,114159785,1.0005,-0.1211,0.1753,7.26,-3.05,-0.24
1103,114164785,1.0005,-0.1230,0.1753,7.62,-2.74,-0.24
1104,114170164,0.9985,-0.1235,0.1787,7.80,-2.50,-0.30
1105,114174787,0.9956,-0.1206,0.1719,8.17,-2.32,-0.43
1106,114179786,0.9951,-0.1216,0.1699,8.23,-1.95,-0.49
1107,114184787,0.9912,-0.1240,0.1655,8.29,-1.71,-0.55
1108,114189785,0.9946,-0.1245,0.1606,8.17,-1.52,-0.61
1109,114194790,0.9937,-0.1255,0.1685,7.74,-1.34,-0.79
1110,114199786,0.9976,-0.1250,0.1685,7.50,-0.91,-0.91
1111,114204787,0.9912,-0.1245,0.1670,7.13,-0.61,-0.98
1112,114209787,0.9912,-0.1255,0.1646,6.65,-0.37,-1.10
1113,114214786,0.9951,-0.1245,0.1670,6.22,-0.24,-1.16
1114,114219787,0.9912,-0.1255,0.1665,5.91,-0.06,-1.34
1115,114224786,0.9907,-0.1265,0.1626,5.61,0.18,-1.40
1116,114229787,0.9932,-0.1265,0.1680,5.37,0.49,-1.40
1117,114234789,0.9937,-0.1250,0.1665,5.43,0.67,-1.65
1118,114239786,0.9917,-0.1265,0.1567,5.37,0.98,-1.77
1119,114244787,0.9902,-0.1250,0.1675,5.55,0.98,-1.83
1120,114249785,0.9917,-0.1196,0.1631,5.79,1.10,-1.89
1121,114254787,0.9917,-0.1167,0.1611,5.98,1.28,-2.01
1122,114259786,0.9893,-0.1196,0.1650,6.10,1.28,-2.26
1123,114264785,0.9946,-0.1182,0.1660,6.22,1.65,-2.32
1124,114269785,0.9990,-0.1162,0.1719,6.28,1.71,-2.38
1125,114274787,0.9956,-0.1143,0.1641,6.22,1.77,-2.44
1126,114279786,0.9946,-0.1118,0.1724,6.04,1.83,-2.50
1127,114284787,0.9976,-0.1104,0.1704,5.91,1.95,-2.56
1128,114289788,0.9985,-0.1147,0.1670,5.43,2.13,-2.56
1129,114294787,0.9995,-0.1128,0.1729,5.06,2.07,-2.50
1130,114299787,0.9966,-0.1064,0.1704,4.70,2.13,-2.56
1131,114304787,0.9946,-0.1069,0.1704,4.02,2.32,-2.74
1132,114309785,0.9966,-0.1060,0.1719,3.54,2.44,-2.68
1133,114314789,0.9941,-0.1021,0.1719,2.99,2.56,-2.80
1134,114319786,0.9937,-0.1025,0.1724,2.50,2.62,-2.68
1135,114324787,0.9932,-0.0986,0.1782,2.07,2.62,-2.80
1136,114329785,0.9893,-0.0952,0.1792,1.65,2.74,-2.80
1137,114334787,0.9878,-0.0972,0.1831,1.28,2.80,-2.87
1138,114339787,0.9912,-0.0952,0.1831,0.67,2.68,-2.93
1139,114344788,0.9902,-0.0952,0.1812,0.37,2.74,-3.05
1140,114349786,0.9888,-0.0918,0.1841,-0.12,2.74,-2.93
1141,114354786,0.9878,-0.0894,0.1880,-0.43,2.87,-2.93
1142,114359787,0.9893,-0.0913,0.1899,-0.79,2.80,-2.87
1143,114364786,0.9844,-0.0898,0.1855,-0.91,2.99,-2.87
1144,114369785,0.9863,-0.0864,0.1934,-1.28,2.99,-2.87
1145,114374789,0.9805,-0.0879,0.1982,-1.77,3.11,-2.62
1146,114379786,0.9863,-0.0898,0.2007,-2.01,3.23,-2.56
1147,114384787,0.9839,-0.0854,0.2007,-2.26,3.35,-2.26
1148,114389787,0.9810,-0.0850,0.2056,-2.32,3.54,-2.20
1149,114394787,0.9795,-0.0854,0.2109,-2.44,3.54,-2.01
1150,114400133,0.9756,-0.0796,0.2104,-2.44,3.72,-1.83
1151,114404787,0.9727,-0.0820,0.2114,-2.26,3.90,-1.71
1152,114409786,0.9717,-0.0791,0.2119,-2.07,4.15,-1.52
1153,114414785,0.9697,-0.0796,0.2168,-1.65,4.33,-1.46
1154,114419785,0.9688,-0.0762,0.2202,-1.22,4.39,-1.22
1155,114424785,0.9722,-0.0781,0.2178,-0.73,4.57,-1.22
1156,114429785,0.9707,-0.0786,0.2192,-0.37,4.51,-1.04
1157,114434785,0.9722,-0.0776,0.2236,0.00,4.57,-0.98
1158,114439785,0.9712,-0.0771,0.2290,0.55,4.76,-0.67
1159,114444787,0.9736,-0.0776,0.2275,0.73,4.76,-0.55
1160,114449787,0.9727,-0.0737,0.2295,0.98,4.94,-0.37
1161,114454786,0.9731,-0.0762,0.2319,1.04,5.00,-0.24
1162,114459787,0.9707,-0.0752,0.2383,1.04,4.88,-0.12
1163,114464786,0.9741,-0.0723,0.2378,1.04,4.88,0.12
1164,114469785,0.9727,-0.0693,0.2388,0.79,5.06,0.30
1165,114474785,0.9722,-0.0742,0.2329,0.61,4.94,0.49
1166,114479787,0.9712,-0.0698,0.2358,0.30,4.88,0.55
1167,114484787,0.9790,-0.0718,0.2354,-0.24,4.94,0.55
1168,114489786,0.9810,-0.0679,0.2368,-0.55,4.70,0.61
1169,114494785,0.9839,-0.0708,0.2388,-1.04,4.63,0.79
1170,114499785,0.9912,-0.0728,0.2354,-1.40,4.63,0.79
1171,114504788,0.9888,-0.0708,0.2388,-1.89,4.45,0.79
1172,114509787,0.9941,-0.0640,0.2393,-2.32,4.39,0.85
1173,114514787,1.0000,-0.0625,0.2373,-2.56,4.09,0.91
1174,114519785,1.0093,-0.0659,0.2358,-2.68,3.90,0.91
1175,114524976,1.0098,-0.0684,0.2388,-2.80,3.78,1.22
1176,114529785,1.0171,-0.0659,0.2397,-2.68,3.48,1.34
1177,114534785,1.0171,-0.0708,0.2368,-2.62,3.17,1.46
1178,114539785,1.0225,-0.0664,0.2349,-2.50,2.93,1.59
1179,114544785,1.0176,-0.0713,0.2349,-2.32,2.74,1.71
1180,114549988,1.0239,-0.0723,0.2388,-2.07,2.56,1.83
1181,114554787,1.0200,-0.0723,0.2378,-1.77,2.13,1.83
1182,114559787,1.0195,-0.0737,0.2412,-1.52,1.83,2.07
1183,114564785,1.0132,-0.0718,0.2393,-1.28,1.59,2.13
1184,114569785,1.0083,-0.0752,0.2373,-1.22,1.22,2.20
1185,114574785,1.0068,-0.0723,0.2373,-0.98,0.98,2.32
1186,114579789,1.0044,-0.0796,0.2295,-0.98,0.67,2.26
1187,114584786,0.9985,-0.0806,0.2344,-0.79,0.61,2.26
1188,114589787,0.9941,-0.0840,0.2319,-0.85,0.37,2.32
1189,114594785,0.9883,-0.0859,0.2407,-0.91,0.12,2.38
1190,114599787,0.9858,-0.0918,0.2393,-1.10,0.06,2.32
1191,114604786,0.9790,-0.0938,0.2383,-1.22,0.12,2.44
1192,114609787,0.9805,-0.0894,0.2412,-1.52,-0.12,2.38
1193,114614785,0.9771,-0.0942,0.2476,-1.71,-0.24,2.44
1194,114619789,0.9741,-0.0947,0.2422,-2.07,-0.24,2.44
1195,114624786,0.9727,-0.0952,0.2505,-2.20,-0.30,2.44
1196,114629787,0.9648,-0.0991,0.2544,-2.20,-0.18,2.62
1197,114634785,0.9702,-0.0981,0.2480,-2.13,-0.06,2.74
1198,114639788,0.9634,-0.1040,0.2529,-2.01,-0.12,2.80
1199,114644787,0.9644,-0.1069,0.2524,-1.71,-0.06,2.87
1200,114649786,0.9634,-0.1055,0.2559,-1.40,-0.06,3.05
1201,114654787,0.9604,-0.1074,0.2563,-1.10,0.12,3.05
1202,114659787,0.9590,-0.1060,0.2593,-0.55,0.24,3.35
1203,114664817,0.9624,-0.1079,0.2690,-0.12,0.37,3.48
1204,114669785,0.9556,-0.1079,0.2710,0.37,0.24,3.66
1205,114674785,0.9551,-0.1074,0.2759,0.85,0.43,3.72
1206,114679787,0.9556,-0.1069,0.2764,1.40,0.61,4.02
1207,114684787,0.9526,-0.1045,0.2700,2.07,0.61,4.15
1208,114689787,0.9526,-0.1055,0.2744,2.62,0.73,4.21
1209,114694787,0.9526,-0.1025,0.2817,3.17,0.55,4.21
1210,114699788,0.9458,-0.1021,0.2832,3.72,0.43,4.39
1211,114704787,0.9448,-0.0991,0.2808,4.15,0.37,4.45
1212,114709787,0.9438,-0.0967,0.2783,4.51,0.37,4.57
1213,114714787,0.9473,-0.1001,0.2793,4.82,0.24,4.63
1214,114719787,0.9434,-0.0947,0.2871,5.00,0.24,4.57
1215,114724787,0.9497,-0.0928,0.2822,5.24,0.06,4.63
1216,114729787,0.9512,-0.0933,0.2808,5.24,-0.06,4.63
1217,114734785,0.9507,-0.0928,0.2827,5.12,-0.24,4.63
1218,114739785,0.9575,-0.0908,0.2817,5.00,-0.24,4.70
1219,114744787,0.9585,-0.0923,0.2769,4.70,-0.43,4.63
1220,114749787,0.9585,-0.0913,0.2822,4.39,-0.61,4.63
1221,114754787,0.9648,-0.0933,0.2769,3.90,-0.67,4.51
1222,114759786,0.9683,-0.0923,0.2739,3.41,-0.98,4.63
1223,114764785,0.9683,-0.0947,0.2705,2.87,-1.04,4.63
1224,114769788,0.9731,-0.0918,0.2710,2.50,-1.46,4.57
1225,114774785,0.9790,-0.0903,0.2715,1.95,-1.59,4.51
1226,114779785,0.9810,-0.0923,0.2671,1.52,-1.77,4.45
1227,114784785,0.9849,-0.0942,0.2759,1.04,-1.95,4.51
1228,114789787,0.9917,-0.0908,0.2744,0.73,-2.32,4.45
1229,114794785,0.9937,-0.0918,0.2700,0.30,-2.44,4.57
1230,114799795,0.9971,-0.0977,0.2690,0.06,-2.62,4.57
1231,114804785,1.0103,-0.0947,0.2666,-0.06,-2.80,4.45
1232,114809787,1.0137,-0.0967,0.2622,-0.18,-2.99,4.57
1233,114814788,1.0127,-0.1035,0.2637,-0.18,-3.11,4.63
1234,114819787,1.0210,-0.1045,0.2573,0.06,-3.35,4.63
1235,114824785,1.0249,-0.1045,0.2544,0.49,-3.66,4.57
1236,114829857,1.0259,-0.1060,0.2480,0.85,-3.66,4.63
1237,114834786,1.0244,-0.1064,0.2520,1.46,-3.60,4.63
1238,114839785,1.0283,-0.1045,0.2476,1.95,-3.84,4.76
1239,114844785,1.0264,-0.1108,0.2373,2.62,-4.15,4.88
1240,114849785,1.0273,-0.1084,0.2368,3.29,-4.02,4.82
1241,114854789,1.0215,-0.1133,0.2285,4.02,-4.15,4.82
1242,114859786,1.0200,-0.1138,0.2275,4.82,-4.27,4.82
1243,114864787,1.0171,-0.1113,0.2217,5.49,-4.39,4.76
1244,114869787,1.0166,-0.1152,0.2153,6.10,-4.45,4.76
1245,114874785,1.0137,-0.1138,0.2114,6.59,-4.51,4.63
1246,114879786,1.0107,-0.1138,0.2119,7.20,-4.70,4.63
1247,114884787,1.0088,-0.1152,0.2065,7.44,-4.63,4.45
1248,114889787,1.0049,-0.1104,0.2080,7.62,-4.94,4.33
1249,114894789,1.0039,-0.1138,0.2070,7.62,-5.00,4.21
1250,114899786,0.9971,-0.1123,0.2036,7.74,-5.24,4.02
1251,114904785,0.9961,-0.1084,0.2061,7.56,-5.30,3.84
1252,114909787,0.9937,-0.1143,0.2021,7.13,-5.43,3.60
1253,114914788,0.9932,-0.1084,0.1997,6.46,-5.43,3.35
1254,114919787,0.9912,-0.1128,0.1987,5.79,-5.61,3.11
1255,114924785,0.9907,-0.1089,0.1992,5.12,-5.43,2.87
1256,114930294,0.9907,-0.1084,0.2051,4.39,-5.49,2.74
1257,114934787,0.9917,-0.1084,0.2046,3.35,-5.49,2.38
1258,114939787,0.9907,-0.1060,0.1987,2.74,-5.49,2.26
1259,114944793,0.9868,-0.1069,0.2021,2.13,-5.30,2.01
1260,114949787,0.9878,-0.1064,0.2095,1.52,-5.30,1.83
1261,114954787,0.9893,-0.1035,0.2119,1.22,-5.24,1.59
1262,114959786,0.9922,-0.1021,0.2095,0.98,-5.30,1.59
1263,114964787,0.9917,-0.1030,0.2163,0.85,-5.18,1.34
1264,114969787,0.9951,-0.1001,0.2139,0.91,-5.06,1.40
1265,114974787,0.9937,-0.0981,0.2148,1.10,-4.94,1.22
1266,114979786,0.9932,-0.0996,0.2153,1.28,-4.94,1.04
1267,114984855,0.9912,-0.0981,0.2178,1.52,-4.94,1.04
1268,114989787,0.9971,-0.0996,0.2192,1.77,-4.76,1.04
1269,114994786,0.9976,-0.0996,0.2251,1.89,-4.88,0.98
1270,114999787,1.0010,-0.0972,0.2275,2.01,-4.82,0.91
1271,115004787,0.9976,-0.0957,0.2241,2.07,-4.82,0.79
1272,115009787,0.9971,-0.0977,0.2305,2.01,-4.88,0.79
1273,115014786,0.9971,-0.0977,0.2290,1.77,-4.76,0.67
1274,115019787,0.9937,-0.0972,0.2349,1.40,-4.76,0.73
1275,115024786,0.9922,-0.0981,0.2349,0.85,-4.70,0.61
1276,115029789,0.9897,-0.0967,0.2334,0.30,-4.76,0.55
1277,115034786,0.9893,-0.0986,0.2378,-0.24,-4.63,0.37
1278,115039787,0.9917,-0.1006,0.2349,-0.85,-4.45,0.30
1279,115044788,0.9844,-0.1064,0.2314,-1.46,-4.51,0.24
1280,115049787,0.9849,-0.1035,0.2305,-1.95,-4.21,0.12
1281,115054786,0.9834,-0.1060,0.2319,-2.38,-4.02,-0.06
1282,115059787,0.9829,-0.1060,0.2314,-2.56,-4.21,-0.18
1283,115064786,0.9814,-0.1104,0.2295,-2.50,-3.90,-0.43
1284,115069787,0.9800,-0.1055,0.2329,-2.44,-3.78,-0.61
1285,115074786,0.9829,-0.1050,0.2324,-2.20,-3.66,-0.85
1286,115079787,0.9795,-0.1055,0.2275,-1.71,-3.72,-0.91
1287,115084785,0.9795,-0.1064,0.2319,-1.16,-3.54,-1.22
1288,115089789,0.9814,-0.1069,0.2310,-0.61,-3.35,-1.40
1289,115094787,0.9824,-0.1079,0.2236,0.06,-3.17,-1.52
1290,115099787,0.9878,-0.1055,0.2271,0.55,-3.17,-1.71
1291,115104787,0.9907,-0.1045,0.2231,1.16,-3.23,-2.01
1292,115109787,0.9932,-0.1040,0.2222,1.46,-3.17,-2.13
1293,115114787,0.9941,-0.1021,0.2212,1.71,-2.80,-2.38
1294,115119789,0.9971,-0.1016,0.2266,1.95,-2.74,-2.50
1295,115124787,1.0015,-0.1011,0.2207,2.07,-2.50,-2.50
1296,115129787,1.0059,-0.0991,0.2173,2.20,-2.26,-2.74
1297,115134788,1.0098,-0.0967,0.2207,2.32,-2.01,-2.80
1298,115139787,1.0117,-0.0928,0.2144,2.50,-1.83,-2.93
1299,115144787,1.0083,-0.0957,0.2153,2.68,-1.65,-2.99
1300,115149787,1.0073,-0.0913,0.2090,3.05,-1.46,-3.05
1301,115154787,1.0083,-0.0918,0.2148,3.29,-1.34,-3.17
1302,115159788,1.0049,-0.0913,0.2095,3.72,-1.16,-3.35
1303,115165141,1.0029,-0.0864,0.2080,4.15,-1.16,-3.48
1304,115169787,1.0034,-0.0869,0.2070,4.57,-0.91,-3.60
1305,115174786,1.0034,-0.0889,0.2012,4.88,-0.85,-3.72
1306,115179787,1.0049,-0.0850,0.2031,5.24,-0.98,-3.84
1307,115184786,1.0054,-0.0850,0.2046,5.73,-0.79,-3.90
1308,115189789,1.0083,-0.0830,0.2026,6.04,-0.73,-3.96
1309,115194788,1.0054,-0.0835,0.2002,6.16,-0.67,-3.96
1310,115199789,0.9966,-0.0811,0.2061,6.52,-0.67,-4.21
1311,115204786,0.9971,-0.0840,0.2036,6.65,-0.49,-4.15
1312,115209785,0.9976,-0.0820,0.2051,6.59,-0.43,-4.09
1313,115214787,0.9941,-0.0776,0.2095,6.59,-0.24,-4.02
1314,115219789,0.9888,-0.0767,0.2104,6.34,-0.37,-3.84
1315,115224787,0.9849,-0.0786,0.2090,6.28,-0.24,-3.72
1316,115229786,0.9819,-0.0776,0.2129,6.10,0.06,-3.54
1317,115234892,0.9771,-0.0801,0.2163,5.91,0.00,-3.48
1318,115239843,0.9736,-0.0757,0.2153,6.04,0.06,-3.17
1319,115244786,0.9707,-0.0786,0.2104,5.98,0.30,-2.99
1320,115249797,0.9658,-0.0747,0.2139,5.98,0.37,-2.87
1321,115254787,0.9653,-0.0776,0.2100,6.34,0.43,-2.56
1322,115259787,0.9619,-0.0723,0.2173,6.40,0.55,-2.26
1323,115264788,0.9590,-0.0723,0.2217,6.77,0.73,-2.07
1324,115269787,0.9536,-0.0732,0.2246,7.13,0.73,-1.65
1325,115274787,0.9580,-0.0723,0.2202,7.38,0.79,-1.46
1326,115279787,0.9614,-0.0728,0.2188,7.74,0.91,-1.10
1327,115284785,0.9570,-0.0713,0.2231,8.05,0.91,-0.73
1328,115289785,0.9590,-0.0693,0.2246,8.29,1.04,-0.55
1329,115294788,0.9590,-0.0688,0.2305,8.54,0.98,-0.12
1330,115299787,0.9595,-0.0693,0.2266,8.66,1.10,0.37
1331,115304787,0.9639,-0.0669,0.2275,8.60,1.16,0.67
1332,115309787,0.9648,-0.0679,0.2334,8.66,1.10,1.04
1333,115314787,0.9658,-0.0620,0.2319,8.54,1.28,1.34
1334,115319787,0.9634,-0.0552,0.2295,8.35,1.04,1.77
1335,115324802,0.9688,-0.0630,0.2324,8.05,1.04,2.13
1336,115329787,0.9697,-0.0591,0.2324,7.74,1.28,2.56
1337,115334787,0.9717,-0.0557,0.2285,7.38,1.10,2.99
1338,115339787,0.9771,-0.0557,0.2329,6.83,0.91,3.48
1339,115344787,0.9780,-0.0518,0.2305,6.28,0.98,3.96
1340,115349819,0.9834,-0.0513,0.2280,5.85,0.91,4.51
1341,115354787,0.9854,-0.0498,0.2334,5.37,0.79,4.94
1342,115359786,0.9849,-0.0488,0.2290,4.82,0.61,5.43
1343,115364820,0.9868,-0.0464,0.2227,4.33,0.67,6.04
1344,115369786,0.9922,-0.0430,0.2280,3.90,0.73,6.71
1345,115374787,0.9941,-0.0479,0.2271,3.60,0.61,7.38
1346,115379786,0.9922,-0.0493,0.2266,3.17,0.67,7.99
1347,115384787,0.9951,-0.0479,0.2231,2.99,0.55,8.54
1348,115389786,0.9941,-0.0513,0.2202,2.68,0.49,9.27
1349,115395309,0.9971,-0.0513,0.2168,2.68,0.43,9.70
1350,115399787,0.9941,-0.0522,0.2158,2.56,0.43,10.12
1351,115404787,0.9956,-0.0625,0.2139,2.56,0.49,10.79
1352,115409787,0.9937,-0.0576,0.2129,2.56,0.61,11.10
1353,115414787,0.9937,-0.0610,0.2168,2.68,0.43,11.59
1354,115419787,0.9941,-0.0640,0.2144,2.68,0.49,11.77
1355,115424787,0.9912,-0.0703,0.2109,2.80,0.55,12.20
1356,115429787,0.9893,-0.0762,0.2065,2.99,0.61,12.38
1357,115434787,0.9868,-0.0767,0.2080,3.23,0.61,12.62
1358,115439788,0.9917,-0.0781,0.2041,3.41,0.73,12.68
1359,115444787,0.9878,-0.0820,0.2085,3.60,0.79,12.87
1360,115449787,0.9922,-0.0884,0.2021,3.90,0.79,12.93
1361,115454787,0.9927,-0.0908,0.2017,4.33,0.79,12.93
1362,115459787,0.9941,-0.0938,0.2012,4.63,0.98,12.93
1363,115464787,0.9937,-0.1011,0.1997,4.88,0.67,12.80
1364,115469787,0.9932,-0.1016,0.1968,5.06,0.85,12.74
1365,115474787,0.9980,-0.1069,0.1885,4.88,0.79,12.56
1366,115479787,0.9985,-0.1152,0.1943,4.94,0.85,12.44
1367,115484787,1.0029,-0.1162,0.1953,4.88,0.73,12.20
1368,115489787,1.0059,-0.1221,0.1851,4.63,0.85,11.83
1369,115494785,1.0098,-0.1226,0.1870,4.33,0.85,11.59
1370,115499789,1.0127,-0.1279,0.1909,3.78,0.67,11.16
1371,115504787,1.0181,-0.1362,0.1880,3.29,0.73,10.91
1372,115509786,1.0210,-0.1387,0.1904,2.68,0.55,10.73
1373,115514787,1.0220,-0.1406,0.1948,2.01,0.67,10.49
1374,115519787,1.0229,-0.1460,0.1904,1.22,0.67,10.06
1375,115524787,1.0156,-0.1475,0.1904,0.55,0.73,9.76
1376,115529788,1.0176,-0.1494,0.1904,-0.37,0.49,9.51
1377,115534787,1.0122,-0.1533,0.1978,-1.22,0.49,9.09
1378,115539787,1.0103,-0.1577,0.1846,-1.77,0.55,8.78
1379,115545323,1.0034,-0.1582,0.1890,-2.38,0.67,8.35
1380,115549789,0.9985,-0.1597,0.1963,-2.87,0.67,8.11
1381,115554787,0.9937,-0.1641,0.1958,-2.99,1.04,7.80
1382,115559787,0.9897,-0.1665,0.1958,-3.23,1.04,7.44
1383,115564787,0.9863,-0.1665,0.1963,-3.29,1.10,7.07
1384,115569788,0.9785,-0.1641,0.1982,-3.23,1.34,6.65
1385,115574787,0.9771,-0.1616,0.2026,-2.80,1.52,6.28
1386,115579787,0.9814,-0.1646,0.2070,-2.44,1.71,6.04
1387,115584787,0.9795,-0.1655,0.2061,-2.01,1.89,5.67
1388,115589787,0.9814,-0.1631,0.2075,-1.46,2.07,5.49
1389,115594785,0.9771,-0.1626,0.2119,-0.79,2.32,5.12
1390,115599785,0.9775,-0.1602,0.2139,0.06,2.50,4.76
1391,115604787,0.9800,-0.1572,0.2222,0.98,2.68,4.70
1392,115609786,0.9873,-0.1562,0.2197,1.83,2.87,4.33
1393,115614787,0.9858,-0.1489,0.2251,2.62,3.05,4.21
1394,115619787,0.9868,-0.1445,0.2344,3.54,3.23,3.90
1395,115624787,0.9854,-0.1387,0.2324,4.33,3.23,3.60
1396,115629787,0.9819,-0.1367,0.2314,4.76,3.29,3.48
1397,115634787,0.9814,-0.1255,0.2427,5.18,3.41,3.35
1398,115639786,0.9780,-0.1265,0.2437,5.49,3.35,2.93
1399,115644791,0.9741,-0.1206,0.2422,5.43,3.11,2.80
1400,115649786,0.9702,-0.1177,0.2456,5.18,3.11,2.38
1401,115654787,0.9712,-0.1099,0.2456,4.82,3.17,2.07
1402,115659786,0.9658,-0.1016,0.2485,4.09,3.17,1.77
1403,115665240,0.9614,-0.1035,0.2578,2.87,3.23,1.28
1404,115669787,0.9624,-0.0981,0.2593,2.07,3.29,1.04
1405,115674787,0.9634,-0.0938,0.2661,0.73,3.29,0.67
1406,115679787,0.9614,-0.0947,0.2671,-0.43,3.23,0.55
1407,115684787,0.9600,-0.0918,0.2710,-1.71,3.54,0.24
1408,115689787,0.9595,-0.0903,0.2778,-2.80,3.66,-0.12
1409,115694785,0.9653,-0.0913,0.2827,-3.90,3.78,-0.24
1410,115699785,0.9663,-0.0923,0.2832,-4.94,4.09,-0.43
1411,115704789,0.9717,-0.0889,0.2891,-5.49,4.33,-0.67
1412,115709786,0.9722,-0.0942,0.2861,-5.91,4.57,-0.61
1413,115714787,0.9766,-0.0898,0.2925,-5.79,5.00,-0.61
1414,115719786,0.9810,-0.0952,0.2896,-5.43,5.24,-0.55
1415,115724787,0.9907,-0.0942,0.2896,-4.70,5.61,-0.55
1416,115729786,0.9878,-0.0996,0.2905,-3.48,5.91,-0.49
1417,115734787,0.9907,-0.1025,0.2900,-2.07,6.04,-0.43
1418,115739787,0.9941,-0.1050,0.2866,-0.49,6.40,-0.18
1419,115744786,0.9937,-0.1060,0.2856,1.28,6.65,0.00
1420,115749788,0.9971,-0.1123,0.2856,3.11,6.89,0.18
1421,115754788,0.9990,-0.1152,0.2837,5.12,7.01,0.49
1422,115759787,1.0034,-0.1152,0.2837,6.83,7.07,0.79
1423,115764787,1.0068,-0.1187,0.2720,8.60,7.13,1.04
1424,115769787,1.0059,-0.1274,0.2690,10.12,7.13,1.40
1425,115774787,1.0107,-0.1338,0.2671,11.22,6.89,1.77
1426,115779787,1.0098,-0.1367,0.2568,12.01,6.77,1.95
1427,115784787,1.0112,-0.1396,0.2583,12.38,6.59,2.32
1428,115789787,1.0078,-0.1426,0.2539,12.38,6.22,2.62
1429,115794787,1.0029,-0.1475,0.2451,11.95,5.79,2.74
1430,115799787,1.0015,-0.1538,0.2427,10.98,5.67,2.93
1431,115804890,0.9966,-0.1567,0.2432,9.45,5.00,3.11
1432,115809787,0.9922,-0.1636,0.2319,7.38,4.51,3.05
1433,115814787,0.9902,-0.1621,0.2280,5.30,4.09,3.11
1434,115819787,0.9854,-0.1655,0.2246,2.87,3.60,3.11
1435,115824787,0.9888,-0.1680,0.2246,0.30,3.05,2.93
1436,115829787,0.9834,-0.1650,0.2192,-1.95,2.56,2.80
1437,115834787,0.9795,-0.1626,0.2183,-4.09,1.83,2.56
1438,115839796,0.9790,-0.1626,0.2183,-5.85,1.28,2.26
1439,115844787,0.9810,-0.1621,0.2217,-7.56,0.49,2.32
1440,115849788,0.9780,-0.1641,0.2114,-8.66,-0.12,2.01
1441,115854786,0.9790,-0.1548,0.2104,-9.39,-0.73,1.89
1442,115859787,0.9785,-0.1528,0.2075,-9.82,-1.40,1.77
1443,115865916,0.9746,-0.1509,0.2061,-9.94,-2.26,1.65
1444,115869790,0.9766,-0.1479,0.2168,-9.70,-2.87,1.52
1445,115874787,0.9751,-0.1416,0.2202,-9.21,-3.54,1.16
1446,115879786,0.9746,-0.1353,0.2202,-8.72,-4.27,0.98
1447,115884787,0.9775,-0.1294,0.2197,-7.93,-5.06,0.79
1448,115889786,0.9824,-0.1250,0.2251,-7.07,-5.61,0.61
1449,115894789,0.9849,-0.1201,0.2285,-6.28,-6.10,0.30
1450,115899786,0.9922,-0.1104,0.2422,-5.49,-6.52,0.12
1451,115904785,0.9966,-0.1074,0.2422,-4.82,-7.32,-0.12
1452,115909790,1.0039,-0.1030,0.2505,-4.39,-7.68,-0.43
1453,115914787,1.0112,-0.0962,0.2568,-4.02,-8.17,-0.67
1454,115919786,1.0127,-0.0938,0.2603,-3.96,-8.29,-0.91
1455,115924865,1.0225,-0.0908,0.2637,-4.09,-8.78,-1.16
1456,115929786,1.0200,-0.0908,0.2725,-4.33,-9.09,-1.28
1457,115934787,1.0259,-0.0825,0.2793,-4.63,-9.33,-1.34
1458,115939786,1.0259,-0.0806,0.2822,-5.18,-9.39,-1.59
1459,115944787,1.0278,-0.0815,0.2832,-5.67,-9.51,-1.71
1460,115949786,1.0303,-0.0806,0.2920,-6.10,-9.57,-1.71
1461,115954805,1.0303,-0.0781,0.2915,-6.52,-9.57,-1.89
1462,115959786,1.0303,-0.0786,0.2930,-6.71,-9.39,-1.95
1463,115964785,1.0229,-0.0791,0.3003,-6.77,-9.33,-1.95
1464,115969787,1.0151,-0.0801,0.2983,-6.52,-9.21,-1.95
1465,115974879,1.0176,-0.0771,0.2974,-6.28,-9.02,-1.89
1466,115979786,1.0054,-0.0830,0.2998,-5.61,-8.66,-1.83
1467,115984789,0.9976,-0.0854,0.2998,-4.82,-8.41,-1.89
1468,115989786,0.9902,-0.0889,0.3052,-3.72,-8.23,-1.83
1469,115994787,0.9766,-0.0947,0.3037,-2.50,-7.80,-1.71
1470,115999785,0.9702,-0.1016,0.3042,-1.22,-7.56,-1.71
1471,116004785,0.9634,-0.1006,0.3018,0.12,-7.01,-1.71
1472,116009787,0.9570,-0.1035,0.2983,1.77,-6.71,-1.59
1473,116014866,0.9536,-0.1094,0.2949,3.23,-6.34,-1.52
1474,116019786,0.9536,-0.1143,0.2905,4.70,-5.79,-1.40
1475,116024791,0.9502,-0.1152,0.2920,6.28,-5.55,-1.34
1476,116029787,0.9458,-0.1187,0.2944,7.56,-5.12,-1.34
1477,116034788,0.9468,-0.1250,0.2974,8.66,-4.57,-1.34
1478,116039787,0.9507,-0.1260,0.2930,9.76,-4.33,-1.22
1479,116044789,0.9517,-0.1328,0.2822,10.61,-4.02,-1.04
1480,116049785,0.9492,-0.1313,0.2803,11.10,-3.78,-0.98
1481,116054787,0.9521,-0.1299,0.2827,11.52,-3.54,-0.73
1482,116059786,0.9487,-0.1294,0.2739,11.65,-3.29,-0.73
1483,116065208,0.9526,-0.1299,0.2739,11.59,-3.29,-0.61
1484,116069787,0.9546,-0.1362,0.2705,11.40,-3.11,-0.43
1485,116076141,0.9546,-0.1377,0.2578,10.73,-3.29,-0.24
1486,116079790,0.9512,-0.1343,0.2607,10.37,-3.29,-0.06
1487,116084786,0.9517,-0.1318,0.2515,9.63,-3.48,0.00
1488,116089847,0.9458,-0.1323,0.2510,8.78,-3.60,0.18
1489,116094786,0.9409,-0.1313,0.2471,7.87,-3.72,0.12
1490,116099787,0.9346,-0.1294,0.2446,7.07,-3.90,0.24
1491,116104786,0.9385,-0.1226,0.2388,6.16,-4.09,0.37
1492,116109787,0.9312,-0.1206,0.2393,5.30,-4.27,0.37
1493,116114787,0.9302,-0.1201,0.2363,4.51,-4.45,0.43
1494,116119787,0.9229,-0.1177,0.2300,3.60,-4.57,0.61
1495,116124787,0.9268,-0.1089,0.2393,3.23,-4.88,0.61
1496,116129786,0.9282,-0.1060,0.2300,2.68,-5.06,0.79
1497,116134787,0.9307,-0.1055,0.2388,2.38,-5.18,0.85
1498,116139786,0.9360,-0.1011,0.2397,2.26,-5.30,0.98
1499,116144787,0.9443,-0.0977,0.2383,2.26,-5.55,1.16
1500,116149786,0.9497,-0.0923,0.2402,2.38,-5.49,1.34
1501,116154785,0.9575,-0.0879,0.2427,2.74,-5.55,1.59
1502,116159787,0.9688,-0.0894,0.2397,3.17,-5.73,1.89
1503,116164786,0.9746,-0.0874,0.2412,3.66,-5.73,2.38
1504,116169786,0.9800,-0.0811,0.2456,4.39,-5.85,2.74
1505,116174787,0.9893,-0.0791,0.2466,5.06,-5.98,3.05
1506,116179787,0.9980,-0.0742,0.2446,5.79,-5.91,3.54
1507,116184787,1.0005,-0.0723,0.2495,6.52,-6.16,4.02
1508,116189786,1.0044,-0.0654,0.2485,7.07,-5.98,4.51
1509,116194789,1.0107,-0.0610,0.2441,7.87,-6.16,4.82
1510,116199787,1.0171,-0.0605,0.2520,8.35,-6.22,5.24
1511,116204786,1.0210,-0.0591,0.2471,8.66,-6.40,5.61
1512,116209785,1.0239,-0.0596,0.2471,9.02,-6.52,6.10
1513,116214834,1.0293,-0.0571,0.2485,8.90,-6.77,6.46
1514,116219787,1.0298,-0.0576,0.2485,8.78,-6.77,6.77
1515,116224786,1.0342,-0.0576,0.2495,8.54,-6.95,7.01
1516,116229785,1.0317,-0.0615,0.2495,8.05,-7.13,7.32
1517,116234785,1.0317,-0.0620,0.2495,7.56,-7.26,7.50
1518,116240273,1.0332,-0.0625,0.2471,6.83,-7.50,7.74
1519,116244787,1.0342,-0.0674,0.2437,6.22,-7.50,7.93
1520,116249787,1.0293,-0.0684,0.2358,5.67,-7.62,8.17
1521,116255464,1.0234,-0.0742,0.2363,4.94,-7.62,8.41
1522,116259787,1.0181,-0.0742,0.2373,4.51,-7.62,8.54
1523,116264786,1.0156,-0.0796,0.2368,4.02,-7.74,8.60
1524,116269789,1.0083,-0.0811,0.2305,3.84,-7.74,8.60
1525,116274786,0.9995,-0.0874,0.2354,3.60,-7.56,8.60
1526,116279787,0.9912,-0.0928,0.2324,3.41,-7.38,8.54
1527,116284787,0.9819,-0.0938,0.2275,3.66,-7.38,8.41
1528,116289786,0.9800,-0.1016,0.2236,3.96,-7.20,8.17
1529,116294787,0.9741,-0.1074,0.2236,4.33,-6.95,8.05
1530,116299787,0.9692,-0.1094,0.2217,4.88,-6.77,7.87
1531,116304787,0.9634,-0.1152,0.2222,5.30,-6.65,7.56
1532,116309786,0.9678,-0.1221,0.2217,6.04,-6.34,7.44
1533,116314785,0.9678,-0.1255,0.2192,6.52,-5.91,7.13
1534,116319787,0.9722,-0.1313,0.2168,7.20,-5.61,7.07
1535,116324787,0.9761,-0.1343,0.2158,7.74,-5.24,7.01
1536,116329787,0.9795,-0.1392,0.2158,8.05,-4.94,6.77
1537,116334786,0.9814,-0.1392,0.2119,8.66,-4.70,6.77
1538,116339787,0.9834,-0.1460,0.2114,8.96,-4.33,6.59
1539,116344787,0.9873,-0.1504,0.2046,9.51,-4.09,6.34
1540,116349786,0.9912,-0.1543,0.2007,9.76,-3.78,6.28
1541,116354786,0.9966,-0.1523,0.1997,10.12,-3.60,6.16
1542,116359787,0.9937,-0.1582,0.2017,10.24,-3.41,5.98
1543,116364792,0.9971,-0.1631,0.1938,10.30,-3.23,5.73
1544,116369795,0.9941,-0.1631,0.1914,10.43,-3.17,5.67
1545,116374786,0.9907,-0.1616,0.1934,10.30,-3.11,5.30
1546,116379785,0.9932,-0.1655,0.1841,10.24,-3.05,5.00
1547,116384787,0.9824,-0.1694,0.1860,9.76,-3.05,4.82
1548,116389786,0.9863,-0.1680,0.1841,9.33,-3.05,4.45
1549,116394787,0.9780,-0.1719,0.1782,8.84,-2.93,3.96
1550,116399786,0.9741,-0.1704,0.1787,8.11,-2.99,3.60
1551,116404787,0.9668,-0.1699,0.1831,7.32,-2.93,3.29
1552,116409785,0.9673,-0.1660,0.1763,6.34,-3.17,2.93
1553,116414785,0.9663,-0.1626,0.1831,5.43,-2.99,2.44
1554,116420293,0.9634,-0.1665,0.1812,4.21,-3.11,2.01
1555,116424787,0.9619,-0.1602,0.1865,3.48,-3.17,1.71
1556,116429787,0.9619,-0.1582,0.1870,2.44,-2.99,1.28
1557,116434785,0.9614,-0.1553,0.1880,1.77,-2.87,0.91
1558,116439787,0.9658,-0.1514,0.1924,1.10,-2.62,0.61
1559,116444787,0.9678,-0.1514,0.1953,0.49,-2.50,0.37
1560,116449787,0.9692,-0.1455,0.1953,0.24,-2.32,0.06
1561,116454787,0.9731,-0.1426,0.1978,-0.06,-2.26,-0.18
1562,116459786,0.9775,-0.1367,0.1997,0.12,-1.83,-0.30
1563,116464787,0.9824,-0.1333,0.2070,0.43,-1.59,-0.43
1564,116469786,0.9829,-0.1294,0.2129,0.91,-1.34,-0.49
1565,116474789,0.9883,-0.1270,0.2129,1.52,-1.10,-0.55
1566,116479786,0.9897,-0.1240,0.2144,2.50,-0.91,-0.67
1567,116484803,0.9951,-0.1201,0.2158,3.54,-0.67,-0.55
1568,116489786,0.9990,-0.1211,0.2222,4.63,-0.37,-0.55
1569,116494787,1.0024,-0.1123,0.2251,5.61,-0.18,-0.49
1570,116499786,1.0024,-0.1074,0.2241,6.77,0.06,-0.37
1571,116504787,1.0024,-0.1118,0.2188,7.87,0.24,-0.24
1572,116509786,1.0098,-0.1016,0.2231,8.66,0.61,-0.18
1573,116514785,1.0088,-0.1011,0.2329,9.39,0.67,0.00
1574,116519920,1.0088,-0.0986,0.2310,10.00,0.85,0.18
1575,116524789,1.0142,-0.0957,0.2310,10.43,1.10,0.30
1576,116529789,1.0146,-0.0947,0.2314,10.67,1.40,0.55
1577,116534787,1.0146,-0.0928,0.2349,10.79,1.46,0.67
1578,116539787,1.0166,-0.0981,0.2310,10.61,1.77,0.73
1579,116544786,1.0112,-0.0923,0.2344,10.43,1.77,0.98
1580,116549788,1.0142,-0.0923,0.2329,10.12,1.95,1.16
1581,116554788,1.0156,-0.0903,0.2324,9.70,2.07,1.40
1582,116559787,1.0088,-0.0913,0.2349,9.21,2.07,1.52
1583,116564785,1.0098,-0.0898,0.2358,8.90,2.26,1.59
1584,116569787,1.0103,-0.0923,0.2261,8.48,2.26,1.83
1585,116574787,1.0073,-0.0947,0.2324,8.29,2.13,2.01
1586,116579787,1.0068,-0.0928,0.2358,8.11,2.32,2.26
1587,116584785,1.0034,-0.0938,0.2285,8.17,2.26,2.44
1588,116589787,0.9995,-0.0967,0.2256,8.35,2.20,2.50
1589,116594787,0.9946,-0.0977,0.2261,8.54,2.01,2.68
1590,116599787,0.9951,-0.0996,0.2231,9.09,1.89,2.80
1591,116604787,0.9907,-0.1045,0.2207,9.57,1.77,2.93
1592,116609787,0.9844,-0.1060,0.2153,10.00,1.65,3.05
1593,116614785,0.9814,-0.1084,0.2090,10.18,1.34,3.17
1594,116619785,0.9766,-0.1084,0.2119,10.37,1.22,3.17
1595,116624787,0.9775,-0.1143,0.2134,10.30,1.10,3.11
1596,116629787,0.9746,-0.1167,0.2065,10.00,1.04,3.11
1597,116634787,0.9761,-0.1216,0.2119,9.63,0.85,3.11
1598,116639788,0.9741,-0.1245,0.2109,9.02,0.67,3.05
1599,116644787,0.9692,-0.1255,0.2061,8.48,0.61,2.93
1600,116649787,0.9707,-0.1299,0.2095,7.93,0.55,2.80
1601,116654785,0.9668,-0.1299,0.2036,7.26,0.30,2.68
1602,116659789,0.9673,-0.1333,0.2046,6.77,0.37,2.56
1603,116664786,0.9678,-0.1328,0.2075,6.40,0.30,2.56
1604,116669787,0.9609,-0.1343,0.2109,6.10,0.24,2.38
1605,116674788,0.9565,-0.1333,0.2021,5.98,0.06,2.38
1606,116679787,0.9590,-0.1333,0.2070,5.91,0.12,2.20
1607,116684787,0.9604,-0.1328,0.2090,6.10,-0.06,2.13
1608,116689788,0.9595,-0.1318,0.2051,6.28,-0.12,2.26
1609,116694787,0.9614,-0.1270,0.2070,6.52,-0.24,2.13
1610,116699787,0.9604,-0.1255,0.2114,6.83,-0.18,2.07
1611,116704787,0.9619,-0.1260,0.2134,7.01,-0.37,2.07
1612,116709788,0.9624,-0.1211,0.2153,7.26,-0.49,2.13
1613,116714787,0.9688,-0.1226,0.2173,7.50,-0.61,2.20
1614,116719787,0.9678,-0.1201,0.2207,7.44,-0.67,2.32
1615,116724785,0.9688,-0.1152,0.2231,7.13,-0.73,2.32
1616,116729789,0.9707,-0.1182,0.2217,6.95,-0.67,2.44
1617,116734787,0.9741,-0.1157,0.2271,6.65,-0.73,2.56
1618,116739786,0.9751,-0.1089,0.2275,6.04,-0.73,2.56
1619,116744787,0.9790,-0.1094,0.2314,5.37,-0.67,2.74
1620,116749786,0.9775,-0.1069,0.2334,4.76,-0.73,2.93
1621,116754787,0.9795,-0.1069,0.2344,4.27,-0.79,3.05
1622,116759786,0.9854,-0.1055,0.2422,3.60,-0.67,3.17
1623,116765026,0.9814,-0.1001,0.2373,3.05,-0.61,3.35
1624,116769787,0.9814,-0.0986,0.2339,2.87,-0.67,3.41
1625,116774787,0.9751,-0.0991,0.2339,2.44,-0.85,3.60
1626,116779787,0.9785,-0.0957,0.2480,2.38,-0.79,3.72
1627,116784785,0.9741,-0.0933,0.2461,2.32,-0.91,3.90
1628,116789787,0.9780,-0.0933,0.2451,2.20,-1.04,4.02
1629,116794787,0.9736,-0.0918,0.2388,2.44,-1.16,4.15
1630,116799787,0.9790,-0.0879,0.2456,2.44,-1.28,4.33
1631,116804787,0.9795,-0.0859,0.2500,2.50,-1.10,4.45
1632,116809787,0.9810,-0.0884,0.2456,2.62,-1.28,4.76
1633,116814787,0.9790,-0.0840,0.2466,2.80,-1.52,4.70
1634,116819787,0.9780,-0.0854,0.2544,2.99,-1.52,4.76
1635,116824785,0.9766,-0.0850,0.2495,3.05,-1.59,5.06
1636,116829787,0.9785,-0.0869,0.2495,3.41,-1.77,5.18
1637,116834789,0.9800,-0.0889,0.2549,3.60,-1.77,5.30
1638,116839786,0.9800,-0.0835,0.2573,3.84,-2.01,5.30
1639,116844785,0.9780,-0.0835,0.2554,4.33,-2.13,5.49
1640,116849787,0.9824,-0.0864,0.2559,4.70,-2.38,5.55
1641,116854787,0.9819,-0.0879,0.2578,5.12,-2.26,5.73
1642,116859787,0.9814,-0.0913,0.2559,5.49,-2.62,5.85
1643,116864788,0.9863,-0.0903,0.2549,5.67,-2.87,5.91
1644,116869787,0.9873,-0.0933,0.2524,5.79,-3.05,6.10
1645,116874787,0.9844,-0.0918,0.2534,5.91,-3.29,6.22
1646,116879787,0.9883,-0.0986,0.2520,5.91,-3.60,6.28
1647,116884788,0.9917,-0.1006,0.2598,5.79,-3.72,6.40
1648,116889787,0.9912,-0.1045,0.2554,5.61,-3.84,6.52
1649,116894787,0.9907,-0.1084,0.2554,5.18,-4.21,6.83
1650,116899787,0.9927,-0.1089,0.2563,4.76,-4.51,6.83
1651,116904787,0.9932,-0.1133,0.2490,4.27,-4.63,6.95
1652,116909787,0.9893,-0.1143,0.2539,3.84,-4.76,7.13
1653,116914787,0.9897,-0.1206,0.2515,3.48,-4.94,7.26
1654,116919787,0.9932,-0.1230,0.2544,3.11,-5.18,7.32
1655,116924785,0.9878,-0.1294,0.2485,2.80,-5.43,7.62
1656,116929785,0.9922,-0.1357,0.2529,2.62,-5.61,7.87
1657,116934792,0.9912,-0.1372,0.2500,2.68,-5.73,7.99
1658,116939787,0.9844,-0.1436,0.2500,2.62,-5.79,8.17
1659,116944787,0.9878,-0.1470,0.2476,2.93,-5.98,8.54
1660,116949930,0.9893,-0.1479,0.2476,3.17,-6.04,8.72
1661,116954787,0.9873,-0.1523,0.2373,3.48,-5.91,9.15
1662,116959786,0.9814,-0.1597,0.2358,4.09,-6.04,9.45
1663,116964787,0.9771,-0.1602,0.2373,4.70,-6.16,9.70
1664,116969786,0.9712,-0.1660,0.2300,5.30,-6.16,10.12
1665,116974787,0.9648,-0.1709,0.2271,5.98,-6.16,10.30
1666,116979787,0.9580,-0.1753,0.2275,6.77,-6.16,10.61
1667,116984787,0.9487,-0.1787,0.2202,7.20,-6.16,10.91
1668,116989788,0.9409,-0.1812,0.2183,7.62,-6.16,11.10
1669,116994785,0.9390,-0.1846,0.2144,8.11,-6.04,11.40
1670,116999787,0.9297,-0.1865,0.2124,8.60,-6.04,11.65
1671,117004787,0.9307,-0.1865,0.2056,8.90,-5.85,11.89
1672,117009787,0.9243,-0.1855,0.2041,9.09,-5.85,11.95
1673,117014789,0.9248,-0.1870,0.2021,9.33,-5.73,12.26
1674,117019787,0.9282,-0.1875,0.2100,9.45,-5.43,12.38
1675,117024785,0.9253,-0.1855,0.2051,9.45,-5.43,12.44
1676,117029785,0.9282,-0.1841,0.2031,9.51,-5.18,12.50
1677,117034940,0.9312,-0.1782,0.1997,9.45,-5.06,12.62
1678,117039787,0.9355,-0.1826,0.1963,9.51,-5.06,12.68
1679,117044791,0.9512,-0.1758,0.1968,9.39,-4.88,12.80
1680,117049787,0.9561,-0.1763,0.1958,9.45,-4.70,12.62
1681,117054787,0.9629,-0.1729,0.1978,9.33,-4.51,12.74
1682,117059786,0.9746,-0.1685,0.1943,9.21,-4.63,12.68
1683,117064787,0.9829,-0.1689,0.1992,9.02,-4.39,12.74
1684,117069786,0.9878,-0.1660,0.1909,8.78,-4.27,12.62
1685,117074787,1.0039,-0.1621,0.1851,8.54,-4.21,12.62
1686,117079786,1.0132,-0.1626,0.1890,8.23,-4.02,12.50
1687,117084788,1.0239,-0.1611,0.1865,7.93,-3.96,12.32
1688,117089787,1.0283,-0.1572,0.1797,7.62,-4.15,12.20
1689,117094785,1.0371,-0.1655,0.1782,7.20,-4.02,12.07
1690,117099787,1.0420,-0.1587,0.1782,6.83,-4.27,11.83
1691,117104790,1.0420,-0.1553,0.1743,6.59,-4.39,11.71
1692,117109786,1.0405,-0.1548,0.1733,6.34,-4.39,11.34
1693,117114787,1.0386,-0.1582,0.1729,6.10,-4.70,10.98
1694,117119787,1.0371,-0.1587,0.1704,5.85,-5.06,10.67
1695,117124787,1.0356,-0.1602,0.1631,5.49,-5.12,10.12
1696,117129786,1.0273,-0.1572,0.1626,5.06,-5.43,9.76
1697,117134929,1.0259,-0.1577,0.1597,4.39,-5.61,9.21
1698,117139787,1.0215,-0.1616,0.1577,3.90,-5.85,8.66
1699,117144787,1.0186,-0.1587,0.1646,3.11,-6.10,8.11
1700,117149787,1.0200,-0.1641,0.1636,2.32,-6.10,7.50
1701,117154787,1.0220,-0.1704,0.1709,1.28,-6.34,6.89
1702,117159787,1.0220,-0.1758,0.1758,0.30,-6.40,6.34
1703,117164787,1.0210,-0.1787,0.1821,-0.67,-6.40,5.79
1704,117169787,1.0205,-0.1826,0.1812,-1.40,-6.10,5.37
1705,117174787,1.0166,-0.1851,0.1885,-2.20,-6.10,4.94
1706,117179788,1.0127,-0.1851,0.1885,-2.62,-5.98,4.51
1707,117184787,1.0093,-0.1875,0.1890,-2.93,-5.91,4.09
1708,117189786,1.0088,-0.1953,0.1968,-2.68,-5.73,3.78
1709,117194790,1.0024,-0.1963,0.1943,-2.50,-5.55,3.48
1710,117199787,1.0034,-0.1973,0.1958,-1.95,-5.37,3.05
1711,117204787,0.9980,-0.2036,0.2031,-1.34,-5.06,2.74
1712,117209787,0.9966,-0.2051,0.2051,-0.18,-4.76,2.56
1713,117214787,0.9976,-0.2065,0.2090,0.98,-4.57,2.32
1714,117219787,0.9976,-0.2065,0.2080,2.20,-4.27,2.01
1715,117224787,0.9990,-0.2100,0.2173,3.35,-4.15,1.83
1716,117229787,0.9985,-0.2104,0.2046,4.63,-3.90,1.71
1717,117234785,1.0000,-0.2100,0.2075,5.67,-3.54,1.46
1718,117239787,1.0024,-0.2109,0.2100,6.83,-3.41,1.16
1719,117244787,1.0083,-0.2178,0.2095,7.62,-3.17,1.04
1720,117249787,1.0059,-0.2153,0.2129,8.35,-3.05,0.85
1721,117254785,1.0083,-0.2192,0.2109,8.66,-3.05,0.79
1722,117259787,1.0078,-0.2231,0.2124,8.78,-2.93,0.73
1723,117264787,1.0073,-0.2231,0.2109,8.72,-2.93,0.49
1724,117269787,1.0015,-0.2202,0.2095,8.29,-2.99,0.37
1725,117274787,1.0005,-0.2275,0.2100,7.68,-2.80,0.18
1726,117279787,0.9961,-0.2271,0.1968,6.83,-2.87,-0.06
1727,117284787,0.9897,-0.2266,0.2002,5.73,-2.99,-0.24
1728,117289787,0.9824,-0.2236,0.1963,4.70,-3.11,-0.37
1729,117294788,0.9766,-0.2202,0.1973,3.48,-3.23,-0.61
1730,117299787,0.9717,-0.2173,0.1904,2.26,-3.29,-0.91
1731,117304787,0.9658,-0.2188,0.1953,1.16,-3.54,-1.34
1732,117309787,0.9658,-0.2158,0.1890,0.00,-3.84,-1.59
1733,117314787,0.9585,-0.2153,0.1899,-0.91,-4.02,-1.95
1734,117319788,0.9580,-0.2109,0.1875,-1.65,-4.15,-2.32
1735,117324787,0.9531,-0.2095,0.1816,-2.32,-4.39,-2.68
1736,117329787,0.9546,-0.2109,0.1758,-3.11,-4.57,-3.17
1737,117334785,0.9561,-0.2090,0.1768,-3.60,-4.94,-3.48
1738,117339785,0.9521,-0.2051,0.1714,-4.02,-5.06,-3.96
1739,117344789,0.9585,-0.2026,0.1704,-4.21,-5.30,-4.21
1740,117349786,0.9600,-0.2041,0.1748,-4.33,-5.61,-4.57
1741,117354785,0.9536,-0.2026,0.1670,-4.51,-5.61,-4.94
1742,117359787,0.9556,-0.2002,0.1665,-4.82,-5.91,-5.37
1743,117364787,0.9512,-0.1943,0.1660,-5.18,-6.16,-5.79
1744,117369786,0.9600,-0.1919,0.1631,-5.67,-6.28,-6.22
1745,117374787,0.9629,-0.1904,0.1724,-6.28,-6.34,-6.52
1746,117379786,0.9653,-0.1870,0.1665,-6.77,-6.40,-6.95
1747,117384787,0.9761,-0.1841,0.1753,-7.50,-6.28,-7.26
1748,117389787,0.9805,-0.1772,0.1792,-8.23,-6.34,-7.38
1749,117394786,0.9849,-0.1763,0.1738,-8.78,-6.22,-7.62
1750,117399787,0.9922,-0.1685,0.1743,-9.33,-6.10,-7.74
1751,117404787,0.9985,-0.1646,0.1870,-9.57,-5.91,-7.68
1752,117409786,1.0034,-0.1650,0.1821,-9.57,-5.85,-7.74
1753,117415142,1.0034,-0.1562,0.1899,-9.57,-5.73,-7.68
1754,117419788,1.0093,-0.1533,0.1890,-9.21,-5.43,-7.62
1755,117424787,1.0107,-0.1470,0.1890,-8.78,-5.12,-7.50
1756,117429787,1.0083,-0.1450,0.1948,-7.99,-4.94,-7.32
1757,117434785,1.0142,-0.1421,0.1948,-7.13,-4.88,-7.20
1758,117439785,1.0093,-0.1392,0.1997,-6.28,-4.76,-7.01
1759,117444809,1.0103,-0.1309,0.1997,-5.24,-4.39,-6.71
1760,117449787,1.0073,-0.1323,0.2021,-4.09,-4.33,-6.59
1761,117454806,1.0034,-0.1309,0.2026,-2.99,-4.02,-6.34
1762,117459787,1.0059,-0.1294,0.2090,-1.89,-3.96,-6.04
1763,117464787,0.9976,-0.1294,0.2036,-0.73,-3.78,-5.79
1764,117469787,0.9907,-0.1250,0.2065,0.18,-3.78,-5.73
1765,117474787,0.9917,-0.1226,0.2134,0.73,-3.66,-5.55
1766,117479787,0.9873,-0.1260,0.2104,1.22,-3.60,-5.18
1767,117484787,0.9805,-0.1167,0.2100,1.65,-3.66,-5.06
1768,117489787,0.9810,-0.1182,0.2104,1.83,-3.66,-4.70
1769,117494787,0.9707,-0.1191,0.2095,1.89,-3.72,-4.51
1770,117499788,0.9692,-0.1206,0.2144,1.71,-3.72,-4.51
1771,117504787,0.9653,-0.1167,0.2197,1.40,-3.90,-4.33
1772,117509787,0.9624,-0.1152,0.2183,1.16,-4.15,-4.02
1773,117514787,0.9570,-0.1172,0.2197,0.73,-3.96,-3.90
1774,117519787,0.9561,-0.1152,0.2217,0.12,-4.39,-3.72
1775,117524785,0.9517,-0.1133,0.2183,-0.30,-4.27,-3.41
1776,117529787,0.9492,-0.1138,0.2173,-0.85,-4.51,-3.29
1777,117534787,0.9438,-0.1118,0.2139,-1.40,-4.82,-3.11
1778,117539787,0.9463,-0.1123,0.2241,-1.77,-4.88,-2.74
1779,117544785,0.9409,-0.1157,0.2119,-2.32,-5.30,-2.56
1780,117549787,0.9395,-0.1099,0.2202,-2.74,-5.55,-2.38
1781,117554787,0.9360,-0.1152,0.2212,-2.93,-5.61,-2.32
1782,117559787,0.9380,-0.1118,0.2197,-3.23,-6.22,-2.01
1783,117564787,0.9424,-0.1138,0.2256,-3.54,-6.22,-1.71
1784,117569787,0.9395,-0.1123,0.2280,-3.90,-6.52,-1.59
1785,117574787,0.9424,-0.1128,0.2280,-4.27,-6.83,-1.34
1786,117579787,0.9473,-0.1143,0.2314,-4.63,-7.20,-1.04
1787,117584787,0.9482,-0.1157,0.2319,-5.00,-7.20,-0.85
1788,117589788,0.9521,-0.1152,0.2295,-5.18,-7.56,-0.55
1789,117594787,0.9561,-0.1152,0.2271,-5.49,-7.87,-0.18
1790,117599787,0.9546,-0.1157,0.2236,-5.43,-7.87,0.24
1791,117604785,0.9575,-0.1177,0.2256,-5.49,-8.29,0.55
1792,117609787,0.9614,-0.1177,0.2183,-5.49,-8.35,0.91
1793,117614787,0.9658,-0.1196,0.2129,-5.30,-8.72,1.28
1794,117619787,0.9663,-0.1240,0.2095,-4.82,-8.90,1.71
1795,117624787,0.9668,-0.1216,0.2026,-4.21,-9.15,2.01
1796,117629787,0.9673,-0.1206,0.2075,-3.66,-9.39,2.32
1797,117634787,0.9707,-0.1201,0.2017,-3.29,-9.57,2.80
1798,117639787,0.9814,-0.1230,0.2051,-2.62,-9.82,3.11
1799,117644785,0.9805,-0.1235,0.1973,-2.20,-10.06,3.41
1800,117649916,0.9873,-0.1230,0.1978,-1.71,-10.30,3.78
1801,117654787,0.9897,-0.1265,0.1948,-1.40,-10.61,4.09
1802,117659787,0.9976,-0.1279,0.1934,-1.04,-10.73,4.33
1803,117664787,1.0029,-0.1304,0.1846,-0.91,-10.79,4.63
1804,117669789,0.9995,-0.1304,0.1885,-0.85,-10.79,5.00
1805,117675143,1.0039,-0.1348,0.1797,-0.98,-10.91,5.30
1806,117679788,1.0068,-0.1328,0.1777,-0.98,-11.04,5.61
1807,117684787,1.0117,-0.1372,0.1685,-1.04,-10.98,5.91
1808,117689786,1.0098,-0.1401,0.1680,-1.16,-11.10,6.16
1809,117694793,1.0176,-0.1421,0.1709,-1.16,-11.04,6.40
1810,117699786,1.0190,-0.1401,0.1650,-1.16,-10.91,6.71
1811,117704785,1.0181,-0.1440,0.1553,-1.04,-10.85,7.07
1812,117709785,1.0210,-0.1406,0.1567,-0.55,-10.67,7.20
1813,117714787,1.0254,-0.1431,0.1538,-0.06,-10.67,7.32
1814,117719786,1.0303,-0.1475,0.1553,0.67,-10.67,7.50
1815,117724787,1.0278,-0.1509,0.1484,1.65,-10.49,7.62
1816,117729787,1.0229,-0.1484,0.1313,2.68,-10.37,7.62
1817,117734787,1.0171,-0.1475,0.1348,3.90,-10.61,7.80
1818,117739786,1.0122,-0.1494,0.1230,5.06,-10.43,7.74
1819,117744785,1.0049,-0.1499,0.1187,6.16,-10.49,7.62
1820,117749785,0.9980,-0.1533,0.1216,7.07,-10.55,7.56
1821,117754789,0.9888,-0.1465,0.1128,7.99,-10.55,7.38
1822,117759786,0.9800,-0.1475,0.1113,8.35,-10.79,6.89
1823,117764787,0.9824,-0.1533,0.1147,8.54,-10.79,6.59
1824,117769787,0.9790,-0.1499,0.1113,8.66,-10.91,6.34
1825,117774787,0.9741,-0.1528,0.1138,8.11,-10.79,5.85
1826,117779786,0.9751,-0.1504,0.1138,7.44,-10.79,5.61
1827,117784787,0.9766,-0.1519,0.1152,6.52,-10.73,5.30
1828,117789786,0.9800,-0.1499,0.1133,5.43,-10.55,4.76
1829,117794787,0.9829,-0.1504,0.1172,4.39,-10.49,4.45
1830,117799787,0.9868,-0.1558,0.1221,3.05,-10.49,4.09
1831,117804787,0.9863,-0.1548,0.1265,1.89,-10.37,3.84
1832,117809785,0.9863,-0.1553,0.1240,0.98,-10.18,3.66
1833,117814787,0.9873,-0.1577,0.1294,0.18,-10.12,3.54
1834,117819786,0.9873,-0.1528,0.1304,-0.24,-10.00,3.35
1835,117824787,0.9878,-0.1562,0.1382,-0.49,-9.88,3.17
1836,117829786,0.9883,-0.1489,0.1401,-0.24,-9.82,2.99
1837,117834789,0.9839,-0.1450,0.1509,0.18,-9.70,2.80
1838,117839786,0.9844,-0.1377,0.1494,0.98,-9.76,2.74
1839,117844785,0.9907,-0.1406,0.1592,1.89,-9.63,2.44
1840,117849785,0.9941,-0.1362,0.1621,2.93,-9.57,2.38
1841,117854787,0.9976,-0.1333,0.1641,3.84,-9.33,2.26
1842,117859787,1.0005,-0.1294,0.1753,4.88,-9.33,2.07
1843,117864787,1.0039,-0.1309,0.1758,5.79,-9.15,1.89
1844,117869786,1.0103,-0.1255,0.1812,6.77,-9.21,1.83
1845,117874787,1.0098,-0.1289,0.1855,7.26,-9.09,1.65
1846,117879788,1.0122,-0.1260,0.1929,7.62,-8.96,1.40
1847,117884787,1.0166,-0.1289,0.1909,7.87,-8.84,1.40
1848,117889787,1.0161,-0.1270,0.1929,7.80,-8.78,1.22
1849,117894787,1.0112,-0.1289,0.1968,7.80,-8.54,1.22
1850,117899789,1.0063,-0.1313,0.1978,7.50,-8.35,1.10
1851,117904786,1.0059,-0.1343,0.2031,7.20,-8.05,0.98
1852,117909790,1.0005,-0.1357,0.2051,6.89,-7.93,0.85
1853,117914786,0.9902,-0.1372,0.2021,6.59,-7.62,0.79
1854,117919786,0.9829,-0.1455,0.2051,6.34,-7.01,0.67
1855,117924787,0.9731,-0.1416,0.2061,6.22,-6.77,0.55
1856,117929786,0.9658,-0.1460,0.2090,6.28,-6.16,0.30
1857,117934845,0.9609,-0.1440,0.2065,6.59,-5.79,0.12
1858,117939789,0.9526,-0.1509,0.2080,7.07,-5.12,0.12
1859,117944786,0.9512,-0.1548,0.2114,7.50,-4.57,-0.06
1860,117949785,0.9541,-0.1567,0.2065,8.35,-4.09,-0.06
1861,117954785,0.9561,-0.1621,0.2051,9.33,-3.72,-0.24
1862,117959786,0.9546,-0.1655,0.2012,10.30,-3.05,-0.12
1863,117964787,0.9600,-0.1699,0.2051,11.59,-2.56,0.00
1864,117969786,0.9658,-0.1733,0.1992,12.74,-2.13,0.00
1865,117974787,0.9712,-0.1772,0.1929,14.09,-1.83,0.24
1866,117979786,0.9775,-0.1772,0.1890,15.37,-1.34,0.49
1867,117984787,0.9814,-0.1836,0.1826,16.59,-1.34,0.85
1868,117989786,0.9873,-0.1880,0.1748,17.74,-1.22,1.34
1869,117994787,0.9849,-0.1909,0.1655,18.90,-1.16,1.65
1870,117999787,0.9912,-0.1880,0.1606,19.82,-1.22,2.07
1871,118004788,0.9873,-0.1948,0.1548,20.43,-1.52,2.50
1872,118009786,0.9883,-0.1938,0.1440,21.04,-1.71,2.99
1873,118014785,0.9922,-0.1929,0.1313,21.40,-2.01,3.48
1874,118019788,0.9927,-0.1973,0.1260,21.52,-2.38,3.78
1875,118024787,0.9893,-0.1982,0.1172,21.40,-2.74,4.33
1876,118029787,0.9990,-0.1943,0.1040,21.34,-3.35,4.82
1877,118034787,0.9985,-0.1914,0.0928,21.04,-3.90,5.18
1878,118039789,1.0054,-0.1968,0.0801,20.43,-4.82,5.61
1879,118044787,1.0093,-0.1938,0.0693,19.76,-5.67,5.98
1880,118049786,1.0112,-0.1909,0.0625,18.96,-6.65,6.22
1881,118054785,1.0103,-0.1929,0.0479,17.93,-7.68,6.52
1882,118059787,1.0103,-0.1938,0.0391,16.77,-8.72,6.65
1883,118064789,1.0088,-0.1924,0.0332,15.30,-9.76,6.83
1884,118069786,1.0015,-0.1948,0.0288,13.66,-10.98,7.01
1885,118074787,0.9976,-0.1992,0.0225,11.71,-12.44,7.01
1886,118079786,0.9917,-0.1953,0.0166,9.27,-13.48,7.01
1887,118084787,0.9878,-0.1973,0.0034,6.65,-14.82,6.89
1888,118089787,0.9824,-0.1973,0.0073,3.96,-15.91,6.77
1889,118094787,0.9746,-0.1968,0.0024,0.91,-17.01,6.65
1890,118099787,0.9731,-0.2002,0.0059,-2.20,-18.11,6.52
1891,118104787,0.9653,-0.1963,0.0039,-5.24,-19.09,6.28
1892,118109786,0.9639,-0.1953,0.0107,-8.41,-19.88,5.98
1893,118114789,0.9639,-0.1987,0.0137,-11.34,-20.73,5.61
1894,118119785,0.9644,-0.1851,0.0205,-13.84,-21.34,5.24
1895,118124787,0.9639,-0.1855,0.0181,-15.98,-22.01,4.82
1896,118129786,0.9639,-0.1807,0.0234,-17.74,-22.62,4.27
1897,118134787,0.9648,-0.1777,0.0400,-19.15,-22.99,3.96
1898,118139822,0.9688,-0.1680,0.0488,-19.94,-23.29,3.35
1899,118144787,0.9727,-0.1616,0.0566,-20.30,-23.35,2.68
1900,118149785,0.9712,-0.1558,0.0737,-19.94,-23.41,2.13
1901,118154785,0.9805,-0.1509,0.0791,-19.21,-23.41,1.46
1902,118159786,0.9863,-0.1445,0.0815,-17.99,-23.23,0.91
1903,118164789,0.9917,-0.1362,0.0977,-16.59,-22.93,0.37
1904,118169786,0.9941,-0.1294,0.1060,-14.76,-22.56,-0.30
1905,118174787,0.9966,-0.1211,0.1167,-12.80,-22.01,-0.79
1906,118179786,0.9995,-0.1182,0.1177,-10.85,-21.46,-1.59
1907,118184786,0.9990,-0.1099,0.1289,-9.02,-20.73,-2.13
1908,118189787,0.9971,-0.1050,0.1372,-6.95,-19.94,-2.68
1909,118194792,0.9966,-0.0981,0.1421,-5.06,-18.96,-3.29
1910,118199786,0.9976,-0.0933,0.1553,-3.54,-17.80,-4.02
1911,118204787,0.9980,-0.0942,0.1616,-2.07,-16.77,-4.51
1912,118209786,1.0015,-0.0923,0.1704,-0.85,-15.55,-5.00
1913,118214785,1.0063,-0.0874,0.1758,0.30,-14.21,-5.55
1914,118219788,1.0146,-0.0894,0.1880,1.52,-12.74,-6.10
1915,118224787,1.0161,-0.0874,0.1963,2.87,-11.46,-6.52
1916,118229787,1.0176,-0.0820,0.1992,4.21,-10.18,-7.01
1917,118234786,1.0220,-0.0835,0.2056,5.61,-8.90,-7.38
1918,118239787,1.0215,-0.0859,0.2007,7.26,-7.62,-7.80
1919,118244787,1.0210,-0.0923,0.2119,8.78,-6.46,-8.29
1920,118249787,1.0176,-0.0957,0.2100,10.55,-5.30,-8.41
1921,118254785,1.0137,-0.1030,0.2002,12.32,-4.51,-8.60
1922,118259785,1.0127,-0.1021,0.1938,14.21,-3.41,-8.60
1923,118264787,1.0190,-0.1128,0.1890,15.98,-2.68,-8.60
1924,118269787,1.0151,-0.1138,0.1860,17.80,-1.95,-8.60
1925,118274785,1.0156,-0.1260,0.1821,19.45,-1.34,-8.29
1926,118279787,1.0156,-0.1353,0.1758,20.98,-0.73,-7.99
1927,118284788,1.0161,-0.1396,0.1665,22.38,-0.24,-7.62
1928,118289787,1.0171,-0.1455,0.1582,23.66,0.00,-6.95
1929,118294787,1.0215,-0.1567,0.1514,24.63,0.30,-6.40
1930,118299786,1.0195,-0.1636,0.1396,25.49,0.37,-5.73
1931,118304787,1.0166,-0.1689,0.1260,25.98,0.49,-5.00
1932,118309786,1.0142,-0.1729,0.1157,26.52,0.49,-4.27
1933,118315129,1.0112,-0.1860,0.1035,26.83,0.06,-3.54
1934,118319788,0.9995,-0.1885,0.0879,27.20,-0.24,-2.93
1935,118324785,0.9976,-0.1929,0.0742,27.20,-0.55,-2.38
1936,118329787,0.9863,-0.1943,0.0620,27.26,-1.10,-1.52
1937,118334787,0.9800,-0.1987,0.0439,27.01,-1.71,-1.10
1938,118339787,0.9756,-0.2041,0.0303,26.65,-2.50,-0.67
1939,118344786,0.9668,-0.2026,0.0229,26.22,-3.54,-0.12
1940,118349786,0.9590,-0.2021,0.0068,25.49,-4.33,0.12
1941,118354787,0.9507,-0.2021,0.0000,24.57,-5.49,0.43
1942,118359787,0.9482,-0.2026,-0.0117,23.66,-6.22,0.67
1943,118364785,0.9482,-0.2046,-0.0171,22.26,-7.32,0.85
1944,118369789,0.9438,-0.2051,-0.0264,20.30,-8.60,0.98
1945,118374787,0.9419,-0.2026,-0.0337,18.66,-9.39,1.04
1946,118379787,0.9443,-0.2036,-0.0322,16.52,-10.61,1.16
1947,118384786,0.9414,-0.1929,-0.0376,14.21,-11.77,1.22
1948,118389787,0.9404,-0.1938,-0.0425,11.77,-12.68,1.16
1949,118394787,0.9395,-0.1904,-0.0356,9.15,-13.48,1.10
1950,118399787,0.9331,-0.1865,-0.0342,6.46,-14.39,0.85
1951,118404786,0.9341,-0.1797,-0.0337,3.78,-15.12,0.61
1952,118409788,0.9248,-0.1748,-0.0225,1.16,-15.61,0.43
1953,118414787,0.9258,-0.1680,-0.0220,-1.28,-15.98,0.12
1954,118419787,0.9243,-0.1631,-0.0122,-3.35,-16.28,-0.43
1955,118424787,0.9277,-0.1582,-0.0063,-5.06,-16.59,-0.73
1956,118429787,0.9214,-0.1494,0.0059,-6.40,-16.46,-1.22
1957,118434787,0.9253,-0.1489,0.0068,-7.26,-16.46,-1.71
1958,118439786,0.9219,-0.1401,0.0215,-7.68,-16.28,-2.32
1959,118444787,0.9185,-0.1284,0.0288,-7.80,-16.22,-2.87
1960,118449786,0.9180,-0.1211,0.0366,-7.38,-15.79,-3.41
1961,118454789,0.9219,-0.1113,0.0547,-6.89,-15.18,-3.96
1962,118459785,0.9238,-0.1089,0.0732,-6.16,-14.51,-4.57
1963,118464787,0.9316,-0.0991,0.0796,-5.18,-13.60,-5.24
1964,118469786,0.9331,-0.0894,0.1025,-4.27,-12.74,-5.73
1965,118474785,0.9463,-0.0845,0.1064,-3.11,-11.40,-6.34
1966,118479787,0.9551,-0.0776,0.1182,-2.07,-10.06,-6.71
1967,118484786,0.9731,-0.0762,0.1328,-0.91,-8.72,-7.07
1968,118489787,0.9893,-0.0762,0.1362,0.37,-7.07,-7.20
1969,118494787,1.0000,-0.0801,0.1479,1.77,-5.67,-7.32
1970,118499787,1.0176,-0.0737,0.1519,3.35,-3.78,-7.26
1971,118504788,1.0288,-0.0747,0.1587,4.94,-2.07,-7.26
1972,118509787,1.0391,-0.0796,0.1597,6.83,-0.30,-6.89
1973,118514787,1.0396,-0.0825,0.1606,9.09,1.52,-6.46
1974,118519787,1.0469,-0.0806,0.1567,11.65,3.23,-5.85
1975,118524787,1.0449,-0.0874,0.1548,14.39,4.76,-5.18
1976,118529785,1.0376,-0.0879,0.1479,17.32,6.34,-4.57
1977,118534787,1.0332,-0.0908,0.1411,20.37,7.87,-3.84
1978,118539786,1.0312,-0.0981,0.1367,23.54,9.21,-3.17
1979,118544787,1.0210,-0.1016,0.1304,26.65,10.37,-2.32
1980,118549786,1.0117,-0.1079,0.1133,29.70,11.40,-1.59
1981,118554790,1.0098,-0.1113,0.1021,32.56,12.13,-0.79
1982,118559786,1.0093,-0.1187,0.0952,35.00,12.80,-0.18
1983,118564785,1.0059,-0.1250,0.0845,37.26,13.29,0.67
1984,118569792,1.0059,-0.1289,0.0737,38.96,13.60,1.46
1985,118574790,0.9995,-0.1348,0.0630,40.30,13.78,2.13
1986,118579787,1.0044,-0.1426,0.0498,41.04,13.96,2.99
1987,118584787,0.9941,-0.1519,0.0361,41.34,13.78,3.60
1988,118589812,0.9946,-0.1504,0.0273,40.98,13.60,4.33
1989,118594787,0.9946,-0.1553,0.0166,39.94,13.17,5.12
1990,118599787,0.9888,-0.1597,0.0122,39.09,12.80,5.73
1991,118604787,0.9868,-0.1582,-0.0020,37.44,12.07,6.34
1992,118609787,0.9824,-0.1646,-0.0205,35.55,11.34,7.01
1993,118614786,0.9741,-0.1665,-0.0273,33.48,10.43,7.56
1994,118619787,0.9717,-0.1660,-0.0347,30.98,9.63,8.05
1995,118625290,0.9639,-0.1709,-0.0439,27.87,8.17,8.54
1996,118629787,0.9585,-0.1685,-0.0483,25.49,7.20,8.90
1997,118634787,0.9570,-0.1704,-0.0557,22.74,6.10,9.15
1998,118639787,0.9565,-0.1699,-0.0532,19.76,4.82,9.51
1999,118644786,0.9531,-0.1714,-0.0576,16.77,3.66,9.70
2000,118649787,0.9517,-0.1641,-0.0581,13.78,2.38,9.94
2001,118654787,0.9458,-0.1714,-0.0522,11.04,1.10,10.06
2002,118659787,0.9395,-0.1689,-0.0576,8.35,-0.24,10.18
2003,118664785,0.9346,-0.1636,-0.0518,5.61,-1.40,10.24
2004,118669785,0.9312,-0.1611,-0.0459,3.41,-2.62,10.24
2005,118674789,0.9209,-0.1577,-0.0518,1.28,-3.72,10.06
2006,118679786,0.9102,-0.1470,-0.0439,-0.67,-4.82,9.94
2007,118684787,0.9023,-0.1401,-0.0317,-2.38,-6.04,9.57
2008,118689786,0.8921,-0.1392,-0.0142,-4.02,-6.89,9.27
2009,118694787,0.8911,-0.1309,-0.0098,-5.43,-7.62,8.72
2010,118699786,0.8872,-0.1206,0.0010,-6.71,-8.23,8.35
2011,118704787,0.8911,-0.1196,0.0161,-7.80,-8.72,7.87
2012,118709786,0.8911,-0.1094,0.0259,-8.72,-9.09,7.44
2013,118714785,0.8970,-0.1001,0.0454,-9.63,-9.21,7.01
2014,118719787,0.9082,-0.0884,0.0586,-10.24,-9.27,6.71
2015,118724787,0.9204,-0.0806,0.0737,-10.55,-8.96,6.46
2016,118729787,0.9419,-0.0723,0.0786,-10.98,-8.72,6.34
2017,118734785,0.9565,-0.0654,0.0918,-10.91,-8.11,6.28
2018,118739787,0.9727,-0.0605,0.1074,-10.55,-7.56,6.34
2019,118744787,0.9951,-0.0610,0.1235,-10.06,-6.77,6.52
2020,118749787,1.0142,-0.0591,0.1367,-9.27,-5.79,7.01
2021,118754786,1.0347,-0.0586,0.1475,-8.17,-4.63,7.38
2022,118759787,1.0479,-0.0591,0.1548,-6.89,-3.48,8.05
2023,118764787,1.0615,-0.0596,0.1523,-5.24,-2.44,8.78
2024,118769788,1.0679,-0.0620,0.1592,-3.29,-1.16,9.57
2025,118774809,1.0767,-0.0649,0.1670,-1.28,0.12,10.43
2026,118779787,1.0806,-0.0684,0.1699,1.16,1.34,11.46
2027,118784787,1.0762,-0.0742,0.1753,3.84,2.62,12.50
2028,118789787,1.0762,-0.0791,0.1729,6.46,4.02,13.48
2029,118794786,1.0767,-0.0869,0.1753,9.27,5.24,14.45
2030,118799787,1.0708,-0.0967,0.1611,12.20,6.34,15.55
2031,118804786,1.0596,-0.1021,0.1636,14.76,7.50,16.52
2032,118809787,1.0518,-0.1108,0.1606,17.56,8.66,17.68
2033,118815025,1.0376,-0.1216,0.1504,20.00,9.76,18.72
2034,118819787,1.0332,-0.1270,0.1406,22.32,10.73,19.63
2035,118824787,1.0176,-0.1455,0.1396,24.33,11.65,20.67
2036,118829787,1.0117,-0.1519,0.1294,26.10,12.20,21.59
2037,118834785,0.9971,-0.1602,0.1182,27.44,12.99,22.32
2038,118839787,0.9800,-0.1709,0.1113,28.54,13.54,22.99
2039,118844787,0.9712,-0.1846,0.1099,29.21,14.09,23.66
2040,118849786,0.9570,-0.1953,0.1021,29.76,14.57,24.39
2041,118854787,0.9458,-0.2046,0.0859,29.94,14.94,24.88
2042,118859786,0.9360,-0.2100,0.0840,29.76,15.06,25.37
2043,118864787,0.9292,-0.2158,0.0781,29.33,15.06,25.73
2044,118869787,0.9141,-0.2285,0.0708,28.72,14.94,26.10
2045,118875113,0.9043,-0.2368,0.0674,27.74,14.70,26.28
2046,118879787,0.8955,-0.2422,0.0669,26.77,14.70,26.52
2047,118884787,0.8867,-0.2490,0.0688,25.30,14.33,26.65
2048,118889787,0.8687,-0.2520,0.0620,23.90,13.90,26.65
2049,118894786,0.8594,-0.2573,0.0674,22.38,13.54,26.83
2050,118899788,0.8442,-0.2568,0.0664,20.85,13.11,26.65
2051,118904786,0.8364,-0.2583,0.0664,19.27,12.68,26.52
2052,118909787,0.8232,-0.2593,0.0669,17.87,12.20,26.34
2053,118914787,0.8164,-0.2529,0.0767,16.46,11.71,26.10
2054,118919788,0.8086,-0.2476,0.0830,15.37,11.22,25.98
2055,118924790,0.8071,-0.2441,0.0923,14.45,10.67,25.85
2056,118929786,0.8110,-0.2393,0.1011,13.90,10.24,25.61
2057,118934787,0.8149,-0.2354,0.1074,13.29,9.63,25.43
2058,118939786,0.8193,-0.2280,0.1191,13.11,9.27,25.37
2059,118944787,0.8364,-0.2173,0.1304,13.17,8.60,25.43
2060,118949789,0.8438,-0.2114,0.1372,13.41,8.41,25.67
2061,118954788,0.8540,-0.2070,0.1440,13.96,7.93,25.79
2062,118959787,0.8652,-0.1973,0.1582,14.63,7.56,26.28
2063,118964787,0.8784,-0.1953,0.1709,15.61,6.95,26.83
2064,118969787,0.8931,-0.1943,0.1826,16.52,6.71,27.32
2065,118974787,0.9077,-0.1895,0.1914,17.44,6.10,28.17
2066,118979787,0.9155,-0.1821,0.2017,18.54,5.79,29.09
2067,118984787,0.9224,-0.1763,0.2095,19.33,5.43,30.18
2068,118989787,0.9209,-0.1792,0.2197,20.30,4.88,31.04
2069,118994787,0.9238,-0.1768,0.2231,20.91,4.57,32.01
2070,118999878,0.9326,-0.1782,0.2280,21.40,3.90,33.23
2071,119004787,0.9429,-0.1841,0.2373,21.52,3.54,34.39
2072,119009787,0.9448,-0.1870,0.2476,21.40,3.17,35.55
2073,119014787,0.9468,-0.1924,0.2471,20.85,2.74,36.83
2074,119019787,0.9380,-0.1914,0.2520,20.00,2.38,38.05
2075,119024865,0.9351,-0.1987,0.2578,19.15,1.89,39.27
2076,119029787,0.9297,-0.1992,0.2598,18.11,1.46,40.43
2077,119034787,0.9185,-0.2031,0.2607,17.13,0.85,41.52
2078,119039788,0.9116,-0.2100,0.2686,16.04,0.30,42.68
2079,119044787,0.8989,-0.2139,0.2695,15.00,-0.12,43.72
2080,119049787,0.8862,-0.2197,0.2725,14.15,-0.67,44.88
2081,119054787,0.8779,-0.2217,0.2754,13.48,-1.10,46.04
2082,119059787,0.8652,-0.2275,0.2725,12.93,-1.77,47.13
2083,119065051,0.8521,-0.2329,0.2788,12.74,-2.62,48.48
2084,119069787,0.8413,-0.2344,0.2676,12.68,-3.23,49.27
2085,119074787,0.8315,-0.2456,0.2734,12.87,-3.78,50.37
2086,119079787,0.8247,-0.2603,0.2744,13.17,-4.39,51.52
2087,119084787,0.8203,-0.2593,0.2754,13.60,-5.37,52.74
2088,119089787,0.8086,-0.2671,0.2827,14.02,-5.98,53.84
2089,119094787,0.7886,-0.2769,0.2866,14.70,-6.77,55.06
2090,119099787,0.7734,-0.2822,0.2861,15.30,-7.13,56.22
2091,119104787,0.7612,-0.2866,0.2866,16.34,-7.80,57.44
2092,119109787,0.7500,-0.2935,0.2881,17.26,-8.23,58.90
2093,119115294,0.7295,-0.3062,0.2988,19.15,-8.66,60.61
2094,119119788,0.7158,-0.3140,0.3008,20.73,-9.27,62.07
2095,119124790,0.7139,-0.3208,0.3047,22.93,-9.70,63.54
2096,119129787,0.7070,-0.3262,0.3096,24.94,-10.12,64.82
2097,119134786,0.6938,-0.3330,0.3091,27.80,-10.61,66.59
2098,119139789,0.6860,-0.3389,0.3081,30.91,-11.04,68.41
2099,119144786,0.6841,-0.3423,0.3184,34.33,-11.52,70.06
2100,119149790,0.6782,-0.3589,0.3174,37.99,-12.07,71.83
2101,119154788,0.6826,-0.3574,0.3140,41.59,-12.74,73.54
2102,119159787,0.6855,-0.3745,0.3311,45.18,-13.29,75.37
2103,119164791,0.6787,-0.3857,0.3325,48.41,-13.84,77.01
2104,119169786,0.6738,-0.3984,0.3340,51.28,-14.33,78.96
2105,119175216,0.6743,-0.4136,0.3438,54.45,-14.76,81.16
2106,119179787,0.6777,-0.4185,0.3418,56.22,-15.30,82.62
2107,119184787,0.6812,-0.4326,0.3442,58.35,-15.67,84.33
2108,119189787,0.6772,-0.4424,0.3462,60.06,-16.10,87.20
2109,119194789,0.6782,-0.4512,0.3506,61.52,-16.52,87.50
2110,119199785,0.6763,-0.4619,0.3540,62.74,-16.83,89.88
2111,119204789,0.6685,-0.4678,0.3584,63.72,-17.32,91.77
2112,119209785,0.6665,-0.4863,0.3521,64.51,-17.62,93.48
2113,119214792,0.6636,-0.4961,0.3516,65.18,-17.87,95.30
2114,119219785,0.6548,-0.5059,0.3540,65.79,-18.41,97.01
2115,119224789,0.6543,-0.5200,0.3584,66.28,-18.72,98.66
2116,119229785,0.6670,-0.5352,0.3594,66.89,-19.21,100.24
2117,119234786,0.6787,-0.5479,0.3579,67.44,-19.57,101.95
2118,119239785,0.6978,-0.5723,0.3604,68.05,-20.12,103.66
2119,119244785,0.7192,-0.5947,0.3643,68.66,-20.43,105.61
2120,119249785,0.7349,-0.6182,0.3726,69.21,-20.85,107.38
2121,119254785,0.7383,-0.6367,0.3745,69.51,-21.22,109.15
2122,119259787,0.7422,-0.6523,0.3740,70.30,-21.46,110.91
2123,119264787,0.7476,-0.6787,0.3730,71.16,-21.77,112.56
2124,119269787,0.7466,-0.6929,0.3765,71.89,-21.77,114.21
2125,119274785,0.7378,-0.7139,0.3765,73.23,-21.77,115.73
2126,119279787,0.7329,-0.7300,0.3721,74.70,-21.77,116.95
2127,119284786,0.7158,-0.7466,0.3716,76.34,-21.65,118.23
2128,119289787,0.7017,-0.7554,0.3579,78.29,-21.59,119.27
2129,119294787,0.6938,-0.7715,0.3716,80.55,-21.46,120.00
2130,119299787,0.6782,-0.7930,0.3647,82.93,-21.22,120.61
2131,119304787,0.6660,-0.8042,0.3501,85.43,-20.91,121.28
2132,119309788,0.6592,-0.8188,0.3628,87.93,-20.73,121.77
2133,119314789,0.6499,-0.8374,0.3579,90.55,-20.37,121.95
2134,119319786,0.6396,-0.8467,0.3481,92.99,-19.94,122.20
2135,119324787,0.6294,-0.8643,0.3506,95.37,-19.57,122.13
2136,119329787,0.6143,-0.8843,0.3481,97.56,-18.90,122.07
2137,119334786,0.6099,-0.8955,0.3589,99.45,-18.41,121.83
2138,119339787,0.6011,-0.9023,0.3481,101.28,-17.62,121.40
2139,119344786,0.5928,-0.9170,0.3511,102.56,-16.83,120.91
2140,119349785,0.5806,-0.9272,0.3486,103.78,-16.10,120.18
2141,119354789,0.5698,-0.9395,0.3442,104.88,-15.43,119.39
2142,119359787,0.5620,-0.9473,0.3423,105.85,-14.57,118.48
2143,119364787,0.5464,-0.9478,0.3389,106.65,-13.84,117.62
2144,119369788,0.5356,-0.9541,0.3359,107.44,-12.99,116.40
2145,119374785,0.5283,-0.9526,0.3447,108.29,-12.20,115.30
2146,119380242,0.5176,-0.9536,0.3389,109.21,-11.65,114.09
2147,119384786,0.5068,-0.9648,0.3433,110.12,-10.98,112.93
2148,119389785,0.5000,-0.9614,0.3335,111.04,-10.30,111.71
2149,119394786,0.4854,-0.9556,0.3345,111.83,-9.70,110.49
2150,119399787,0.4668,-0.9546,0.3281,112.56,-9.27,109.02
2151,119405134,0.4961,-1.0776,0.2935,112.93,-8.96,107.44
2152,119409787,0.5903,-1.0781,0.3032,112.74,-7.93,105.79
2153,119414787,0.5884,-1.2349,0.1807,112.68,-7.01,102.38
2154,119419787,0.7300,-1.3042,0.1279,112.38,-6.10,99.27
2155,119424785,0.7856,-1.2222,0.0757,111.89,-4.70,94.94
2156,119429787,0.6182,-1.1299,0.0439,109.82,-3.35,90.24
2157,119434787,0.5005,-1.0347,0.0723,106.52,-2.32,86.46
2158,119439787,0.5088,-0.9512,0.1118,102.50,-1.52,83.90
2159,119444785,0.5640,-0.8965,0.1079,98.78,-1.04,81.10
2160,119449786,0.5952,-0.8784,0.1050,95.43,-0.98,78.66
2161,119454787,0.5952,-0.8701,0.1162,92.13,-0.91,76.46
2162,119459786,0.5928,-0.8579,0.1235,89.09,-0.91,74.57
2163,119464787,0.6021,-0.8511,0.1460,86.10,-0.85,72.62
2164,119469787,0.6099,-0.8555,0.1909,83.84,-0.73,70.85
2165,119474787,0.5869,-0.8755,0.3018,82.32,-0.43,69.09
2166,119479786,0.5933,-0.8926,0.3076,81.52,-0.24,67.68
2167,119485223,0.5762,-0.9048,0.3726,82.44,-0.49,66.40
2168,119489787,0.5278,-0.9150,0.4360,83.66,-0.73,65.12
2169,119494786,0.4751,-0.9209,0.4805,85.61,-0.98,63.96
2170,119499787,0.4443,-0.9175,0.5244,87.32,-1.28,62.62
2171,119504787,0.4126,-0.9224,0.5869,88.78,-1.65,61.52
2172,119509786,0.3999,-0.9185,0.6201,89.76,-2.26,60.49
2173,119514787,0.4121,-0.9204,0.6348,90.43,-2.99,59.33
2174,119519787,0.4204,-0.9233,0.6313,90.98,-4.02,58.29
2175,119524787,0.4282,-0.9360,0.6265,91.34,-5.06,57.32
2176,119529786,0.4390,-0.9561,0.6113,91.28,-5.85,56.59
2177,119534845,0.4658,-0.9756,0.5713,90.73,-7.07,55.37
2178,119539787,0.4932,-0.9736,0.5562,89.51,-7.99,54.39
2179,119544787,0.5103,-0.9746,0.5303,88.35,-8.72,53.23
2180,119549787,0.5352,-0.9771,0.5068,86.34,-9.70,51.77
2181,119554785,0.5518,-0.9751,0.4907,83.78,-10.37,50.24
2182,119559787,0.5723,-0.9707,0.4873,80.73,-11.04,48.90
2183,119564787,0.5757,-0.9629,0.4839,77.32,-11.77,47.56
2184,119569787,0.5840,-0.9609,0.4883,73.66,-12.38,46.04
2185,119574786,0.5889,-0.9600,0.5063,69.88,-13.11,44.82
2186,119579787,0.5908,-0.9570,0.5205,66.52,-13.66,43.60
2187,119584786,0.5825,-0.9609,0.5317,63.48,-14.45,42.56
2188,119589785,0.5801,-0.9590,0.5444,61.22,-15.24,41.52
2189,119594786,0.5811,-0.9600,0.5620,59.57,-15.85,40.73
2190,119599787,0.5737,-0.9575,0.5659,58.72,-16.83,40.12
2191,119604787,0.5737,-0.9551,0.5723,58.54,-17.74,39.57
2192,119609787,0.5708,-0.9614,0.5737,58.84,-18.54,39.27
2193,119614786,0.5742,-0.9565,0.5732,59.51,-19.45,38.84
2194,119619787,0.5742,-0.9502,0.5586,60.61,-20.30,38.48
2195,119624786,0.5874,-0.9395,0.5552,61.59,-21.04,38.11
2196,119629789,0.5996,-0.9360,0.5474,62.26,-21.89,37.68
2197,119634787,0.6157,-0.9272,0.5410,62.68,-22.56,37.32
2198,119639786,0.6309,-0.9214,0.5293,62.93,-23.17,37.07
2199,119644788,0.6431,-0.9165,0.5225,62.38,-23.72,37.07
2200,119649786,0.6626,-0.9126,0.5161,61.40,-24.21,37.07
2201,119654785,0.6748,-0.9087,0.5127,60.18,-24.57,37.07
2202,119659787,0.6846,-0.9038,0.5186,58.66,-24.82,37.07
2203,119664786,0.6802,-0.9033,0.5059,57.01,-25.06,37.20
2204,119669785,0.6890,-0.9004,0.4976,55.43,-25.30,37.26
2205,119674787,0.6880,-0.8926,0.4858,53.60,-25.61,37.32
2206,119679855,0.6865,-0.8872,0.4707,51.77,-25.79,37.38
