# skilleye imu stream v1
# device=xiao_esp32c6 imu=mpu6050 addr=0x68
# rate_hz=200 accel_range_g=16 gyro_range_dps=2000 dlpf_hz=94
# units: accel in g, gyro in deg/s, t_us in microseconds since boot (monotonic)
# no shared clock with the camera -- tap the racket once before each take
# so both recordings share a spike to align on
seq,t_us,ax,ay,az,gx,gy,gz
0,169257147,-0.7827,-0.2603,-0.5000,4.63,1.16,-40.18
1,169261986,-0.7856,-0.2681,-0.4966,6.71,1.95,-41.10
2,169266984,-0.7778,-0.2725,-0.5020,9.09,3.05,-42.13
3,169271984,-0.7827,-0.2773,-0.5039,10.67,3.72,-42.80
4,169276984,-0.7827,-0.2881,-0.5059,12.44,4.76,-43.66
5,169281984,-0.7881,-0.2959,-0.5117,14.15,5.73,-44.33
6,169286983,-0.8018,-0.3032,-0.5098,15.79,6.71,-44.88
7,169291984,-0.8042,-0.3184,-0.5093,17.07,7.80,-45.43
8,169296982,-0.8062,-0.3271,-0.5166,18.35,8.90,-46.04
9,169302785,-0.8105,-0.3335,-0.5190,20.00,10.18,-46.40
10,169306984,-0.8066,-0.3389,-0.5254,21.16,10.98,-46.77
11,169312073,-0.8052,-0.3442,-0.5278,22.50,11.83,-47.13
12,169316982,-0.8052,-0.3535,-0.5278,24.21,12.80,-47.50
13,169321985,-0.8047,-0.3545,-0.5254,25.91,13.66,-47.87
14,169327012,-0.8091,-0.3569,-0.5293,27.93,14.51,-48.23
15,169331984,-0.8057,-0.3657,-0.5332,29.82,15.55,-48.60
16,169336984,-0.8066,-0.3691,-0.5342,31.65,16.34,-49.02
17,169341984,-0.8018,-0.3701,-0.5396,33.66,17.01,-49.51
18,169346984,-0.8008,-0.3730,-0.5366,35.67,17.74,-50.06
19,169351984,-0.7949,-0.3823,-0.5342,37.62,18.60,-50.61
20,169356984,-0.7988,-0.3823,-0.5405,39.39,19.09,-51.34
21,169361984,-0.7891,-0.3916,-0.5464,41.34,19.76,-51.95
22,169366984,-0.7939,-0.3970,-0.5483,42.93,20.00,-52.62
23,169371984,-0.7920,-0.4067,-0.5488,44.45,20.49,-53.29
24,169376984,-0.7886,-0.4170,-0.5557,45.73,20.67,-53.84
25,169381984,-0.7827,-0.4243,-0.5527,46.89,21.04,-54.45
26,169387374,-0.7817,-0.4277,-0.5601,48.17,21.10,-55.24
27,169391984,-0.7773,-0.4272,-0.5615,49.27,21.16,-55.73
28,169396984,-0.7754,-0.4351,-0.5640,50.61,21.28,-56.34
29,169401984,-0.7681,-0.4302,-0.5640,51.89,21.10,-57.01
30,169406984,-0.7563,-0.4307,-0.5659,53.66,21.22,-57.56
31,169411984,-0.7505,-0.4365,-0.5723,55.12,21.04,-58.29
32,169416984,-0.7441,-0.4380,-0.5713,56.77,21.04,-58.90
33,169421985,-0.7363,-0.4443,-0.5732,58.23,20.85,-59.70
34,169426984,-0.7344,-0.4463,-0.5698,59.45,20.79,-60.30
35,169431984,-0.7319,-0.4482,-0.5747,60.43,20.61,-61.10
36,169436984,-0.7251,-0.4512,-0.5811,61.16,20.43,-61.95
37,169441984,-0.7202,-0.4556,-0.5815,61.34,20.43,-62.62
38,169446984,-0.7207,-0.4546,-0.5713,61.46,20.30,-63.29
39,169451984,-0.7158,-0.4561,-0.5835,61.10,20.18,-64.21
40,169456982,-0.7173,-0.4604,-0.5825,60.24,20.00,-65.12
41,169462385,-0.7217,-0.4624,-0.5918,58.35,19.76,-66.40
42,169466984,-0.7222,-0.4658,-0.5845,56.83,19.70,-67.07
43,169472454,-0.7163,-0.4736,-0.5884,53.54,19.51,-68.35
44,169476984,-0.7188,-0.4810,-0.5908,51.04,19.45,-69.27
45,169481984,-0.7158,-0.4849,-0.5791,47.26,19.39,-70.30
46,169486984,-0.7139,-0.4854,-0.5825,43.17,19.27,-71.59
47,169491984,-0.7114,-0.4897,-0.5811,38.48,19.09,-72.80
48,169496984,-0.7095,-0.4946,-0.5703,33.72,19.27,-74.15
49,169501984,-0.7041,-0.5010,-0.5684,28.29,19.21,-75.37
50,169506984,-0.6968,-0.5093,-0.5698,22.87,19.02,-76.59
51,169511984,-0.6885,-0.5215,-0.5664,16.22,19.15,-78.05
52,169516984,-0.6802,-0.5273,-0.5625,12.01,19.02,-79.02
53,169521986,-0.6748,-0.5308,-0.5596,7.07,18.96,-80.12
54,169526984,-0.6694,-0.5303,-0.5605,2.56,18.90,-81.04
55,169531984,-0.6719,-0.5356,-0.5625,-1.22,18.90,-82.07
56,169536984,-0.6685,-0.5322,-0.5591,-4.39,18.72,-83.11
57,169541984,-0.6646,-0.5273,-0.5542,-6.89,18.66,-84.02
58,169546984,-0.6611,-0.5264,-0.5488,-8.84,18.54,-85.06
59,169551984,-0.6533,-0.5278,-0.5488,-10.24,18.29,-85.91
60,169556983,-0.6421,-0.5264,-0.5469,-11.10,17.99,-86.83
61,169561984,-0.6313,-0.5312,-0.5449,-11.71,17.80,-87.62
62,169566984,-0.6245,-0.5312,-0.5425,-12.01,17.50,-88.41
63,169571984,-0.6201,-0.5303,-0.5415,-12.32,17.20,-89.02
64,169576984,-0.6152,-0.5312,-0.5337,-12.50,16.95,-89.63
65,169581984,-0.6074,-0.5342,-0.5342,-12.80,16.65,-90.18
66,169586984,-0.6021,-0.5376,-0.5332,-12.99,16.22,-90.61
67,169591983,-0.6025,-0.5391,-0.5430,-13.48,16.16,-90.98
68,169596985,-0.6089,-0.5396,-0.5356,-14.09,15.98,-91.28
69,169602471,-0.6084,-0.5415,-0.5308,-15.18,15.91,-91.59
70,169606984,-0.6079,-0.5391,-0.5293,-15.98,15.79,-91.71
71,169611985,-0.6104,-0.5430,-0.5283,-17.07,15.85,-91.95
72,169616984,-0.6050,-0.5396,-0.5327,-18.23,15.98,-92.01
73,169621985,-0.6069,-0.5410,-0.5293,-19.51,16.10,-92.20
74,169626984,-0.6045,-0.5493,-0.5244,-20.61,16.10,-92.26
75,169631984,-0.6011,-0.5474,-0.5229,-21.46,16.40,-92.38
76,169636984,-0.6011,-0.5469,-0.5210,-22.38,16.52,-92.32
77,169641987,-0.6021,-0.5474,-0.5269,-22.99,17.07,-92.32
78,169646984,-0.6025,-0.5459,-0.5229,-23.48,17.20,-92.20
79,169651984,-0.5977,-0.5474,-0.5259,-23.78,17.50,-92.20
80,169657105,-0.5991,-0.5488,-0.5234,-23.96,17.80,-92.01
81,169661984,-0.6064,-0.5527,-0.5239,-23.90,18.17,-91.95
82,169666984,-0.5957,-0.5537,-0.5322,-23.90,18.23,-91.83
83,169671984,-0.5933,-0.5557,-0.5337,-23.90,18.35,-91.71
84,169676984,-0.5908,-0.5576,-0.5356,-23.84,18.35,-91.52
85,169682481,-0.5830,-0.5591,-0.5361,-23.90,18.35,-91.10
86,169686984,-0.5786,-0.5684,-0.5332,-24.09,18.41,-90.85
87,169691984,-0.5801,-0.5728,-0.5308,-24.45,18.41,-90.61
88,169696984,-0.5723,-0.5728,-0.5288,-24.94,18.41,-90.30
89,169701984,-0.5698,-0.5767,-0.5278,-25.43,18.41,-90.00
90,169706986,-0.5596,-0.5732,-0.5273,-26.04,18.29,-89.82
91,169711984,-0.5508,-0.5771,-0.5312,-26.59,18.11,-89.51
92,169716985,-0.5464,-0.5796,-0.5239,-27.07,18.11,-89.21
93,169722000,-0.5386,-0.5815,-0.5269,-27.32,17.93,-88.78
94,169726985,-0.5347,-0.5879,-0.5239,-27.01,17.62,-88.35
95,169731984,-0.5278,-0.5869,-0.5322,-26.28,17.44,-87.87
96,169736984,-0.5225,-0.5850,-0.5239,-25.30,17.20,-87.26
97,169741984,-0.5181,-0.5879,-0.5225,-23.72,16.89,-86.77
98,169746984,-0.5073,-0.5811,-0.5254,-21.95,16.83,-86.10
99,169751984,-0.5039,-0.5791,-0.5215,-19.88,16.16,-85.67
100,169756984,-0.4937,-0.5815,-0.5239,-17.01,15.79,-85.00
101,169761982,-0.4917,-0.5820,-0.5239,-15.06,15.67,-84.57
102,169766984,-0.4888,-0.5830,-0.5337,-12.07,15.00,-83.90
103,169771984,-0.4814,-0.5845,-0.5273,-9.39,14.70,-83.29
104,169776984,-0.4731,-0.5850,-0.5352,-6.77,14.21,-82.87
105,169781984,-0.4717,-0.5854,-0.5361,-4.70,13.78,-82.44
106,169786984,-0.4634,-0.5908,-0.5469,-1.65,13.17,-81.83
107,169791983,-0.4561,-0.5908,-0.5483,0.12,12.50,-81.40
108,169796984,-0.4565,-0.5996,-0.5508,2.68,11.71,-80.67
109,169801982,-0.4556,-0.6025,-0.5522,4.09,10.98,-80.18
110,169806984,-0.4561,-0.6133,-0.5537,5.49,10.30,-79.45
111,169811984,-0.4521,-0.6191,-0.5562,6.40,9.51,-78.78
112,169816984,-0.4443,-0.6211,-0.5571,6.89,8.78,-78.23
113,169821985,-0.4404,-0.6226,-0.5542,7.20,8.23,-77.80
114,169827478,-0.4297,-0.6245,-0.5557,7.01,7.68,-77.38
115,169832502,-0.4307,-0.6240,-0.5527,7.13,7.13,-77.01
116,169837100,-0.4272,-0.6201,-0.5493,6.95,6.89,-76.83
117,169841984,-0.4263,-0.6196,-0.5439,7.01,6.34,-76.65
118,169846984,-0.4263,-0.6187,-0.5493,7.13,5.85,-76.71
119,169851984,-0.4194,-0.6167,-0.5503,7.13,5.49,-76.77
120,169856984,-0.4165,-0.6167,-0.5503,7.26,5.12,-76.83
121,169862119,-0.4111,-0.6162,-0.5464,7.44,5.06,-77.07
122,169866984,-0.4106,-0.6187,-0.5425,7.50,4.51,-77.20
123,169871984,-0.4038,-0.6187,-0.5415,7.56,4.02,-77.32
124,169876984,-0.3970,-0.6240,-0.5435,7.56,3.72,-77.44
125,169881984,-0.3965,-0.6309,-0.5366,7.38,3.54,-77.56
126,169886984,-0.3901,-0.6309,-0.5420,7.13,3.23,-77.56
127,169891984,-0.3857,-0.6401,-0.5386,7.01,2.99,-77.44
128,169896982,-0.3853,-0.6479,-0.5308,6.95,2.62,-77.44
129,169901985,-0.3760,-0.6465,-0.5298,6.71,2.38,-77.32
130,169906984,-0.3711,-0.6484,-0.5322,6.71,2.26,-77.13
131,169911984,-0.3677,-0.6484,-0.5249,6.83,2.07,-77.07
132,169916984,-0.3662,-0.6489,-0.5322,7.26,1.65,-76.89
133,169921984,-0.3599,-0.6499,-0.5273,7.56,1.40,-76.83
134,169926982,-0.3540,-0.6479,-0.5244,8.05,1.34,-76.83
135,169931986,-0.3481,-0.6436,-0.5229,8.41,1.04,-76.77
136,169936984,-0.3403,-0.6382,-0.5210,9.02,0.85,-76.77
137,169941984,-0.3320,-0.6377,-0.5225,9.39,0.49,-76.83
138,169946984,-0.3306,-0.6387,-0.5161,9.70,0.37,-76.89
139,169951984,-0.3252,-0.6392,-0.5200,9.82,0.18,-76.89
140,169956984,-0.3193,-0.6401,-0.5156,9.70,-0.12,-76.95
141,169961984,-0.3140,-0.6392,-0.5156,9.33,-0.30,-76.89
142,169966984,-0.3062,-0.6357,-0.5151,8.84,-0.49,-76.89
143,169971984,-0.2993,-0.6367,-0.5088,8.23,-0.61,-76.89
144,169976984,-0.2969,-0.6362,-0.5093,7.38,-0.85,-76.77
145,169981984,-0.2920,-0.6362,-0.5093,6.59,-0.85,-76.59
146,169987244,-0.2832,-0.6396,-0.5098,5.61,-1.10,-76.34
147,169991984,-0.2754,-0.6401,-0.5073,4.57,-1.10,-76.22
148,169997460,-0.2729,-0.6450,-0.5103,3.29,-1.40,-75.85
149,170001984,-0.2700,-0.6465,-0.5132,2.26,-1.34,-75.37
150,170007433,-0.2646,-0.6499,-0.5068,1.04,-1.59,-74.88
151,170011984,-0.2651,-0.6484,-0.5083,-0.43,-1.77,-74.39
152,170016984,-0.2612,-0.6499,-0.5137,-1.71,-1.89,-73.84
153,170022007,-0.2583,-0.6553,-0.5122,-2.99,-2.07,-73.35
154,170026984,-0.2510,-0.6479,-0.5127,-4.33,-2.20,-72.68
155,170032342,-0.2412,-0.6460,-0.5093,-5.55,-2.56,-72.01
156,170036985,-0.2349,-0.6426,-0.5068,-6.71,-2.68,-71.46
157,170041984,-0.2314,-0.6411,-0.5083,-7.62,-2.99,-70.73
158,170046984,-0.2178,-0.6377,-0.5186,-8.48,-3.29,-70.18
159,170051984,-0.2144,-0.6318,-0.5156,-9.09,-3.60,-69.63
160,170056984,-0.2065,-0.6274,-0.5151,-9.45,-4.15,-68.96
161,170061984,-0.2046,-0.6274,-0.5103,-9.76,-4.51,-68.35
162,170066984,-0.1968,-0.6235,-0.5171,-9.76,-4.94,-67.80
163,170071984,-0.1934,-0.6221,-0.5142,-9.76,-5.30,-67.07
164,170076985,-0.1875,-0.6221,-0.5195,-9.63,-5.73,-66.46
165,170081984,-0.1797,-0.6216,-0.5181,-9.63,-6.10,-65.73
166,170086984,-0.1748,-0.6240,-0.5225,-9.70,-6.71,-65.00
167,170091984,-0.1670,-0.6206,-0.5225,-9.70,-7.01,-64.33
168,170096984,-0.1650,-0.6128,-0.5249,-9.57,-7.13,-63.72
169,170101986,-0.1582,-0.6191,-0.5220,-9.45,-7.62,-62.93
170,170106984,-0.1553,-0.6187,-0.5308,-9.21,-7.68,-62.26
171,170111984,-0.1514,-0.6118,-0.5361,-8.78,-7.93,-61.59
172,170116985,-0.1450,-0.6118,-0.5386,-8.29,-8.23,-60.79
173,170121984,-0.1372,-0.6113,-0.5356,-7.62,-8.60,-60.00
174,170126984,-0.1309,-0.6060,-0.5366,-6.59,-8.84,-59.33
175,170131984,-0.1274,-0.6025,-0.5435,-5.49,-9.09,-58.54
176,170136984,-0.1206,-0.6021,-0.5425,-4.33,-9.57,-57.62
177,170141984,-0.1143,-0.6030,-0.5361,-3.23,-9.82,-56.89
178,170146987,-0.1074,-0.6021,-0.5376,-2.01,-10.24,-56.04
179,170151984,-0.1011,-0.5986,-0.5430,-1.10,-10.55,-55.12
180,170156984,-0.0918,-0.5957,-0.5366,0.06,-10.91,-54.21
181,170161984,-0.0825,-0.5918,-0.5356,1.10,-11.04,-53.35
182,170166984,-0.0718,-0.5898,-0.5396,2.01,-11.40,-52.50
183,170171984,-0.0669,-0.5874,-0.5430,2.99,-11.89,-51.71
184,170176983,-0.0620,-0.5845,-0.5430,3.90,-12.07,-50.98
185,170182421,-0.0596,-0.5918,-0.5464,4.57,-12.50,-50.24
186,170186984,-0.0571,-0.5923,-0.5391,5.37,-12.62,-49.63
187,170191983,-0.0498,-0.5854,-0.5415,5.98,-12.99,-48.84
188,170196987,-0.0474,-0.5894,-0.5454,6.59,-13.17,-48.17
189,170201982,-0.0405,-0.5903,-0.5562,7.20,-13.17,-47.68
190,170206982,-0.0405,-0.5889,-0.5498,7.56,-13.23,-47.20
191,170211985,-0.0386,-0.5928,-0.5498,8.17,-13.48,-46.71
192,170216984,-0.0381,-0.6025,-0.5527,8.35,-13.60,-46.10
193,170221985,-0.0312,-0.6050,-0.5518,8.48,-13.84,-45.61
194,170226984,-0.0293,-0.6040,-0.5571,8.48,-13.72,-45.00
195,170231983,-0.0249,-0.6021,-0.5503,8.41,-13.96,-44.57
196,170236984,-0.0259,-0.6011,-0.5508,8.54,-14.09,-44.02
197,170241985,-0.0239,-0.6094,-0.5620,8.35,-14.09,-43.35
198,170246984,-0.0220,-0.6133,-0.5571,8.29,-14.15,-42.68
199,170251984,-0.0176,-0.6162,-0.5581,7.93,-14.15,-42.07
200,170256984,-0.0195,-0.6157,-0.5562,7.56,-14.39,-41.34
201,170261982,-0.0103,-0.6177,-0.5605,7.07,-14.51,-40.55
202,170267090,-0.0132,-0.6211,-0.5625,6.46,-14.76,-39.82
203,170271984,-0.0122,-0.6270,-0.5610,5.91,-14.88,-39.09
204,170276984,-0.0063,-0.6226,-0.5654,5.24,-15.18,-38.23
205,170281984,-0.0103,-0.6274,-0.5674,4.57,-15.55,-37.44
206,170286982,-0.0049,-0.6289,-0.5757,3.78,-15.61,-36.52
207,170291984,-0.0054,-0.6328,-0.5708,2.99,-16.04,-35.49
208,170296984,-0.0010,-0.6353,-0.5762,2.44,-16.34,-34.76
209,170301984,-0.0010,-0.6343,-0.5854,1.83,-16.65,-33.78
210,170307397,0.0049,-0.6348,-0.5791,1.46,-17.01,-32.93
211,170311984,0.0039,-0.6338,-0.5830,1.22,-17.44,-31.95
212,170316984,0.0054,-0.6411,-0.5801,1.04,-17.68,-31.04
213,170321984,0.0015,-0.6431,-0.5898,0.91,-17.99,-30.12
214,170326984,-0.0034,-0.6445,-0.5869,0.85,-18.29,-29.21
215,170331984,0.0024,-0.6426,-0.5879,0.73,-18.54,-28.48
216,170336984,0.0010,-0.6401,-0.5854,0.73,-18.66,-27.56
217,170342411,0.0020,-0.6411,-0.5806,0.73,-18.72,-26.77
218,170346984,0.0005,-0.6362,-0.5874,1.04,-18.60,-26.04
219,170351984,0.0010,-0.6367,-0.5791,1.52,-18.66,-25.24
220,170356984,-0.0024,-0.6357,-0.5879,2.26,-18.66,-24.45
221,170361984,-0.0020,-0.6348,-0.5903,3.11,-18.66,-23.84
222,170366984,-0.0015,-0.6357,-0.5938,3.96,-18.84,-23.23
223,170372482,-0.0059,-0.6343,-0.5938,4.94,-18.72,-22.68
224,170376984,-0.0073,-0.6328,-0.5977,6.04,-18.60,-22.01
225,170381984,-0.0039,-0.6343,-0.5986,7.01,-18.54,-21.59
226,170386984,-0.0103,-0.6367,-0.6040,8.05,-18.41,-21.10
227,170391984,-0.0073,-0.6309,-0.6035,8.96,-18.35,-20.79
228,170396984,-0.0083,-0.6328,-0.6006,10.00,-18.23,-20.37
229,170401984,-0.0020,-0.6357,-0.6104,10.98,-17.99,-20.00
230,170407408,-0.0015,-0.6294,-0.6094,11.83,-17.93,-19.57
231,170411984,-0.0068,-0.6294,-0.6143,12.80,-17.87,-19.21
232,170416984,-0.0083,-0.6323,-0.6006,13.72,-17.56,-18.96
233,170421984,-0.0073,-0.6279,-0.6011,14.45,-17.56,-18.66
234,170426984,-0.0044,-0.6294,-0.6016,15.18,-17.20,-18.23
235,170431984,-0.0059,-0.6318,-0.6050,15.55,-16.95,-17.99
236,170436984,-0.0103,-0.6304,-0.6030,15.85,-16.59,-17.50
237,170441984,-0.0112,-0.6328,-0.5947,15.98,-16.34,-17.20
238,170446985,-0.0137,-0.6318,-0.5977,15.91,-16.04,-16.77
239,170451984,-0.0098,-0.6270,-0.6011,15.67,-15.67,-16.52
240,170456984,-0.0107,-0.6245,-0.5991,15.18,-15.37,-16.16
241,170461984,-0.0039,-0.6255,-0.5991,14.57,-15.00,-15.85
242,170466984,-0.0054,-0.6226,-0.5972,13.72,-14.57,-15.61
243,170471984,-0.0029,-0.6240,-0.5942,12.80,-14.27,-15.37
244,170476984,0.0005,-0.6235,-0.5957,11.83,-13.84,-14.94
245,170481982,0.0010,-0.6304,-0.6040,10.67,-13.54,-14.63
246,170486984,0.0044,-0.6289,-0.6060,9.39,-13.29,-14.33
247,170491984,0.0083,-0.6328,-0.6055,7.99,-12.93,-13.90
248,170496983,0.0063,-0.6313,-0.5972,6.89,-12.62,-13.35
249,170501984,0.0127,-0.6323,-0.5972,5.43,-12.26,-13.05
250,170506982,0.0132,-0.6343,-0.6016,4.27,-12.20,-12.56
251,170511982,0.0210,-0.6353,-0.6011,2.99,-11.83,-11.95
252,170516982,0.0244,-0.6382,-0.6064,1.71,-11.59,-11.40
253,170522869,0.0259,-0.6396,-0.6021,0.24,-11.34,-10.67
254,170526984,0.0288,-0.6416,-0.6011,-0.49,-11.34,-10.30
255,170531984,0.0278,-0.6406,-0.6040,-1.52,-11.28,-9.70
256,170536984,0.0239,-0.6421,-0.6006,-2.20,-11.04,-9.15
257,170541984,0.0244,-0.6401,-0.5996,-2.74,-11.04,-8.48
258,170546985,0.0288,-0.6392,-0.6040,-2.93,-10.98,-7.99
259,170551984,0.0283,-0.6382,-0.6035,-2.80,-10.85,-7.38
260,170556984,0.0298,-0.6411,-0.5947,-2.68,-10.85,-6.95
261,170562297,0.0288,-0.6440,-0.6001,-2.38,-10.79,-6.46
262,170566984,0.0283,-0.6445,-0.6030,-2.20,-10.85,-5.91
263,170571984,0.0322,-0.6426,-0.6055,-1.83,-11.10,-5.43
264,170576984,0.0288,-0.6470,-0.6094,-1.59,-11.10,-4.94
265,170581984,0.0293,-0.6450,-0.6055,-1.10,-11.22,-4.57
266,170586984,0.0234,-0.6460,-0.6094,-0.73,-11.22,-4.15
267,170591984,0.0298,-0.6460,-0.6094,-0.49,-11.16,-3.78
268,170596984,0.0342,-0.6514,-0.6089,-0.12,-11.10,-3.48
269,170601984,0.0356,-0.6543,-0.6060,-0.06,-11.04,-3.17
270,170606985,0.0361,-0.6528,-0.6147,0.12,-10.85,-2.93
271,170612470,0.0347,-0.6514,-0.6074,0.18,-10.67,-2.68
272,170616984,0.0332,-0.6562,-0.6074,0.12,-10.49,-2.50
273,170621989,0.0366,-0.6528,-0.6055,0.12,-9.94,-2.26
274,170626986,0.0342,-0.6533,-0.5991,0.12,-9.39,-2.01
275,170631986,0.0361,-0.6587,-0.6035,-0.12,-8.96,-1.89
276,170636982,0.0347,-0.6606,-0.6030,-0.18,-8.60,-1.71
277,170641985,0.0337,-0.6621,-0.6006,-0.12,-7.93,-1.34
278,170646984,0.0386,-0.6626,-0.5957,-0.06,-7.26,-1.22
279,170651984,0.0400,-0.6631,-0.6030,0.18,-6.95,-1.10
280,170656984,0.0439,-0.6606,-0.6045,0.67,-6.34,-0.85
281,170661982,0.0459,-0.6558,-0.6021,1.16,-6.22,-0.55
282,170666984,0.0488,-0.6567,-0.6016,1.83,-5.98,-0.37
283,170671983,0.0518,-0.6577,-0.5996,2.56,-5.61,0.00
284,170676982,0.0562,-0.6577,-0.6060,3.29,-5.55,0.24
285,170681983,0.0552,-0.6572,-0.6011,3.84,-5.43,0.49
286,170686985,0.0552,-0.6621,-0.5986,4.51,-5.43,0.79
287,170691984,0.0601,-0.6587,-0.6006,5.06,-5.37,1.16
288,170696984,0.0649,-0.6592,-0.6079,5.55,-5.43,1.46
289,170701984,0.0684,-0.6558,-0.6016,5.85,-5.49,1.77
290,170706984,0.0698,-0.6572,-0.5986,5.91,-5.61,1.95
291,170712075,0.0635,-0.6597,-0.6001,5.91,-5.49,2.38
292,170716984,0.0635,-0.6616,-0.5918,5.67,-5.61,2.68
293,170721985,0.0566,-0.6606,-0.5962,5.12,-5.55,2.93
294,170726984,0.0586,-0.6606,-0.6030,4.70,-5.55,3.23
295,170732491,0.0601,-0.6660,-0.6060,3.78,-5.30,3.48
296,170736984,0.0581,-0.6680,-0.6021,2.87,-5.30,3.66
297,170741984,0.0527,-0.6694,-0.6045,1.77,-5.43,3.96
298,170746984,0.0498,-0.6714,-0.5981,0.43,-5.24,4.27
299,170751985,0.0464,-0.6772,-0.6011,-0.73,-5.18,4.45
300,170756984,0.0435,-0.6763,-0.6035,-2.32,-4.94,4.82
301,170761984,0.0454,-0.6782,-0.6025,-3.66,-4.94,5.00
302,170767449,0.0479,-0.6797,-0.6064,-5.00,-4.76,5.30
303,170771984,0.0449,-0.6836,-0.6060,-6.16,-4.63,5.61
304,170776984,0.0459,-0.6831,-0.6045,-7.07,-4.45,5.79
305,170781984,0.0420,-0.6846,-0.6050,-7.68,-4.33,5.85
306,170786984,0.0430,-0.6831,-0.6094,-8.11,-4.27,6.04
307,170791984,0.0435,-0.6836,-0.6021,-8.17,-4.21,6.28
308,170796982,0.0435,-0.6831,-0.6045,-8.23,-4.09,6.40
309,170801982,0.0415,-0.6812,-0.6055,-7.99,-3.90,6.59
310,170806984,0.0405,-0.6831,-0.6104,-7.56,-3.96,6.77
311,170811982,0.0439,-0.6816,-0.6089,-6.83,-3.96,6.83
312,170816982,0.0430,-0.6802,-0.6055,-6.28,-3.72,6.95
313,170822036,0.0391,-0.6855,-0.6089,-5.43,-3.72,6.95
314,170826994,0.0400,-0.6860,-0.6167,-4.57,-3.35,6.95
315,170831983,0.0352,-0.6890,-0.6108,-3.60,-3.23,7.07
316,170836984,0.0356,-0.6855,-0.6123,-2.56,-3.17,7.13
317,170842482,0.0352,-0.6895,-0.6167,-1.34,-3.29,7.01
318,170846984,0.0381,-0.6885,-0.6079,-0.49,-3.23,7.20
319,170851984,0.0396,-0.6875,-0.6123,0.55,-3.17,7.20
320,170856984,0.0361,-0.6953,-0.6182,1.34,-3.17,7.32
321,170861986,0.0366,-0.6938,-0.6177,2.07,-3.05,7.26
322,170866982,0.0347,-0.6943,-0.6157,2.68,-2.99,7.44
323,170871984,0.0356,-0.6987,-0.6162,3.05,-2.87,7.38
324,170876984,0.0308,-0.6963,-0.6172,3.35,-2.74,7.44
325,170881984,0.0278,-0.6948,-0.6172,3.48,-2.62,7.38
326,170886984,0.0337,-0.6982,-0.6118,3.78,-2.38,7.32
327,170891984,0.0337,-0.7056,-0.6157,3.78,-2.26,7.32
328,170896984,0.0254,-0.7070,-0.6172,3.72,-2.07,7.13
329,170901984,0.0283,-0.7051,-0.6138,3.60,-1.65,7.26
330,170906985,0.0273,-0.7065,-0.6128,3.54,-1.59,7.13
331,170911984,0.0337,-0.7061,-0.6167,3.41,-1.22,7.07
332,170917372,0.0283,-0.7041,-0.6094,3.23,-1.04,6.95
333,170922460,0.0283,-0.7070,-0.6123,3.23,-0.85,6.89
334,170926984,0.0273,-0.7104,-0.6113,3.11,-0.61,6.95
335,170931984,0.0283,-0.7109,-0.6084,3.05,-0.30,6.95
336,170936984,0.0293,-0.7119,-0.6050,3.11,-0.12,6.89
337,170941984,0.0273,-0.7109,-0.6045,2.93,0.06,6.89
338,170946984,0.0308,-0.7114,-0.6035,2.99,0.37,6.77
339,170951984,0.0269,-0.7134,-0.6016,2.99,0.61,6.71
340,170956986,0.0293,-0.7104,-0.6016,3.05,0.85,6.71
341,170961983,0.0283,-0.7109,-0.5967,3.11,1.04,6.83
342,170966984,0.0308,-0.7139,-0.5972,3.35,1.16,6.77
343,170971984,0.0312,-0.7085,-0.5967,3.54,1.46,6.77
344,170976984,0.0342,-0.7100,-0.5933,3.84,1.71,6.71
345,170981984,0.0356,-0.7124,-0.5928,4.21,1.77,6.83
346,170986984,0.0337,-0.7104,-0.5923,4.63,1.95,6.77
347,170991983,0.0332,-0.7085,-0.5894,5.06,2.01,6.71
348,170996984,0.0337,-0.7139,-0.5884,5.37,2.13,6.59
349,171001984,0.0347,-0.7129,-0.5879,5.79,2.26,6.65
350,171006986,0.0356,-0.7124,-0.5894,6.28,2.32,6.59
351,171011984,0.0391,-0.7124,-0.5825,6.71,2.50,6.52
352,171016984,0.0410,-0.7144,-0.5752,6.95,2.50,6.46
353,171021987,0.0396,-0.7173,-0.5752,7.20,2.56,6.46
354,171026984,0.0381,-0.7207,-0.5771,7.32,2.68,6.46
355,171031984,0.0347,-0.7173,-0.5771,7.56,2.50,6.22
356,171036984,0.0298,-0.7163,-0.5732,7.74,2.74,6.34
357,171041986,0.0312,-0.7168,-0.5742,7.80,2.80,6.28
358,171046984,0.0332,-0.7207,-0.5737,7.93,2.74,6.34
359,171051984,0.0342,-0.7217,-0.5718,7.80,2.80,6.22
360,171056984,0.0337,-0.7173,-0.5718,7.93,2.74,6.28
361,171061986,0.0337,-0.7178,-0.5703,7.87,2.80,6.10
362,171066984,0.0312,-0.7173,-0.5703,7.93,2.74,5.98
363,171071985,0.0303,-0.7144,-0.5698,8.05,2.74,5.91
364,171077723,0.0317,-0.7163,-0.5693,8.11,2.62,5.79
365,171081999,0.0322,-0.7153,-0.5718,8.29,2.56,5.67
366,171086982,0.0293,-0.7192,-0.5669,8.29,2.50,5.43
367,171091982,0.0273,-0.7183,-0.5649,8.41,2.44,5.30
368,171096982,0.0283,-0.7163,-0.5625,8.35,2.20,5.12
369,171101982,0.0283,-0.7168,-0.5630,8.41,2.07,5.12
370,171106982,0.0327,-0.7163,-0.5557,8.29,2.01,4.94
371,171111982,0.0303,-0.7197,-0.5596,8.23,1.77,4.76
372,171116985,0.0269,-0.7212,-0.5649,8.23,1.83,4.76
373,171121984,0.0288,-0.7222,-0.5654,8.11,1.52,4.57
374,171126984,0.0293,-0.7197,-0.5586,7.99,1.46,4.39
375,171131984,0.0278,-0.7212,-0.5566,7.87,1.28,4.21
376,171136984,0.0259,-0.7222,-0.5566,7.80,1.10,4.15
377,171141984,0.0259,-0.7202,-0.5562,7.68,0.79,3.96
378,171147452,0.0234,-0.7261,-0.5566,7.44,0.73,3.90
379,171151984,0.0181,-0.7241,-0.5635,7.32,0.43,3.72
380,171156984,0.0215,-0.7212,-0.5605,7.07,0.30,3.48
381,171162022,0.0205,-0.7261,-0.5610,6.89,0.12,3.23
382,171166984,0.0220,-0.7280,-0.5605,6.71,0.00,3.05
383,171171984,0.0156,-0.7290,-0.5674,6.52,-0.18,2.74
384,171176983,0.0220,-0.7305,-0.5596,6.22,-0.30,2.62
385,171181982,0.0195,-0.7295,-0.5625,6.04,-0.37,2.26
386,171187134,0.0210,-0.7285,-0.5684,5.67,-0.30,2.13
387,171191983,0.0166,-0.7290,-0.5664,5.49,-0.43,1.83
388,171196985,0.0210,-0.7310,-0.5605,5.37,-0.30,1.46
389,171201982,0.0161,-0.7319,-0.5571,5.24,-0.49,1.28
390,171206982,0.0220,-0.7319,-0.5605,5.30,-0.49,0.91
391,171211982,0.0220,-0.7310,-0.5562,5.30,-0.55,0.73
392,171216982,0.0229,-0.7344,-0.5605,5.24,-0.55,0.49
393,171222838,0.0166,-0.7300,-0.5601,5.24,-0.43,0.37
394,171226986,0.0220,-0.7334,-0.5635,5.37,-0.37,0.06
395,171232477,0.0195,-0.7319,-0.5640,5.43,-0.79,0.00
396,171236984,0.0171,-0.7324,-0.5601,5.43,-0.73,-0.12
397,171241984,0.0264,-0.7271,-0.5552,5.55,-0.85,-0.30
398,171246984,0.0234,-0.7285,-0.5640,5.67,-1.04,-0.43
399,171251984,0.0254,-0.7285,-0.5596,5.79,-1.40,-0.49
400,171256984,0.0298,-0.7280,-0.5620,5.85,-1.59,-0.55
401,171261984,0.0264,-0.7290,-0.5537,5.91,-1.83,-0.61
402,171266985,0.0278,-0.7266,-0.5537,5.98,-2.13,-0.55
403,171271984,0.0273,-0.7197,-0.5542,5.91,-2.32,-0.55
404,171276984,0.0278,-0.7266,-0.5571,5.98,-2.62,-0.61
405,171281984,0.0215,-0.7261,-0.5508,5.85,-2.93,-0.67
406,171286984,0.0259,-0.7212,-0.5532,5.79,-3.11,-0.67
407,171291984,0.0322,-0.7231,-0.5532,5.55,-3.41,-0.67
408,171296984,0.0298,-0.7236,-0.5562,5.37,-3.48,-0.85
409,171301982,0.0249,-0.7222,-0.5498,5.06,-3.66,-0.85
410,171306984,0.0259,-0.7251,-0.5596,4.76,-3.84,-0.85
411,171311984,0.0239,-0.7266,-0.5474,4.51,-3.96,-0.91
412,171316984,0.0244,-0.7241,-0.5522,4.27,-3.96,-1.10
413,171322136,0.0249,-0.7271,-0.5605,3.96,-4.15,-1.16
414,171326984,0.0254,-0.7241,-0.5542,3.90,-4.09,-1.22
415,171331984,0.0249,-0.7251,-0.5596,3.72,-4.15,-1.34
416,171336984,0.0273,-0.7271,-0.5586,3.72,-4.39,-1.52
417,171341984,0.0273,-0.7241,-0.5630,3.84,-4.39,-1.59
418,171346984,0.0259,-0.7285,-0.5664,3.90,-4.51,-1.77
419,171351984,0.0283,-0.7290,-0.5591,4.02,-4.70,-1.89
420,171356984,0.0259,-0.7217,-0.5640,4.15,-4.82,-2.07
421,171361984,0.0259,-0.7212,-0.5581,4.33,-4.82,-2.32
422,171366986,0.0249,-0.7241,-0.5635,4.33,-4.94,-2.50
423,171371983,0.0254,-0.7246,-0.5547,4.45,-5.18,-2.74
424,171376986,0.0278,-0.7222,-0.5586,4.45,-5.24,-2.87
425,171381984,0.0264,-0.7275,-0.5615,4.51,-5.49,-3.11
426,171386984,0.0278,-0.7246,-0.5601,4.57,-5.37,-3.29
427,171391984,0.0273,-0.7280,-0.5562,4.33,-5.49,-3.41
428,171396983,0.0269,-0.7256,-0.5645,4.15,-5.55,-3.48
429,171401989,0.0254,-0.7285,-0.5640,3.78,-5.61,-3.60
430,171406984,0.0317,-0.7241,-0.5674,3.35,-5.49,-3.72
431,171411985,0.0293,-0.7275,-0.5713,2.93,-5.67,-3.84
432,171416984,0.0298,-0.7251,-0.5703,2.62,-5.73,-3.90
433,171421984,0.0259,-0.7241,-0.5674,2.01,-5.73,-4.02
434,171426984,0.0288,-0.7246,-0.5679,1.46,-5.61,-4.21
435,171431984,0.0254,-0.7236,-0.5688,0.91,-5.73,-4.27
436,171436984,0.0269,-0.7202,-0.5693,0.24,-5.73,-4.33
437,171441984,0.0298,-0.7227,-0.5713,-0.30,-5.67,-4.45
438,171446985,0.0259,-0.7222,-0.5737,-0.79,-5.49,-4.57
439,171451984,0.0259,-0.7202,-0.5737,-1.16,-5.43,-4.51
440,171456984,0.0288,-0.7222,-0.5674,-1.77,-5.18,-4.82
441,171462387,0.0322,-0.7212,-0.5757,-2.13,-5.37,-4.94
442,171466984,0.0327,-0.7222,-0.5723,-2.20,-5.30,-4.94
443,171471986,0.0366,-0.7266,-0.5767,-2.50,-5.18,-4.94
444,171476984,0.0298,-0.7246,-0.5703,-2.74,-5.24,-4.82
445,171481984,0.0312,-0.7207,-0.5762,-2.74,-5.30,-4.94
446,171486984,0.0283,-0.7207,-0.5723,-2.87,-5.24,-5.12
447,171491983,0.0352,-0.7212,-0.5757,-2.93,-5.24,-5.12
448,171496982,0.0342,-0.7188,-0.5781,-2.93,-5.18,-5.12
449,171501982,0.0327,-0.7212,-0.5786,-2.74,-5.12,-5.18
450,171506982,0.0308,-0.7197,-0.5781,-2.74,-5.24,-5.18
451,171511986,0.0361,-0.7197,-0.5771,-2.74,-5.37,-5.37
452,171516984,0.0317,-0.7183,-0.5718,-2.62,-5.18,-5.43
453,171521984,0.0337,-0.7183,-0.5762,-2.68,-5.43,-5.43
454,171526984,0.0327,-0.7168,-0.5771,-2.62,-5.43,-5.49
455,171531984,0.0356,-0.7153,-0.5742,-2.87,-5.67,-5.49
456,171536984,0.0356,-0.7158,-0.5757,-2.99,-5.67,-5.55
457,171541984,0.0371,-0.7148,-0.5796,-3.17,-5.79,-5.61
458,171546985,0.0356,-0.7192,-0.5762,-3.60,-5.98,-5.67
459,171551984,0.0386,-0.7178,-0.5747,-3.96,-5.85,-5.61
460,171556984,0.0361,-0.7231,-0.5718,-4.45,-5.91,-5.67
461,171561985,0.0312,-0.7241,-0.5791,-4.76,-6.04,-5.61
462,171566984,0.0312,-0.7256,-0.5747,-5.30,-5.79,-5.67
463,171571985,0.0342,-0.7241,-0.5825,-5.79,-5.73,-5.67
464,171576984,0.0361,-0.7280,-0.5786,-6.04,-5.55,-5.67
465,171581984,0.0303,-0.7310,-0.5786,-6.22,-5.49,-5.73
466,171586984,0.0264,-0.7310,-0.5811,-6.40,-5.18,-5.85
467,171591984,0.0298,-0.7295,-0.5874,-6.34,-5.00,-5.73
468,171596984,0.0264,-0.7314,-0.5845,-6.22,-4.70,-5.79
469,171601984,0.0298,-0.7319,-0.5815,-5.98,-4.51,-5.85
470,171606984,0.0308,-0.7354,-0.5845,-5.67,-4.33,-5.73
471,171611984,0.0288,-0.7290,-0.5874,-5.12,-4.09,-5.79
472,171616987,0.0303,-0.7300,-0.5845,-4.63,-3.90,-5.85
473,171621989,0.0312,-0.7275,-0.5859,-3.78,-3.84,-5.98
474,171626986,0.0312,-0.7271,-0.5815,-2.99,-3.72,-6.04
475,171631984,0.0327,-0.7227,-0.5835,-2.13,-3.54,-6.16
476,171636987,0.0337,-0.7227,-0.5830,-1.16,-3.41,-6.22
477,171641984,0.0396,-0.7241,-0.5737,-0.24,-3.41,-6.34
478,171646982,0.0376,-0.7241,-0.5791,0.85,-3.29,-6.22
479,171651984,0.0400,-0.7207,-0.5757,1.71,-3.23,-6.40
480,171656984,0.0444,-0.7202,-0.5796,2.38,-3.17,-6.40
481,171661984,0.0405,-0.7197,-0.5732,3.11,-3.11,-6.46
482,171666983,0.0479,-0.7192,-0.5737,3.72,-3.11,-6.52
483,171671984,0.0449,-0.7212,-0.5708,4.45,-2.99,-6.52
484,171676984,0.0449,-0.7207,-0.5684,4.63,-3.23,-6.46
485,171681984,0.0449,-0.7183,-0.5669,4.88,-3.05,-6.59
486,171686983,0.0474,-0.7217,-0.5654,5.18,-3.05,-6.52
487,171691984,0.0498,-0.7241,-0.5693,5.30,-2.80,-6.28
488,171696984,0.0527,-0.7231,-0.5659,5.37,-2.74,-6.28
489,171701984,0.0503,-0.7256,-0.5698,5.37,-2.68,-6.34
490,171706984,0.0474,-0.7310,-0.5688,5.43,-2.50,-6.16
491,171711985,0.0513,-0.7344,-0.5674,5.55,-2.38,-6.16
492,171716984,0.0552,-0.7324,-0.5732,5.49,-2.26,-6.10
493,171721984,0.0566,-0.7310,-0.5664,5.61,-2.07,-5.98
494,171726984,0.0562,-0.7363,-0.5625,5.73,-1.83,-6.04
495,171731984,0.0620,-0.7402,-0.5610,5.98,-1.71,-5.98
496,171736985,0.0674,-0.7373,-0.5640,6.22,-1.59,-5.91
497,171741984,0.0674,-0.7397,-0.5610,6.34,-1.59,-6.04
498,171746984,0.0708,-0.7451,-0.5630,6.77,-1.52,-6.16
499,171752071,0.0752,-0.7446,-0.5669,7.01,-1.46,-6.16
500,171756984,0.0723,-0.7515,-0.5610,7.44,-1.34,-6.28
501,171761984,0.0757,-0.7515,-0.5659,7.68,-1.28,-6.40
502,171766984,0.0791,-0.7539,-0.5693,8.11,-1.28,-6.46
503,171772392,0.0815,-0.7598,-0.5620,8.48,-1.28,-6.59
504,171776984,0.0830,-0.7598,-0.5679,8.66,-1.04,-6.71
505,171781984,0.0806,-0.7676,-0.5630,9.02,-0.98,-6.89
506,171786984,0.0811,-0.7715,-0.5635,9.15,-0.73,-7.01
507,171791984,0.0801,-0.7725,-0.5605,9.21,-0.55,-7.32
508,171796982,0.0840,-0.7812,-0.5615,9.27,-0.18,-7.50
509,171801984,0.0869,-0.7886,-0.5630,9.21,0.12,-7.74
510,171806982,0.0830,-0.7930,-0.5605,9.27,0.43,-7.99
511,171811982,0.0825,-0.7944,-0.5605,9.39,0.85,-8.17
512,171816984,0.0835,-0.8047,-0.5635,9.45,1.28,-8.35
513,171821983,0.0806,-0.8071,-0.5605,9.70,1.83,-8.41
514,171826984,0.0815,-0.8115,-0.5596,10.12,2.26,-8.60
515,171832264,0.0791,-0.8203,-0.5522,10.61,2.62,-8.72
516,171837433,0.0830,-0.8281,-0.5596,11.65,3.29,-8.96
517,171841984,0.0859,-0.8252,-0.5591,12.32,3.72,-8.96
518,171846985,0.0918,-0.8276,-0.5601,13.41,4.33,-9.33
519,171851984,0.0879,-0.8271,-0.5596,14.82,4.88,-9.51
520,171856983,0.0879,-0.8325,-0.5688,16.40,5.37,-9.70
521,171861984,0.0869,-0.8384,-0.5625,18.17,6.04,-10.06
522,171866984,0.0830,-0.8374,-0.5649,19.94,6.89,-10.43
523,171871984,0.0854,-0.8403,-0.5625,22.01,7.20,-10.79
524,171876984,0.0898,-0.8398,-0.5586,24.15,7.93,-11.28
525,171881984,0.0952,-0.8442,-0.5625,26.52,8.41,-11.71
526,171886984,0.0933,-0.8472,-0.5679,28.96,9.15,-12.20
527,171891984,0.0938,-0.8506,-0.5659,31.52,9.82,-12.74
528,171896984,0.0928,-0.8501,-0.5674,34.21,10.55,-13.35
529,171901984,0.0981,-0.8496,-0.5596,36.95,11.10,-14.02
530,171906984,0.0991,-0.8540,-0.5601,39.63,11.95,-14.63
531,171911984,0.1011,-0.8545,-0.5620,42.13,12.68,-15.43
532,171916984,0.1025,-0.8628,-0.5596,44.70,13.41,-16.04
533,171921984,0.0977,-0.8652,-0.5566,46.89,14.27,-16.83
534,171926984,0.0947,-0.8765,-0.5654,49.15,15.18,-17.62
535,171931984,0.0908,-0.8813,-0.5562,51.04,16.04,-18.29
536,171936984,0.0889,-0.8901,-0.5552,52.68,17.07,-18.96
537,171941984,0.0889,-0.8994,-0.5610,54.02,18.17,-19.76
538,171946984,0.0889,-0.9121,-0.5620,55.24,19.21,-20.55
539,171951984,0.0825,-0.9189,-0.5645,56.34,20.24,-21.40
540,171956984,0.0864,-0.9292,-0.5679,57.20,21.22,-22.01
541,171961984,0.0854,-0.9375,-0.5674,58.23,22.44,-23.05
542,171966984,0.0884,-0.9390,-0.5742,59.33,23.41,-24.02
543,171971984,0.0938,-0.9448,-0.5752,60.61,24.27,-25.06
544,171976984,0.1011,-0.9541,-0.5728,62.38,25.18,-26.04
545,171981984,0.1040,-0.9570,-0.5742,64.33,26.10,-27.07
546,171987398,0.1094,-0.9580,-0.5728,66.71,27.01,-28.48
547,171991984,0.1060,-0.9614,-0.5752,68.60,27.50,-29.51
548,171996984,0.1104,-0.9683,-0.5747,71.16,28.29,-30.61
549,172001984,0.1104,-0.9761,-0.5698,73.60,29.09,-31.89
550,172006984,0.1074,-0.9824,-0.5659,76.22,29.76,-33.05
551,172011984,0.1055,-0.9912,-0.5610,78.78,30.55,-34.21
552,172017472,0.1006,-0.9941,-0.5498,82.01,31.28,-35.49
553,172021984,0.0942,-1.0000,-0.5464,83.96,31.95,-36.22
554,172026984,0.0894,-1.0015,-0.5371,86.77,32.80,-37.32
555,172031984,0.0908,-0.9990,-0.5298,89.39,33.48,-38.17
556,172036984,0.0884,-1.0015,-0.5220,92.20,34.27,-39.21
557,172041984,0.0854,-0.9932,-0.5176,95.00,34.88,-40.18
558,172046984,0.0835,-0.9917,-0.5093,97.68,35.55,-41.10
559,172051984,0.0894,-0.9844,-0.5005,101.34,36.34,-42.26
560,172056984,0.1011,-0.9761,-0.5039,104.39,36.83,-43.23
561,172061984,0.1152,-0.9683,-0.4980,107.01,37.01,-44.21
562,172066984,0.1294,-0.9546,-0.4922,110.18,37.20,-45.43
563,172071984,0.1440,-0.9463,-0.4888,113.35,37.07,-46.59
564,172076984,0.1577,-0.9395,-0.4849,116.28,36.77,-47.80
565,172081984,0.1670,-0.9390,-0.4736,118.72,36.10,-49.21
566,172086984,0.1816,-0.9409,-0.4653,120.49,35.49,-50.37
567,172091984,0.1895,-0.9385,-0.4580,121.65,34.57,-51.28
568,172096982,0.1968,-0.9395,-0.4438,122.13,33.78,-52.38
569,172101982,0.1982,-0.9434,-0.4287,122.13,32.87,-53.29
570,172106989,0.1997,-0.9355,-0.4204,121.65,32.07,-54.33
571,172111982,0.2021,-0.9336,-0.4121,120.73,31.04,-55.24
572,172116985,0.1997,-0.9272,-0.4004,119.33,30.00,-56.22
573,172121984,0.1895,-0.9238,-0.3926,117.74,29.27,-57.20
574,172126984,0.1821,-0.9175,-0.3760,115.67,28.35,-58.17
575,172131984,0.1831,-0.9126,-0.3677,113.41,27.44,-59.09
576,172136984,0.1724,-0.9014,-0.3652,111.16,26.77,-60.06
577,172141984,0.1699,-0.8945,-0.3584,108.66,25.85,-61.04
578,172146984,0.1641,-0.8804,-0.3467,105.24,24.82,-62.20
579,172151984,0.1650,-0.8740,-0.3394,102.99,24.09,-62.93
580,172156984,0.1694,-0.8638,-0.3267,99.82,23.11,-63.72
581,172162461,0.1782,-0.8555,-0.3125,95.85,21.77,-64.57
582,172166984,0.1802,-0.8394,-0.3071,93.11,20.98,-65.06
583,172171985,0.1899,-0.8267,-0.3140,89.70,19.63,-65.85
584,172176983,0.2090,-0.8159,-0.3071,86.40,18.05,-66.40
585,172181983,0.2266,-0.7998,-0.3062,82.87,16.34,-67.07
586,172186983,0.2388,-0.7891,-0.2949,79.15,14.82,-67.74
587,172191983,0.2544,-0.7803,-0.2949,75.43,12.74,-68.23
588,172197000,0.2935,-0.8364,-0.3599,71.28,10.55,-68.66
589,172201983,0.3311,-0.7949,-0.3345,66.34,8.48,-68.96
590,172206984,0.3613,-0.7539,-0.4517,61.40,6.83,-69.94
591,172211984,0.4482,-0.7764,-0.7217,55.61,4.02,-70.91
592,172217027,0.5479,-0.8052,-0.7690,48.48,1.46,-71.89
593,172221986,0.5791,-0.7852,-0.7129,40.61,0.00,-73.41
594,172226983,0.5176,-0.7578,-0.7358,32.99,-1.16,-75.67
595,172231984,0.4736,-0.7173,-0.7290,25.85,-2.80,-77.87
596,172236984,0.4561,-0.6890,-0.6167,18.60,-3.72,-80.06
597,172241984,0.4668,-0.6963,-0.5288,10.85,-3.96,-81.89
598,172246983,0.4399,-0.7310,-0.4746,2.62,-3.84,-83.29
599,172251984,0.3726,-0.7646,-0.4253,-5.79,-3.48,-83.96
600,172256984,0.2959,-0.7832,-0.3467,-15.30,-2.44,-84.39
601,172261984,0.2642,-0.8057,-0.2852,-21.10,-1.52,-84.33
602,172266984,0.2432,-0.8110,-0.2769,-27.38,-0.73,-84.33
603,172271984,0.2324,-0.8271,-0.2266,-33.29,0.49,-84.09
604,172276984,0.2192,-0.8384,-0.1650,-36.22,1.10,-83.72
605,172281984,0.1875,-0.8867,-0.0850,-38.78,2.56,-83.05
606,172286983,0.1606,-0.9097,-0.0649,-40.43,4.02,-82.20
607,172291984,0.2217,-0.8315,-0.0146,-40.24,4.88,-81.52
608,172296984,0.2329,-0.7383,-0.0737,-38.72,5.61,-81.16
609,172301984,0.2383,-0.6880,-0.1411,-35.98,5.30,-80.85
610,172306984,0.2290,-0.7236,-0.1748,-32.80,4.88,-80.55
611,172311983,0.2651,-0.7114,-0.2046,-29.63,4.51,-79.63
612,172316984,0.3228,-0.6978,-0.1909,-26.10,4.02,-78.78
613,172321984,0.3584,-0.6968,-0.2368,-22.13,3.66,-77.44
614,172326984,0.4009,-0.6934,-0.2515,-17.87,3.23,-75.98
615,172331984,0.4199,-0.6875,-0.2144,-13.05,2.74,-74.39
616,172336984,0.4263,-0.6909,-0.2163,-7.93,2.26,-72.68
617,172341984,0.4321,-0.6890,-0.2373,-2.50,1.77,-70.67
618,172346986,0.4233,-0.6743,-0.2344,2.80,1.22,-68.60
619,172351983,0.4321,-0.6646,-0.2178,7.74,0.67,-66.65
620,172356984,0.4302,-0.6450,-0.2178,12.20,-0.18,-64.70
621,172361982,0.4209,-0.6357,-0.2139,15.91,-0.61,-62.80
622,172366984,0.4019,-0.6260,-0.2021,18.96,-1.22,-60.79
623,172372176,0.3828,-0.6147,-0.1826,21.40,-1.83,-58.54
624,172376984,0.3843,-0.6079,-0.1758,22.32,-2.26,-57.07
625,172381984,0.3843,-0.5962,-0.1724,22.50,-2.87,-55.06
626,172386984,0.3862,-0.5933,-0.1572,22.26,-3.48,-53.23
627,172391983,0.3906,-0.5854,-0.1519,21.34,-3.90,-51.34
628,172396982,0.3950,-0.5806,-0.1509,19.82,-4.45,-49.45
629,172401982,0.3999,-0.5791,-0.1650,17.93,-5.00,-47.38
630,172406984,0.4062,-0.5776,-0.1548,15.85,-5.55,-45.24
631,172411984,0.4097,-0.5757,-0.1665,13.41,-6.22,-43.23
632,172417348,0.4102,-0.5693,-0.1616,10.91,-6.83,-40.55
633,172422029,0.4146,-0.5684,-0.1807,9.15,-7.32,-38.78
634,172426983,0.4146,-0.5718,-0.1855,7.26,-7.93,-36.59
635,172431984,0.4194,-0.5752,-0.1816,5.73,-8.60,-34.33
636,172436984,0.4229,-0.5786,-0.1943,4.39,-9.51,-32.20
637,172441984,0.4258,-0.5811,-0.1948,3.23,-9.94,-30.00
638,172446984,0.4272,-0.5825,-0.2031,2.32,-10.67,-27.44
639,172451984,0.4287,-0.5845,-0.2085,1.89,-11.22,-25.43
640,172456984,0.4302,-0.5815,-0.2119,1.83,-11.59,-23.90
641,172461987,0.4326,-0.5791,-0.2188,2.07,-12.20,-21.65
642,172466984,0.4380,-0.5698,-0.2197,2.32,-12.62,-20.12
643,172471984,0.4424,-0.5752,-0.2271,2.80,-13.17,-18.41
644,172476984,0.4448,-0.5688,-0.2329,3.23,-13.78,-16.77
645,172481984,0.4473,-0.5708,-0.2446,3.35,-14.57,-15.30
646,172487518,0.4517,-0.5708,-0.2520,3.48,-15.49,-13.23
647,172491984,0.4551,-0.5684,-0.2466,3.29,-16.16,-12.01
648,172496983,0.4619,-0.5703,-0.2534,2.99,-16.77,-10.55
649,172502456,0.4639,-0.5752,-0.2578,2.38,-17.80,-8.66
650,172506984,0.4648,-0.5811,-0.2661,1.77,-18.41,-7.56
651,172511984,0.4648,-0.5864,-0.2715,0.73,-19.27,-6.10
652,172516983,0.4663,-0.5977,-0.2769,-0.43,-19.88,-4.70
653,172521984,0.4688,-0.6074,-0.2798,-1.77,-20.43,-3.29
654,172526984,0.4736,-0.6133,-0.2905,-2.87,-20.73,-2.07
655,172531984,0.4771,-0.6196,-0.2910,-4.27,-21.16,-0.91
656,172536985,0.4805,-0.6353,-0.3115,-5.12,-21.34,0.24
657,172541983,0.4800,-0.6372,-0.3169,-6.40,-21.65,1.40
658,172546984,0.4888,-0.6362,-0.3101,-7.44,-21.77,2.38
659,172551984,0.4956,-0.6431,-0.3325,-8.78,-21.77,3.05
660,172556984,0.4941,-0.6494,-0.3442,-10.06,-21.71,3.96
661,172561984,0.4941,-0.6504,-0.3389,-11.89,-21.65,4.82
662,172566984,0.5073,-0.6548,-0.3560,-13.66,-21.28,5.55
663,172571984,0.5176,-0.6543,-0.3794,-15.55,-21.04,6.10
664,172576984,0.5215,-0.6641,-0.3882,-17.68,-20.67,6.59
665,172581984,0.5347,-0.6689,-0.3936,-20.00,-20.06,6.95
666,172586984,0.5386,-0.6753,-0.4038,-22.56,-19.63,7.26
667,172591984,0.5444,-0.6753,-0.4038,-25.43,-18.90,7.38
668,172596984,0.5493,-0.6904,-0.4341,-28.11,-18.11,7.56
669,172601985,0.5591,-0.6895,-0.4424,-31.28,-17.32,7.50
670,172606984,0.5669,-0.7070,-0.4590,-34.39,-16.46,7.38
671,172611984,0.5840,-0.7173,-0.4546,-37.62,-15.37,7.20
672,172616984,0.5850,-0.7153,-0.4644,-40.55,-14.09,6.95
673,172621984,0.5850,-0.7349,-0.5117,-42.99,-12.93,6.65
674,172626983,0.5854,-0.7319,-0.5259,-45.06,-11.65,6.10
675,172631984,0.5933,-0.7402,-0.5225,-46.46,-10.24,5.55
676,172636984,0.5986,-0.7637,-0.5444,-47.32,-8.60,5.06
677,172641984,0.5938,-0.7812,-0.5723,-47.87,-7.07,4.51
678,172646984,0.6060,-0.7979,-0.5776,-47.80,-5.55,4.02
679,172651984,0.6113,-0.8081,-0.5879,-47.26,-3.90,3.60
680,172656984,0.6206,-0.8218,-0.6162,-46.59,-2.07,3.29
681,172661984,0.6250,-0.8325,-0.6396,-45.55,-0.18,3.05
682,172666983,0.6265,-0.8511,-0.6357,-44.70,1.71,2.74
683,172671984,0.6299,-0.8613,-0.6504,-44.15,3.90,2.74
684,172676984,0.6304,-0.8721,-0.6616,-44.15,6.28,2.56
685,172681984,0.6416,-0.8696,-0.6665,-44.76,8.60,2.32
686,172686984,0.6392,-0.8760,-0.6768,-46.10,11.34,2.07
687,172691983,0.6372,-0.8823,-0.6846,-48.23,14.02,1.83
688,172696982,0.6387,-0.8735,-0.6909,-51.04,17.07,1.28
689,172701982,0.6357,-0.8745,-0.7002,-54.70,20.37,0.61
690,172706984,0.6426,-0.8594,-0.7051,-59.33,23.72,-0.18
691,172711982,0.6431,-0.8613,-0.7163,-64.51,27.44,-1.10
692,172716983,0.6323,-0.8457,-0.7168,-70.06,31.10,-2.01
693,172721984,0.6392,-0.8237,-0.7261,-76.10,35.00,-2.99
694,172726983,0.6416,-0.8242,-0.7246,-82.13,38.90,-4.02
695,172732432,0.6309,-0.8086,-0.7305,-89.15,43.90,-5.18
696,172736984,0.6274,-0.8091,-0.7324,-93.78,47.13,-5.85
697,172741984,0.6304,-0.7930,-0.7358,-98.84,51.40,-6.65
698,172746984,0.6372,-0.7900,-0.7383,-103.48,55.79,-7.26
699,172751984,0.6338,-0.7837,-0.7344,-107.07,60.00,-7.93
700,172756984,0.6172,-0.7627,-0.7207,-110.12,64.39,-8.11
701,172761984,0.6172,-0.7549,-0.7373,-112.62,68.66,-8.35
702,172767468,0.6235,-0.7368,-0.7334,-114.51,73.78,-8.35
703,172771984,0.6284,-0.7373,-0.7134,-115.12,77.13,-8.35
704,172776984,0.6089,-0.7222,-0.6973,-115.37,81.34,-7.99
705,172781984,0.5967,-0.7114,-0.6948,-115.12,85.79,-7.56
706,172786984,0.5884,-0.6914,-0.6768,-114.45,89.15,-7.01
707,172791983,0.6079,-0.6870,-0.6665,-113.17,93.17,-6.28
708,172796984,0.5933,-0.6826,-0.6450,-111.46,97.20,-5.49
709,172801984,0.5718,-0.6748,-0.6265,-109.33,101.22,-4.51
710,172806983,0.5557,-0.6660,-0.6045,-106.83,104.88,-3.54
711,172811984,0.5537,-0.6567,-0.5698,-104.15,108.48,-2.44
712,172816984,0.5532,-0.6494,-0.5557,-101.46,112.20,-1.34
713,172821984,0.5464,-0.6445,-0.5293,-98.54,115.67,-0.06
714,172826983,0.5342,-0.6387,-0.5039,-95.73,119.09,1.34
715,172831984,0.5205,-0.6348,-0.4805,-92.93,122.32,2.62
716,172836983,0.5171,-0.6289,-0.4473,-90.30,125.43,4.09
717,172842320,0.5098,-0.6250,-0.4121,-87.20,129.15,5.85
718,172846984,0.5044,-0.6187,-0.3931,-85.30,131.34,7.07
719,172851984,0.4927,-0.6104,-0.3599,-83.11,134.21,8.66
720,172856984,0.4824,-0.6152,-0.3291,-80.67,137.01,10.24
721,172861984,0.4785,-0.6099,-0.2979,-78.54,139.63,11.71
722,172866984,0.4658,-0.6064,-0.2695,-76.10,142.62,13.60
723,172871984,0.4624,-0.6094,-0.2402,-74.70,144.51,14.88
724,172876984,0.4404,-0.6025,-0.2153,-73.05,147.13,16.28
725,172881984,0.4443,-0.5977,-0.1826,-71.34,149.33,17.56
726,172886984,0.4448,-0.5991,-0.1592,-69.76,151.65,19.02
727,172891984,0.4385,-0.5952,-0.1182,-68.05,153.96,20.30
728,172896984,0.4258,-0.5884,-0.0884,-66.16,155.98,21.71
729,172901984,0.4106,-0.5923,-0.0625,-64.15,158.17,22.74
730,172906983,0.4077,-0.5942,-0.0366,-62.01,160.12,24.09
731,172911984,0.4067,-0.5938,-0.0059,-59.88,162.13,25.30
732,172916984,0.3945,-0.5908,0.0283,-57.38,164.02,26.34
733,172921984,0.3848,-0.5884,0.0518,-55.06,165.55,27.32
734,172926983,0.3779,-0.5903,0.0820,-52.56,167.07,28.48
735,172931984,0.3735,-0.5869,0.1074,-50.06,168.41,29.39
736,172936984,0.3691,-0.5825,0.1353,-47.01,170.00,30.49
737,172941984,0.3662,-0.5806,0.1504,-45.00,170.98,31.16
738,172947070,0.3467,-0.5757,0.1787,-41.95,172.26,32.20
739,172951984,0.3457,-0.5757,0.1875,-40.06,172.99,32.93
740,172956984,0.3354,-0.5747,0.2197,-37.13,174.02,33.96
741,172961984,0.3276,-0.5757,0.2354,-35.00,174.76,34.70
742,172966983,0.3169,-0.5737,0.2554,-33.29,175.43,35.55
743,172971984,0.3091,-0.5723,0.2778,-30.91,176.22,36.71
744,172976985,0.3042,-0.5713,0.2920,-29.09,176.71,37.56
745,172981984,0.2993,-0.5737,0.3169,-27.38,177.44,38.66
746,172986984,0.2964,-0.5732,0.3394,-26.10,177.87,39.33
747,172991982,0.2930,-0.5786,0.3608,-24.27,178.48,40.55
748,172996983,0.3003,-0.5786,0.3877,-22.80,179.09,41.65
749,173001982,0.3081,-0.5820,0.4082,-21.28,179.45,42.87
750,173006982,0.3008,-0.5811,0.4277,-19.88,180.00,44.09
751,173011982,0.2788,-0.5698,0.4458,-18.84,180.37,45.37
752,173016984,0.2661,-0.5635,0.4619,-17.56,180.73,46.71
753,173021984,0.2568,-0.5605,0.4810,-16.77,180.85,47.99
754,173026984,0.2476,-0.5562,0.4995,-16.04,180.98,49.15
755,173031983,0.2422,-0.5508,0.5166,-15.49,181.22,50.55
756,173036984,0.2446,-0.5459,0.5352,-15.00,181.04,51.83
757,173041982,0.2397,-0.5371,0.5449,-14.70,180.91,53.05
758,173046984,0.2402,-0.5293,0.5610,-14.39,180.73,55.43
759,173051984,0.2202,-0.5190,0.5859,-14.27,180.49,57.07
760,173056984,0.2085,-0.5308,0.6035,-13.96,180.37,58.78
761,173061984,0.2080,-0.5347,0.6367,-13.35,180.18,60.61
762,173066984,0.2090,-0.5430,0.6538,-12.32,179.88,62.62
763,173071984,0.2124,-0.5547,0.6738,-11.28,179.82,64.82
764,173076984,0.2114,-0.5654,0.6797,-9.70,179.57,67.13
765,173081985,0.2104,-0.5747,0.7012,-8.05,179.09,69.57
766,173087312,0.2026,-0.5635,0.7158,-6.46,178.41,72.20
767,173091984,0.1938,-0.5752,0.7432,-4.63,177.80,74.76
768,173097426,0.1738,-0.5781,0.7622,-2.99,176.95,77.38
769,173101984,0.1743,-0.5898,0.7778,-0.91,175.85,80.12
770,173106984,0.1514,-0.6006,0.7988,1.28,174.70,83.05
771,173111983,0.1523,-0.5747,0.8140,4.09,173.48,86.40
772,173116986,0.1514,-0.5732,0.8281,7.01,171.83,87.93
773,173121984,0.1357,-0.5698,0.8521,10.37,170.24,90.98
774,173126984,0.1362,-0.5889,0.8823,13.96,168.35,94.09
775,173131984,0.1519,-0.6035,0.8994,17.74,166.16,97.13
776,173137018,0.1548,-0.6245,0.9141,21.77,163.60,100.00
777,173142282,0.1445,-0.6323,0.9326,26.10,160.98,102.68
778,173146984,0.1421,-0.6353,0.9824,30.37,157.80,105.30
779,173151986,0.1177,-0.6406,0.9932,34.39,154.39,107.80
780,173156984,0.1074,-0.6509,0.9966,38.11,150.55,110.30
781,173161984,0.0942,-0.6660,1.0254,41.59,146.59,112.80
782,173166983,0.0566,-0.6445,1.0894,44.51,142.50,115.18
783,173171984,0.0303,-0.6641,1.1045,46.95,138.35,117.68
784,173176984,0.0503,-0.6724,1.1211,48.78,133.60,120.18
785,173181983,0.0664,-0.6855,1.1768,49.63,129.02,122.74
786,173186986,0.0557,-0.7046,1.2271,50.12,123.90,125.55
787,173191984,0.0679,-0.7188,1.2349,50.24,118.60,128.60
788,173196987,0.0615,-0.7266,1.2764,50.12,112.93,131.46
789,173202471,0.0454,-0.7314,1.3208,49.94,106.71,134.51
790,173206984,0.0474,-0.7344,1.3408,49.63,100.24,137.26
791,173211984,0.0366,-0.7495,1.3667,49.39,92.99,140.18
792,173216986,0.0488,-0.6953,1.3921,49.27,86.10,142.80
793,173221984,0.0444,-0.7837,1.4717,48.90,77.87,144.88
794,173226984,-0.0474,-0.8486,1.5161,48.35,69.51,147.68
795,173231984,-0.0298,-0.8223,1.5239,48.29,61.22,151.10
796,173237152,0.0024,-0.7900,1.5703,48.60,52.74,153.96
797,173241984,-0.0195,-0.8159,1.5957,49.39,43.90,156.65
798,173246984,-0.0259,-0.8169,1.6235,50.55,34.51,159.33
799,173251984,-0.0811,-0.8428,1.6616,51.34,24.94,162.01
800,173256984,-0.0820,-0.8691,1.7095,51.71,15.06,164.39
801,173261983,-0.0791,-0.8774,1.7778,52.56,4.82,166.59
802,173266984,-0.1343,-0.9067,1.7983,53.35,-5.73,168.35
803,173271983,-0.1963,-0.9360,1.8281,54.02,-16.59,170.12
804,173276984,-0.2021,-0.9370,1.8501,55.18,-28.17,171.95
805,173281984,-0.2207,-0.9727,1.8882,56.89,-40.12,173.54
806,173286984,-0.2432,-1.0195,1.9141,58.54,-52.32,175.24
807,173291983,-0.2505,-1.0547,1.9419,60.24,-64.63,177.01
808,173296984,-0.2764,-1.0903,1.9727,61.77,-77.38,179.02
809,173301983,-0.2969,-1.1167,1.9917,63.29,-90.18,180.91
810,173306982,-0.3198,-1.1396,2.0103,64.45,-103.29,182.99
811,173311983,-0.3418,-1.1768,2.0273,65.85,-116.46,185.06
812,173317581,-0.3735,-1.2168,2.0498,67.26,-129.57,187.13
813,173321985,-0.4146,-1.2603,2.0688,68.66,-142.68,189.51
814,173326984,-0.4575,-1.3022,2.0791,70.73,-155.67,191.65
815,173331984,-0.4902,-1.3335,2.0962,73.29,-168.90,193.78
816,173336983,-0.5757,-1.3853,2.0430,76.16,-184.70,194.94
817,173341984,-0.6396,-1.4062,2.1045,79.21,-195.73,196.52
818,173346984,-0.6714,-1.4785,2.1211,83.66,-208.60,198.05
819,173351984,-0.7393,-1.5371,2.0786,89.39,-221.71,199.57
820,173356984,-0.7637,-1.5791,2.0405,96.04,-235.24,200.91
821,173361984,-0.7910,-1.5972,2.0386,103.23,-248.35,201.89
822,173366984,-0.8911,-1.6147,2.0303,110.91,-261.28,202.44
823,173371984,-0.9165,-1.6255,2.0054,118.05,-273.96,202.87
824,173376984,-0.9663,-1.6396,1.9927,124.45,-286.40,202.87
825,173381984,-1.0327,-1.6860,1.9731,130.24,-298.11,202.93
826,173386984,-1.0947,-1.7412,1.9487,136.65,-309.51,202.99
827,173391984,-1.1270,-1.7739,1.8984,142.68,-320.85,203.17
828,173396984,-1.1685,-1.8267,1.8975,149.33,-331.59,203.60
829,173401984,-1.2681,-1.8643,1.8882,155.37,-342.01,204.27
830,173406985,-1.3003,-1.9082,1.8047,160.67,-351.95,205.00
831,173411984,-1.3276,-1.9395,1.7402,165.24,-361.65,205.98
832,173416986,-1.3613,-1.9805,1.7046,169.15,-370.98,206.89
833,173421984,-1.3916,-2.0288,1.6416,172.44,-380.12,207.99
834,173426984,-1.4199,-2.0610,1.5635,174.76,-388.78,209.15
835,173431984,-1.4478,-2.0781,1.5073,175.98,-397.07,210.18
836,173436984,-1.4697,-2.0952,1.4717,175.49,-404.76,210.79
837,173441984,-1.4673,-2.0947,1.3833,173.54,-411.65,210.79
838,173446983,-1.5254,-2.1230,1.3354,170.55,-417.99,210.18
839,173451984,-1.5903,-2.1294,1.2822,165.73,-423.90,209.39
840,173456984,-1.6079,-2.1528,1.2065,159.21,-429.45,207.62
841,173461984,-1.6074,-2.1787,1.1099,151.28,-434.15,205.30
842,173466984,-1.6177,-2.1914,1.0337,142.20,-438.54,202.13
843,173471984,-1.6299,-2.2021,0.9634,132.68,-442.26,198.41
844,173476988,-1.6235,-2.2100,0.8682,121.40,-445.12,193.90
845,173481984,-1.6162,-2.2202,0.7793,109.27,-447.50,188.41
846,173486983,-1.5957,-2.2222,0.6484,97.13,-448.90,182.07
847,173491984,-1.5928,-2.2266,0.5474,85.37,-450.12,174.88
848,173496984,-1.5786,-2.2256,0.4316,73.90,-450.24,166.65
849,173501984,-1.5767,-2.2202,0.3188,63.23,-449.63,157.68
850,173506989,-1.5229,-2.2188,0.2051,54.02,-448.17,147.87
851,173511984,-1.4976,-2.2227,0.0796,46.16,-444.94,136.95
852,173516984,-1.4888,-2.2344,-0.0479,40.18,-440.24,125.49
853,173522214,-1.4844,-2.2407,-0.1719,35.91,-434.33,113.48
854,173526984,-1.4580,-2.2427,-0.3105,33.29,-427.07,100.85
855,173531984,-1.4175,-2.2402,-0.4150,32.50,-418.90,87.26
856,173536984,-1.3667,-2.2222,-0.4985,32.87,-409.45,74.45
857,173541984,-1.3198,-2.2329,-0.5366,34.82,-399.33,60.91
858,173546984,-1.2930,-2.1934,-0.6323,37.74,-388.17,47.74
859,173551984,-1.2441,-2.1509,-0.7158,41.04,-376.40,34.57
860,173556984,-1.1943,-2.1064,-0.7441,44.15,-364.09,21.52
861,173561984,-1.1250,-2.0615,-0.8047,46.22,-350.98,8.60
862,173566984,-1.0684,-2.0225,-0.8687,47.68,-337.44,-4.15
863,173571984,-1.0122,-1.9883,-0.9062,48.05,-323.35,-16.52
864,173576984,-0.9556,-1.9385,-0.9199,47.99,-308.96,-28.48
865,173582471,-0.8677,-1.8848,-0.9653,47.50,-294.39,-40.00
866,173586985,-0.8027,-1.8218,-0.9878,46.46,-280.00,-51.04
867,173591983,-0.7437,-1.7603,-0.9722,45.18,-265.37,-61.46
868,173596982,-0.6914,-1.6880,-0.9639,43.41,-251.46,-71.16
869,173601982,-0.6255,-1.6133,-0.9570,41.34,-237.87,-80.30
870,173606982,-0.5903,-1.5474,-0.9478,39.27,-224.51,-88.72
871,173611985,-0.5430,-1.4785,-0.9229,37.20,-212.07,-96.59
872,173616983,-0.4980,-1.4106,-0.8989,35.30,-199.70,-103.60
873,173621984,-0.4414,-1.3447,-0.8716,33.84,-188.23,-110.12
874,173626982,-0.3877,-1.2812,-0.8325,32.68,-177.20,-115.67
875,173631982,-0.3438,-1.2197,-0.8037,31.89,-166.77,-120.61
876,173636984,-0.3042,-1.1616,-0.7861,31.83,-156.89,-124.63
877,173642074,-0.2642,-1.1040,-0.7607,32.38,-147.62,-128.23
878,173646982,-0.2158,-1.0503,-0.7324,33.72,-138.84,-130.79
879,173651984,-0.1904,-1.0005,-0.7119,35.98,-130.85,-133.17
880,173656984,-0.1206,-0.9429,-0.6875,38.54,-122.99,-134.82
881,173661984,-0.0674,-0.8921,-0.6685,41.34,-115.79,-135.91
882,173666984,-0.0430,-0.8462,-0.6406,43.78,-108.78,-136.59
883,173671984,-0.0244,-0.8032,-0.6162,46.04,-102.07,-136.77
884,173676984,-0.0264,-0.7764,-0.5742,48.23,-96.04,-136.34
885,173681983,0.0366,-0.7324,-0.5562,50.00,-90.18,-135.67
886,173686984,0.0859,-0.6978,-0.5479,51.10,-84.70,-134.51
887,173691984,0.0825,-0.6719,-0.5264,51.40,-79.63,-132.99
888,173696984,0.1226,-0.6333,-0.4907,51.22,-74.57,-131.04
889,173701984,0.1479,-0.6025,-0.4790,50.30,-70.06,-128.66
890,173706984,0.1523,-0.5723,-0.4897,49.02,-65.61,-125.91
891,173711985,0.2217,-0.5386,-0.4541,47.13,-61.77,-122.74
892,173716984,0.1919,-0.5166,-0.4414,44.94,-57.80,-119.39
893,173721983,0.2778,-0.4956,-0.3926,42.68,-54.09,-115.85
894,173726984,0.2983,-0.4932,-0.3745,39.76,-50.30,-112.07
895,173731984,0.2788,-0.4678,-0.4004,37.20,-46.83,-108.11
896,173737397,0.3477,-0.4272,-0.3818,34.27,-43.72,-104.09
897,173741984,0.3604,-0.4160,-0.3120,31.10,-40.43,-100.06
898,173746984,0.3384,-0.4004,-0.3628,28.17,-37.32,-95.79
899,173751984,0.4263,-0.3818,-0.3306,25.37,-34.57,-91.52
900,173756984,0.4253,-0.3984,-0.2690,22.07,-31.52,-87.32
901,173761984,0.4102,-0.3848,-0.2886,19.45,-28.41,-82.87
902,173767441,0.4844,-0.3706,-0.3027,16.83,-25.91,-78.60
903,173771984,0.4497,-0.3770,-0.2031,14.09,-23.23,-74.33
904,173776984,0.4868,-0.3555,-0.1714,11.65,-20.55,-69.70
905,173781984,0.5425,-0.3594,-0.2256,8.72,-18.48,-65.49
906,173786984,0.5098,-0.3594,-0.2168,5.98,-16.34,-61.22
907,173791984,0.5332,-0.3398,-0.1367,3.66,-14.15,-56.89
908,173796984,0.5664,-0.3379,-0.1382,1.10,-12.01,-52.80
909,173801984,0.5669,-0.3379,-0.1714,-1.77,-10.30,-48.72
910,173807446,0.5630,-0.3369,-0.1367,-4.27,-8.84,-44.82
911,173811984,0.5786,-0.3267,-0.0947,-6.89,-7.13,-41.04
912,173816984,0.5991,-0.3228,-0.1089,-9.21,-5.49,-37.38
913,173821984,0.6035,-0.3179,-0.1113,-11.52,-3.96,-33.96
914,173826982,0.6074,-0.3140,-0.0747,-13.48,-2.50,-30.49
915,173831984,0.6167,-0.3174,-0.0605,-15.24,-0.91,-27.44
916,173836985,0.6309,-0.3125,-0.0645,-16.95,0.61,-24.15
917,173841984,0.6479,-0.3140,-0.0630,-18.48,1.89,-21.16
918,173846984,0.6572,-0.3110,-0.0308,-19.57,3.17,-18.17
919,173851983,0.6665,-0.3247,-0.0239,-20.55,4.45,-15.37
920,173856984,0.6777,-0.3320,-0.0264,-21.59,5.73,-12.38
921,173861984,0.6855,-0.3325,-0.0083,-22.68,6.89,-9.45
922,173866984,0.6958,-0.3315,0.0146,-23.84,8.05,-6.59
923,173871984,0.7080,-0.3325,0.0127,-25.18,9.09,-3.90
924,173876986,0.7163,-0.3398,0.0308,-26.71,10.12,-1.22
925,173882439,0.7305,-0.3447,0.0493,-28.17,11.10,1.28
926,173886984,0.7422,-0.3457,0.0649,-30.00,11.95,3.66
927,173891984,0.7441,-0.3564,0.0742,-31.95,12.87,6.10
928,173896983,0.7461,-0.3628,0.0859,-33.96,13.66,8.29
929,173901982,0.7495,-0.3770,0.1074,-36.04,14.27,10.12
930,173906982,0.7661,-0.3877,0.1152,-37.93,14.82,12.32
931,173911982,0.7666,-0.3950,0.1191,-39.88,15.24,14.15
932,173916983,0.7744,-0.4082,0.1221,-41.65,15.67,16.28
933,173921984,0.7798,-0.4185,0.1245,-43.66,15.67,18.17
934,173926984,0.7759,-0.4365,0.1270,-45.55,15.61,20.12
935,173931984,0.7725,-0.4448,0.1313,-47.62,15.37,22.20
936,173936983,0.7695,-0.4609,0.1333,-49.63,15.06,24.15
937,173941984,0.7705,-0.4692,0.1372,-51.77,14.63,26.22
938,173946984,0.7720,-0.4844,0.1353,-53.90,14.21,28.11
939,173951984,0.7705,-0.4897,0.1411,-55.98,13.35,30.12
940,173956983,0.7627,-0.5005,0.1450,-58.05,12.80,31.89
941,173961984,0.7651,-0.5068,0.1484,-60.30,12.20,33.48
942,173966984,0.7578,-0.5063,0.1548,-62.50,11.34,34.94
943,173971984,0.7510,-0.5137,0.1519,-64.45,10.67,36.28
944,173976984,0.7456,-0.5244,0.1567,-66.46,9.88,37.38
945,173981984,0.7378,-0.5342,0.1494,-68.23,9.15,38.41
946,173986984,0.7339,-0.5454,0.1509,-70.06,8.23,39.45
947,173992142,0.7241,-0.5566,0.1479,-71.89,7.50,40.49
948,173996988,0.7119,-0.5635,0.1450,-73.72,6.83,41.34
949,174001989,0.6982,-0.5654,0.1377,-75.67,6.10,42.01
950,174006987,0.6895,-0.5791,0.1299,-77.74,5.43,42.74
951,174011982,0.6738,-0.5815,0.1274,-79.70,4.82,43.41
952,174016986,0.6553,-0.5884,0.1162,-81.71,4.21,44.09
953,174021985,0.6475,-0.5996,0.1094,-83.60,3.66,44.82
954,174026984,0.6392,-0.6089,0.1094,-85.49,2.99,45.24
955,174031984,0.6436,-0.6108,0.1001,-87.20,2.74,45.73
956,174036984,0.6440,-0.6182,0.1069,-88.96,2.44,46.10
957,174041984,0.6411,-0.6318,0.0962,-90.37,2.20,46.52
958,174046984,0.6328,-0.6455,0.0947,-91.77,2.26,46.71
959,174051984,0.6299,-0.6533,0.0859,-92.93,2.07,47.13
960,174056985,0.6191,-0.6646,0.0854,-93.90,2.07,47.32
961,174061988,0.6133,-0.6738,0.0796,-94.57,2.20,47.44
962,174066984,0.6128,-0.6807,0.0762,-95.06,2.26,47.68
963,174071984,0.6040,-0.6895,0.0708,-95.37,2.38,47.87
964,174076984,0.5894,-0.6895,0.0610,-95.37,2.56,48.05
965,174081984,0.5747,-0.6934,0.0596,-94.94,2.74,48.11
966,174086986,0.5620,-0.6987,0.0547,-94.39,2.87,48.11
967,174091984,0.5513,-0.6968,0.0508,-93.78,3.23,48.17
968,174096984,0.5396,-0.7056,0.0376,-93.35,3.29,48.23
969,174101986,0.5430,-0.7036,0.0171,-92.99,3.41,48.29
970,174106986,0.5581,-0.7168,0.0269,-92.44,3.66,48.35
971,174111984,0.5400,-0.6929,0.0171,-92.07,3.96,48.48
972,174116986,0.5283,-0.6914,0.0088,-91.46,4.27,48.48
973,174121985,0.5215,-0.7163,0.0249,-91.04,4.63,48.48
974,174126986,0.5220,-0.7358,0.0215,-90.49,5.12,48.60
975,174131984,0.5210,-0.7500,0.0327,-90.24,5.55,48.78
976,174136984,0.5215,-0.7573,0.0195,-89.94,6.16,49.21
977,174141984,0.5332,-0.7520,0.0215,-89.76,6.59,49.57
978,174146984,0.5234,-0.7725,0.0366,-89.57,7.20,50.12
979,174151984,0.5317,-0.7744,0.0298,-89.09,7.93,50.49
980,174156984,0.5127,-0.7812,0.0146,-88.78,8.54,50.79
981,174162031,0.4951,-0.7842,0.0171,-88.35,9.09,51.34
982,174166984,0.4717,-0.7910,0.0254,-88.29,10.00,51.77
983,174171984,0.4648,-0.7954,0.0186,-87.99,10.61,52.32
984,174176984,0.4585,-0.7959,0.0063,-87.87,11.04,52.80
985,174181984,0.4375,-0.8022,0.0142,-87.62,11.59,53.17
986,174186984,0.4297,-0.8540,0.0254,-87.93,12.38,53.60
987,174192341,0.4355,-0.8208,-0.0151,-89.09,13.17,54.02
988,174196989,0.4189,-0.8110,-0.0312,-90.98,13.54,54.21
989,174201982,0.3789,-0.7856,-0.0508,-92.99,14.15,54.21
990,174206984,0.3765,-0.7788,-0.0420,-95.00,14.94,54.15
991,174211983,0.3999,-0.7798,-0.0317,-97.13,15.73,53.96
992,174216982,0.4336,-0.7871,-0.0342,-99.02,16.59,53.96
993,174221984,0.4536,-0.7944,-0.0352,-101.04,17.26,53.90
994,174226984,0.4688,-0.8022,-0.0273,-102.99,18.05,53.84
995,174231984,0.4712,-0.8062,-0.0229,-105.18,18.96,53.96
996,174236984,0.4746,-0.8164,-0.0303,-107.50,19.51,54.21
997,174241984,0.4712,-0.8213,-0.0381,-110.06,20.06,54.63
998,174246984,0.4707,-0.8262,-0.0312,-112.68,20.85,54.88
999,174251983,0.4639,-0.8267,-0.0312,-115.61,21.28,55.61
1000,174256984,0.4624,-0.8247,-0.0386,-118.35,22.01,56.28
1001,174261984,0.4580,-0.8213,-0.0405,-121.34,22.68,57.07
1002,174266984,0.4575,-0.8198,-0.0430,-124.27,23.29,57.93
1003,174271984,0.4443,-0.8169,-0.0576,-127.07,23.90,58.72
1004,174276986,0.4268,-0.8145,-0.0605,-129.57,24.76,59.51
1005,174281984,0.4102,-0.8013,-0.0674,-131.59,25.30,60.43
1006,174286984,0.3931,-0.7949,-0.0688,-133.23,26.10,61.16
1007,174291983,0.3789,-0.7808,-0.0713,-134.33,26.71,61.95
1008,174296986,0.3643,-0.7676,-0.0771,-135.06,27.44,62.87
1009,174301983,0.3506,-0.7642,-0.0806,-135.37,27.93,63.66
1010,174306984,0.3384,-0.7578,-0.0933,-135.24,28.48,64.70
1011,174311984,0.3286,-0.7607,-0.1001,-135.06,29.09,65.67
1012,174317422,0.3184,-0.7510,-0.1079,-134.51,29.51,66.77
1013,174321984,0.3223,-0.7471,-0.1240,-133.60,29.94,68.05
1014,174326984,0.3159,-0.7432,-0.1313,-132.68,30.37,69.57
1015,174332298,0.3154,-0.7437,-0.1396,-131.46,30.61,71.10
1016,174336984,0.3159,-0.7412,-0.1401,-130.00,30.98,72.62
1017,174341984,0.3135,-0.7378,-0.1514,-128.48,31.40,74.39
1018,174346984,0.3071,-0.7383,-0.1548,-126.83,31.65,76.10
1019,174351984,0.3032,-0.7329,-0.1616,-125.30,32.01,77.99
1020,174356984,0.3101,-0.7324,-0.1665,-123.78,32.13,79.94
1021,174361984,0.3047,-0.7305,-0.1665,-122.50,32.50,81.95
1022,174366983,0.3052,-0.7349,-0.1812,-121.10,32.50,84.39
1023,174371984,0.2998,-0.7314,-0.1792,-119.94,32.93,86.77
1024,174376984,0.2920,-0.7261,-0.1846,-118.84,32.99,88.17
1025,174381984,0.2871,-0.7246,-0.1885,-117.93,33.17,90.43
1026,174386984,0.2778,-0.7178,-0.1938,-117.26,33.48,92.74
1027,174391984,0.2690,-0.7168,-0.1948,-116.83,33.66,94.88
1028,174396984,0.2603,-0.7095,-0.1997,-116.52,33.78,97.13
1029,174401984,0.2549,-0.7031,-0.1968,-116.46,33.96,99.21
1030,174407476,0.2441,-0.7012,-0.2056,-116.59,34.09,101.52
1031,174411984,0.2334,-0.7021,-0.2041,-117.01,34.09,103.84
1032,174416984,0.2261,-0.7002,-0.2056,-117.50,34.27,106.16
1033,174421984,0.2197,-0.7007,-0.2036,-118.48,34.33,108.35
1034,174426984,0.2061,-0.6953,-0.2119,-119.51,34.51,110.73
1035,174431984,0.1973,-0.6890,-0.2173,-120.91,34.57,113.66
1036,174436984,0.1885,-0.6880,-0.2095,-121.95,34.76,115.43
1037,174441984,0.1768,-0.6851,-0.2236,-123.48,34.45,117.87
1038,174446984,0.1646,-0.6807,-0.2236,-125.00,34.45,120.12
1039,174451984,0.1528,-0.6846,-0.2344,-126.59,34.39,122.50
1040,174457466,0.1475,-0.6899,-0.2314,-128.48,34.09,124.82
1041,174461984,0.1455,-0.7012,-0.2446,-130.67,33.60,127.38
1042,174466984,0.1436,-0.7178,-0.2544,-133.23,32.99,129.94
1043,174471984,0.1362,-0.7363,-0.2549,-136.10,32.13,132.74
1044,174476984,0.1309,-0.7495,-0.2588,-139.33,31.22,135.79
1045,174481984,0.1216,-0.7720,-0.2695,-142.93,30.00,138.90
1046,174486984,0.1182,-0.7847,-0.2749,-146.65,28.96,142.20
1047,174491984,0.1211,-0.8032,-0.2832,-150.30,27.80,145.49
1048,174496982,0.1128,-0.8164,-0.2900,-153.96,26.59,148.90
1049,174501982,0.1094,-0.8262,-0.2998,-157.01,25.12,152.32
1050,174506982,0.0991,-0.8364,-0.3091,-159.88,23.72,155.73
1051,174511982,0.0889,-0.8379,-0.3086,-162.26,22.44,158.96
1052,174516986,0.0752,-0.8433,-0.3179,-163.96,21.10,162.07
1053,174521984,0.0703,-0.8467,-0.3276,-165.12,20.00,165.24
1054,174526984,0.0527,-0.8403,-0.3364,-165.43,19.02,168.17
1055,174531984,0.0410,-0.8335,-0.3442,-165.06,17.74,170.73
1056,174536984,0.0225,-0.8325,-0.3496,-163.72,16.71,173.29
1057,174541984,0.0034,-0.8286,-0.3628,-161.77,15.73,175.61
1058,174546984,-0.0132,-0.8174,-0.3711,-159.02,14.70,177.74
1059,174551984,-0.0264,-0.8081,-0.3740,-155.85,13.84,179.70
1060,174556984,-0.0435,-0.7954,-0.3823,-152.13,13.17,181.46
1061,174561984,-0.0615,-0.7808,-0.3911,-148.05,12.26,183.05
1062,174566984,-0.0791,-0.7695,-0.4028,-143.78,11.65,184.51
1063,174571983,-0.0928,-0.7612,-0.4111,-139.21,10.98,185.91
1064,174576984,-0.0908,-0.7476,-0.4126,-134.76,10.30,187.26
1065,174581990,-0.0962,-0.7471,-0.4160,-130.18,9.51,188.54
1066,174587370,-0.0942,-0.7412,-0.4146,-126.16,8.84,189.88
1067,174591984,-0.1025,-0.7388,-0.4199,-122.32,8.11,191.22
1068,174596986,-0.1113,-0.7349,-0.4243,-118.90,7.20,192.74
1069,174601983,-0.1250,-0.7451,-0.4253,-116.04,6.28,194.39
1070,174606984,-0.1353,-0.7520,-0.4292,-113.41,5.30,195.85
1071,174611984,-0.1470,-0.7563,-0.4409,-111.34,4.21,197.62
1072,174616984,-0.1567,-0.7578,-0.4448,-109.33,3.29,199.33
1073,174621984,-0.1655,-0.7549,-0.4512,-107.50,2.38,201.04
1074,174626984,-0.1763,-0.7524,-0.4565,-105.30,1.46,202.87
1075,174631984,-0.1841,-0.7480,-0.4600,-102.99,0.55,204.33
1076,174636984,-0.1929,-0.7422,-0.4604,-100.30,-0.18,206.04
1077,174641984,-0.2061,-0.7388,-0.4678,-97.38,-1.10,207.50
1078,174646984,-0.2251,-0.7383,-0.4746,-94.15,-2.13,208.96
1079,174652467,-0.2437,-0.7471,-0.4795,-90.73,-3.05,210.61
1080,174656984,-0.2549,-0.7568,-0.4873,-87.44,-4.45,212.32
1081,174661986,-0.2695,-0.7700,-0.4922,-84.02,-5.61,214.21
1082,174666983,-0.2881,-0.7739,-0.5083,-80.85,-7.13,216.34
1083,174671984,-0.2979,-0.7803,-0.5117,-77.68,-8.48,218.54
1084,174676984,-0.3208,-0.7939,-0.5181,-74.51,-10.06,220.85
1085,174681984,-0.3315,-0.7988,-0.5195,-71.16,-11.77,223.23
1086,174686984,-0.3521,-0.8037,-0.5352,-67.62,-13.17,225.73
1087,174691986,-0.3667,-0.8091,-0.5488,-63.78,-14.63,227.93
1088,174696984,-0.3828,-0.8101,-0.5571,-59.45,-16.04,230.18
1089,174701984,-0.3994,-0.8149,-0.5654,-54.88,-17.38,232.26
1090,174707149,-0.4229,-0.8193,-0.5771,-49.76,-18.35,234.15
1091,174711984,-0.4438,-0.8154,-0.5786,-44.27,-19.39,236.10
1092,174716984,-0.4736,-0.8135,-0.5869,-38.48,-20.06,237.80
1093,174721984,-0.4985,-0.8179,-0.5957,-32.26,-20.55,239.45
1094,174726984,-0.5156,-0.8101,-0.6016,-25.67,-21.04,240.79
1095,174731984,-0.5308,-0.8071,-0.6099,-18.96,-21.40,242.01
1096,174736984,-0.5503,-0.7964,-0.6113,-11.89,-21.28,243.05
1097,174742418,-0.5649,-0.7900,-0.6108,-4.57,-21.28,243.90
1098,174746984,-0.5796,-0.7837,-0.6211,2.93,-21.22,244.45
1099,174751984,-0.5947,-0.7808,-0.6270,10.67,-20.98,245.00
1100,174757481,-0.6143,-0.7793,-0.6318,18.60,-20.43,245.43
1101,174761984,-0.6157,-0.7749,-0.6152,26.59,-19.63,245.67
1102,174766984,-0.6260,-0.7832,-0.6265,34.57,-18.78,245.73
1103,174771984,-0.6641,-0.7725,-0.6582,42.74,-17.87,245.67
1104,174776987,-0.7007,-0.7690,-0.6611,50.73,-16.77,245.37
1105,174781984,-0.7280,-0.7778,-0.6719,58.78,-15.55,245.00
1106,174786984,-0.7451,-0.7866,-0.6699,66.40,-14.21,244.70
1107,174791983,-0.7559,-0.7905,-0.6660,73.23,-12.87,244.51
1108,174796982,-0.7563,-0.7974,-0.6606,79.21,-11.46,244.21
1109,174801984,-0.7603,-0.8081,-0.6567,84.51,-9.94,244.02
1110,174806984,-0.7656,-0.8125,-0.6548,89.15,-8.23,243.66
1111,174811982,-0.7847,-0.8062,-0.6450,93.78,-6.71,243.35
1112,174816983,-0.7896,-0.8013,-0.6406,98.41,-4.94,242.93
1113,174821984,-0.7998,-0.8037,-0.6396,102.99,-3.11,242.50
1114,174826984,-0.8032,-0.7935,-0.6392,107.74,-1.22,241.89
1115,174831986,-0.8140,-0.7935,-0.6313,112.68,0.61,241.16
1116,174836985,-0.8208,-0.7915,-0.6338,117.93,2.80,240.18
1117,174841984,-0.8394,-0.7910,-0.6450,123.48,5.18,239.15
1118,174846984,-0.8638,-0.7886,-0.6416,128.29,7.50,238.11
1119,174852210,-0.8906,-0.7871,-0.6421,133.90,10.18,236.65
1120,174856984,-0.9097,-0.7979,-0.6445,138.72,12.99,235.06
1121,174861984,-0.9214,-0.7983,-0.6406,142.56,15.98,233.29
1122,174866984,-0.9268,-0.8076,-0.6328,145.61,18.78,231.46
1123,174871983,-0.9263,-0.8086,-0.6211,147.62,21.95,229.33
1124,174876984,-0.9326,-0.8115,-0.6172,149.15,24.94,227.07
1125,174881983,-0.9346,-0.8135,-0.6113,150.30,28.05,224.82
1126,174886984,-0.9390,-0.8101,-0.6084,150.98,30.79,222.38
1127,174891983,-0.9346,-0.8042,-0.5986,151.40,33.66,219.76
1128,174896988,-0.9326,-0.8101,-0.5840,151.59,36.22,217.07
1129,174901984,-0.9282,-0.8062,-0.5781,151.28,38.84,214.33
1130,174906986,-0.9229,-0.8032,-0.5708,150.79,41.28,211.34
1131,174911983,-0.9185,-0.7993,-0.5605,150.55,43.66,208.23
1132,174916984,-0.9097,-0.7944,-0.5532,150.49,45.98,205.12
1133,174921984,-0.9077,-0.7900,-0.5430,150.55,48.17,201.89
1134,174927353,-0.9038,-0.7861,-0.5415,150.85,50.37,198.54
1135,174931984,-0.9141,-0.7769,-0.5347,151.71,52.44,195.00
1136,174936984,-0.9238,-0.7725,-0.5347,152.50,54.45,191.59
1137,174942373,-0.9336,-0.7700,-0.5303,152.99,56.40,187.80
1138,174946984,-0.9385,-0.7734,-0.5181,152.74,57.99,184.15
1139,174951984,-0.9399,-0.7817,-0.5073,151.34,59.76,180.18
1140,174956983,-0.9253,-0.7856,-0.5015,148.72,61.34,176.40
1141,174961984,-0.9224,-0.7905,-0.4883,145.12,62.93,172.44
1142,174966984,-0.9219,-0.7964,-0.4814,140.85,64.15,168.54
1143,174971984,-0.9160,-0.8013,-0.4766,135.85,65.30,164.63
1144,174976985,-0.9175,-0.8013,-0.4634,131.22,66.34,160.73
1145,174981983,-0.9102,-0.8042,-0.4507,125.85,67.13,156.65
1146,174987176,-0.9062,-0.7964,-0.4526,120.18,67.87,152.74
1147,174991983,-0.8892,-0.8145,-0.4561,114.70,68.23,149.02
1148,174996984,-0.8770,-0.7876,-0.4141,109.21,68.66,145.06
1149,175001984,-0.8696,-0.7759,-0.4102,104.57,69.21,140.91
1150,175006984,-0.8721,-0.7749,-0.4219,100.55,69.33,136.89
1151,175011984,-0.8608,-0.7744,-0.4111,97.13,69.21,132.68
1152,175016984,-0.8467,-0.7646,-0.3970,94.39,69.09,128.72
1153,175022381,-0.8384,-0.7578,-0.3882,92.80,68.78,124.70
1154,175026984,-0.8291,-0.7524,-0.3950,91.71,68.17,120.98
1155,175031986,-0.8208,-0.7476,-0.3838,91.40,67.74,117.13
1156,175036984,-0.8120,-0.7437,-0.3740,91.52,67.07,113.48
1157,175041984,-0.8042,-0.7358,-0.3765,92.38,66.10,109.88
1158,175046984,-0.7954,-0.7300,-0.3716,93.60,65.06,106.34
1159,175051984,-0.7886,-0.7275,-0.3677,94.76,63.90,102.99
1160,175056984,-0.7788,-0.7241,-0.3550,96.16,62.80,99.57
1161,175061984,-0.7744,-0.7178,-0.3530,97.38,61.40,96.28
1162,175066984,-0.7656,-0.7144,-0.3442,98.78,60.00,92.74
1163,175071984,-0.7568,-0.7090,-0.3447,100.12,58.66,89.88
1164,175076983,-0.7490,-0.7017,-0.3345,101.46,57.50,86.65
1165,175081984,-0.7437,-0.7002,-0.3311,102.93,56.16,83.41
1166,175086984,-0.7358,-0.6914,-0.3286,104.39,54.76,80.49
1167,175091984,-0.7314,-0.6860,-0.3140,105.73,53.29,77.44
1168,175096983,-0.7227,-0.6763,-0.3101,106.95,52.01,74.63
1169,175101984,-0.7231,-0.6709,-0.3091,108.05,50.61,71.65
1170,175106984,-0.7173,-0.6636,-0.3022,109.02,49.27,69.02
1171,175111982,-0.7168,-0.6543,-0.2930,109.51,47.99,66.46
1172,175117260,-0.7173,-0.6479,-0.2891,109.70,46.46,63.90
1173,175121983,-0.7173,-0.6455,-0.2876,109.33,45.18,61.46
1174,175126984,-0.7202,-0.6450,-0.2842,108.11,43.54,58.96
1175,175131984,-0.7207,-0.6377,-0.2808,106.28,42.32,56.71
1176,175137271,-0.7212,-0.6396,-0.2798,103.60,40.79,54.33
1177,175141984,-0.7271,-0.6416,-0.2749,100.30,39.33,52.01
1178,175146985,-0.7256,-0.6455,-0.2725,96.22,37.87,49.88
1179,175151984,-0.7280,-0.6450,-0.2739,91.59,36.46,47.93
1180,175156984,-0.7305,-0.6431,-0.2788,86.40,35.00,45.73
1181,175161984,-0.7310,-0.6431,-0.2705,81.04,33.48,43.78
1182,175166984,-0.7290,-0.6392,-0.2646,75.24,32.26,41.89
1183,175171984,-0.7305,-0.6382,-0.2656,69.57,30.79,40.00
1184,175176984,-0.7280,-0.6372,-0.2666,63.90,29.45,37.99
1185,175181984,-0.7236,-0.6304,-0.2646,58.35,27.87,36.16
1186,175186983,-0.7251,-0.6255,-0.2603,53.05,26.59,34.27
1187,175191984,-0.7246,-0.6226,-0.2627,48.17,25.24,32.32
1188,175196987,-0.7158,-0.6206,-0.2612,43.60,23.96,30.43
1189,175201988,-0.7168,-0.6187,-0.2549,39.39,22.68,28.48
1190,175206984,-0.7144,-0.6143,-0.2554,35.61,21.28,26.71
1191,175211984,-0.7129,-0.6045,-0.2524,32.32,20.06,24.70
1192,175216983,-0.7080,-0.6040,-0.2490,29.51,18.84,22.87
1193,175221988,-0.7090,-0.5996,-0.2549,26.71,17.62,21.10
1194,175226984,-0.7070,-0.5977,-0.2544,24.39,16.22,19.15
1195,175231984,-0.7041,-0.5952,-0.2529,22.38,15.00,17.26
1196,175236984,-0.7026,-0.5942,-0.2573,20.49,13.72,15.49
1197,175241984,-0.7021,-0.5918,-0.2480,18.84,12.32,13.78
1198,175246984,-0.6987,-0.5928,-0.2544,17.20,10.85,12.13
1199,175251984,-0.6973,-0.5938,-0.2549,15.61,9.45,10.49
1200,175256984,-0.6997,-0.5962,-0.2544,14.15,8.23,8.96
1201,175261986,-0.6948,-0.5923,-0.2568,13.17,6.59,7.56
1202,175266984,-0.6973,-0.5913,-0.2617,12.07,5.30,6.22
1203,175271984,-0.6948,-0.5903,-0.2593,11.28,3.66,4.82
1204,175276984,-0.6953,-0.5908,-0.2690,10.49,2.32,3.54
1205,175281986,-0.7002,-0.5898,-0.2744,9.88,0.73,2.38
1206,175286983,-0.6982,-0.5879,-0.2690,9.51,-0.73,1.22
1207,175291984,-0.6914,-0.5864,-0.2690,9.33,-2.32,0.18
1208,175296984,-0.6904,-0.5796,-0.2686,9.15,-3.84,-1.10
1209,175301984,-0.6938,-0.5791,-0.2690,9.21,-5.06,-2.01
1210,175307365,-0.6914,-0.5742,-0.2686,9.51,-6.65,-3.11
1211,175311984,-0.6938,-0.5693,-0.2710,9.88,-8.05,-4.02
1212,175316984,-0.6953,-0.5669,-0.2705,10.30,-9.33,-5.06
1213,175321983,-0.6929,-0.5659,-0.2754,10.79,-10.55,-5.91
1214,175326984,-0.6885,-0.5630,-0.2729,11.28,-11.95,-6.77
1215,175331984,-0.6904,-0.5586,-0.2686,11.71,-13.29,-7.62
1216,175337436,-0.6895,-0.5625,-0.2720,12.13,-14.57,-8.29
1217,175341984,-0.6875,-0.5596,-0.2778,12.56,-15.73,-9.21
1218,175347443,-0.6919,-0.5601,-0.2754,12.80,-17.07,-9.82
1219,175351984,-0.6934,-0.5542,-0.2812,12.99,-18.29,-10.30
1220,175356984,-0.6934,-0.5537,-0.2808,13.17,-19.51,-10.91
1221,175361983,-0.6948,-0.5542,-0.2817,13.29,-20.61,-11.46
1222,175366982,-0.6963,-0.5537,-0.2930,12.93,-21.77,-11.95
1223,175371982,-0.6968,-0.5527,-0.2861,12.87,-23.17,-12.26
1224,175376982,-0.7002,-0.5522,-0.2900,12.62,-24.09,-12.68
1225,175381982,-0.7021,-0.5522,-0.2930,12.13,-25.24,-13.11
1226,175387747,-0.6997,-0.5503,-0.2944,11.71,-26.65,-13.29
1227,175391984,-0.6982,-0.5498,-0.2969,11.22,-27.56,-13.54
1228,175396984,-0.7017,-0.5430,-0.2949,10.73,-28.41,-13.72
1229,175401984,-0.7017,-0.5435,-0.2954,10.24,-29.45,-14.02
1230,175406984,-0.7080,-0.5400,-0.2998,9.51,-30.43,-14.27
1231,175411984,-0.7065,-0.5454,-0.2974,9.15,-31.34,-14.51
1232,175417200,-0.7095,-0.5430,-0.3086,8.66,-32.13,-14.70
1233,175421985,-0.7036,-0.5327,-0.3066,7.99,-32.87,-15.00
1234,175426983,-0.7119,-0.5356,-0.3096,7.56,-33.54,-15.12
1235,175431982,-0.7134,-0.5337,-0.3091,7.13,-34.33,-15.43
1236,175436984,-0.7148,-0.5332,-0.3076,6.77,-35.00,-15.79
1237,175441983,-0.7158,-0.5308,-0.3096,6.34,-35.61,-16.04
1238,175446982,-0.7173,-0.5283,-0.3115,5.91,-36.22,-16.28
1239,175451985,-0.7178,-0.5308,-0.3101,5.55,-36.65,-16.52
1240,175456984,-0.7148,-0.5308,-0.3164,4.88,-37.20,-16.77
1241,175461986,-0.7173,-0.5308,-0.3145,4.45,-37.68,-16.95
1242,175466984,-0.7158,-0.5312,-0.3208,3.90,-38.35,-17.13
1243,175471984,-0.7188,-0.5337,-0.3174,3.41,-38.84,-17.26
1244,175476984,-0.7173,-0.5312,-0.3218,3.05,-39.33,-17.44
1245,175481984,-0.7163,-0.5283,-0.3218,2.32,-39.63,-17.56
