# skilleye imu stream v1
# device=xiao_esp32c6 imu=mpu6050 addr=0x68
# rate_hz=200 accel_range_g=16 gyro_range_dps=2000 dlpf_hz=94
# units: accel in g, gyro in deg/s, t_us in microseconds since boot (monotonic)
# no shared clock with the camera -- tap the racket once before each take
# so both recordings share a spike to align on
seq,t_us,ax,ay,az,gx,gy,gz
0,294150094,0.8677,0.3955,0.4287,-2.20,-0.67,-1.16
1,294154793,0.8691,0.3965,0.4170,-2.32,-0.73,-1.22
2,294159787,0.8750,0.3979,0.4272,-2.56,-0.55,-1.16
3,294164786,0.8779,0.3970,0.4214,-2.80,-0.79,-1.22
4,294169787,0.8799,0.3960,0.4272,-2.99,-0.67,-1.28
5,294174786,0.8809,0.3984,0.4253,-3.05,-0.79,-1.40
6,294179787,0.8833,0.3960,0.4238,-3.23,-0.79,-1.34
7,294184786,0.8813,0.3999,0.4302,-3.29,-0.85,-1.46
8,294189788,0.8823,0.3975,0.4233,-3.23,-0.98,-1.46
9,294194787,0.8833,0.3945,0.4233,-3.17,-1.04,-1.65
10,294199789,0.8799,0.3965,0.4316,-3.05,-1.16,-1.77
11,294204786,0.8848,0.3984,0.4233,-2.99,-1.22,-1.83
12,294209787,0.8848,0.3999,0.4199,-2.87,-1.40,-1.89
13,294214787,0.8823,0.3989,0.4258,-2.68,-1.52,-1.95
14,294219787,0.8809,0.3975,0.4272,-2.50,-1.65,-1.95
15,294224785,0.8799,0.3940,0.4282,-2.38,-1.89,-2.13
16,294229785,0.8813,0.3950,0.4321,-2.32,-1.83,-2.26
17,294234786,0.8789,0.3940,0.4229,-2.32,-2.13,-2.13
18,294239787,0.8828,0.3984,0.4219,-2.20,-2.20,-2.32
19,294244786,0.8804,0.3965,0.4277,-2.20,-2.26,-2.26
20,294249785,0.8823,0.3984,0.4224,-2.20,-2.38,-2.32
21,294254788,0.8770,0.3921,0.4204,-2.26,-2.62,-2.38
22,294259787,0.8765,0.3926,0.4155,-2.26,-2.87,-2.26
23,294264786,0.8735,0.3936,0.4199,-2.13,-3.05,-2.32
24,294269787,0.8770,0.3950,0.4209,-2.13,-3.23,-2.38
25,294274786,0.8789,0.3994,0.4263,-2.13,-3.11,-2.32
26,294279787,0.8755,0.4004,0.4233,-2.07,-3.35,-2.13
27,294284785,0.8779,0.4028,0.4160,-1.83,-3.48,-2.13
28,294289787,0.8779,0.3965,0.4233,-1.77,-3.66,-2.13
29,294294787,0.8813,0.3999,0.4209,-1.65,-3.90,-2.01
30,294299787,0.8721,0.3970,0.4155,-1.71,-3.90,-1.89
31,294304786,0.8735,0.3970,0.4194,-1.65,-4.15,-1.83
32,294309787,0.8730,0.4009,0.4155,-1.71,-4.27,-1.59
33,294314786,0.8735,0.4019,0.4141,-1.52,-4.45,-1.65
34,294319787,0.8687,0.3970,0.4131,-1.83,-4.57,-1.40
35,294324786,0.8711,0.3945,0.4126,-1.83,-4.57,-1.28
36,294329787,0.8711,0.4023,0.4150,-1.83,-4.82,-1.16
37,294334786,0.8716,0.4043,0.4131,-1.95,-4.82,-1.10
38,294339788,0.8701,0.4043,0.4111,-1.89,-4.94,-1.04
39,294344887,0.8765,0.4028,0.4155,-1.77,-5.18,-0.91
40,294349786,0.8760,0.4009,0.4160,-1.65,-5.43,-0.79
41,294354788,0.8750,0.4009,0.4170,-1.40,-5.55,-0.61
42,294359786,0.8740,0.3965,0.4121,-1.22,-5.55,-0.55
43,294364788,0.8735,0.3975,0.4097,-0.73,-5.73,-0.37
44,294369786,0.8755,0.3979,0.4058,-0.49,-5.98,-0.30
45,294374786,0.8789,0.3931,0.4082,-0.18,-6.04,-0.18
46,294379787,0.8784,0.3960,0.4150,0.18,-6.16,-0.06
47,294384787,0.8804,0.3955,0.4131,0.43,-6.28,0.06
48,294389787,0.8784,0.3975,0.4131,0.73,-6.34,0.24
49,294394785,0.8774,0.3965,0.4150,0.85,-6.52,0.30
50,294399789,0.8799,0.4004,0.4121,0.91,-6.65,0.30
51,294404786,0.8828,0.4004,0.4165,1.10,-6.77,0.43
52,294409787,0.8823,0.3999,0.4175,1.16,-6.83,0.43
53,294414786,0.8857,0.3979,0.4170,1.28,-6.89,0.49
54,294419787,0.8882,0.3975,0.4185,1.22,-7.01,0.61
55,294424786,0.8901,0.3970,0.4180,1.16,-7.13,0.55
56,294429787,0.8882,0.3931,0.4229,1.10,-7.01,0.73
57,294434785,0.8857,0.3970,0.4238,0.98,-7.13,0.73
58,294439788,0.8882,0.3975,0.4258,0.85,-7.07,0.55
59,294444786,0.8911,0.3931,0.4287,0.55,-7.07,0.61
60,294449787,0.8896,0.3945,0.4375,0.30,-7.07,0.61
61,294454785,0.8926,0.3931,0.4316,-0.06,-7.07,0.61
62,294459789,0.8867,0.3892,0.4336,-0.55,-7.07,0.67
63,294464786,0.8853,0.3892,0.4404,-0.98,-7.01,0.55
64,294469787,0.8857,0.3906,0.4453,-1.40,-6.95,0.49
65,294474786,0.8848,0.3916,0.4473,-1.89,-6.89,0.37
66,294479787,0.8887,0.3906,0.4561,-2.32,-6.83,0.43
67,294484786,0.8887,0.3906,0.4609,-2.87,-6.71,0.30
68,294489787,0.8906,0.3892,0.4644,-3.29,-6.59,0.18
69,294494786,0.8916,0.3857,0.4727,-3.72,-6.46,0.06
70,294499787,0.8950,0.3809,0.4780,-4.39,-6.28,-0.12
71,294504786,0.8906,0.3857,0.4800,-5.06,-6.16,-0.24
72,294509787,0.8911,0.3838,0.4790,-5.98,-6.22,-0.37
73,294514786,0.8853,0.3809,0.4883,-6.95,-6.04,-0.55
74,294519787,0.8765,0.3794,0.4912,-8.23,-5.85,-0.79
75,294524785,0.8716,0.3784,0.4956,-9.63,-5.79,-0.85
76,294529787,0.8623,0.3755,0.4956,-11.16,-5.73,-1.10
77,294534786,0.8530,0.3711,0.5029,-12.99,-5.67,-1.16
78,294539787,0.8486,0.3721,0.5063,-14.82,-5.55,-1.28
79,294544786,0.8403,0.3657,0.5034,-16.52,-5.37,-1.52
80,294549785,0.8350,0.3599,0.5059,-18.35,-5.37,-1.65
81,294554785,0.8345,0.3550,0.5083,-20.12,-5.30,-1.77
82,294559785,0.8325,0.3545,0.5156,-21.89,-5.37,-1.89
83,294564789,0.8364,0.3555,0.5200,-23.29,-5.37,-2.07
84,294569786,0.8442,0.3584,0.5283,-24.88,-5.37,-2.38
85,294574787,0.8584,0.3584,0.5400,-26.22,-5.55,-2.56
86,294579786,0.8662,0.3633,0.5420,-27.38,-5.43,-2.93
87,294584787,0.8828,0.3696,0.5522,-28.29,-5.55,-3.41
88,294589786,0.8887,0.3760,0.5635,-29.21,-5.43,-3.96
89,294594786,0.8989,0.3828,0.5723,-30.12,-5.37,-4.70
90,294599789,0.9062,0.3906,0.5708,-30.98,-5.24,-5.49
91,294604786,0.9219,0.3965,0.5801,-31.71,-5.18,-6.40
92,294609787,0.9355,0.3979,0.5884,-32.50,-5.00,-7.44
93,294614786,0.9473,0.4009,0.5986,-33.23,-4.76,-8.48
94,294619787,0.9502,0.4053,0.6006,-33.96,-4.63,-9.57
95,294624787,0.9604,0.4155,0.6079,-34.76,-4.15,-10.67
96,294629787,0.9629,0.4185,0.6118,-35.49,-3.72,-11.83
97,294634785,0.9658,0.4253,0.6157,-35.98,-3.60,-13.11
98,294639785,0.9653,0.4277,0.6191,-36.52,-2.93,-14.39
99,294644789,0.9634,0.4326,0.6104,-37.01,-2.50,-15.55
100,294649786,0.9629,0.4302,0.6182,-37.20,-1.95,-16.83
101,294654785,0.9600,0.4341,0.6226,-37.26,-1.28,-18.05
102,294659789,0.9531,0.4380,0.6138,-37.01,-0.55,-19.21
103,294664787,0.9536,0.4404,0.6182,-36.46,0.18,-20.55
104,294669856,0.9438,0.4385,0.6128,-35.79,1.04,-21.71
105,294674937,0.9307,0.4399,0.6074,-34.70,1.77,-22.80
106,294679787,0.9209,0.4341,0.6074,-33.41,2.62,-24.02
107,294684786,0.9111,0.4312,0.6045,-32.07,3.60,-25.12
108,294689787,0.9038,0.4224,0.5947,-30.55,4.39,-26.16
109,294694786,0.8931,0.4229,0.5947,-28.84,5.55,-27.13
110,294699787,0.8867,0.4263,0.5796,-27.13,6.34,-28.17
111,294705106,0.8750,0.4341,0.5771,-25.37,7.26,-29.21
112,294709789,0.8691,0.4326,0.5708,-23.72,8.23,-30.12
113,294714786,0.8589,0.4351,0.5635,-21.83,9.27,-31.10
114,294719787,0.8486,0.4429,0.5591,-20.06,10.30,-31.89
115,294724787,0.8398,0.4531,0.5381,-18.05,11.16,-32.80
116,294729787,0.8306,0.4619,0.5278,-15.98,12.13,-33.84
117,294734786,0.8218,0.4639,0.5195,-14.09,12.99,-34.70
118,294739787,0.8140,0.4653,0.5190,-11.95,13.96,-35.67
119,294744787,0.8081,0.4697,0.5068,-10.00,14.88,-36.59
120,294749788,0.7979,0.4731,0.4966,-7.99,15.85,-37.56
121,294754785,0.7910,0.5132,0.4507,-5.98,16.71,-38.60
122,294759787,0.7939,0.5278,0.4282,-3.60,17.26,-39.82
123,294764787,0.7993,0.5029,0.4580,-1.34,17.56,-41.10
124,294769787,0.8096,0.4751,0.4629,0.06,18.05,-42.20
125,294774787,0.8096,0.4492,0.4761,1.34,18.72,-43.11
126,294779785,0.7979,0.4302,0.4824,2.07,19.63,-44.02
127,294784787,0.7744,0.4302,0.4790,2.68,20.24,-45.00
128,294789787,0.7559,0.4482,0.4531,3.29,21.16,-45.73
129,294794785,0.7412,0.4707,0.4434,3.60,21.83,-46.83
130,294799787,0.7334,0.4946,0.4385,3.96,22.68,-47.62
131,294804787,0.7300,0.5049,0.4453,4.39,23.48,-48.78
132,294809787,0.7305,0.5078,0.4443,4.63,24.27,-49.82
133,294814786,0.7314,0.5063,0.4434,4.76,25.00,-50.79
134,294819787,0.6982,0.4902,0.4531,4.76,25.91,-51.89
135,294824786,0.5928,0.4946,0.4683,3.96,27.26,-52.87
136,294829803,0.5576,0.5879,0.4302,2.07,28.17,-54.45
137,294834787,0.6831,0.6494,0.4263,1.16,29.09,-56.16
138,294839787,0.7563,0.6279,0.5010,1.52,30.18,-57.87
139,294844785,0.7725,0.5376,0.5430,2.44,31.77,-59.27
140,294849789,0.7695,0.4717,0.4976,2.26,32.87,-60.30
141,294854971,0.7910,0.4937,0.4810,1.89,33.96,-61.34
142,294859787,0.7837,0.5303,0.5327,1.77,35.30,-62.44
143,294864785,0.7588,0.5669,0.5122,2.13,36.59,-63.66
144,294869789,0.7393,0.6094,0.4629,2.56,37.62,-64.88
145,294874786,0.7300,0.6411,0.4741,2.99,38.72,-66.34
146,294879787,0.7202,0.6611,0.5000,3.60,39.76,-67.80
147,294884785,0.7231,0.6704,0.4766,4.02,40.73,-69.15
148,294889787,0.7349,0.6646,0.4565,4.39,41.59,-70.67
149,294894786,0.7446,0.6514,0.4541,4.76,42.38,-72.07
150,294899787,0.7773,0.6421,0.5049,6.46,43.48,-73.17
151,294904787,0.8105,0.7129,0.5337,8.72,44.57,-74.45
152,294909786,0.7617,0.7383,0.4795,11.28,45.67,-75.67
153,294914785,0.7266,0.7397,0.4272,13.60,46.34,-77.01
154,294919789,0.6826,0.7383,0.4194,15.73,47.01,-78.48
155,294924786,0.6489,0.7373,0.4170,17.20,47.68,-79.70
156,294929787,0.6455,0.7368,0.4077,18.11,48.23,-80.98
157,294934786,0.7109,0.7505,0.3931,18.23,48.66,-82.32
158,294939787,0.7227,0.7373,0.3926,17.62,49.21,-83.60
159,294944786,0.9058,0.7148,0.4009,16.71,49.39,-84.82
160,294949787,0.8013,0.6538,0.3926,16.34,49.70,-85.85
161,294954786,0.7456,0.6870,0.3667,16.04,49.76,-87.07
162,294959787,0.6675,0.8066,0.1851,16.46,48.78,-88.72
163,294964785,0.5957,0.6948,0.2988,17.13,46.71,-90.91
164,294969789,0.5479,0.6260,0.1978,17.13,44.45,-92.44
165,294974800,0.5000,0.6157,-0.0332,17.44,39.82,-94.27
166,294979787,0.4771,0.6216,-0.0757,18.41,32.07,-96.59
167,294984788,0.5078,0.4497,0.3589,18.48,25.12,-98.72
168,294989785,0.5723,0.3696,0.3560,16.28,19.88,-99.45
169,294994788,0.6250,0.3315,0.3369,12.56,15.73,-99.70
170,294999965,0.5933,0.3208,0.4019,8.11,13.05,-98.84
171,295004787,0.5273,0.3452,0.4141,4.21,10.55,-97.38
172,295009787,0.4951,0.4194,0.4053,0.61,7.56,-95.73
173,295014789,0.4956,0.4995,0.4312,-2.44,5.12,-94.57
174,295019789,0.4775,0.5635,0.5190,-5.24,4.15,-93.66
175,295024787,0.4609,0.6182,0.5576,-7.56,3.72,-93.17
176,295029785,0.4619,0.6602,0.4961,-9.88,3.60,-92.99
177,295035375,0.4536,0.6880,0.4673,-12.07,3.23,-92.80
178,295039788,0.4438,0.6904,0.4902,-14.33,2.99,-92.38
179,295044787,0.3340,0.4131,0.5610,-17.13,3.35,-90.12
180,295049786,0.3418,0.5513,0.3633,-20.12,3.05,-85.49
181,295055019,0.3311,0.6611,0.3872,-23.05,1.77,-81.34
182,295059787,0.2690,0.6270,0.4507,-25.43,0.43,-76.89
183,295064785,0.2534,0.6162,0.4204,-27.01,-1.34,-71.40
184,295069785,0.2632,0.6045,0.4199,-28.23,-3.35,-65.06
185,295074789,0.2583,0.6084,0.5146,-28.54,-5.12,-58.11
186,295079786,0.2700,0.6606,0.5620,-28.60,-6.34,-51.04
187,295084787,0.2871,0.7402,0.5913,-28.23,-6.65,-44.63
188,295089786,0.3193,0.8320,0.6260,-27.87,-6.52,-39.21
189,295095294,0.3477,0.8911,0.6660,-27.38,-5.91,-34.82
190,295099787,0.3901,0.9219,0.6807,-27.32,-4.39,-31.28
191,295104853,0.4302,0.9346,0.6733,-27.32,-3.05,-28.48
192,295109787,0.4707,0.9282,0.6753,-28.05,-1.83,-26.22
193,295114787,0.5127,0.9141,0.6802,-29.39,-0.79,-24.33
194,295119788,0.5576,0.8921,0.6738,-31.52,0.18,-22.99
195,295124787,0.5894,0.8921,0.6655,-34.45,0.61,-21.71
196,295129787,0.6094,0.9409,0.6450,-37.80,0.30,-21.34
197,295134788,0.6323,0.9219,0.6812,-41.59,0.00,-21.95
198,295139787,0.6499,0.8730,0.6899,-46.71,-0.49,-22.50
199,295144787,0.6440,0.8521,0.6802,-52.50,-1.40,-23.29
200,295149787,0.6299,0.7734,0.7129,-58.84,-2.07,-24.09
201,295154785,0.6069,0.7134,0.7383,-65.61,-3.11,-23.96
202,295159788,0.5591,0.6870,0.7344,-72.56,-3.96,-23.54
203,295164789,0.5220,0.6865,0.7246,-78.96,-5.06,-22.56
204,295169785,0.4912,0.7021,0.7231,-83.90,-5.98,-21.89
205,295174785,0.4756,0.7334,0.7373,-89.39,-7.07,-21.10
206,295179789,0.4907,0.7002,0.7441,-95.37,-8.17,-20.85
207,295184787,0.5103,0.6523,0.7305,-99.33,-9.33,-20.18
208,295189785,0.5156,0.6748,0.7354,-103.72,-10.37,-19.09
209,295195035,0.5112,0.6968,0.7334,-108.66,-11.65,-17.93
210,295199788,0.5103,0.6978,0.7368,-111.65,-12.74,-17.38
211,295204785,0.5103,0.7007,0.7368,-115.91,-14.02,-16.46
212,295209787,0.5161,0.6978,0.7446,-118.41,-15.24,-15.91
213,295214788,0.5254,0.6914,0.7490,-121.52,-16.65,-15.24
214,295219787,0.5361,0.6860,0.7505,-124.63,-17.93,-14.63
215,295224787,0.5396,0.6738,0.7603,-127.38,-19.70,-14.02
216,295229787,0.5317,0.6670,0.7778,-130.18,-21.16,-13.60
217,295234787,0.5347,0.6641,0.7881,-132.80,-22.56,-13.17
218,295239787,0.5293,0.6680,0.7939,-135.06,-23.96,-13.11
219,295244785,0.5308,0.6680,0.7974,-137.38,-25.49,-13.11
220,295249787,0.5229,0.6636,0.8027,-139.27,-26.89,-13.35
221,295254786,0.5181,0.6519,0.8188,-141.22,-28.96,-13.78
222,295259788,0.4985,0.6504,0.8555,-142.68,-30.30,-14.21
223,295264785,0.4897,0.6196,0.8794,-144.63,-31.95,-14.94
224,295269785,0.4712,0.5835,0.8809,-146.89,-34.51,-15.91
225,295274789,0.4824,0.5747,0.8193,-149.21,-35.98,-16.83
226,295279787,0.5107,0.6128,0.7822,-152.68,-38.29,-18.41
227,295285265,0.5303,0.6152,0.7959,-157.62,-40.55,-19.94
228,295289787,0.5449,0.5996,0.8164,-161.10,-41.83,-21.16
229,295294787,0.5513,0.5986,0.7881,-165.00,-43.29,-22.44
230,295299787,0.5747,0.6313,0.7593,-169.21,-45.12,-23.96
231,295305045,0.5786,0.6367,0.7461,-176.04,-46.52,-26.04
232,295309787,0.5732,0.6187,0.7583,-181.16,-47.07,-27.62
233,295314787,0.5806,0.5879,0.7681,-187.44,-47.87,-29.33
234,295319787,0.5723,0.5552,0.8086,-193.29,-48.23,-31.10
235,295324894,0.5674,0.4976,0.7993,-198.35,-48.78,-32.93
236,295329787,0.5806,0.4912,0.7920,-204.21,-49.21,-34.51
237,295334786,0.5835,0.5391,0.8101,-210.49,-49.21,-36.83
238,295339881,0.5610,0.5488,0.8179,-215.98,-49.33,-39.21
239,295344785,0.5786,0.5454,0.8174,-219.76,-49.51,-41.89
240,295349789,0.6006,0.5063,0.8311,-221.89,-50.06,-44.51
241,295354787,0.6113,0.4600,0.8628,-222.07,-50.73,-47.13
242,295359787,0.6157,0.4199,0.8657,-219.94,-51.65,-49.51
243,295364787,0.6255,0.3794,0.8628,-214.76,-52.93,-52.38
244,295369787,0.6235,0.3789,0.8735,-209.94,-53.84,-54.15
245,295374785,0.6069,0.3940,0.9355,-202.56,-54.57,-56.40
246,295379785,0.5923,0.3770,0.9780,-193.78,-55.00,-59.02
247,295384785,0.6011,0.3501,0.9897,-183.17,-55.37,-61.52
248,295389789,0.6558,0.3506,0.9419,-171.16,-56.10,-63.90
249,295394787,0.6436,0.3633,0.9507,-158.90,-57.01,-66.10
250,295399786,0.6445,0.3931,0.9668,-146.77,-57.44,-68.54
251,295405246,0.6479,0.4180,0.9868,-132.80,-57.87,-71.16
252,295409787,0.6475,0.4297,0.9937,-123.96,-57.68,-72.87
253,295414833,0.6250,0.4263,0.9951,-113.78,-57.68,-74.88
254,295419787,0.6001,0.4297,1.0054,-104.45,-57.44,-76.77
255,295424788,0.5723,0.4395,1.0078,-95.79,-57.01,-78.90
256,295429787,0.5513,0.4316,1.0186,-87.56,-56.34,-80.98
257,295434785,0.5317,0.4131,1.0259,-80.00,-55.67,-83.11
258,295439789,0.5088,0.3911,1.0225,-73.05,-55.00,-85.24
259,295444819,0.4839,0.3521,1.0273,-66.52,-54.51,-87.32
260,295449787,0.4585,0.3228,1.0303,-60.30,-54.02,-89.15
261,295454788,0.4463,0.2910,1.0317,-55.06,-53.48,-91.04
262,295459787,0.4336,0.2739,1.0308,-50.37,-52.87,-92.32
263,295464787,0.4277,0.2603,1.0342,-46.52,-52.32,-93.78
264,295469787,0.4282,0.2441,1.0454,-43.60,-51.52,-95.00
265,295474785,0.4189,0.2651,1.0679,-42.26,-50.49,-96.52
266,295479785,0.3994,0.3091,1.0327,-42.44,-48.90,-98.35
267,295484789,0.4131,0.2192,1.0381,-44.70,-47.20,-100.55
268,295489787,0.4307,0.1538,1.0386,-47.62,-45.73,-101.40
269,295494786,0.4521,0.0928,1.0220,-52.68,-44.33,-101.89
270,295499789,0.4707,0.0459,0.9966,-59.21,-42.93,-101.59
271,295504938,0.5098,0.0640,0.9941,-67.38,-42.26,-100.79
272,295509787,0.5400,0.1128,0.9897,-76.65,-41.59,-99.88
273,295514786,0.5449,0.1665,0.9839,-87.13,-41.28,-98.90
274,295519785,0.5405,0.2026,1.0005,-98.05,-41.10,-98.11
275,295524802,0.5342,0.2212,1.0273,-109.33,-41.04,-97.13
276,295529789,0.5269,0.2505,1.0640,-120.24,-40.67,-95.85
277,295534787,0.5093,0.2476,1.1084,-130.24,-40.18,-94.45
278,295539787,0.5303,0.2632,1.1094,-139.09,-39.57,-92.87
279,295544787,0.5503,0.3018,1.1187,-147.50,-39.21,-91.34
280,295549787,0.5552,0.3184,1.1313,-155.43,-38.60,-89.76
281,295554785,0.5596,0.3374,1.1338,-162.56,-38.11,-88.11
282,295559787,0.5527,0.3364,1.1475,-169.15,-37.87,-86.34
283,295564788,0.5503,0.3447,1.1606,-175.06,-37.68,-84.63
284,295569787,0.5532,0.3613,1.2051,-180.06,-37.62,-82.99
285,295574788,0.5435,0.3550,1.2324,-184.51,-37.32,-81.71
286,295579787,0.5405,0.3330,1.2490,-188.11,-37.56,-80.37
287,295584785,0.5425,0.2998,1.2759,-190.79,-38.11,-79.09
288,295589787,0.5483,0.2646,1.2876,-192.44,-39.02,-78.11
289,295594786,0.5513,0.2422,1.3022,-193.05,-40.12,-77.20
290,295599789,0.5537,0.2148,1.3184,-192.99,-41.77,-76.77
291,295604787,0.5532,0.1816,1.3472,-192.26,-43.72,-76.46
292,295609787,0.5469,0.1484,1.3618,-190.79,-45.91,-76.65
293,295614877,0.5371,0.1265,1.3813,-188.90,-48.35,-76.95
294,295619787,0.5435,0.0918,1.3843,-186.95,-50.79,-77.44
295,295624788,0.5479,0.0781,1.3999,-184.70,-53.17,-77.93
296,295629787,0.5527,0.0708,1.4150,-182.56,-55.67,-78.48
297,295634788,0.5610,0.0630,1.4189,-180.37,-58.17,-79.15
298,295639787,0.5645,0.0635,1.4209,-178.41,-60.67,-79.76
299,295644787,0.5718,0.0557,1.4150,-176.59,-63.17,-80.43
300,295649787,0.5825,0.0439,1.4229,-175.06,-65.73,-80.98
301,295655137,0.5854,0.0356,1.4287,-173.29,-68.29,-81.40
302,295659788,0.5918,0.0205,1.4224,-171.52,-70.73,-81.89
303,295664786,0.5923,-0.0098,1.4229,-169.88,-73.29,-81.77
304,295669787,0.5767,0.0103,1.3975,-168.41,-75.91,-81.95
305,295674785,0.5630,0.0225,1.3965,-166.83,-78.72,-82.56
306,295679789,0.5688,0.0020,1.3979,-164.94,-81.40,-83.41
307,295684786,0.5776,-0.0430,1.3818,-162.68,-84.45,-84.15
308,295689787,0.5742,-0.0601,1.3618,-161.28,-86.59,-84.45
309,295694926,0.5713,-0.0674,1.3530,-159.70,-88.96,-85.00
310,295699787,0.5693,-0.0728,1.3433,-158.11,-91.46,-85.85
311,295704787,0.5728,-0.0938,1.3315,-156.77,-93.60,-86.46
312,295709787,0.5854,-0.1108,1.3267,-155.55,-95.55,-87.13
313,295714785,0.5957,-0.1182,1.3081,-154.45,-97.20,-87.50
314,295719785,0.6152,-0.1138,1.2954,-153.90,-98.35,-87.87
315,295724785,0.6323,-0.1099,1.2642,-154.09,-99.51,-88.17
316,295729787,0.6382,-0.0996,1.2515,-155.30,-100.43,-88.35
317,295734786,0.6533,-0.0811,1.2290,-156.95,-101.40,-88.41
318,295739789,0.6631,-0.0625,1.1982,-158.96,-102.32,-88.35
319,295744787,0.6636,-0.0410,1.1812,-161.34,-103.23,-88.23
320,295749787,0.6602,-0.0332,1.1968,-163.84,-104.09,-88.11
321,295754788,0.6562,-0.0229,1.1826,-166.71,-104.51,-87.87
322,295759787,0.6582,-0.0137,1.1543,-169.76,-105.12,-87.50
323,295764785,0.6587,-0.0415,1.1538,-172.38,-105.67,-87.01
324,295769787,0.6621,-0.0234,1.1436,-174.27,-106.16,-86.59
325,295774787,0.6729,0.0015,1.1392,-176.10,-106.46,-86.04
326,295779787,0.6753,0.0269,1.1250,-177.26,-106.65,-85.67
327,295784788,0.6772,0.0381,1.1187,-178.11,-106.83,-85.30
328,295789787,0.6802,0.0518,1.1001,-178.41,-107.26,-84.70
329,295794787,0.6865,0.0723,1.0869,-178.35,-107.62,-84.09
330,295799787,0.6958,0.0874,1.0791,-177.93,-108.23,-83.72
331,295804787,0.7007,0.1099,1.0659,-177.26,-108.78,-83.17
332,295809787,0.7090,0.1250,1.0537,-176.22,-109.39,-82.80
333,295814837,0.7183,0.1362,1.0396,-175.12,-109.94,-82.32
334,295819787,0.7271,0.1460,1.0327,-173.78,-110.49,-81.71
335,295824785,0.7329,0.1523,1.0195,-172.38,-110.73,-81.04
336,295829789,0.7266,0.1572,1.0083,-170.98,-111.04,-80.37
337,295834787,0.7178,0.1694,0.9902,-169.70,-111.46,-79.45
338,295839787,0.7134,0.1777,0.9775,-168.78,-111.46,-78.60
339,295844787,0.7080,0.1895,0.9521,-168.35,-111.71,-77.50
340,295849787,0.6997,0.2056,0.9302,-168.23,-112.01,-76.52
341,295854787,0.6885,0.2144,0.9038,-168.41,-112.32,-75.73
342,295859787,0.6885,0.2280,0.8877,-168.66,-112.68,-74.88
343,295864787,0.6904,0.2334,0.8701,-169.15,-112.87,-74.09
344,295869787,0.6948,0.2422,0.8564,-169.39,-112.93,-73.48
345,295874788,0.7002,0.2471,0.8447,-169.76,-112.80,-72.68
346,295879787,0.7046,0.2451,0.8350,-169.94,-112.56,-71.95
347,295884785,0.7051,0.2456,0.8203,-169.94,-112.01,-70.85
348,295889789,0.6992,0.2461,0.7905,-169.94,-111.52,-69.82
349,295894787,0.6826,0.2451,0.7568,-169.63,-111.04,-68.72
350,295899787,0.6709,0.2476,0.7427,-169.15,-110.61,-67.50
351,295904785,0.6548,0.2407,0.7231,-168.72,-110.18,-66.22
352,295909787,0.6470,0.2383,0.7070,-168.29,-109.76,-64.82
353,295914787,0.6387,0.2354,0.6904,-167.56,-109.27,-63.48
354,295919787,0.6460,0.2339,0.6709,-166.65,-108.72,-62.20
355,295924785,0.6353,0.2251,0.6514,-165.79,-107.99,-60.85
356,295929785,0.6260,0.2212,0.6240,-164.82,-107.20,-59.51
357,295934789,0.6304,0.2119,0.6099,-164.09,-106.10,-58.23
358,295939786,0.6362,0.2085,0.5957,-163.17,-104.94,-57.13
359,295944787,0.6445,0.2104,0.5747,-162.44,-103.60,-56.22
360,295949786,0.6533,0.2104,0.5503,-161.52,-102.13,-55.30
361,295954785,0.6582,0.2119,0.5337,-160.79,-100.30,-54.39
362,295959787,0.6646,0.2104,0.5107,-159.76,-98.72,-53.41
363,295964788,0.6602,0.1968,0.5000,-158.84,-97.01,-52.56
364,295969787,0.6567,0.1855,0.4854,-157.87,-95.24,-51.52
365,295974787,0.6641,0.1646,0.4731,-157.32,-93.78,-50.55
366,295979787,0.6729,0.1543,0.4639,-157.13,-92.07,-49.57
367,295984789,0.6704,0.1475,0.4644,-157.13,-90.24,-48.60
368,295989786,0.6812,0.1318,0.4565,-157.44,-88.35,-47.62
369,295994785,0.6865,0.1206,0.4507,-158.23,-86.52,-46.71
370,295999787,0.6841,0.1099,0.4473,-159.57,-84.94,-45.91
371,296004788,0.6909,0.0811,0.4346,-161.34,-83.17,-45.43
372,296009787,0.7075,0.0645,0.4243,-163.54,-81.46,-44.88
373,296014788,0.7256,0.0469,0.4253,-165.85,-79.57,-44.70
374,296019787,0.7378,0.0317,0.4238,-168.48,-77.80,-44.51
375,296024785,0.7490,0.0264,0.4189,-171.16,-75.91,-44.57
376,296029785,0.7642,0.0132,0.4180,-173.72,-73.96,-44.51
377,296034787,0.7808,0.0054,0.4062,-176.22,-72.07,-44.63
378,296039786,0.7852,-0.0049,0.4019,-178.54,-70.30,-44.82
379,296044790,0.7803,-0.0044,0.3994,-180.24,-68.41,-44.82
380,296049790,0.7778,-0.0044,0.3984,-181.46,-66.83,-44.82
381,296054811,0.7793,-0.0020,0.3921,-182.38,-65.12,-44.76
382,296059787,0.7705,-0.0024,0.3877,-182.68,-63.41,-44.57
383,296064785,0.7651,0.0054,0.3813,-182.56,-62.07,-44.33
384,296069789,0.7583,0.0078,0.3755,-182.32,-60.67,-44.27
385,296074860,0.7568,0.0142,0.3652,-181.83,-59.39,-44.02
386,296079787,0.7642,0.0190,0.3662,-180.98,-58.23,-44.09
387,296084785,0.7676,0.0239,0.3628,-180.12,-56.95,-43.84
388,296089785,0.7720,0.0249,0.3633,-178.96,-55.98,-43.90
389,296095033,0.7764,0.0303,0.3599,-177.74,-54.63,-43.84
390,296099787,0.7827,0.0317,0.3491,-176.71,-53.48,-43.60
391,296104827,0.7861,0.0405,0.3516,-175.67,-52.38,-43.41
392,296109786,0.7900,0.0474,0.3462,-174.82,-51.40,-43.23
393,296114787,0.7964,0.0615,0.3418,-174.39,-50.18,-43.23
394,296119786,0.7998,0.0703,0.3364,-174.21,-49.33,-43.35
395,296124787,0.8062,0.0859,0.3281,-174.02,-48.35,-43.54
396,296129786,0.8081,0.0898,0.3232,-174.21,-47.26,-43.84
397,296134785,0.8135,0.0952,0.3198,-174.57,-46.46,-44.27
398,296139789,0.8271,0.1094,0.3140,-174.82,-45.37,-44.76
399,296144821,0.8350,0.1201,0.3115,-175.06,-44.33,-45.24
400,296149786,0.8462,0.1294,0.3071,-175.24,-43.41,-45.79
401,296154787,0.8643,0.1450,0.2944,-175.12,-42.38,-46.46
402,296159786,0.8755,0.1523,0.2861,-175.12,-41.52,-47.20
403,296164787,0.8848,0.1655,0.2778,-174.57,-40.37,-47.80
404,296169786,0.8872,0.1704,0.2695,-173.48,-39.39,-48.60
405,296174787,0.8936,0.1758,0.2656,-172.20,-38.41,-48.96
406,296179786,0.8979,0.1812,0.2573,-170.55,-37.20,-49.45
407,296184788,0.8931,0.1860,0.2544,-168.54,-36.40,-49.70
408,296189786,0.8867,0.1904,0.2432,-166.22,-35.18,-50.00
409,296194839,0.8823,0.1953,0.2314,-163.96,-34.21,-50.12
410,296199787,0.8765,0.1958,0.2334,-161.65,-33.11,-50.18
411,296204893,0.8696,0.2100,0.2275,-159.27,-31.83,-50.24
412,296209787,0.8657,0.2178,0.2231,-158.05,-31.10,-50.37
413,296215164,0.8711,0.2300,0.2158,-156.65,-30.06,-50.61
414,296219787,0.8691,0.2354,0.2085,-156.10,-29.27,-50.91
415,296224985,0.8701,0.2476,0.1987,-155.55,-28.29,-51.22
416,296229787,0.8687,0.2544,0.1924,-155.37,-27.74,-51.52
417,296234785,0.8647,0.2583,0.1812,-155.18,-27.13,-52.01
418,296239789,0.8579,0.2617,0.1768,-155.12,-26.65,-52.26
419,296244787,0.8486,0.2593,0.1680,-154.63,-26.10,-52.44
420,296249787,0.8384,0.2554,0.1777,-153.96,-25.61,-52.50
421,296255155,0.8276,0.2627,0.1694,-152.68,-25.06,-52.62
422,296259787,0.8169,0.2612,0.1714,-151.65,-24.63,-52.56
423,296264787,0.8105,0.2651,0.1665,-150.18,-24.33,-52.50
424,296269787,0.8052,0.2715,0.1631,-148.66,-23.84,-52.38
425,296274787,0.8032,0.2798,0.1582,-147.32,-23.41,-52.32
426,296279846,0.8003,0.2920,0.1543,-145.67,-22.93,-52.38
427,296284786,0.7974,0.3037,0.1558,-144.21,-22.50,-52.50
428,296289785,0.7988,0.3135,0.1489,-142.44,-22.01,-52.56
429,296294788,0.8047,0.3247,0.1548,-140.73,-21.52,-52.87
430,296299787,0.8115,0.3340,0.1479,-138.72,-20.79,-53.29
431,296304787,0.8252,0.3477,0.1494,-136.71,-20.43,-53.72
432,296309786,0.8403,0.3589,0.1489,-134.39,-19.63,-54.33
433,296314787,0.8633,0.3667,0.1602,-132.20,-18.78,-55.06
434,296319787,0.8774,0.3789,0.1675,-129.82,-17.74,-55.91
435,296324786,0.8901,0.3940,0.1738,-127.74,-16.59,-56.71
436,296329785,0.8872,0.4092,0.1777,-126.04,-15.18,-57.99
437,296334922,0.9160,0.3892,0.1685,-125.18,-13.60,-59.21
438,296339787,0.9409,0.3726,0.1670,-125.00,-12.01,-60.37
439,296344788,0.9653,0.3745,0.1567,-125.06,-10.91,-60.91
440,296349785,0.9458,0.3638,0.1167,-124.76,-9.88,-61.34
441,296354787,0.9038,0.3438,0.1157,-124.63,-9.21,-61.46
442,296359787,0.8755,0.3530,0.1416,-124.39,-8.54,-61.46
443,296364887,0.8657,0.3555,0.1226,-123.90,-7.93,-61.59
444,296369786,0.8662,0.3545,0.1118,-123.29,-7.32,-61.71
445,296374785,0.8628,0.3584,0.1216,-122.68,-6.71,-61.83
446,296379787,0.8584,0.3584,0.1265,-121.71,-6.22,-61.89
447,296384786,0.8457,0.3569,0.1328,-120.55,-5.49,-62.01
448,296389787,0.8442,0.3618,0.1338,-119.33,-4.76,-62.38
449,296394787,0.8501,0.3721,0.1406,-117.80,-4.15,-62.62
450,296399897,0.8633,0.3843,0.1396,-116.40,-3.35,-63.11
451,296404786,0.8735,0.3940,0.1489,-114.76,-2.50,-63.66
452,296409969,0.8799,0.3936,0.1567,-113.29,-1.77,-64.39
453,296414787,0.8784,0.3945,0.1660,-111.77,-0.79,-65.00
454,296419787,0.8799,0.3916,0.1616,-110.37,0.12,-65.55
455,296424786,0.8760,0.3745,0.1602,-108.72,0.98,-65.91
456,296429787,0.8662,0.3691,0.1631,-107.26,1.83,-65.98
457,296434785,0.8560,0.3652,0.1533,-105.79,2.50,-66.04
458,296439785,0.8447,0.3691,0.1465,-104.27,3.23,-65.91
459,296444789,0.8403,0.3677,0.1504,-102.68,3.66,-65.67
460,296449787,0.8364,0.3716,0.1611,-101.04,4.27,-65.55
461,296454787,0.8340,0.3657,0.1519,-99.15,4.57,-65.12
462,296459787,0.8374,0.3643,0.1558,-97.26,5.00,-64.70
463,296464787,0.8237,0.3613,0.1592,-95.24,5.43,-64.27
464,296469786,0.8262,0.3647,0.1582,-92.87,5.79,-63.78
465,296474787,0.8267,0.3638,0.1680,-90.24,6.28,-63.17
466,296479857,0.8242,0.3569,0.1875,-87.44,6.83,-62.44
467,296484786,0.8247,0.3604,0.1914,-84.39,7.44,-61.83
468,296489788,0.8281,0.3730,0.1987,-81.22,7.93,-61.34
469,296494786,0.8311,0.3789,0.2046,-77.74,8.72,-60.85
470,296499785,0.8320,0.3970,0.2109,-74.09,9.27,-60.55
471,296504787,0.8311,0.4019,0.2104,-70.43,9.82,-60.37
472,296509787,0.8281,0.4087,0.1992,-66.52,10.18,-60.30
473,296514787,0.8315,0.4121,0.2134,-62.93,10.55,-60.30
474,296519787,0.8237,0.4150,0.2075,-59.09,10.79,-60.49
475,296524787,0.8184,0.4214,0.2109,-55.43,10.98,-60.55
476,296529787,0.8018,0.4180,0.2246,-51.83,11.16,-60.55
477,296534787,0.7998,0.4204,0.2212,-48.48,11.22,-60.67
478,296539785,0.7974,0.4233,0.2236,-45.24,11.46,-60.73
479,296545191,0.7959,0.4297,0.2290,-42.26,11.59,-60.73
480,296549787,0.7896,0.4292,0.2236,-39.45,11.71,-60.98
481,296554786,0.7837,0.4355,0.2305,-37.07,11.71,-61.16
482,296559787,0.7827,0.4409,0.2266,-35.18,11.95,-61.34
483,296564841,0.7749,0.4429,0.2227,-33.60,11.89,-61.59
484,296570246,0.7734,0.4478,0.2246,-32.38,11.71,-61.95
485,296574788,0.7769,0.4561,0.2188,-31.46,11.59,-62.38
486,296579787,0.7783,0.4570,0.2295,-30.67,11.40,-62.68
487,296584787,0.7769,0.4614,0.2285,-30.12,11.16,-63.17
488,296589787,0.7817,0.4678,0.2324,-29.57,11.10,-63.54
489,296594787,0.7886,0.4692,0.2363,-29.15,10.91,-64.27
490,296599787,0.7944,0.4712,0.2300,-28.41,10.98,-64.76
491,296604787,0.8013,0.4736,0.2285,-27.87,10.98,-65.18
492,296609787,0.8071,0.4653,0.2354,-27.01,11.10,-65.43
493,296614787,0.8032,0.4619,0.2349,-26.28,11.28,-65.67
494,296619787,0.8003,0.4531,0.2368,-25.37,11.22,-65.67
495,296624787,0.8032,0.4521,0.2388,-24.57,11.40,-65.79
496,296629787,0.8013,0.4546,0.2368,-24.02,11.65,-65.85
497,296634787,0.7896,0.4585,0.2305,-23.54,11.83,-65.85
498,296639785,0.7803,0.4604,0.2300,-23.41,12.01,-65.98
499,296644785,0.7759,0.4648,0.2354,-23.48,12.26,-66.16
500,296649787,0.7686,0.4619,0.2363,-23.72,12.20,-66.40
501,296654786,0.7686,0.4604,0.2358,-24.21,12.38,-66.59
502,296659787,0.7622,0.4658,0.2432,-24.76,12.74,-66.83
503,296664786,0.7676,0.4707,0.2441,-25.55,13.23,-67.32
504,296669787,0.7681,0.4790,0.2529,-26.34,13.72,-67.80
505,296674786,0.7690,0.4873,0.2573,-27.26,14.33,-68.41
506,296679789,0.7593,0.4912,0.2700,-28.11,14.94,-69.15
507,296684786,0.7515,0.4971,0.2622,-29.21,15.67,-70.00
508,296689787,0.7388,0.4956,0.2583,-30.18,16.10,-70.79
509,296694787,0.7280,0.4980,0.2549,-30.98,16.46,-71.46
510,296699785,0.7236,0.4927,0.2495,-31.52,16.89,-72.13
511,296704788,0.7114,0.4863,0.2505,-31.65,17.20,-72.62
512,296710220,0.7012,0.4829,0.2485,-31.71,17.62,-73.05
513,296714787,0.6899,0.4829,0.2456,-31.34,17.87,-73.48
514,296719785,0.6938,0.4771,0.2397,-30.79,18.29,-73.78
515,296724787,0.6919,0.4741,0.2432,-30.30,18.66,-74.15
516,296729788,0.6929,0.4756,0.2524,-29.57,19.33,-74.39
517,296734787,0.6831,0.4771,0.2500,-29.09,19.94,-74.70
518,296739787,0.6797,0.4731,0.2539,-28.72,20.49,-74.88
519,296744785,0.6743,0.4785,0.2593,-28.48,21.16,-75.12
520,296749787,0.6699,0.4922,0.2603,-28.48,21.95,-75.85
521,296754787,0.6738,0.5098,0.2739,-28.84,22.93,-76.52
522,296759787,0.6670,0.5239,0.2764,-29.33,23.78,-77.44
523,296764787,0.6582,0.5317,0.2749,-30.12,24.82,-78.41
524,296769788,0.6504,0.5366,0.2666,-31.04,25.67,-79.33
525,296774883,0.6357,0.5435,0.2754,-32.26,26.77,-80.18
526,296779785,0.6274,0.5483,0.2710,-33.11,27.50,-81.16
527,296784787,0.6196,0.5522,0.2749,-33.96,28.17,-81.95
528,296789787,0.6128,0.5566,0.2764,-34.70,29.09,-82.80
529,296794789,0.6143,0.5605,0.2744,-35.00,29.88,-83.66
530,296799785,0.6113,0.5610,0.2690,-35.12,30.67,-84.27
531,296804785,0.6123,0.5566,0.2593,-35.06,31.52,-85.06
532,296809788,0.6099,0.5557,0.2661,-34.88,32.50,-85.49
533,296814790,0.6089,0.5630,0.2769,-34.39,33.11,-86.04
534,296819789,0.6035,0.5801,0.2837,-34.09,34.09,-86.71
535,296824785,0.5889,0.5918,0.2896,-34.15,35.24,-87.56
536,296829787,0.5825,0.6055,0.2979,-34.45,36.28,-88.23
537,296834786,0.5703,0.6147,0.3018,-35.06,37.50,-89.02
538,296839787,0.5547,0.6284,0.3076,-35.85,38.72,-89.94
539,296844785,0.5366,0.6362,0.3120,-36.65,39.88,-90.61
540,296849895,0.5283,0.6426,0.3203,-37.50,41.10,-91.22
541,296854789,0.5117,0.6538,0.3252,-38.54,42.26,-91.65
542,296859787,0.4961,0.6646,0.3276,-39.15,43.35,-92.20
543,296864786,0.4824,0.6763,0.3267,-39.94,44.39,-92.56
544,296869787,0.4727,0.6787,0.3286,-40.55,45.18,-93.05
545,296874786,0.4541,0.6792,0.3340,-40.98,45.85,-93.29
546,296879787,0.4385,0.6821,0.3350,-41.34,46.83,-93.41
547,296884786,0.4287,0.6958,0.3467,-41.46,47.56,-93.60
548,296889787,0.4175,0.7119,0.3618,-41.89,48.41,-93.90
549,296894786,0.4053,0.7207,0.3667,-42.44,49.39,-93.96
550,296899788,0.3911,0.7231,0.3726,-43.11,50.30,-94.09
551,296904786,0.3828,0.7280,0.3838,-44.02,51.52,-93.90
552,296909856,0.3638,0.7339,0.3965,-44.82,52.44,-93.60
553,296914785,0.3467,0.7422,0.4009,-45.73,53.23,-92.99
554,296919789,0.3335,0.7563,0.4023,-46.77,54.02,-92.26
555,296924786,0.3159,0.7603,0.4077,-47.62,54.94,-91.52
556,296929787,0.3057,0.7744,0.4121,-48.66,55.61,-90.55
557,296934787,0.2998,0.7852,0.4175,-49.45,56.28,-89.57
558,296939787,0.2910,0.8057,0.4331,-50.49,56.89,-88.72
559,296944786,0.2891,0.8203,0.4463,-51.46,57.93,-87.68
560,296949785,0.2910,0.8354,0.4482,-52.32,58.90,-87.13
561,296954789,0.2930,0.8525,0.4624,-53.48,60.24,-86.16
562,296959787,0.2920,0.8608,0.4712,-54.33,61.46,-85.24
563,296964786,0.2930,0.8789,0.4829,-55.06,62.87,-84.27
564,296969787,0.2905,0.8887,0.4829,-55.79,64.09,-83.17
565,296974787,0.2939,0.8989,0.4868,-56.28,65.49,-82.20
566,296979787,0.2871,0.9155,0.4980,-56.83,66.65,-80.98
567,296984787,0.2842,0.9287,0.5117,-57.32,67.44,-80.18
568,296989785,0.2817,0.9453,0.5244,-57.56,68.78,-78.96
569,296994787,0.2769,0.9561,0.5283,-57.80,69.51,-78.11
570,296999787,0.2646,0.9692,0.5283,-57.87,70.43,-77.26
571,297004787,0.2534,0.9722,0.5283,-57.68,71.22,-76.46
572,297009785,0.2417,0.9771,0.5391,-57.13,71.71,-75.43
573,297014785,0.2417,0.9868,0.5557,-56.10,72.32,-74.51
574,297019787,0.2271,0.9966,0.5698,-54.88,72.80,-73.72
575,297024786,0.2129,1.0068,0.5801,-53.17,73.48,-72.87
576,297029875,0.1865,1.0132,0.5991,-50.55,74.21,-71.95
577,297034787,0.1758,1.0220,0.6084,-48.48,74.63,-71.40
578,297039786,0.1592,1.0322,0.6226,-45.55,75.24,-70.67
579,297044787,0.1562,1.0337,0.6348,-42.07,75.73,-70.00
580,297049785,0.1411,1.0425,0.6484,-38.41,76.34,-69.39
581,297054785,0.1284,1.0513,0.6660,-34.39,76.89,-68.78
582,297059787,0.1143,1.0640,0.6709,-30.18,77.50,-68.29
583,297064787,0.0996,1.0669,0.6816,-25.91,77.93,-67.80
584,297069785,0.0796,1.0679,0.6890,-21.77,78.35,-67.20
585,297074785,0.0645,1.0752,0.6924,-17.62,78.66,-66.46
586,297079787,0.0552,1.0796,0.6997,-13.72,78.90,-65.79
587,297084786,0.0435,1.0781,0.7031,-10.00,79.15,-64.88
588,297089787,0.0273,1.0781,0.7046,-6.89,79.21,-64.15
589,297094786,0.0137,1.0732,0.7041,-4.33,79.39,-63.17
590,297099785,-0.0010,1.0747,0.6997,-2.26,79.27,-62.07
591,297104786,-0.0146,1.0713,0.6978,-0.91,79.09,-60.98
592,297109785,-0.0293,1.0669,0.6929,-0.30,78.96,-59.82
593,297114785,-0.0483,1.0591,0.6914,-0.37,78.78,-58.54
594,297119787,-0.0640,1.0498,0.6831,-0.73,78.72,-57.44
595,297124787,-0.0811,1.0454,0.6812,-1.83,78.54,-56.10
596,297129787,-0.0923,1.0479,0.6787,-3.41,78.66,-55.12
597,297134786,-0.1050,1.0547,0.6797,-5.30,78.72,-54.27
598,297139787,-0.1226,1.0586,0.6777,-7.44,79.02,-53.60
599,297144786,-0.1484,1.0576,0.6733,-9.51,79.15,-52.80
600,297149785,-0.1558,1.0615,0.6792,-11.52,79.51,-52.26
601,297154785,-0.1709,1.0610,0.6821,-13.23,79.63,-51.34
602,297159789,-0.1885,1.0645,0.6846,-14.39,80.30,-50.55
603,297164786,-0.2090,1.0718,0.6782,-14.82,80.91,-49.76
604,297169787,-0.2285,1.0752,0.6821,-14.45,81.59,-49.02
605,297174786,-0.2432,1.0732,0.6733,-13.23,81.89,-48.23
606,297179787,-0.2720,1.0811,0.6680,-11.28,82.93,-47.38
607,297184788,-0.2900,1.0791,0.6611,-8.66,83.96,-46.52
608,297189786,-0.3052,1.0752,0.6592,-5.43,83.54,-45.55
609,297194790,-0.3276,1.0713,0.6553,-2.07,85.55,-44.45
610,297199788,-0.3472,1.0752,0.6519,1.16,85.79,-43.41
611,297204787,-0.3677,1.0732,0.6406,4.27,85.85,-42.32
612,297209785,-0.3823,1.0732,0.6372,7.07,88.11,-41.16
613,297214787,-0.4053,1.0771,0.6289,9.33,89.21,-40.06
614,297219791,-0.4204,1.0771,0.6279,10.98,91.16,-38.96
615,297224787,-0.4438,1.0776,0.6172,12.13,92.87,-37.99
616,297229787,-0.4663,1.0737,0.6035,12.68,94.76,-37.01
617,297234787,-0.4834,1.0752,0.6001,13.17,96.46,-35.73
618,297239894,-0.5034,1.0767,0.5962,13.17,98.23,-34.76
619,297244787,-0.5205,1.0786,0.5918,12.99,100.37,-33.60
620,297249787,-0.5391,1.0781,0.5859,12.87,102.50,-32.56
621,297254787,-0.5605,1.0771,0.5737,12.68,104.88,-31.40
622,297259786,-0.5791,1.0776,0.5732,12.68,107.44,-30.30
623,297264789,-0.5996,1.0796,0.5615,12.93,110.00,-29.09
624,297269787,-0.6250,1.0806,0.5581,13.41,112.87,-27.80
625,297274787,-0.6479,1.0811,0.5518,14.27,115.98,-26.34
626,297279787,-0.6709,1.0840,0.5518,15.00,119.09,-24.63
627,297284787,-0.6831,1.0894,0.5537,15.79,122.80,-23.05
628,297289785,-0.7026,1.0938,0.5542,16.71,126.77,-21.40
629,297294787,-0.7183,1.0996,0.5591,17.44,130.73,-19.76
630,297299787,-0.7373,1.1055,0.5586,18.17,135.18,-17.80
631,297304788,-0.7578,1.1113,0.5601,18.84,139.76,-15.91
632,297309787,-0.7749,1.1123,0.5601,19.21,144.33,-13.90
633,297314787,-0.7944,1.1104,0.5576,19.57,149.09,-11.71
634,297319825,-0.8213,1.1064,0.5557,19.70,153.78,-9.33
635,297324787,-0.8628,1.1060,0.5557,20.00,158.60,-6.77
636,297329787,-0.9116,1.1055,0.5601,20.00,163.72,-4.02
637,297334788,-0.9561,1.1099,0.5654,19.88,168.66,-1.10
638,297339787,-0.9922,1.1157,0.5801,19.51,173.90,1.89
639,297344787,-1.0322,1.1245,0.5874,18.90,179.45,4.82
640,297349787,-1.0669,1.1411,0.6064,18.17,185.37,7.87
641,297354787,-1.1030,1.1631,0.6201,17.13,191.34,10.79
642,297359789,-1.1479,1.1748,0.6372,15.98,198.66,14.51
643,297364788,-1.1802,1.1807,0.6318,15.37,203.41,17.26
644,297369787,-1.2241,1.1846,0.6382,15.18,209.45,20.73
645,297374787,-1.2788,1.1934,0.6411,15.43,215.49,24.51
646,297379785,-1.3345,1.1968,0.6504,16.22,221.52,28.72
647,297384807,-1.4146,1.2056,0.6543,17.68,227.56,33.23
648,297389786,-1.5015,1.2217,0.6562,19.27,233.48,37.62
649,297394787,-1.5752,1.2310,0.6768,20.12,239.94,42.01
650,297399787,-1.6294,1.2559,0.6772,19.76,246.46,46.95
651,297404818,-1.6699,1.2529,0.6787,17.80,253.05,51.89
652,297409787,-1.7056,1.2563,0.6763,15.12,259.82,57.87
653,297414787,-1.7578,1.2480,0.6616,12.50,266.46,64.33
654,297419785,-1.7803,1.2661,0.6934,10.43,273.72,70.91
655,297424787,-1.7871,1.2944,0.7437,8.66,281.71,77.62
656,297429786,-1.8066,1.3203,0.7427,7.20,290.12,84.09
657,297434789,-1.8467,1.3340,0.7427,6.28,298.66,91.34
658,297439787,-1.8872,1.3403,0.7563,6.04,307.38,99.02
659,297444787,-1.9336,1.3428,0.7671,5.98,316.22,106.89
660,297449787,-1.9648,1.3481,0.7690,6.04,325.18,115.12
661,297454787,-1.9941,1.3574,0.7988,5.98,334.02,123.54
662,297459785,-2.0288,1.3604,0.8296,5.61,343.05,132.20
663,297464788,-2.0596,1.3643,0.8379,4.45,352.13,140.91
664,297469787,-2.1064,1.3706,0.8711,2.62,361.46,149.70
665,297474785,-2.1606,1.3740,0.9097,-0.12,370.55,158.54
666,297479787,-2.2148,1.3862,0.9409,-3.29,379.57,167.13
667,297484786,-2.2705,1.3843,0.9751,-7.26,388.41,175.79
668,297489787,-2.3252,1.3877,1.0259,-10.98,397.26,184.33
669,297494787,-2.3984,1.3828,1.0728,-14.88,405.61,192.87
670,297499785,-2.4819,1.3706,1.0918,-18.54,413.78,201.52
671,297504787,-2.5786,1.3599,1.1348,-21.10,421.46,210.00
672,297509786,-2.6978,1.3521,1.1812,-22.99,428.17,218.66
673,297514787,-2.8198,1.3350,1.2075,-23.84,434.21,227.26
674,297519785,-2.9346,1.3232,1.2520,-24.15,439.39,235.73
675,297524785,-3.0347,1.3203,1.2964,-23.72,444.02,244.09
676,297529787,-3.1240,1.3125,1.3486,-22.87,448.11,252.32
677,297534787,-3.1826,1.3076,1.4058,-21.95,451.83,260.43
678,297539787,-3.2153,1.2988,1.4741,-20.98,455.43,268.41
679,297544787,-3.2397,1.3013,1.5278,-20.00,458.84,276.28
680,297550139,-3.2681,1.2935,1.5845,-19.45,462.13,284.09
681,297554787,-3.3003,1.2881,1.6182,-18.72,465.24,291.83
682,297559786,-3.3589,1.2837,1.6528,-17.80,467.62,299.33
683,297564786,-3.4316,1.2759,1.6807,-17.07,469.21,306.71
684,297569787,-3.5029,1.2627,1.6987,-15.37,470.06,313.96
685,297574787,-3.5547,1.2637,1.7349,-13.84,470.12,321.34
686,297579787,-3.5889,1.2559,1.7871,-12.20,469.94,328.48
687,297584788,-3.6123,1.2617,1.8247,-9.82,469.21,335.43
688,297589785,-3.6411,1.2773,1.8765,-7.93,468.17,342.20
689,297594787,-3.6943,1.2837,1.9238,-5.37,466.77,348.60
690,297599858,-3.7515,1.3066,1.9688,-1.40,465.00,354.88
691,297604785,-3.7910,1.3257,2.0376,2.13,462.56,360.79
692,297609785,-3.7988,1.3281,2.0923,7.20,460.30,366.65
693,297614787,-3.7817,1.3569,2.1504,13.29,458.17,372.20
694,297619786,-3.7769,1.3843,2.2031,19.02,455.91,377.56
695,297624785,-3.7534,1.3892,2.2256,25.37,453.29,382.87
696,297629789,-3.7188,1.3979,2.2510,32.20,450.61,387.87
697,297634787,-3.6943,1.4180,2.2812,38.23,447.26,392.74
698,297639787,-3.6704,1.4253,2.3032,43.60,443.41,397.68
699,297644787,-3.6548,1.4277,2.3125,48.72,439.02,402.44
700,297649787,-3.6460,1.4326,2.3477,52.99,433.78,407.26
701,297654787,-3.6470,1.4326,2.3643,55.91,428.11,412.20
702,297659787,-3.6333,1.4312,2.4062,58.23,421.52,417.26
703,297664787,-3.6191,1.4272,2.4351,60.18,414.39,422.50
704,297669785,-3.6265,1.4390,2.4810,61.10,406.71,427.74
705,297674787,-3.6230,1.4478,2.5234,61.95,398.54,432.87
706,297679787,-3.6172,1.4570,2.5713,62.93,389.94,438.05
707,297684787,-3.6133,1.4727,2.6040,63.96,380.91,442.93
708,297689788,-3.5791,1.4839,2.6436,65.55,371.65,447.93
709,297694787,-3.5229,1.4780,2.6621,68.41,362.07,452.99
710,297699787,-3.4668,1.4648,2.6758,71.65,352.38,458.29
711,297704787,-3.4204,1.4639,2.6904,75.12,342.80,463.54
712,297709982,-3.3584,1.4595,2.7065,78.90,332.93,468.90
713,297714787,-3.2915,1.4219,2.7114,82.26,323.05,474.45
714,297719787,-3.2324,1.3823,2.6934,84.51,313.05,480.18
715,297724787,-3.1895,1.3599,2.7026,85.06,303.11,486.22
716,297729785,-3.1406,1.3379,2.6982,83.90,293.35,492.26
717,297734787,-3.1245,1.2998,2.6865,80.98,283.23,498.17
718,297739787,-3.1104,1.2686,2.6875,75.79,273.11,504.39
719,297744785,-3.0903,1.2427,2.6816,69.21,262.62,510.67
720,297749787,-3.0767,1.2017,2.6670,61.40,252.38,516.95
721,297754786,-3.0615,1.1606,2.6650,52.13,241.77,523.23
722,297759787,-3.0312,1.1128,2.6660,41.40,231.40,529.82
723,297764785,-2.9844,1.0679,2.6675,30.49,220.67,536.77
724,297769785,-2.9551,1.0078,2.6509,20.30,210.06,544.09
725,297774789,-2.9341,0.9482,2.6357,10.00,199.45,551.52
726,297779787,-2.9160,0.8789,2.6279,-0.37,188.66,559.21
727,297784787,-2.9023,0.8105,2.6230,-10.24,177.50,567.07
728,297789787,-2.9072,0.7461,2.5981,-20.12,165.73,575.18
729,297794787,-2.9277,0.6782,2.5742,-31.34,153.35,583.17
730,297799787,-2.9468,0.6035,2.5503,-43.54,140.12,590.98
731,297804787,-2.9702,0.5327,2.5308,-56.10,126.22,598.78
732,297809787,-2.9888,0.4634,2.5073,-68.72,111.59,606.34
733,297814788,-3.0034,0.3843,2.4746,-81.52,95.85,613.90
734,297819786,-3.0361,0.3037,2.4346,-95.18,80.49,621.46
735,297824787,-3.0596,0.2290,2.3872,-108.84,63.23,628.96
736,297829786,-3.0811,0.1680,2.3501,-120.43,49.45,634.76
737,297834787,-3.1035,0.0830,2.2876,-139.15,27.56,643.23
738,297839788,-3.1406,0.0156,2.2329,-156.59,8.78,650.06
739,297844787,-3.1826,-0.0244,2.1792,-171.95,-6.52,655.12
740,297849787,-3.2231,-0.0840,2.0986,-192.80,-26.28,660.91
741,297854787,-3.2363,-0.1396,2.0459,-215.85,-46.71,665.79
742,297859787,-3.2505,-0.2095,1.9692,-240.30,-68.05,670.00
743,297864786,-3.2798,-0.2808,1.8701,-264.39,-89.94,673.11
744,297869787,-3.2939,-0.3306,1.7681,-286.46,-112.26,675.30
745,297874785,-3.2925,-0.3809,1.6772,-306.40,-134.88,676.22
746,297879787,-3.0464,-0.7622,2.8750,-323.84,-155.30,675.91
747,297884786,-2.5288,-1.7349,2.5312,-339.51,-178.29,675.61
748,297889787,-2.7534,-2.1587,2.5288,-361.77,-206.10,675.37
749,297894787,-3.2769,-1.8350,2.5771,-389.82,-230.73,669.70
750,297899787,-3.1553,-1.3623,2.0073,-415.73,-254.70,657.56
751,297904787,-2.9287,-1.1108,1.7178,-434.27,-279.21,641.10
752,297909787,-2.8867,-0.8442,1.5386,-445.43,-303.05,621.71
753,297914787,-2.9751,-0.4678,1.3257,-448.60,-325.79,599.02
754,297919787,-3.0029,-0.7852,1.0166,-442.07,-347.20,575.67
755,297924787,-2.8716,-1.0474,0.8267,-429.94,-367.50,554.21
756,297929785,-3.0044,-0.8789,0.5474,-410.91,-388.66,527.01
757,297934785,-2.9980,-0.8193,0.5620,-396.59,-400.91,506.95
758,297939861,-2.8921,-0.6504,0.3735,-376.95,-408.05,480.12
759,297944787,-2.6196,-0.5454,0.1719,-350.24,-424.70,452.62
760,297950292,-2.3115,-0.5977,0.0591,-307.13,-435.67,420.67
761,297954787,-2.3457,-0.7173,0.1421,-271.46,-440.18,400.67
762,297959787,-2.3105,-0.9058,0.0635,-222.87,-443.23,377.56
763,297964787,-2.2891,-1.0864,-0.0439,-174.45,-443.11,356.34
764,297969787,-2.3379,-1.2144,-0.0527,-130.67,-441.83,336.34
765,297974787,-2.3037,-1.2876,-0.1069,-94.76,-437.80,316.65
766,297979787,-2.2705,-1.3916,-0.2329,-68.17,-433.23,297.38
767,297984786,-2.2959,-1.4712,-0.3252,-50.43,-428.17,278.78
768,297989787,-2.3545,-1.5283,-0.3931,-41.28,-422.32,260.91
769,297994787,-2.3091,-1.5371,-0.4741,-39.51,-415.73,243.35
770,297999787,-2.2461,-1.5312,-0.5420,-44.02,-408.84,226.16
771,298004786,-2.2310,-1.4990,-0.5938,-53.05,-401.40,208.90
772,298009785,-2.2329,-1.4985,-0.6997,-63.96,-393.78,192.26
773,298014787,-2.1812,-1.4487,-0.7183,-76.16,-386.16,175.73
774,298019785,-2.2192,-1.3574,-0.8232,-90.55,-376.46,156.46
775,298024787,-2.2100,-1.3789,-0.8691,-99.09,-369.94,143.90
776,298029786,-2.2417,-1.3765,-0.9297,-107.80,-361.04,129.02
777,298034787,-2.2925,-1.3862,-0.9805,-113.78,-351.22,115.30
778,298039785,-2.3281,-1.3994,-1.0376,-117.01,-340.61,102.44
779,298044787,-2.3506,-1.4141,-1.1157,-117.99,-329.39,89.82
780,298049787,-2.3809,-1.4429,-1.1831,-117.32,-317.62,79.63
781,298054787,-2.3647,-1.4648,-1.2129,-115.18,-305.30,69.33
782,298059787,-2.3296,-1.4746,-1.2729,-113.29,-292.20,59.51
783,298064787,-2.3882,-1.4761,-1.3037,-113.17,-278.84,49.57
784,298069785,-2.2197,-1.5942,-1.3730,-115.73,-265.49,40.00
785,298074787,-2.0781,-1.6265,-1.3486,-118.60,-251.83,31.52
786,298079787,-2.0439,-1.6108,-1.3447,-122.32,-237.13,23.17
787,298084786,-1.9507,-1.5806,-1.3584,-125.61,-221.77,14.82
788,298089787,-1.8081,-1.5459,-1.3589,-127.62,-205.55,6.28
789,298094785,-1.6812,-1.5132,-1.3604,-127.32,-189.39,-2.13
790,298099787,-1.5303,-1.4717,-1.3530,-124.27,-173.29,-10.55
791,298104787,-1.3813,-1.4180,-1.3174,-118.90,-157.13,-18.84
792,298109787,-1.2266,-1.4019,-1.3013,-112.13,-140.73,-27.38
793,298114786,-1.0903,-1.3652,-1.2881,-104.51,-124.76,-36.16
794,298119789,-0.9492,-1.3330,-1.2490,-97.01,-109.33,-45.00
795,298124786,-0.8413,-1.3057,-1.2168,-90.30,-94.02,-54.09
796,298129787,-0.7534,-1.2900,-1.1909,-84.02,-79.51,-63.11
797,298134786,-0.6758,-1.2598,-1.1528,-78.11,-65.55,-72.01
798,298139785,-0.6128,-1.2256,-1.1021,-71.89,-52.32,-80.67
799,298144841,-0.5605,-1.1895,-1.0557,-65.43,-39.51,-89.09
800,298149786,-0.5195,-1.1587,-1.0161,-58.11,-27.50,-97.01
801,298154787,-0.4951,-1.1260,-0.9639,-50.06,-15.98,-104.57
802,298159787,-0.4761,-1.0952,-0.9150,-41.22,-5.24,-111.65
803,298164787,-0.4702,-1.0674,-0.8643,-32.13,4.88,-118.17
804,298169787,-0.4692,-1.0405,-0.8164,-22.99,14.09,-124.21
805,298174787,-0.4761,-1.0200,-0.7656,-14.15,22.68,-129.45
806,298179787,-0.4873,-0.9863,-0.7227,-5.79,30.85,-134.39
807,298184787,-0.4956,-0.9482,-0.6826,2.56,37.87,-138.72
808,298189786,-0.4990,-0.9116,-0.6440,11.65,44.39,-143.05
809,298194788,-0.4976,-0.8887,-0.6118,22.56,50.00,-146.89
810,298199787,-0.4795,-0.9067,-0.5562,34.21,54.51,-150.12
811,298204787,-0.4746,-0.9375,-0.4980,45.37,58.84,-153.23
812,298209787,-0.4722,-0.9644,-0.4624,54.63,62.38,-155.91
813,298214787,-0.4722,-0.9668,-0.4331,62.01,65.61,-158.54
814,298219787,-0.4722,-0.9629,-0.4092,67.20,67.68,-160.91
815,298224787,-0.4644,-0.9614,-0.3569,71.04,69.57,-163.11
816,298229787,-0.4556,-0.9609,-0.3276,73.35,70.49,-165.24
817,298234897,-0.4580,-0.9585,-0.3101,74.51,71.40,-167.13
818,298239785,-0.4502,-0.9536,-0.2720,74.70,71.77,-168.78
819,298244878,-0.4492,-0.9463,-0.2539,74.21,71.77,-170.18
820,298249787,-0.4502,-0.9370,-0.2329,73.29,71.28,-171.28
821,298254786,-0.4526,-0.9355,-0.2109,72.13,70.55,-172.20
822,298259787,-0.4502,-0.9297,-0.1934,70.85,69.57,-172.93
823,298264785,-0.4487,-0.9204,-0.1841,69.45,68.41,-173.11
824,298269787,-0.4858,-0.9185,-0.1665,68.23,67.01,-173.29
825,298274786,-0.4355,-0.9019,-0.1484,66.77,65.55,-173.11
826,298279787,-0.4019,-0.8877,-0.1426,65.30,64.21,-173.05
827,298284787,-0.3867,-0.8984,-0.1304,64.27,62.80,-172.80
828,298289787,-0.3755,-0.9082,-0.1094,62.93,61.46,-172.44
829,298294787,-0.3613,-0.9199,-0.0967,61.22,60.30,-172.13
830,298299787,-0.3330,-0.9204,-0.0845,59.09,59.02,-171.65
831,298304787,-0.3081,-0.9238,-0.0737,56.59,58.11,-171.22
832,298309785,-0.2861,-0.9185,-0.0640,54.15,56.95,-170.98
833,298314789,-0.2715,-0.9102,-0.0630,51.71,56.10,-170.67
834,298319786,-0.2549,-0.9102,-0.0625,49.88,55.37,-170.30
835,298324787,-0.2446,-0.9058,-0.0518,48.78,54.63,-169.94
836,298329787,-0.2427,-0.8652,-0.0596,48.90,54.02,-169.45
837,298334787,-0.2314,-0.8760,-0.0337,50.18,53.60,-169.02
838,298339785,-0.2100,-0.8638,-0.0420,52.26,53.60,-168.66
839,298344787,-0.1924,-0.8457,-0.0366,54.94,53.35,-168.17
840,298349787,-0.1802,-0.8306,-0.0327,57.99,53.05,-167.93
841,298354787,-0.1558,-0.8335,-0.0195,61.46,52.80,-167.32
842,298359787,-0.1323,-0.8091,-0.0049,65.00,52.56,-167.13
843,298364787,-0.1016,-0.8213,-0.0103,68.05,52.32,-166.83
844,298369787,-0.0762,-0.7983,-0.0034,70.30,51.95,-167.01
845,298374785,-0.0767,-0.7710,0.0112,71.89,51.65,-167.26
846,298379785,-0.0532,-0.7583,0.0332,72.44,51.10,-167.80
847,298384787,-0.0151,-0.7690,0.0537,72.32,50.98,-168.29
848,298389787,0.0200,-0.7866,0.0649,72.13,50.49,-168.66
849,298394787,0.0508,-0.7896,0.0610,71.65,49.88,-169.09
850,298399786,0.0737,-0.7949,0.0659,70.91,48.96,-169.21
851,298404787,0.0674,-0.7832,0.0718,69.82,48.05,-169.45
852,298409785,0.0791,-0.7798,0.0576,69.21,47.20,-169.82
853,298414787,0.0981,-0.7729,0.0566,69.15,46.46,-170.12
854,298419786,0.1226,-0.7661,0.0576,69.94,45.67,-170.24
855,298424787,0.1470,-0.7627,0.0532,71.77,45.06,-170.30
856,298429785,0.1680,-0.7520,0.0498,74.76,44.39,-170.24
857,298434789,0.1826,-0.7388,0.0474,78.35,43.90,-170.24
858,298439786,0.2041,-0.7197,0.0498,82.44,43.29,-170.43
859,298444785,0.1968,-0.6777,0.0459,87.20,42.68,-170.79
860,298449787,0.2178,-0.6836,0.0439,92.20,42.26,-171.34
861,298454787,0.2485,-0.6753,0.0400,97.13,41.77,-171.89
862,298459786,0.2534,-0.6738,0.0430,102.01,41.22,-172.44
863,298465219,0.2983,-0.6704,0.0454,106.46,40.55,-173.23
864,298469787,0.3223,-0.6646,0.0518,110.49,39.94,-173.90
865,298475260,0.3359,-0.6367,0.0557,113.96,39.39,-174.51
866,298479787,0.3589,-0.6260,0.0576,117.07,38.54,-175.24
867,298484787,0.3374,-0.6362,0.0557,119.57,37.87,-175.73
868,298489787,0.3804,-0.6143,0.0640,121.40,36.95,-176.28
869,298494787,0.4102,-0.6016,0.0723,123.05,36.28,-176.71
870,298499786,0.4238,-0.5850,0.0820,124.21,35.49,-176.95
871,298504787,0.4282,-0.5610,0.0830,124.94,34.57,-177.13
872,298509789,0.4341,-0.5430,0.0928,124.76,33.84,-177.32
873,298514785,0.4438,-0.5200,0.0928,123.78,33.35,-177.50
874,298519785,0.4531,-0.5015,0.0986,121.89,32.87,-177.80
875,298524805,0.4609,-0.4834,0.1011,119.27,32.56,-178.11
876,298529787,0.4722,-0.4604,0.1240,116.34,32.26,-178.54
877,298534787,0.4800,-0.4482,0.1387,112.87,32.50,-178.78
878,298539787,0.4912,-0.4307,0.1494,108.90,32.44,-178.90
879,298544785,0.4951,-0.4258,0.1543,105.00,32.74,-179.09
880,298549787,0.4932,-0.4131,0.1782,100.98,33.11,-178.96
881,298554787,0.5049,-0.3970,0.1938,96.83,33.29,-178.90
882,298559787,0.5088,-0.3867,0.2148,92.68,33.66,-178.72
883,298564787,0.5107,-0.3789,0.2212,88.78,34.09,-178.35
884,298569786,0.5029,-0.3721,0.2485,85.06,34.70,-177.80
885,298574787,0.4868,-0.3608,0.2617,81.46,35.24,-177.20
886,298579785,0.4805,-0.3579,0.2681,78.11,36.04,-176.52
887,298584789,0.4722,-0.3481,0.2798,74.82,37.01,-175.79
888,298589786,0.4570,-0.3325,0.2861,71.52,37.93,-175.00
889,298595049,0.4546,-0.3120,0.2886,68.35,38.90,-174.09
890,298599787,0.4443,-0.2974,0.2979,65.18,39.94,-173.17
891,298604787,0.4331,-0.2861,0.3008,61.95,41.22,-172.44
892,298609787,0.4219,-0.2822,0.3076,58.96,42.38,-171.71
893,298614788,0.4277,-0.2700,0.3076,56.10,43.90,-170.67
894,298619787,0.4385,-0.2578,0.3076,53.35,45.43,-169.94
895,298624787,0.4575,-0.2397,0.3105,50.49,46.83,-169.27
896,298629787,0.4849,-0.2334,0.3125,47.80,48.29,-168.48
897,298634787,0.5029,-0.2246,0.3203,44.82,50.00,-167.80
898,298639787,0.5269,-0.2109,0.3340,42.13,51.59,-167.13
899,298644786,0.5430,-0.1919,0.3477,39.33,53.11,-166.59
900,298649789,0.5615,-0.1807,0.3564,36.04,55.00,-166.16
901,298654785,0.5688,-0.1792,0.3687,32.80,56.95,-165.73
902,298659787,0.5229,-0.1924,0.3765,29.33,58.72,-165.30
903,298664787,0.5029,-0.1650,0.3765,25.79,60.85,-165.00
904,298669787,0.3481,-0.0938,0.4141,22.50,63.23,-165.00
905,298674787,0.2896,-0.0869,0.3691,20.55,65.61,-164.70
906,298679787,0.3271,-0.0830,0.3398,19.27,67.80,-164.39
907,298685295,0.3447,-0.0801,0.3325,18.41,70.18,-163.90
908,298689787,0.3491,-0.0669,0.3247,17.56,72.20,-163.66
909,298694787,0.3354,-0.0498,0.3081,16.89,74.21,-163.11
910,298699787,0.3154,-0.0259,0.3115,16.22,76.04,-162.68
911,298704787,0.3105,0.0010,0.3032,15.00,78.11,-162.38
912,298709787,0.3164,0.0244,0.3071,13.96,80.30,-161.83
913,298714787,0.3301,0.0391,0.3237,12.50,82.13,-161.28
914,298719787,0.3696,0.0435,0.3364,10.73,85.43,-160.37
915,298724785,0.4517,0.1890,0.3647,9.27,86.16,-159.51
916,298729787,0.5312,0.2729,0.2988,8.41,88.17,-159.33
917,298734787,0.5962,0.2148,0.3032,8.29,89.94,-158.78
918,298739787,0.5957,0.3745,0.4531,9.63,93.29,-158.66
919,298744787,0.5889,0.4302,0.2153,11.89,95.43,-159.33
920,298749787,0.5356,0.4746,0.0972,14.02,95.30,-160.24
921,298754785,0.5107,0.4585,0.2397,16.34,95.73,-161.40
922,298759787,0.5391,0.4966,0.2524,18.48,96.40,-162.74
923,298764787,0.5850,0.5073,0.1450,20.61,96.34,-164.45
924,298769785,0.6104,0.7144,0.2026,21.89,95.61,-167.07
925,298774787,0.5996,0.6650,0.3496,22.07,96.40,-170.61
926,298779786,0.5195,0.5312,0.3887,22.20,97.62,-173.29
927,298784787,0.4814,0.4375,0.2988,22.50,98.41,-174.76
928,298789785,0.5010,0.3433,0.3169,22.68,99.39,-175.61
929,298794785,0.6362,0.2388,0.4780,22.68,100.85,-175.73
930,298799789,0.9795,0.0044,0.5845,22.01,102.80,-174.82
931,298804787,1.5728,-0.4092,0.8164,19.88,105.49,-171.65
932,298809787,2.2188,-0.7798,1.3862,16.83,110.91,-165.30
933,298815083,2.7153,-1.1079,1.6768,11.71,120.91,-154.15
934,298819788,2.3818,-0.9497,1.2788,7.68,127.50,-146.04
935,298824787,1.4609,-0.4668,0.5615,3.29,131.10,-137.74
936,298829787,0.7466,0.0093,0.2368,1.83,131.04,-132.99
937,298834787,0.3569,0.3306,0.2188,2.74,130.18,-130.73
938,298839787,0.1831,0.5112,0.2495,5.06,128.66,-130.24
939,298844787,0.1660,0.5786,0.3125,7.62,127.26,-130.61
940,298849787,0.2773,0.5674,0.4014,9.88,126.22,-131.16
941,298854785,0.4971,0.5059,0.4595,12.20,125.24,-131.28
942,298859787,0.7295,0.4365,0.4443,13.96,123.78,-131.04
943,298864787,0.8965,0.3882,0.4639,15.43,121.89,-130.37
944,298869787,0.9365,0.3750,0.5571,16.46,120.37,-129.39
945,298874787,0.8555,0.4009,0.6084,17.38,118.66,-128.23
946,298879859,0.7388,0.4639,0.6050,18.66,117.07,-127.44
947,298884787,0.6641,0.5225,0.6255,20.24,115.24,-126.77
948,298889786,0.6519,0.5586,0.6875,22.13,113.66,-126.16
949,298894787,0.6836,0.5649,0.7324,23.84,112.07,-125.49
950,298899788,0.7114,0.5488,0.7441,25.98,110.30,-124.51
951,298904787,0.7188,0.5337,0.7656,27.87,108.54,-123.29
952,298909787,0.7280,0.5610,0.7935,29.63,106.71,-121.83
953,298914787,0.7251,0.5864,0.8130,31.28,104.88,-120.37
954,298919787,0.7070,0.6284,0.8286,32.80,102.99,-118.84
955,298924836,0.7007,0.6689,0.8706,34.21,101.10,-117.32
956,298929788,0.6919,0.6958,0.9224,35.43,99.76,-115.79
957,298934785,0.6797,0.7119,0.9468,36.77,98.17,-114.33
958,298939785,0.6646,0.7075,0.9863,38.05,97.13,-112.50
959,298944788,0.6475,0.7075,1.0239,39.33,95.91,-110.55
960,298949786,0.6343,0.7017,1.0625,40.49,95.12,-108.48
961,298954787,0.6348,0.7183,1.0801,41.89,94.63,-106.10
962,298959787,0.6216,0.7305,1.1133,43.05,93.84,-103.29
963,298964787,0.6143,0.7441,1.1440,44.39,93.41,-100.73
964,298969786,0.6099,0.7573,1.1650,45.67,93.11,-97.93
965,298974787,0.5938,0.7632,1.1719,46.59,92.80,-94.94
966,298979785,0.5869,0.7812,1.1865,47.44,92.62,-91.95
967,298984863,0.5757,0.7900,1.1973,47.80,92.44,-88.78
968,298989786,0.5752,0.7822,1.2026,47.87,91.89,-85.61
969,298994787,0.5669,0.7744,1.1919,47.07,91.77,-82.20
970,298999786,0.5620,0.7671,1.1904,45.85,91.10,-78.66
971,299004787,0.5552,0.7720,1.1860,44.02,90.67,-75.06
972,299009785,0.5547,0.7700,1.1772,41.71,90.06,-71.59
973,299014868,0.5635,0.7764,1.1655,38.96,88.84,-67.80
974,299019788,0.5659,0.7710,1.1606,35.85,88.35,-64.33
975,299024787,0.5669,0.7612,1.1606,32.62,85.98,-60.73
976,299029788,0.5674,0.7505,1.1514,29.39,85.24,-57.01
977,299035108,0.5718,0.7451,1.1519,25.67,85.24,-52.50
978,299039787,0.5723,0.7402,1.1499,23.60,85.00,-49.70
979,299044787,0.5713,0.7417,1.1411,21.28,82.74,-45.98
980,299049787,0.5698,0.7319,1.1357,19.39,80.79,-42.50
981,299054785,0.5703,0.7290,1.1338,17.99,79.02,-38.96
982,299059785,0.5776,0.7275,1.1338,17.20,77.26,-35.55
983,299064785,0.5654,0.7183,1.1343,16.71,75.30,-32.32
984,299069787,0.5815,0.7275,1.1211,16.40,73.29,-29.09
985,299074787,0.5864,0.7290,1.1108,16.71,71.04,-26.10
986,299079787,0.5938,0.7427,1.1050,17.62,68.78,-23.11
987,299084787,0.6016,0.7451,1.1040,18.90,66.52,-20.49
988,299089788,0.6040,0.7427,1.1177,20.61,63.90,-17.99
989,299094785,0.5933,0.7808,1.1489,22.87,61.65,-15.55
990,299099789,0.5625,0.7676,1.1396,25.79,59.09,-13.35
991,299104787,0.5830,0.7334,1.1372,29.02,56.46,-11.04
992,299109787,0.6006,0.7017,1.1309,32.26,53.96,-8.48
993,299114787,0.5933,0.6880,1.1479,35.61,51.34,-5.98
994,299119788,0.5664,0.6812,1.1445,39.27,48.96,-3.60
995,299124787,0.5503,0.6865,1.1260,42.50,46.22,-1.22
996,299129788,0.5439,0.6826,1.1128,45.85,43.60,1.22
997,299134785,0.5391,0.6753,1.1206,49.02,40.91,3.41
998,299139787,0.5371,0.6714,1.1143,51.71,38.41,5.91
999,299144786,0.5366,0.6680,1.0981,54.27,35.67,8.17
1000,299149788,0.5269,0.6646,1.0938,56.65,32.93,10.43
1001,299154787,0.5186,0.6641,1.1030,58.54,30.18,12.38
1002,299159787,0.5093,0.6665,1.0967,59.94,27.62,14.51
1003,299164785,0.5068,0.6655,1.0908,61.04,25.00,16.46
1004,299169787,0.4995,0.6724,1.0938,61.95,22.38,18.60
1005,299174787,0.4902,0.6777,1.0947,62.38,19.82,20.30
1006,299179788,0.4897,0.6787,1.0884,62.50,17.26,21.95
1007,299184787,0.4878,0.6743,1.0854,62.13,14.70,23.54
1008,299189786,0.4829,0.6689,1.0806,61.34,12.38,25.12
1009,299194788,0.4844,0.6631,1.0771,60.37,10.06,26.65
1010,299199788,0.4819,0.6592,1.0703,58.96,7.68,28.11
1011,299204785,0.4883,0.6558,1.0703,57.50,5.37,29.45
1012,299209789,0.4878,0.6597,1.0791,55.98,3.11,30.79
1013,299214787,0.4834,0.6621,1.0703,54.57,1.04,31.95
1014,299219787,0.4829,0.6655,1.0625,53.29,-1.10,33.05
1015,299224787,0.4863,0.6694,1.0586,52.13,-3.17,34.02
1016,299229787,0.4912,0.6675,1.0527,51.04,-5.37,34.88
1017,299234787,0.4976,0.6611,1.0483,49.94,-7.26,35.79
1018,299239787,0.4985,0.6572,1.0464,48.84,-9.51,36.52
1019,299244787,0.5044,0.6543,1.0288,47.87,-11.52,37.20
1020,299249787,0.5000,0.6528,1.0225,46.95,-13.54,37.87
1021,299254787,0.4951,0.6479,1.0215,46.28,-15.55,38.60
1022,299259787,0.4956,0.6514,1.0122,45.49,-17.50,39.09
1023,299264785,0.4902,0.6411,1.0034,44.82,-19.39,39.70
1024,299269788,0.4888,0.6328,0.9883,44.15,-20.98,40.30
1025,299274787,0.4932,0.6265,0.9829,43.54,-22.93,40.73
1026,299279786,0.4897,0.6211,0.9722,42.68,-24.76,41.16
1027,299284787,0.4844,0.6196,0.9624,41.95,-26.52,41.65
1028,299289785,0.4883,0.6079,0.9536,41.28,-28.17,42.13
1029,299294787,0.4863,0.6069,0.9448,40.61,-29.70,42.56
1030,299299786,0.4834,0.6021,0.9307,39.88,-31.46,43.05
1031,299304785,0.4902,0.6030,0.9307,39.33,-32.99,43.35
1032,299309788,0.4907,0.5967,0.9175,38.90,-34.27,43.72
1033,299314789,0.4922,0.5981,0.9146,38.48,-35.67,43.96
1034,299319785,0.4868,0.6006,0.9028,38.17,-36.83,44.27
1035,299324862,0.4897,0.5996,0.8955,38.05,-38.11,44.39
1036,299329789,0.4888,0.5967,0.8818,37.93,-39.27,44.51
1037,299334787,0.4907,0.5942,0.8784,38.05,-40.43,44.70
1038,299339787,0.4941,0.5972,0.8711,37.93,-41.34,44.76
1039,299345243,0.4956,0.5947,0.8628,37.99,-42.26,44.76
1040,299349787,0.4956,0.5913,0.8521,38.05,-43.05,44.88
1041,299354787,0.4932,0.5864,0.8384,38.11,-43.72,44.82
1042,299359787,0.4927,0.5820,0.8330,38.11,-44.39,45.00
1043,299364785,0.4961,0.5815,0.8252,38.11,-45.00,44.94
1044,299369789,0.4966,0.5757,0.8218,37.93,-45.55,44.94
1045,299374786,0.4976,0.5820,0.8125,37.93,-46.10,45.00
1046,299379789,0.4961,0.5835,0.8076,37.80,-46.46,45.00
1047,299384787,0.4956,0.5840,0.7979,37.80,-46.95,44.88
1048,299389786,0.4985,0.5874,0.7939,37.80,-47.13,44.76
1049,299394787,0.4980,0.5854,0.7842,37.74,-47.44,44.57
1050,299399785,0.4966,0.5889,0.7856,37.80,-47.68,44.39
1051,299404785,0.4946,0.5879,0.7729,37.93,-47.74,44.15
1052,299409786,0.4956,0.5835,0.7705,37.87,-47.87,43.90
1053,299414787,0.4937,0.5835,0.7642,37.62,-47.99,43.60
1054,299419786,0.4941,0.5806,0.7534,37.44,-48.23,43.35
1055,299424787,0.4927,0.5762,0.7505,37.01,-48.17,43.05
1056,299429785,0.5000,0.5791,0.7417,36.77,-48.23,42.74
1057,299434790,0.5015,0.5781,0.7393,36.16,-48.17,42.44
1058,299439786,0.5068,0.5835,0.7393,35.73,-48.11,42.01
1059,299444787,0.5073,0.5854,0.7222,35.18,-47.87,41.65
1060,299449786,0.5122,0.5825,0.7246,34.70,-47.80,41.16
1061,299454789,0.5117,0.5854,0.7153,34.15,-47.68,40.73
1062,299459925,0.5186,0.5869,0.7090,33.48,-47.56,40.24
1063,299464785,0.5210,0.5894,0.7051,32.93,-47.44,39.82
1064,299469788,0.5288,0.5884,0.6938,32.44,-47.38,39.21
1065,299474787,0.5303,0.5903,0.6924,32.13,-47.01,38.72
1066,299479787,0.5371,0.5884,0.6860,31.71,-46.83,38.17
1067,299484786,0.5376,0.5845,0.6782,31.22,-46.65,37.56
1068,299489787,0.5405,0.5884,0.6777,30.79,-46.34,36.95
1069,299494787,0.5469,0.5859,0.6733,30.37,-45.85,36.59
1070,299499787,0.5498,0.5811,0.6685,29.94,-45.61,35.91
1071,299504785,0.5537,0.5786,0.6582,29.45,-45.30,35.37
1072,299509785,0.5522,0.5811,0.6577,29.02,-44.88,34.76
1073,299514802,0.5557,0.5757,0.6484,28.54,-44.57,34.27
1074,299519787,0.5557,0.5757,0.6445,27.93,-44.27,33.72
1075,299524787,0.5596,0.5820,0.6440,27.32,-43.96,33.05
1076,299529788,0.5640,0.5786,0.6284,26.77,-43.54,32.38
1077,299534785,0.5664,0.5806,0.6299,26.28,-43.05,31.77
1078,299539785,0.5703,0.5825,0.6211,25.67,-42.62,31.04
1079,299544789,0.5742,0.5801,0.6299,25.24,-42.13,30.37
1080,299549787,0.5757,0.5786,0.6226,24.57,-41.65,29.57
1081,299554786,0.5781,0.5752,0.6187,23.96,-41.22,29.02
1082,299559789,0.5820,0.5762,0.6138,23.48,-40.55,28.35
1083,299564785,0.5884,0.5723,0.6108,22.87,-40.06,27.62
1084,299569789,0.5889,0.5664,0.6011,22.38,-39.51,26.95
1085,299574786,0.5957,0.5640,0.6030,21.83,-39.02,26.34
1086,299579789,0.5996,0.5664,0.5933,21.34,-38.29,25.61
1087,299584785,0.5991,0.5581,0.5967,20.79,-37.74,25.00
1088,299589787,0.6025,0.5576,0.5918,20.37,-37.13,24.33
1089,299594789,0.6055,0.5586,0.5933,19.94,-36.46,23.60
1090,299599786,0.6113,0.5596,0.5894,19.51,-36.04,23.05
1091,299604785,0.6157,0.5601,0.5830,19.27,-35.43,22.32
1092,299609785,0.6138,0.5645,0.5820,18.96,-34.76,21.71
1093,299614785,0.6221,0.5625,0.5801,18.66,-34.09,20.98
1094,299619787,0.6196,0.5591,0.5732,18.41,-33.54,20.24
1095,299624787,0.6255,0.5566,0.5728,18.23,-32.87,19.57
1096,299629787,0.6250,0.5562,0.5723,17.68,-32.13,18.90
1097,299634787,0.6348,0.5576,0.5649,17.32,-31.65,18.23
1098,299639786,0.6392,0.5566,0.5591,17.07,-31.10,17.50
1099,299644787,0.6460,0.5581,0.5610,16.46,-30.43,16.71
1100,299649786,0.6494,0.5601,0.5508,15.79,-30.06,15.91
1101,299654787,0.6562,0.5576,0.5493,15.24,-29.63,15.30
1102,299659785,0.6606,0.5581,0.5430,14.63,-29.27,14.39
1103,299664789,0.6675,0.5605,0.5420,13.78,-28.78,13.66
1104,299669786,0.6709,0.5586,0.5444,12.93,-28.54,12.87
1105,299675042,0.6772,0.5591,0.5376,12.32,-27.99,12.13
1106,299679786,0.6792,0.5513,0.5464,11.77,-27.56,11.34
1107,299684992,0.6816,0.5493,0.5420,11.16,-27.13,10.61
1108,299689786,0.6846,0.5518,0.5459,10.49,-26.71,9.94
1109,299694787,0.6865,0.5479,0.5508,10.06,-26.28,9.39
1110,299699789,0.6929,0.5439,0.5547,9.51,-25.61,8.54
1111,299704787,0.6982,0.5444,0.5591,9.02,-25.12,7.99
1112,299709787,0.7021,0.5420,0.5581,8.66,-24.51,7.56
1113,299714785,0.7051,0.5464,0.5552,8.23,-23.90,6.89
1114,299719787,0.7100,0.5439,0.5615,7.99,-23.17,6.28
1115,299725258,0.7134,0.5449,0.5576,7.68,-22.50,5.67
1116,299729788,0.7173,0.5459,0.5508,7.62,-22.01,5.12
1117,299734876,0.7202,0.5479,0.5576,7.44,-21.28,4.45
1118,299739788,0.7246,0.5513,0.5576,7.56,-20.73,4.02
1119,299744786,0.7285,0.5518,0.5557,7.68,-20.00,3.48
1120,299749788,0.7275,0.5503,0.5547,7.80,-19.39,3.11
1121,299754787,0.7319,0.5479,0.5576,7.99,-18.78,2.62
1122,299759788,0.7324,0.5493,0.5566,8.48,-17.93,2.07
