# skilleye imu stream v1
# device=xiao_esp32c6 imu=mpu6050 addr=0x68
# rate_hz=200 accel_range_g=16 gyro_range_dps=2000 dlpf_hz=94
# units: accel in g, gyro in deg/s, t_us in microseconds since boot (monotonic)
# no shared clock with the camera -- tap the racket once before each take
# so both recordings share a spike to align on
seq,t_us,ax,ay,az,gx,gy,gz
0,436594515,-0.9243,0.1504,-0.1646,-4.39,-16.34,1.83
1,436599518,-0.9209,0.1494,-0.1675,-4.45,-15.91,2.01
2,436604514,-0.9199,0.1484,-0.1719,-4.76,-15.18,2.20
3,436609514,-0.9224,0.1499,-0.1704,-4.76,-14.63,2.38
4,436614518,-0.9224,0.1470,-0.1777,-4.94,-13.84,2.50
5,436619516,-0.9258,0.1411,-0.1753,-5.24,-13.23,2.68
6,436624516,-0.9277,0.1426,-0.1743,-5.43,-12.56,2.80
7,436629514,-0.9243,0.1392,-0.1704,-5.55,-12.01,2.93
8,436634514,-0.9229,0.1396,-0.1758,-5.79,-11.46,3.11
9,436639518,-0.9268,0.1401,-0.1748,-5.98,-10.73,3.23
10,436644515,-0.9204,0.1431,-0.1777,-6.16,-10.06,3.29
11,436649514,-0.9199,0.1475,-0.1729,-6.28,-9.57,3.48
12,436654518,-0.9229,0.1440,-0.1738,-6.28,-9.09,3.48
13,436659516,-0.9229,0.1436,-0.1748,-6.10,-8.29,3.41
14,436664515,-0.9243,0.1460,-0.1777,-5.85,-7.93,3.54
15,436669516,-0.9233,0.1455,-0.1753,-5.49,-7.26,3.60
16,436674515,-0.9189,0.1426,-0.1792,-5.18,-6.83,3.54
17,436679515,-0.9233,0.1479,-0.1748,-4.63,-6.40,3.60
18,436684518,-0.9268,0.1455,-0.1787,-4.27,-5.79,3.66
19,436689516,-0.9263,0.1436,-0.1743,-3.72,-5.24,3.66
20,436694515,-0.9292,0.1450,-0.1792,-3.05,-4.94,3.66
21,436699758,-0.9316,0.1445,-0.1797,-2.38,-4.45,3.78
22,436704516,-0.9370,0.1436,-0.1753,-1.77,-4.15,3.90
23,436709517,-0.9370,0.1436,-0.1743,-1.04,-3.90,3.90
24,436714516,-0.9341,0.1460,-0.1758,-0.37,-3.54,3.96
25,436719515,-0.9346,0.1396,-0.1782,0.43,-3.17,4.02
26,436724519,-0.9399,0.1401,-0.1782,1.04,-2.93,4.09
27,436729515,-0.9375,0.1411,-0.1782,1.83,-2.68,4.15
28,436734514,-0.9351,0.1445,-0.1724,2.44,-2.38,4.21
29,436739517,-0.9365,0.1421,-0.1768,3.17,-2.20,4.27
30,436744516,-0.9380,0.1416,-0.1787,3.78,-2.20,4.39
31,436749515,-0.9365,0.1440,-0.1812,4.33,-1.95,4.33
32,436754517,-0.9370,0.1431,-0.1831,4.88,-1.89,4.45
33,436759516,-0.9434,0.1377,-0.1782,5.24,-1.83,4.57
34,436764515,-0.9414,0.1411,-0.1802,5.61,-1.95,4.45
35,436769518,-0.9424,0.1421,-0.1782,5.79,-2.13,4.63
36,436774515,-0.9414,0.1401,-0.1826,6.28,-2.07,4.76
37,436779516,-0.9448,0.1416,-0.1836,6.28,-2.44,4.82
38,436784515,-0.9463,0.1416,-0.1792,6.52,-2.44,4.82
39,436789518,-0.9473,0.1411,-0.1812,6.59,-2.62,4.94
40,436794514,-0.9458,0.1416,-0.1841,6.59,-2.62,5.06
41,436799518,-0.9487,0.1406,-0.1753,6.59,-2.80,5.06
42,436804515,-0.9468,0.1401,-0.1768,6.52,-2.93,5.12
43,436809516,-0.9487,0.1416,-0.1729,6.46,-3.23,5.18
44,436814514,-0.9463,0.1416,-0.1680,6.40,-3.23,5.24
45,436819514,-0.9468,0.1367,-0.1685,6.28,-3.29,5.37
46,436824514,-0.9434,0.1396,-0.1699,6.28,-3.29,5.43
47,436829518,-0.9434,0.1396,-0.1685,6.10,-3.41,5.49
48,436834515,-0.9473,0.1348,-0.1685,6.04,-3.60,5.55
49,436839983,-0.9458,0.1353,-0.1724,5.91,-3.54,5.61
50,436844516,-0.9478,0.1318,-0.1719,5.61,-3.54,5.73
51,436849515,-0.9438,0.1328,-0.1729,5.49,-3.66,5.79
52,436854517,-0.9434,0.1343,-0.1738,5.24,-3.60,5.98
53,436859516,-0.9424,0.1357,-0.1719,5.06,-3.54,5.85
54,436864515,-0.9434,0.1353,-0.1758,4.76,-3.60,5.85
55,436869516,-0.9429,0.1357,-0.1704,4.70,-3.66,6.04
56,436874514,-0.9385,0.1348,-0.1729,4.57,-3.54,5.85
57,436879515,-0.9385,0.1357,-0.1724,4.33,-3.54,5.91
58,436884518,-0.9375,0.1348,-0.1675,4.33,-3.35,5.79
59,436889516,-0.9419,0.1367,-0.1611,4.15,-3.17,5.67
60,436894515,-0.9385,0.1392,-0.1582,4.15,-2.99,5.55
61,436899535,-0.9375,0.1372,-0.1606,3.96,-2.93,5.43
62,436904514,-0.9385,0.1382,-0.1655,3.96,-2.50,5.37
63,436909518,-0.9375,0.1357,-0.1650,3.78,-2.32,5.24
64,436914514,-0.9424,0.1362,-0.1636,3.72,-2.07,5.18
65,436919518,-0.9419,0.1392,-0.1616,3.54,-1.77,5.06
66,436924515,-0.9458,0.1367,-0.1631,3.54,-1.46,5.00
67,436929514,-0.9502,0.1426,-0.1562,3.35,-1.10,4.94
68,436934517,-0.9575,0.1416,-0.1567,3.11,-0.67,4.88
69,436939514,-0.9634,0.1392,-0.1641,2.99,-0.43,4.82
70,436944546,-0.9668,0.1450,-0.1631,2.74,-0.06,4.82
71,436949516,-0.9736,0.1450,-0.1602,2.50,0.24,4.76
72,436954515,-0.9688,0.1450,-0.1597,2.32,0.61,4.82
73,436959517,-0.9727,0.1489,-0.1572,2.07,0.98,4.70
74,436964516,-0.9712,0.1484,-0.1528,1.83,1.28,4.63
75,436969516,-0.9692,0.1499,-0.1484,1.46,1.71,4.57
76,436974516,-0.9683,0.1523,-0.1440,1.16,2.01,4.57
77,436979515,-0.9673,0.1567,-0.1382,0.98,2.44,4.57
78,436984516,-0.9648,0.1631,-0.1431,0.73,2.80,4.51
79,436989517,-0.9668,0.1602,-0.1426,0.43,2.99,4.39
80,436994607,-0.9609,0.1680,-0.1343,0.49,3.35,4.45
81,436999515,-0.9556,0.1714,-0.1299,0.43,3.66,4.51
82,437004516,-0.9575,0.1782,-0.1343,0.49,3.78,4.39
83,437009516,-0.9546,0.1802,-0.1343,0.49,3.96,4.45
84,437014516,-0.9580,0.1890,-0.1309,0.67,4.09,4.51
85,437019515,-0.9604,0.1943,-0.1284,0.85,4.15,4.45
86,437024516,-0.9614,0.2041,-0.1313,0.91,4.33,4.51
87,437029516,-0.9600,0.2109,-0.1299,1.16,4.39,4.45
88,437034516,-0.9634,0.2178,-0.1309,1.46,4.57,4.33
89,437039514,-0.9595,0.2285,-0.1279,1.71,4.63,4.27
90,437044806,-0.9600,0.2354,-0.1284,2.07,4.76,4.33
91,437049516,-0.9526,0.2437,-0.1279,2.26,5.00,4.33
92,437054515,-0.9512,0.2451,-0.1226,2.38,5.18,4.33
93,437059514,-0.9507,0.2476,-0.1309,2.38,5.37,4.51
94,437064518,-0.9551,0.2490,-0.1318,2.13,5.61,4.82
95,437069515,-0.9565,0.2515,-0.1274,1.52,5.85,5.30
96,437074516,-0.9575,0.2500,-0.1299,0.79,5.85,5.91
97,437079515,-0.9546,0.2588,-0.1274,-0.30,6.40,6.71
98,437084515,-0.9458,0.2676,-0.1274,-1.52,6.52,7.56
99,437089517,-0.9429,0.2764,-0.1392,-2.99,6.59,8.41
100,437094516,-0.9404,0.2803,-0.1489,-5.00,6.59,9.39
101,437099515,-0.9355,0.2900,-0.1460,-7.26,6.52,10.30
102,437104518,-0.9346,0.2959,-0.1504,-9.70,6.46,11.40
103,437109516,-0.9331,0.3032,-0.1465,-12.32,6.22,12.56
104,437114516,-0.9385,0.3052,-0.1465,-15.00,6.04,13.84
105,437119519,-0.9502,0.3086,-0.1382,-17.62,5.98,15.06
106,437124517,-0.9546,0.3154,-0.1245,-20.24,5.61,16.65
107,437129516,-0.9609,0.3252,-0.1245,-22.68,5.49,17.99
108,437134516,-0.9595,0.3301,-0.1328,-25.12,5.18,19.27
109,437139514,-0.9478,0.3696,-0.1704,-28.17,4.88,20.73
110,437144514,-0.9678,0.3560,-0.1875,-32.44,4.39,21.83
111,437149517,-0.9907,0.3120,-0.1367,-37.07,4.27,23.48
112,437154516,-1.0176,0.3018,-0.0967,-41.59,4.51,25.30
113,437159515,-1.0171,0.3398,-0.0903,-45.61,5.00,27.32
114,437164515,-0.9819,0.3892,-0.1138,-49.15,5.00,29.09
115,437169516,-0.9326,0.4194,-0.1196,-52.62,4.82,30.43
116,437174515,-0.8965,0.4272,-0.1035,-56.04,4.33,31.65
117,437179516,-0.8843,0.4375,-0.1284,-59.63,3.48,32.99
118,437184515,-0.9136,0.4438,-0.1689,-64.15,2.50,34.02
119,437189516,-0.9468,0.4258,-0.1523,-69.15,1.34,35.30
120,437194516,-0.9707,0.4019,-0.0913,-74.27,0.61,36.71
121,437199517,-0.9810,0.4141,-0.0684,-78.90,0.00,38.35
122,437204514,-0.9893,0.4580,-0.0815,-82.20,-0.73,40.00
123,437209516,-0.9761,0.4785,-0.0942,-84.45,-1.83,41.52
124,437214515,-0.9575,0.4971,-0.1182,-86.46,-3.60,42.99
125,437219516,-0.9517,0.4775,-0.1577,-88.60,-5.49,44.27
126,437224514,-0.9600,0.4478,-0.1533,-90.85,-7.50,45.98
127,437229516,-0.9966,0.4082,-0.1333,-93.29,-9.88,48.17
128,437234515,-1.0400,0.3896,-0.1030,-95.43,-11.83,50.73
129,437239516,-1.0728,0.3882,-0.0791,-96.95,-13.72,53.48
130,437244520,-1.0791,0.3989,-0.0703,-97.56,-15.37,56.40
131,437249515,-1.0576,0.4116,-0.0645,-97.62,-17.07,59.39
132,437254515,-1.0215,0.4277,-0.0591,-97.50,-19.02,62.26
133,437259516,-0.9839,0.4355,-0.0610,-96.89,-21.04,64.88
134,437264517,-0.9570,0.4497,-0.0586,-96.34,-23.17,67.56
135,437269516,-0.9468,0.4580,-0.0542,-95.30,-25.61,70.00
136,437274516,-0.9482,0.4741,-0.0469,-94.02,-28.11,72.32
137,437279515,-0.9438,0.4824,-0.0449,-92.38,-30.55,74.63
138,437284516,-0.9453,0.4927,-0.0366,-90.55,-33.11,76.83
139,437289515,-0.9453,0.5034,-0.0200,-88.54,-35.37,78.90
140,437294516,-0.9570,0.5068,-0.0146,-86.46,-37.74,81.16
141,437299516,-0.9658,0.5054,-0.0137,-84.51,-40.24,83.35
142,437304516,-0.9780,0.5083,-0.0098,-82.44,-42.50,85.79
143,437309515,-0.9795,0.5098,-0.0117,-80.49,-44.94,87.56
144,437314835,-0.9844,0.5146,-0.0020,-78.60,-47.32,88.54
145,437319517,-0.9805,0.5161,0.0034,-76.77,-49.57,90.98
146,437324515,-0.9731,0.5239,0.0127,-74.51,-51.83,92.99
147,437329518,-0.9639,0.5356,0.0225,-72.44,-53.90,94.82
148,437334515,-0.9595,0.5405,0.0298,-70.12,-55.85,96.59
149,437339516,-0.9502,0.5391,0.0474,-67.68,-57.93,98.29
150,437344514,-0.9507,0.5400,0.0542,-65.06,-59.63,99.82
151,437349514,-0.9497,0.5469,0.0664,-62.20,-61.40,101.65
152,437354516,-0.9521,0.5464,0.0654,-59.15,-62.80,103.17
153,437359518,-0.9575,0.5552,0.0713,-55.98,-64.27,104.76
154,437364515,-0.9668,0.5625,0.0771,-52.62,-65.49,106.28
155,437369516,-0.9702,0.5742,0.0898,-49.09,-66.71,107.38
156,437374514,-0.9766,0.5820,0.0967,-45.12,-67.56,109.02
157,437379516,-0.9814,0.5933,0.1060,-41.04,-68.54,110.18
158,437384516,-1.0176,0.6274,0.1064,-36.95,-69.09,111.34
159,437389517,-1.0264,0.6230,0.1182,-33.05,-69.57,112.44
160,437394514,-1.0088,0.6221,0.1431,-29.21,-69.88,113.78
161,437399518,-0.9951,0.6201,0.1655,-25.30,-69.76,115.12
162,437404515,-1.0059,0.6328,0.1831,-21.40,-69.39,116.59
163,437409516,-1.0195,0.6440,0.1948,-17.44,-68.84,118.17
164,437414514,-1.0386,0.6509,0.1943,-13.48,-68.41,119.82
165,437419516,-1.0552,0.6616,0.1938,-9.57,-67.56,121.65
166,437424515,-1.0620,0.6685,0.1895,-5.91,-66.65,123.41
167,437429516,-1.0767,0.6719,0.1890,-2.87,-65.91,125.18
168,437434514,-1.0742,0.6782,0.1782,0.06,-65.06,126.89
169,437439516,-1.0732,0.6895,0.1733,2.38,-64.27,128.72
170,437444515,-1.0776,0.6938,0.1689,4.33,-63.72,130.49
171,437449514,-1.0698,0.7007,0.1743,6.10,-62.80,132.01
172,437454518,-1.0693,0.7144,0.1768,7.68,-62.07,133.60
173,437459516,-1.0723,0.7266,0.1782,9.02,-61.40,135.18
174,437464516,-1.0771,0.7354,0.1831,10.37,-60.55,136.77
175,437469517,-1.0811,0.7397,0.1929,11.52,-59.33,138.29
176,437474516,-1.0835,0.7437,0.1958,12.50,-58.35,139.94
177,437479516,-1.0786,0.7466,0.2090,13.54,-57.13,141.40
178,437484516,-1.0747,0.7490,0.2109,14.27,-55.79,142.93
179,437489515,-1.0659,0.7520,0.2090,14.76,-54.45,144.45
180,437494516,-1.0498,0.7505,0.2158,15.00,-52.93,145.85
181,437499516,-1.0376,0.7549,0.2100,15.00,-51.59,147.20
182,437504517,-1.0161,0.7559,0.2095,14.57,-50.18,148.54
183,437509515,-0.9976,0.7632,0.2065,13.78,-48.78,149.63
184,437514516,-0.9736,0.7651,0.1992,12.68,-47.56,150.67
185,437519516,-0.9517,0.7700,0.1924,11.04,-46.65,151.59
186,437524516,-0.9229,0.7676,0.1953,9.15,-45.73,152.38
187,437529515,-0.9043,0.7656,0.1826,6.89,-44.88,153.23
188,437534516,-0.8882,0.7642,0.1772,4.33,-44.15,153.96
189,437539516,-0.8647,0.7603,0.1748,1.46,-43.48,154.57
190,437544516,-0.8467,0.7632,0.1699,-1.71,-42.99,155.24
191,437549517,-0.8330,0.7666,0.1641,-4.88,-42.44,155.79
192,437554516,-0.8281,0.7637,0.1626,-8.23,-41.95,156.34
193,437559516,-0.8203,0.7617,0.1694,-11.46,-41.65,157.07
194,437564516,-0.8193,0.7642,0.1665,-14.76,-41.04,157.62
195,437569514,-0.8174,0.7754,0.1719,-17.93,-40.43,158.35
196,437574516,-0.8203,0.7759,0.1758,-20.67,-39.82,158.90
197,437579516,-0.8174,0.7803,0.1748,-23.72,-39.15,159.45
198,437584516,-0.8135,0.7808,0.1855,-26.28,-38.60,159.88
199,437589515,-0.7988,0.7871,0.1787,-28.72,-37.74,160.37
200,437594516,-0.7891,0.7949,0.1855,-30.98,-36.95,160.79
201,437599515,-0.7798,0.8008,0.1982,-33.17,-36.34,160.98
202,437604516,-0.7700,0.8086,0.1978,-35.18,-35.67,161.28
203,437609516,-0.7588,0.8262,0.2026,-37.20,-35.12,161.40
204,437614516,-0.7466,0.8291,0.2065,-38.90,-34.63,161.59
205,437619515,-0.7363,0.8423,0.2070,-40.55,-34.15,161.40
206,437624516,-0.7197,0.8511,0.2065,-42.32,-33.72,161.34
207,437629515,-0.7031,0.8652,0.2017,-43.72,-33.35,161.04
208,437634517,-0.6880,0.8755,0.2061,-45.37,-33.23,160.49
209,437639516,-0.6777,0.8828,0.2104,-46.83,-33.05,159.88
210,437644515,-0.6680,0.8867,0.2129,-48.17,-32.74,159.09
211,437649516,-0.6538,0.8901,0.2144,-49.45,-32.50,158.11
212,437654514,-0.6479,0.9102,0.2114,-50.67,-32.20,157.32
213,437659515,-0.6445,0.9185,0.2202,-51.89,-31.89,156.04
214,437664517,-0.6445,0.9272,0.2266,-52.32,-31.40,155.00
215,437669991,-0.6445,0.9326,0.2266,-53.23,-30.85,153.72
216,437674516,-0.6440,0.9404,0.2310,-53.60,-30.43,152.74
217,437679517,-0.6450,0.9390,0.2393,-54.02,-29.94,151.59
218,437684516,-0.6416,0.9380,0.2275,-54.51,-29.33,150.43
219,437689515,-0.6323,0.9351,0.2168,-55.24,-28.96,149.27
220,437694516,-0.6230,0.9302,0.2119,-56.04,-28.66,147.93
221,437699515,-0.6118,0.9282,0.2178,-56.83,-28.35,146.71
222,437704515,-0.6016,0.9292,0.2080,-57.87,-28.23,145.18
223,437709518,-0.6025,0.9341,0.2065,-58.60,-27.87,143.84
224,437714515,-0.5952,0.9380,0.2124,-59.33,-27.62,142.32
225,437719516,-0.5874,0.9375,0.2231,-60.12,-27.38,140.67
226,437724514,-0.5776,0.9429,0.2246,-60.67,-27.13,138.84
227,437729516,-0.5649,0.9395,0.2290,-61.40,-26.77,137.07
228,437734515,-0.5483,0.9443,0.2319,-62.20,-26.46,135.06
229,437739516,-0.5347,0.9365,0.2285,-62.87,-25.85,132.87
230,437744514,-0.5171,0.9189,0.2231,-63.78,-25.49,130.91
231,437749516,-0.4922,0.9067,0.2246,-64.51,-25.12,128.84
232,437754516,-0.4790,0.8950,0.2251,-65.55,-24.88,126.83
233,437759946,-0.4565,0.8789,0.2178,-66.83,-24.70,124.51
234,437764516,-0.4468,0.8696,0.2139,-67.87,-24.63,122.87
235,437769515,-0.4258,0.8535,0.2046,-69.02,-24.82,121.10
236,437774516,-0.4082,0.8442,0.2095,-70.24,-25.12,119.21
237,437779516,-0.3906,0.8364,0.2046,-71.28,-25.37,117.38
238,437784515,-0.3760,0.8291,0.2085,-72.44,-25.61,115.61
239,437789516,-0.3613,0.8325,0.2046,-73.35,-26.04,113.66
240,437794514,-0.3516,0.8389,0.2090,-74.15,-26.34,111.71
241,437799517,-0.3369,0.8423,0.2129,-74.63,-26.59,109.82
242,437804515,-0.3369,0.8374,0.2129,-74.94,-26.71,107.99
243,437809518,-0.3350,0.8257,0.2261,-75.00,-26.89,106.10
244,437814514,-0.3340,0.8149,0.2285,-74.70,-26.77,104.45
245,437819516,-0.3311,0.8027,0.2422,-74.02,-26.59,102.87
246,437824515,-0.3325,0.7910,0.2520,-73.05,-26.28,101.46
247,437829516,-0.3203,0.7817,0.2666,-71.46,-25.98,100.37
248,437834514,-0.3066,0.7715,0.2686,-69.82,-25.37,99.33
249,437839518,-0.2925,0.7715,0.2817,-67.80,-24.82,98.41
250,437844515,-0.2754,0.7661,0.2920,-65.85,-24.27,97.50
251,437849516,-0.2534,0.7598,0.2920,-63.66,-23.84,96.59
252,437854514,-0.2310,0.7583,0.2974,-61.52,-23.48,95.61
253,437859516,-0.2119,0.7559,0.2964,-59.39,-23.35,94.45
254,437864515,-0.1899,0.7520,0.2998,-57.38,-22.99,93.29
255,437869516,-0.1748,0.7397,0.3003,-55.43,-22.68,92.01
256,437874514,-0.1597,0.7324,0.3013,-53.54,-22.50,90.67
257,437879518,-0.1470,0.7217,0.2974,-51.65,-22.38,89.45
258,437884515,-0.1279,0.7085,0.2798,-49.45,-22.38,87.56
259,437889516,-0.0542,0.6899,0.1890,-46.59,-23.60,86.71
260,437894515,-0.0908,0.7490,0.2949,-43.23,-24.70,86.65
261,437899516,-0.0747,0.7446,0.2979,-39.82,-25.30,86.34
262,437904515,-0.0430,0.7432,0.2793,-35.91,-26.10,84.57
263,437909516,-0.0273,0.7500,0.3062,-31.83,-26.89,83.66
264,437914516,-0.0112,0.7388,0.3149,-27.56,-27.38,82.38
265,437919516,-0.0010,0.7358,0.3271,-23.17,-27.62,81.28
266,437924515,0.0034,0.7280,0.3286,-18.72,-27.93,80.30
267,437929516,0.0156,0.7192,0.3428,-14.45,-28.17,79.45
268,437934514,0.0269,0.7056,0.3550,-10.18,-28.17,78.54
269,437939516,0.0479,0.6904,0.3706,-6.16,-28.05,77.87
270,437944515,0.0566,0.6851,0.3843,-2.20,-27.87,77.13
271,437949516,0.0410,0.6899,0.3999,1.22,-27.44,76.46
272,437954514,0.0420,0.6899,0.4141,4.27,-26.71,75.55
273,437959518,0.0444,0.6968,0.4258,7.01,-25.85,74.45
274,437964515,0.0591,0.7061,0.4365,9.39,-25.06,73.41
275,437969516,0.0825,0.7236,0.4385,11.46,-24.09,71.95
276,437974514,0.1001,0.7319,0.4561,13.23,-22.74,70.37
277,437979515,0.1191,0.7461,0.4556,14.76,-21.52,68.66
278,437984516,0.1401,0.7549,0.4531,15.91,-20.37,66.77
279,437989516,0.1636,0.7495,0.4604,16.77,-19.15,65.00
280,437994516,0.2266,0.6792,0.4502,17.20,-18.29,63.78
281,437999514,0.2490,0.6880,0.4468,16.83,-17.87,63.29
282,438004518,0.2524,0.7432,0.4287,16.04,-17.80,62.87
283,438009516,0.2622,0.7373,0.4077,15.06,-18.23,62.13
284,438014517,0.2886,0.7236,0.4243,13.41,-19.15,61.65
285,438020015,0.3208,0.7441,0.4297,10.85,-20.73,61.04
286,438024516,0.3394,0.7427,0.4238,9.09,-21.89,60.73
287,438029516,0.3530,0.7490,0.4546,6.46,-23.54,60.06
288,438034516,0.3672,0.7520,0.4727,4.02,-24.76,59.39
289,438039514,0.3799,0.7666,0.4829,1.65,-26.10,58.54
290,438044517,0.3940,0.7847,0.4902,-0.61,-27.38,57.38
291,438049631,0.4004,0.7944,0.5054,-2.62,-28.90,55.79
292,438054516,0.4277,0.7861,0.4893,-4.57,-30.91,54.15
293,438059515,0.4712,0.7705,0.4800,-6.52,-33.72,52.56
294,438064516,0.4971,0.7471,0.5435,-8.29,-36.22,51.04
295,438069516,0.5117,0.7393,0.6079,-10.18,-38.17,49.57
296,438074516,0.5176,0.7417,0.6177,-12.07,-39.63,48.35
297,438079516,0.5151,0.7593,0.6055,-13.84,-40.67,46.65
298,438084515,0.5190,0.7588,0.6084,-15.61,-41.59,44.82
299,438089516,0.5254,0.7563,0.6133,-17.26,-42.26,42.93
300,438094515,0.5269,0.7397,0.5981,-18.84,-42.99,41.22
301,438099516,0.5342,0.7217,0.6069,-20.61,-43.72,39.45
302,438104518,0.5327,0.7148,0.5962,-22.74,-44.33,37.93
303,438109517,0.5381,0.7231,0.5864,-24.51,-44.94,36.59
304,438114515,0.5493,0.7314,0.5781,-26.28,-45.67,35.00
305,438119519,0.5518,0.7393,0.5884,-28.05,-46.52,33.29
306,438124515,0.5625,0.7485,0.6025,-29.88,-47.13,31.46
307,438129516,0.5713,0.7676,0.6187,-31.52,-47.56,29.45
308,438134515,0.5811,0.7773,0.6318,-33.17,-47.93,27.26
309,438139516,0.5977,0.7759,0.6499,-34.82,-47.99,25.00
310,438144515,0.6050,0.7788,0.6748,-36.46,-47.68,22.50
311,438149516,0.6104,0.7817,0.6797,-38.35,-47.07,20.06
312,438154515,0.6123,0.7881,0.7012,-40.61,-46.34,17.13
313,438159516,0.6294,0.7817,0.7124,-43.35,-45.24,14.27
314,438164515,0.6621,0.7549,0.7393,-46.71,-43.90,11.16
315,438169516,0.7051,0.7534,0.7690,-50.91,-41.95,7.93
316,438174516,0.6875,0.7197,0.7549,-55.61,-39.70,4.39
317,438179516,0.6304,0.6748,0.6860,-59.76,-37.62,1.71
318,438184515,0.5825,0.6538,0.6099,-62.93,-36.22,-0.37
319,438189517,0.5371,0.6362,0.5547,-65.43,-35.55,-2.13
320,438194518,0.5146,0.6245,0.5117,-67.38,-35.12,-3.78
321,438199516,0.5220,0.6064,0.4858,-69.27,-35.24,-5.37
322,438204515,0.5415,0.5938,0.4536,-70.79,-35.98,-6.71
323,438209517,0.5718,0.5820,0.4307,-71.89,-37.01,-7.93
324,438214514,0.5947,0.5664,0.4463,-72.74,-38.23,-9.09
325,438219518,0.6157,0.5454,0.4624,-72.62,-39.39,-10.12
326,438224515,0.6240,0.5381,0.4712,-71.10,-40.43,-10.67
327,438229514,0.6157,0.5215,0.4858,-67.87,-41.40,-11.16
328,438234514,0.5903,0.5127,0.5039,-62.50,-41.71,-11.04
329,438239516,0.5659,0.4990,0.4985,-54.57,-41.71,-10.55
330,438244515,0.5615,0.4878,0.5195,-43.96,-41.40,-9.39
331,438249514,0.5322,0.4956,0.5039,-30.67,-40.79,-7.56
332,438254518,0.5034,0.5103,0.4629,-15.79,-40.37,-5.55
333,438259552,0.5005,0.5234,0.4458,-0.12,-39.88,-3.48
334,438264515,0.5049,0.5283,0.4419,15.79,-39.27,-1.46
335,438269516,0.5078,0.5303,0.4268,31.46,-38.60,0.30
336,438274515,0.5137,0.5312,0.4229,46.40,-38.17,1.95
337,438279516,0.5151,0.5391,0.4355,60.61,-37.50,3.29
338,438284514,0.5239,0.5415,0.4307,73.84,-36.65,4.21
339,438289757,0.5576,0.5396,0.4561,88.17,-35.91,4.88
340,438294516,0.6060,0.5381,0.4902,96.59,-35.24,4.88
341,438299515,0.6235,0.5576,0.4878,105.43,-34.39,4.63
342,438304516,0.7046,0.5840,0.5039,112.50,-33.60,3.35
343,438309517,0.6646,0.6113,0.5352,118.66,-32.99,2.20
344,438314516,0.6177,0.6450,0.5264,123.90,-32.20,0.55
345,438319518,0.5562,0.6772,0.5122,128.11,-31.46,-1.28
346,438324516,0.5898,0.6543,0.4985,131.52,-30.73,-2.93
347,438329516,0.6328,0.6758,0.5010,135.18,-30.12,-4.21
348,438334516,0.6680,0.6978,0.4780,136.83,-29.51,-5.73
349,438339516,0.6748,0.7197,0.4707,137.01,-29.15,-7.44
350,438344516,0.6616,0.7319,0.4624,135.67,-28.96,-9.15
351,438349516,0.6450,0.7471,0.4585,132.07,-28.78,-10.67
352,438354516,0.6309,0.7549,0.4448,127.99,-28.90,-12.20
353,438359516,0.6260,0.7637,0.4224,122.80,-29.02,-13.54
354,438364515,0.6196,0.7812,0.4272,115.61,-29.33,-14.94
355,438369517,0.5972,0.8096,0.4253,107.13,-29.57,-16.46
356,438374516,0.5610,0.8042,0.4087,97.56,-30.06,-17.87
357,438379516,0.5166,0.8120,0.4004,87.13,-30.61,-19.09
358,438384516,0.4873,0.8184,0.3818,76.28,-31.40,-20.00
359,438389515,0.4751,0.8262,0.3750,65.18,-31.95,-20.73
360,438394514,0.4805,0.8286,0.3765,54.57,-32.56,-21.40
361,438399516,0.4810,0.8374,0.3691,44.45,-32.93,-21.83
362,438404515,0.4751,0.8403,0.3672,35.18,-33.17,-21.77
363,438409516,0.4678,0.8491,0.3521,26.95,-33.23,-21.71
364,438414515,0.4478,0.8530,0.3525,19.76,-32.80,-21.34
365,438419516,0.4399,0.8569,0.3398,13.72,-32.44,-20.73
366,438424516,0.4316,0.8623,0.3325,8.78,-32.01,-20.00
367,438429516,0.4214,0.8691,0.3311,5.06,-31.52,-18.90
368,438434515,0.4126,0.8716,0.3154,2.44,-30.79,-17.80
369,438439516,0.4019,0.8794,0.3110,0.61,-30.00,-16.28
370,438444515,0.4014,0.8853,0.3057,-0.18,-29.27,-14.76
371,438449514,0.3862,0.8799,0.3081,-0.49,-28.60,-12.93
372,438454519,0.3672,0.9043,0.3052,0.12,-27.68,-11.04
373,438459516,0.3618,0.9229,0.3018,1.16,-26.95,-9.27
374,438464516,0.3608,0.9214,0.2905,2.56,-26.10,-7.26
375,438469516,0.3843,0.9292,0.2749,4.39,-25.61,-5.30
376,438474515,0.3901,0.9292,0.2681,6.65,-24.70,-3.11
377,438479516,0.3901,0.9336,0.2646,9.09,-23.96,-1.10
378,438484515,0.3799,0.9385,0.2515,11.52,-23.17,0.79
379,438489514,0.3770,0.9453,0.2417,14.21,-22.32,2.68
380,438494630,0.3647,0.9482,0.2412,16.83,-21.28,4.70
381,438499518,0.3545,0.9580,0.2319,18.17,-20.67,6.04
382,438504515,0.3613,0.9551,0.2188,19.45,-20.06,7.62
383,438509516,0.3672,0.9668,0.2026,20.30,-19.57,9.09
384,438514591,0.3525,0.9814,0.1831,21.34,-19.21,10.79
385,438519666,0.3516,0.9907,0.1689,21.95,-18.90,12.01
386,438524515,0.3584,1.0029,0.1499,22.74,-18.84,13.05
387,438529516,0.3701,1.0186,0.1470,23.78,-18.66,14.15
388,438534515,0.3862,1.0298,0.1421,24.57,-18.66,15.49
389,438539516,0.3984,1.0342,0.1470,24.94,-18.54,16.65
390,438544515,0.4097,1.0396,0.1577,24.57,-18.48,17.68
391,438549516,0.4155,1.0381,0.1641,23.54,-18.35,18.66
392,438554515,0.4263,1.0303,0.1768,21.71,-18.35,19.51
393,438559518,0.4326,1.0239,0.1772,19.15,-18.41,20.37
394,438564515,0.4380,1.0161,0.1768,16.40,-18.41,21.16
395,438569516,0.4443,1.0063,0.1904,13.48,-18.54,21.95
396,438574518,0.4570,0.9985,0.2031,10.43,-18.35,22.74
397,438579516,0.4639,0.9868,0.2065,7.38,-18.41,23.60
398,438584515,0.4673,0.9810,0.2148,4.45,-18.48,24.51
399,438589516,0.4648,0.9746,0.2212,1.59,-18.41,25.37
400,438594514,0.4644,0.9668,0.2285,-0.98,-18.29,26.16
401,438599518,0.4565,0.9624,0.2231,-3.17,-18.23,27.01
402,438604515,0.4648,0.9551,0.2319,-5.06,-18.29,28.11
403,438609516,0.4780,0.9512,0.2314,-6.59,-18.35,29.02
404,438614515,0.4917,0.9521,0.2412,-7.87,-18.11,30.06
405,438619978,0.4985,0.9780,0.2471,-9.02,-18.05,31.04
406,438624516,0.5044,0.9854,0.2495,-9.76,-17.93,31.65
407,438629516,0.5269,1.0059,0.2671,-10.61,-17.99,32.38
408,438634516,0.5444,1.0303,0.2817,-11.46,-17.99,33.17
409,438639515,0.5508,1.0488,0.2856,-12.26,-18.11,34.21
410,438644516,0.5459,1.0688,0.2822,-12.68,-18.35,35.24
411,438649516,0.5366,1.0684,0.2871,-12.87,-18.72,36.65
412,438654516,0.5347,1.0767,0.2803,-12.80,-19.09,38.11
413,438659517,0.5356,1.0796,0.2739,-12.26,-19.39,39.82
414,438664516,0.5420,1.0708,0.2676,-11.10,-19.94,41.52
415,438669516,0.5503,1.0649,0.2700,-9.27,-20.24,43.48
416,438674516,0.5635,1.0557,0.2544,-6.83,-20.37,45.49
417,438679514,0.5703,1.0435,0.2559,-3.66,-20.61,47.62
418,438684534,0.5830,1.0225,0.2612,0.37,-20.67,49.76
419,438689518,0.5845,1.0093,0.2695,5.06,-20.61,52.01
420,438694515,0.5879,0.9985,0.2861,10.12,-20.18,54.21
421,438699514,0.5815,0.9932,0.3130,15.43,-19.63,56.40
422,438704516,0.5781,0.9805,0.3140,20.61,-19.09,58.48
423,438709516,0.5737,0.9531,0.2979,25.24,-18.54,60.61
424,438714515,0.5586,0.9336,0.2803,29.76,-18.05,62.74
425,438719516,0.5474,0.9072,0.2681,34.02,-17.38,65.00
426,438724515,0.5488,0.8833,0.2441,38.54,-16.40,67.50
427,438729518,0.5581,0.8643,0.2236,41.46,-15.73,69.15
428,438734515,0.5825,0.8535,0.2070,44.70,-14.82,71.10
429,438739516,0.6221,0.8408,0.1768,47.50,-13.60,72.74
430,438744515,0.6479,0.8364,0.1689,50.37,-12.13,74.15
431,438749516,0.6758,0.8242,0.1450,53.29,-10.91,75.43
432,438754516,0.6885,0.8223,0.1226,56.46,-9.70,76.59
433,438759516,0.6978,0.8271,0.1064,59.70,-8.84,77.62
434,438764515,0.7090,0.8203,0.1240,63.78,-7.99,78.29
435,438769516,0.7090,0.7788,0.1143,68.66,-6.83,79.09
436,438774515,0.6450,0.7563,0.0864,73.84,-5.73,80.12
437,438779516,0.6484,0.7827,0.0850,79.63,-5.00,81.40
438,438784516,0.6763,0.8149,0.1274,86.10,-3.60,82.80
439,438789516,0.7056,0.8213,0.1230,94.02,-1.22,84.57
440,438794515,0.7065,0.8486,0.0898,99.51,0.37,84.51
441,438799768,0.7168,0.8042,0.0576,107.80,2.38,84.76
442,438804516,0.7109,0.7627,0.0483,112.99,3.78,86.65
443,438809516,0.7178,0.7432,0.0537,120.24,5.85,87.20
444,438814516,0.7271,0.7725,0.0425,125.06,7.38,87.26
445,438819515,0.7329,0.7710,0.0176,129.70,9.76,87.20
446,438824516,0.7256,0.8008,0.0400,133.41,11.52,87.01
447,438829516,0.7241,0.7944,0.0293,137.74,13.84,87.13
448,438834517,0.7290,0.7617,0.0015,140.37,15.30,87.32
449,438839515,0.7026,0.7617,-0.0088,143.35,17.93,88.35
450,438844516,0.7090,0.7432,0.0293,145.67,20.43,89.39
451,438849517,0.7100,0.7524,0.0186,147.74,23.23,89.70
452,438854516,0.6758,0.7461,-0.0220,149.39,25.79,89.70
453,438859514,0.7075,0.7773,0.0234,150.55,28.66,90.00
454,438864515,0.7480,0.7954,-0.0020,151.16,31.83,90.30
455,438869516,0.7881,0.7837,-0.1060,151.52,34.45,90.30
456,438874515,0.8066,0.7720,-0.0620,152.07,36.77,90.73
457,438879516,0.8125,0.7524,-0.0298,152.44,39.39,90.85
458,438884516,0.8276,0.7305,-0.0464,152.93,42.01,90.85
459,438889516,0.8374,0.7388,-0.0566,153.48,44.51,90.67
460,438894515,0.8408,0.7710,-0.0513,153.90,46.65,89.63
461,438899514,0.8652,0.7354,-0.0337,154.33,48.78,87.80
462,438904518,0.8691,0.6953,-0.0352,154.57,50.79,86.65
463,438909516,0.8623,0.6929,-0.0366,154.51,52.80,86.59
464,438914515,0.8540,0.6958,-0.0229,154.09,54.57,85.37
465,438919516,0.8564,0.6821,-0.0200,153.23,56.34,83.11
466,438924515,0.8608,0.6602,-0.0259,152.26,57.80,80.91
467,438929516,0.8623,0.6450,-0.0229,151.04,59.39,78.90
468,438934516,0.8530,0.6333,-0.0107,149.57,60.85,76.65
469,438939516,0.8506,0.6460,-0.0420,148.17,62.01,74.51
470,438944515,0.8257,0.6230,-0.0044,147.13,62.80,72.32
471,438949516,0.7925,0.6123,0.0264,146.28,64.27,70.12
472,438954515,0.7534,0.5938,-0.0020,145.43,65.61,67.87
473,438959516,0.7202,0.5747,0.0142,144.70,66.65,65.73
474,438964515,0.6924,0.5674,0.0171,143.66,67.80,63.66
475,438969516,0.6885,0.5654,0.0054,142.50,68.96,61.40
476,438974515,0.7046,0.5732,-0.0166,141.46,69.70,59.02
477,438979516,0.7310,0.5796,-0.0356,140.67,70.24,56.71
478,438984516,0.7480,0.5640,-0.0122,140.37,71.04,54.27
479,438989514,0.7788,0.5640,-0.0215,140.12,71.71,52.20
480,438994516,0.7871,0.5513,-0.0601,140.37,72.13,50.12
481,438999514,0.7886,0.5342,-0.0728,140.91,72.44,48.48
482,439004516,0.8115,0.5176,-0.0679,141.83,72.68,47.32
483,439009516,0.8359,0.5122,-0.0767,143.72,72.93,46.59
484,439014515,0.8433,0.4971,-0.0752,146.71,73.11,46.52
485,439019516,0.8555,0.4932,-0.0962,150.55,73.35,47.01
486,439024515,0.8359,0.4961,-0.1245,155.79,73.29,48.29
487,439029517,0.7969,0.5093,-0.1582,162.07,73.29,50.12
488,439034515,0.7607,0.5298,-0.1875,169.57,73.54,52.38
489,439039518,0.7402,0.5337,-0.2090,177.93,73.48,54.76
490,439044515,0.7305,0.5620,-0.2134,186.40,73.54,57.01
491,439049516,0.7310,0.6035,-0.2241,195.24,73.35,58.84
492,439054514,0.7446,0.6226,-0.2310,204.27,73.35,60.00
493,439059516,0.7656,0.6372,-0.2295,213.05,73.48,60.73
494,439064515,0.7925,0.6406,-0.2324,222.20,73.54,61.22
495,439069516,0.8149,0.6392,-0.2368,231.04,73.90,61.28
496,439074515,0.8408,0.6504,-0.2524,239.63,74.21,61.28
497,439079516,0.8618,0.6479,-0.2686,247.93,74.51,61.28
498,439084516,0.8813,0.6445,-0.2949,255.91,74.82,61.04
499,439089514,0.8940,0.6357,-0.3174,263.54,75.06,60.85
500,439094516,0.8945,0.6196,-0.3296,270.67,75.37,60.55
501,439099517,0.8862,0.6206,-0.3589,277.62,75.61,60.30
502,439104518,0.8794,0.6143,-0.3765,284.39,75.61,59.82
503,439109516,0.8647,0.6089,-0.3926,290.79,75.98,59.45
504,439114515,0.8740,0.5918,-0.3926,297.13,76.34,58.78
505,439119518,0.8833,0.5942,-0.3804,302.99,76.83,58.11
506,439124516,0.8853,0.5825,-0.3813,308.23,77.32,57.32
507,439129517,0.8774,0.5811,-0.3828,312.07,78.23,56.10
508,439134515,0.8740,0.5693,-0.3745,314.63,78.84,54.82
509,439139518,0.8599,0.5615,-0.3779,316.04,79.88,53.11
510,439144515,0.8594,0.5508,-0.3726,315.30,80.98,50.91
511,439149516,0.8765,0.5293,-0.3833,312.13,82.74,48.35
512,439154515,0.8906,0.5020,-0.4058,306.59,83.84,45.73
513,439159516,0.9224,0.4546,-0.4380,299.09,85.37,42.99
514,439164515,0.9351,0.4663,-0.4209,290.37,86.10,40.12
515,439169516,0.9351,0.4424,-0.4102,280.12,85.79,36.83
516,439174515,0.9268,0.4292,-0.4048,269.15,85.79,33.90
517,439179516,0.7979,0.3892,-0.4727,257.07,85.85,31.10
518,439184515,0.7944,0.4077,-0.4385,243.35,88.11,28.41
519,439189515,0.8218,0.3887,-0.4277,229.82,89.02,25.73
520,439194515,0.8203,0.3843,-0.4243,217.26,90.37,23.17
521,439199518,0.8247,0.3774,-0.4082,206.04,91.83,20.79
522,439204515,0.8311,0.3848,-0.3901,196.89,93.66,18.54
523,439209516,0.8438,0.4038,-0.3999,189.76,95.49,16.46
524,439214515,0.8555,0.4292,-0.3975,184.70,97.32,14.57
525,439219516,0.8545,0.4546,-0.3945,181.59,98.90,13.11
526,439224514,0.8623,0.4771,-0.4038,180.79,100.55,11.83
527,439229518,0.8667,0.4858,-0.4028,181.89,102.13,11.22
528,439234515,0.8511,0.4941,-0.4062,185.18,103.90,10.91
529,439239516,0.8096,0.5073,-0.4136,190.00,105.55,10.79
530,439244515,0.7773,0.5029,-0.4438,195.67,107.13,10.67
531,439249516,0.7661,0.4937,-0.4448,201.71,108.66,10.49
532,439254515,0.7539,0.4795,-0.4346,207.32,110.00,10.06
533,439259516,0.7476,0.4766,-0.4424,212.26,111.46,9.51
534,439264515,0.7329,0.4673,-0.4482,216.28,112.38,8.84
535,439269516,0.7251,0.4629,-0.4497,219.45,113.60,7.99
536,439274515,0.7256,0.4609,-0.4424,221.46,114.70,6.77
537,439279516,0.7300,0.4502,-0.4312,222.50,115.67,5.55
538,439284515,0.7305,0.4502,-0.4238,222.68,116.46,3.96
539,439289518,0.7324,0.4585,-0.4209,221.95,117.26,2.32
540,439294514,0.7344,0.4761,-0.4155,220.79,118.05,0.55
541,439299514,0.7344,0.4883,-0.4053,219.51,118.72,-1.34
542,439304516,0.7363,0.5020,-0.3950,218.11,119.15,-3.48
543,439309516,0.7412,0.5220,-0.3862,217.13,119.63,-5.37
544,439314516,0.7358,0.5322,-0.3818,216.46,120.00,-7.56
545,439319519,0.7256,0.5356,-0.3691,216.40,120.37,-9.45
546,439324515,0.7144,0.5405,-0.3560,216.89,120.49,-11.34
547,439329516,0.7012,0.5415,-0.3452,217.32,120.49,-13.23
548,439334515,0.6611,0.5981,-0.3657,216.95,119.94,-15.79
549,439339516,0.6997,0.5005,-0.2700,215.00,119.39,-18.72
550,439344516,0.7241,0.4829,-0.2739,212.38,119.15,-21.22
551,439349516,0.6743,0.4897,-0.2505,209.94,119.09,-23.48
552,439354515,0.5791,0.5132,-0.2217,207.07,119.39,-25.91
553,439359516,0.5459,0.4917,-0.2432,203.78,119.70,-28.66
554,439364515,0.5469,0.4888,-0.2246,200.49,119.88,-31.28
555,439369518,0.5195,0.5161,-0.2046,197.32,120.55,-34.09
556,439374515,0.4858,0.5161,-0.2144,193.84,120.98,-36.89
557,439379516,0.4941,0.5308,-0.1978,190.61,121.28,-39.51
558,439384515,0.4995,0.5547,-0.2236,187.74,121.52,-42.38
559,439389516,0.5088,0.5469,-0.1846,185.37,122.13,-45.12
560,439394515,0.5054,0.5640,-0.1626,184.02,122.44,-47.74
561,439399516,0.5391,0.5859,-0.1772,184.45,122.56,-50.37
562,439404515,0.5122,0.5801,-0.2036,186.28,122.68,-52.87
563,439409514,0.4614,0.6177,-0.0991,189.51,123.11,-54.94
564,439414516,0.4292,0.6250,-0.1167,193.96,124.02,-57.13
565,439419516,0.4561,0.6182,-0.1470,199.33,124.33,-59.33
566,439424515,0.4492,0.6167,-0.0874,204.76,125.00,-61.22
567,439429516,0.4219,0.6201,-0.0649,210.18,125.79,-63.23
568,439434514,0.4263,0.6206,-0.0942,215.12,126.59,-65.30
569,439439518,0.4287,0.6235,-0.1074,219.39,127.44,-67.32
570,439444515,0.3755,0.6621,-0.1230,223.35,128.05,-70.00
571,439449785,0.4590,0.6328,-0.1279,226.65,128.60,-72.38
572,439454516,0.5098,0.6133,-0.1602,229.39,128.96,-75.00
573,439459518,0.4844,0.5713,-0.1733,232.26,129.15,-77.44
574,439464515,0.4375,0.6196,-0.1763,235.24,129.33,-79.76
575,439469516,0.4136,0.6006,-0.1860,239.51,129.76,-82.13
576,439474515,0.4038,0.5991,-0.1948,244.63,129.88,-84.33
577,439479516,0.3989,0.6392,-0.1802,250.37,130.00,-86.71
578,439484515,0.4102,0.6758,-0.1704,255.98,130.18,-89.51
579,439489516,0.4277,0.6733,-0.1538,261.34,130.06,-92.44
580,439494516,0.4141,0.6655,-0.1519,265.55,129.82,-95.06
581,439499514,0.3716,0.6470,-0.1260,268.84,129.88,-97.62
582,439504516,0.3350,0.6392,-0.1348,271.04,129.70,-99.94
583,439509516,0.3223,0.6304,-0.1006,272.20,129.57,-102.13
584,439514515,0.3164,0.6313,-0.0942,271.95,129.33,-103.96
585,439519518,0.2681,0.6582,-0.1431,269.88,128.66,-105.98
586,439524515,0.2637,0.6831,-0.1797,265.79,126.89,-108.11
587,439529516,0.3047,0.6885,-0.1494,260.00,124.82,-110.18
588,439534515,0.3315,0.6948,-0.1055,252.50,122.56,-112.01
589,439539517,0.3242,0.7031,-0.0967,243.90,120.73,-113.72
590,439544515,0.3032,0.7251,-0.1221,234.82,118.72,-115.49
591,439549518,0.2988,0.7505,-0.1475,226.10,116.65,-117.01
592,439554515,0.3135,0.7783,-0.1460,218.48,114.15,-118.54
593,439559516,0.3228,0.7954,-0.1504,212.32,111.77,-119.76
594,439564515,0.3164,0.8252,-0.1733,208.05,109.15,-120.85
595,439569516,0.2988,0.8594,-0.1348,205.98,106.16,-122.13
596,439574515,0.2861,0.8462,-0.1597,206.10,103.11,-123.11
597,439579516,0.2715,0.8223,-0.1318,208.17,100.12,-124.02
598,439584515,0.2383,0.8550,-0.0933,211.95,97.44,-124.70
599,439589514,0.2319,0.8809,-0.0962,216.71,95.06,-125.85
600,439594518,0.2402,0.8833,-0.1074,221.65,92.74,-127.26
601,439599515,0.2329,0.8706,-0.1094,226.34,89.94,-128.66
602,439604514,0.2100,0.8555,-0.1113,230.00,86.77,-130.24
603,439609516,0.1870,0.8438,-0.1367,233.11,85.06,-131.59
604,439614516,0.1772,0.8364,-0.1543,235.18,82.74,-132.80
605,439619516,0.1489,0.8481,-0.1519,236.28,79.51,-134.27
606,439624515,0.1440,0.8574,-0.1411,236.40,76.59,-135.73
607,439629516,0.1421,0.8677,-0.1567,235.12,73.29,-137.50
608,439634515,0.1313,0.8779,-0.1646,233.11,70.30,-139.27
609,439639516,0.1104,0.8936,-0.1782,230.37,67.26,-140.91
610,439644515,0.0898,0.9048,-0.1885,227.32,64.02,-142.74
611,439649514,0.0693,0.9204,-0.1885,224.21,60.85,-144.15
612,439654516,0.0396,0.9302,-0.1953,221.52,57.87,-145.67
613,439659516,0.0264,0.9297,-0.1924,219.21,54.82,-146.89
614,439664516,0.0151,0.9326,-0.1870,216.95,52.20,-148.05
615,439669517,-0.0107,0.9292,-0.1934,214.70,49.51,-149.15
616,439674516,-0.0347,0.9248,-0.1841,212.20,46.95,-150.24
617,439679516,-0.0640,0.9282,-0.1729,209.15,44.82,-151.52
618,439684516,-0.0874,0.9385,-0.1675,205.85,42.50,-152.68
619,439689515,-0.1006,0.9629,-0.1689,202.32,40.30,-154.21
620,439694612,-0.1104,0.9897,-0.1836,198.84,37.99,-155.55
621,439699517,-0.1333,1.0132,-0.1978,195.73,35.61,-157.07
622,439704516,-0.1729,1.0312,-0.2021,193.11,33.17,-158.23
623,439709516,-0.2061,1.0435,-0.2002,190.73,30.79,-159.21
624,439714515,-0.2202,1.0547,-0.1875,188.29,28.60,-160.12
625,439719514,-0.2524,1.0649,-0.1851,185.49,26.28,-160.73
626,439724518,-0.2749,1.0679,-0.1680,182.20,24.15,-161.46
627,439729516,-0.2910,1.0723,-0.1465,178.35,21.77,-161.83
628,439734515,-0.3022,1.0708,-0.1270,173.90,19.21,-162.20
629,439739516,-0.3110,1.0757,-0.0996,168.90,16.59,-162.44
630,439744515,-0.3237,1.0942,-0.0820,163.17,13.72,-162.62
631,439749516,-0.3105,1.1343,-0.0820,157.26,10.37,-162.74
632,439754516,-0.3086,1.1714,-0.0889,151.52,6.77,-162.68
633,439759516,-0.3228,1.2144,-0.0986,146.16,2.93,-162.56
634,439764515,-0.3379,1.2578,-0.1064,141.65,-1.40,-161.83
635,439769516,-0.3486,1.2979,-0.1069,138.29,-5.85,-160.85
636,439774515,-0.3574,1.3408,-0.0894,135.61,-10.30,-159.39
637,439779516,-0.3779,1.3628,-0.0596,133.84,-14.76,-157.68
638,439784515,-0.3770,1.3994,-0.0278,132.32,-19.15,-155.30
639,439789516,-0.4204,1.3979,-0.0371,129.27,-23.72,-152.68
640,439794515,-0.4141,1.4268,-0.0088,127.68,-28.48,-149.88
641,439799516,-0.4399,1.4058,0.0278,125.12,-33.54,-146.59
642,439804514,-0.4185,1.4316,0.0342,122.87,-38.90,-142.80
643,439809518,-0.3779,1.4331,0.0708,121.52,-44.21,-138.84
644,439814515,-0.3843,1.4448,0.1064,120.55,-49.82,-134.39
645,439819514,-0.4526,1.4258,0.1748,119.45,-55.30,-129.63
646,439824514,-0.4204,1.5029,0.0898,117.01,-61.22,-124.63
647,439829516,-0.3203,1.5278,0.0698,116.04,-67.56,-119.39
648,439834515,-0.3486,1.5728,0.1548,116.10,-74.02,-113.66
649,439839516,-0.4199,1.5376,0.1909,114.94,-80.37,-107.74
650,439844514,-0.3696,1.6299,0.1230,113.17,-87.32,-101.65
651,439849518,-0.3193,1.6514,0.1123,111.65,-94.70,-95.43
652,439854515,-0.3379,1.6787,0.1558,111.04,-102.44,-88.84
653,439859516,-0.3457,1.7173,0.1709,111.40,-110.30,-81.83
654,439864550,-0.3618,1.7588,0.1978,111.89,-118.17,-74.45
655,439869518,-0.3906,1.7715,0.2188,111.89,-126.52,-66.65
656,439874515,-0.4365,1.7812,0.2441,110.91,-134.82,-58.54
657,439879516,-0.4707,1.7715,0.2524,108.60,-143.23,-50.37
658,439884515,-0.5010,1.7734,0.2812,105.37,-151.65,-41.77
659,439889518,-0.5415,1.7520,0.2812,101.28,-160.00,-33.17
660,439894515,-0.5767,1.7505,0.2837,96.04,-168.23,-24.39
661,439899514,-0.6069,1.6753,0.2822,90.30,-176.28,-15.61
662,439904516,-0.6284,1.7246,0.2646,83.84,-184.27,-6.52
663,439909516,-0.6899,1.7285,0.2607,78.54,-192.01,2.32
664,439914516,-0.7100,1.7002,0.2544,73.78,-199.51,11.52
665,439919514,-0.7554,1.6719,0.2471,69.51,-207.07,20.79
666,439924515,-0.8052,1.6465,0.2300,65.43,-214.51,30.18
667,439929515,-0.8623,1.6157,0.2236,60.91,-222.01,39.45
668,439934516,-0.9194,1.5908,0.2231,56.10,-229.70,48.78
669,439939516,-0.9683,1.5488,0.2114,50.98,-237.38,57.80
670,439944517,-1.0166,1.5142,0.1987,45.85,-245.12,66.77
671,439949515,-1.0620,1.4810,0.1772,41.16,-252.93,75.55
672,439954516,-1.1030,1.4619,0.1465,37.20,-260.79,84.33
673,439959517,-1.1499,1.3999,0.1001,33.54,-268.72,92.38
674,439964516,-1.1816,1.4341,0.0620,30.12,-276.71,100.79
675,439969515,-1.2554,1.3970,0.0083,28.29,-284.76,108.66
676,439974516,-1.3179,1.3701,-0.0234,27.26,-292.56,116.77
677,439979516,-1.3853,1.3457,-0.0566,26.77,-300.18,124.70
678,439984516,-1.4512,1.3232,-0.0737,25.73,-307.62,132.62
679,439990038,-1.5386,1.2905,-0.1089,24.02,-315.98,141.83
680,439994517,-1.5991,1.2651,-0.1396,22.32,-321.65,147.80
681,439999516,-1.6680,1.2422,-0.1602,19.94,-328.41,155.00
682,440004516,-1.7246,1.2236,-0.1777,17.26,-335.12,161.95
683,440009515,-1.7959,1.2075,-0.2148,14.33,-341.83,168.48
684,440014516,-1.8638,1.1919,-0.2490,11.52,-348.29,174.70
685,440019516,-1.9380,1.1826,-0.2861,8.60,-355.06,180.55
686,440024516,-2.0063,1.1587,-0.3188,5.06,-362.07,185.98
687,440029515,-2.0576,1.1450,-0.3516,0.98,-368.60,191.10
688,440034516,-2.1250,1.1377,-0.3931,-2.50,-375.49,195.79
689,440039517,-2.1865,1.1274,-0.4189,-5.24,-381.95,200.49
690,440044516,-2.2402,1.1152,-0.4365,-7.44,-388.66,204.94
691,440049514,-2.2896,1.1060,-0.4692,-9.51,-395.06,209.02
692,440054515,-2.3687,1.1040,-0.4854,-12.26,-401.46,212.87
693,440059516,-2.4487,1.0933,-0.5068,-15.67,-407.80,216.28
694,440064516,-2.5088,1.1035,-0.5273,-20.24,-414.45,219.51
695,440069516,-2.5972,1.1133,-0.5518,-25.67,-421.16,222.32
696,440074515,-2.6738,1.1074,-0.5615,-31.28,-428.05,224.76
697,440079518,-2.7397,1.1167,-0.5483,-37.38,-434.88,227.13
698,440084515,-2.7896,1.0977,-0.5542,-44.57,-441.95,228.90
699,440089516,-2.8472,1.0972,-0.5781,-52.13,-448.90,230.37
700,440094515,-2.9326,1.0908,-0.5854,-59.94,-456.22,231.59
701,440099522,-2.9756,1.0874,-0.5879,-67.74,-463.54,232.32
702,440104518,-3.0283,1.1260,-0.5806,-75.30,-470.79,232.68
703,440109514,-3.1870,1.1338,-0.6299,-83.05,-478.23,232.26
704,440114514,-3.3203,1.1519,-0.6670,-90.67,-486.22,231.71
705,440119516,-3.3750,1.1548,-0.6821,-97.62,-494.51,230.79
706,440124516,-3.4033,1.1582,-0.6743,-103.84,-503.11,229.82
707,440129514,-3.4902,1.1904,-0.6982,-108.66,-511.28,228.41
708,440134518,-3.5845,1.2090,-0.7456,-111.95,-519.82,226.83
709,440139516,-3.6675,1.2354,-0.7700,-113.35,-528.05,224.82
710,440144516,-3.7300,1.2603,-0.7896,-112.68,-536.22,223.11
711,440149517,-3.7861,1.2998,-0.8159,-110.12,-543.60,221.40
712,440154516,-3.8530,1.3159,-0.8271,-106.46,-550.43,219.70
713,440159516,-3.8999,1.3384,-0.8794,-102.13,-556.89,218.29
714,440164517,-3.9312,1.3926,-0.9272,-96.83,-563.11,216.89
715,440169515,-3.9893,1.4336,-0.9512,-90.43,-568.60,215.61
716,440174516,-4.0303,1.5024,-0.9990,-83.78,-573.17,214.76
717,440179516,-4.0615,1.5220,-1.0190,-76.59,-576.95,214.33
718,440184516,-4.0742,1.5107,-1.0303,-70.55,-580.06,214.33
719,440189516,-4.1313,1.5718,-1.0830,-66.34,-582.50,214.70
720,440194518,-4.1577,1.6089,-1.1074,-63.11,-584.27,215.37
721,440199516,-4.1470,1.6870,-1.1782,-60.79,-585.06,216.28
722,440204516,-4.1621,1.7261,-1.2373,-58.23,-585.24,217.68
723,440209515,-4.1870,1.8149,-1.2681,-55.55,-584.39,220.00
724,440214516,-4.1816,1.9038,-1.3262,-53.54,-582.56,222.26
725,440219516,-4.1655,1.9985,-1.4141,-52.01,-580.30,225.00
726,440224516,-4.1606,2.0830,-1.4761,-50.06,-577.38,228.05
727,440229514,-4.1099,2.1582,-1.5073,-47.32,-573.78,231.77
728,440234517,-4.0762,2.2275,-1.5483,-42.99,-569.02,236.22
729,440239516,-3.9927,2.3188,-1.5679,-36.52,-563.23,241.40
730,440244515,-4.0225,2.4014,-1.6006,-27.44,-556.10,247.07
731,440249516,-4.0103,2.4531,-1.6230,-15.67,-548.11,253.96
732,440254515,-3.9546,2.5015,-1.5742,-2.26,-538.60,261.83
733,440259517,-3.8555,2.5215,-1.5786,10.61,-527.93,270.67
734,440264515,-3.8257,2.5669,-1.6094,21.28,-516.16,280.06
735,440269518,-3.7993,2.5864,-1.6279,29.94,-503.78,289.82
736,440274515,-3.7607,2.6172,-1.6587,35.37,-490.73,300.24
737,440279516,-3.7310,2.6489,-1.7427,37.32,-477.68,310.98
738,440284515,-3.7017,2.6929,-1.8110,36.04,-464.27,321.83
739,440289516,-3.6499,2.7280,-1.8770,32.44,-450.85,332.74
740,440294515,-3.6055,2.7817,-1.9658,28.11,-436.83,343.84
741,440299943,-3.5664,2.8408,-2.0845,23.17,-419.82,357.38
742,440304517,-3.5513,2.8838,-2.1382,19.63,-408.11,366.34
743,440309517,-3.5166,2.9175,-2.2129,15.24,-393.05,378.23
744,440314516,-3.5117,2.9443,-2.2925,10.67,-377.93,390.49
745,440319518,-3.5161,2.9521,-2.3633,5.12,-362.93,403.17
746,440324516,-3.4858,2.9546,-2.3809,-2.44,-347.68,416.34
747,440329516,-3.4341,2.9458,-2.4033,-12.38,-333.29,429.45
748,440334515,-3.4204,2.9189,-2.4106,-24.27,-318.78,442.56
749,440339516,-3.4087,2.8794,-2.4097,-37.01,-305.18,455.18
750,440344516,-3.3784,2.8433,-2.4170,-50.37,-292.20,467.62
751,440349515,-3.3384,2.8164,-2.4170,-62.93,-280.12,479.70
752,440354516,-3.2847,2.7681,-2.4160,-73.48,-268.78,491.34
753,440359517,-3.2407,2.7251,-2.3926,-81.22,-258.05,502.56
754,440364570,-3.2148,2.6816,-2.3901,-86.40,-247.68,513.41
755,440369515,-3.2070,2.6353,-2.3872,-89.27,-237.68,524.02
756,440374516,-3.2056,2.5640,-2.3682,-90.30,-228.23,534.21
757,440379516,-3.2065,2.4878,-2.3496,-88.78,-219.39,543.90
758,440384516,-3.1943,2.3984,-2.3506,-85.67,-210.85,553.54
759,440389515,-3.1802,2.3101,-2.3271,-81.59,-202.38,562.99
760,440394516,-3.1846,2.2090,-2.2964,-76.34,-194.27,572.07
761,440399517,-3.1768,2.1147,-2.2759,-69.57,-186.46,580.73
762,440404516,-3.1626,2.0259,-2.2480,-61.71,-178.60,589.09
763,440409515,-3.1733,1.9238,-2.2202,-54.33,-170.43,597.20
764,440414516,-3.1553,1.8071,-2.2061,-47.44,-162.56,604.51
765,440419516,-3.1299,1.7041,-2.1738,-41.22,-154.88,611.34
766,440424516,-3.1182,1.5991,-2.1494,-35.12,-147.26,617.62
767,440429515,-3.1094,1.5186,-2.1592,-29.45,-139.33,623.48
768,440434516,-3.1201,1.3809,-2.1152,-23.90,-131.40,629.15
769,440439515,-3.1367,1.2866,-2.0757,-19.70,-123.29,634.33
770,440444517,-3.1543,1.2183,-2.0317,-17.62,-115.12,638.66
771,440449516,-3.1372,1.1348,-2.0244,-17.50,-106.95,642.07
772,440454515,-3.1177,1.0469,-1.9834,-19.09,-98.72,644.33
773,440459519,-3.0928,0.9922,-1.9492,-23.17,-91.10,645.73
774,440464514,-3.0757,0.9062,-1.8809,-29.15,-83.78,645.67
775,440469516,-3.0669,0.8457,-1.8496,-34.63,-76.71,645.30
776,440474515,-3.0767,0.7915,-1.8267,-37.32,-68.90,644.63
777,440479523,-3.0688,0.7207,-1.7915,-36.40,-60.79,643.90
778,440484515,-3.0420,0.6582,-1.7808,-32.62,-52.68,643.29
779,440489518,-3.0244,0.5986,-1.7402,-27.38,-44.57,642.50
780,440494514,-3.0122,0.5444,-1.7183,-20.79,-35.00,641.65
781,440499515,-2.9766,0.4966,-1.6929,-11.71,-27.26,640.49
782,440504518,-2.9380,0.4429,-1.6655,-1.28,-17.80,639.15
783,440509516,-2.8979,0.3965,-1.6152,9.63,-7.93,637.26
784,440514515,-2.8613,0.3433,-1.5635,19.88,2.26,634.76
785,440519516,-2.8276,0.2925,-1.5107,28.78,12.26,631.46
786,440524516,-2.7773,0.2534,-1.4883,36.22,22.68,627.26
787,440529516,-2.7324,0.2046,-1.4282,41.89,32.80,622.01
788,440534515,-2.6851,0.1621,-1.3799,45.55,43.35,615.79
789,440539514,-2.6450,0.1182,-1.3491,47.44,53.66,608.66
790,440544516,-2.6255,0.0713,-1.3027,47.56,63.66,600.85
791,440549516,-2.6016,0.0288,-1.2676,46.04,73.35,592.44
792,440554516,-2.5840,-0.0034,-1.2500,43.05,82.68,583.41
793,440559515,-2.5464,-0.0581,-1.2246,38.41,90.24,573.90
794,440564516,-2.5269,-0.0874,-1.1997,33.54,98.29,563.90
795,440569516,-2.4971,-0.1108,-1.1641,28.48,105.49,553.66
796,440574516,-2.4688,-0.1558,-1.1597,23.35,112.07,543.23
797,440579515,-2.4775,-0.1733,-1.1162,19.39,117.56,532.68
798,440584516,-2.4980,-0.1982,-1.1226,16.89,122.68,522.20
799,440589516,-2.4790,-0.2617,-1.1069,15.00,127.74,511.77
800,440594517,-2.4873,-0.2710,-1.0879,13.96,132.07,501.77
801,440599790,-2.4937,-0.3047,-1.0669,14.57,136.95,489.76
802,440604516,-2.4775,-0.3135,-1.0488,15.61,140.24,481.83
803,440609516,-2.4194,-0.3838,-0.9751,15.43,143.84,472.01
804,440614517,-2.4443,-0.4746,-0.9502,12.74,147.68,462.26
805,440619514,-2.4878,-0.5088,-0.9209,9.57,150.67,452.44
806,440624516,-2.5254,-0.5430,-0.9146,6.59,153.66,442.68
807,440629516,-2.5454,-0.5645,-0.8442,4.51,156.77,433.05
808,440634516,-2.5435,-0.6353,-0.7642,3.05,159.88,423.29
809,440639515,-2.5400,-0.7017,-0.7446,1.65,163.17,413.78
810,440644517,-2.5488,-0.7471,-0.6841,0.12,166.10,404.39
811,440649516,-2.5566,-0.7974,-0.6191,-2.07,169.09,395.18
812,440654516,-2.5645,-0.8457,-0.5933,-4.82,171.65,386.04
813,440659515,-2.6138,-0.9258,-0.5586,-8.72,174.27,377.38
814,440664516,-2.6758,-1.0005,-0.5029,-12.99,176.22,369.15
815,440669516,-2.7339,-1.0815,-0.4468,-17.80,177.93,361.16
816,440674516,-2.7939,-1.1792,-0.3896,-23.05,179.70,353.60
817,440679515,-2.8613,-1.2773,-0.3081,-29.39,181.22,346.40
818,440684516,-2.9053,-1.4009,-0.2422,-37.38,182.20,339.45
819,440689516,-2.9766,-1.4629,-0.1753,-46.89,182.68,332.80
820,440694516,-3.0225,-1.5547,-0.1333,-57.20,182.56,325.85
821,440699515,-3.0474,-1.6455,-0.0854,-67.87,181.34,319.09
822,440704516,-3.0498,-1.7417,-0.0444,-78.05,179.21,312.44
823,440709516,-3.0396,-1.8237,-0.0117,-87.13,175.85,306.04
824,440714516,-2.9883,-1.8955,-0.0005,-94.63,171.34,299.63
825,440719515,-2.8965,-1.9346,0.0186,-99.27,165.79,292.93
826,440724516,-2.7690,-1.9653,0.0161,-100.37,159.45,285.79
827,440729516,-2.5913,-2.0093,0.0361,-98.23,152.56,277.93
828,440734516,-2.3628,-1.9785,0.0127,-92.20,145.30,268.96
829,440739514,-2.1343,-1.9575,0.0054,-80.37,138.29,258.35
830,440744514,-1.8970,-1.9541,-0.0083,-63.23,131.04,246.59
831,440749518,-1.6567,-1.9409,-0.0205,-41.83,124.70,233.66
832,440754516,-1.4048,-2.0000,-0.0439,-18.11,117.80,219.51
833,440759516,-1.2476,-2.0132,-0.0947,4.88,111.04,204.33
834,440764515,-1.1055,-2.0244,-0.1133,26.95,104.27,188.05
835,440769517,-0.9678,-2.0142,-0.1060,46.40,97.93,170.49
836,440774515,-0.8267,-2.0107,-0.1113,62.62,91.77,152.07
837,440779516,-0.7236,-2.0205,-0.1226,75.24,85.24,132.93
838,440784515,-0.6396,-2.0210,-0.1040,83.60,80.61,113.05
839,440789516,-0.5630,-2.0063,-0.0815,88.48,74.82,92.26
840,440794515,-0.5073,-1.9829,-0.0801,90.85,68.90,72.38
841,440799516,-0.4771,-1.9556,-0.0830,91.95,62.80,52.20
842,440804516,-0.4717,-1.9272,-0.0708,92.50,56.52,32.62
843,440809516,-0.4932,-1.8931,-0.0698,93.72,50.43,13.96
844,440814515,-0.5283,-1.8550,-0.0640,95.49,44.09,-3.48
845,440819929,-0.5850,-1.7959,-0.0610,99.02,37.07,-22.99
846,440824516,-0.6333,-1.7563,-0.0571,101.59,32.38,-35.00
847,440829516,-0.6870,-1.7095,-0.0635,104.63,26.89,-49.33
848,440834516,-0.7412,-1.6616,-0.0591,107.26,21.59,-62.44
849,440839516,-0.7910,-1.6118,-0.0664,109.45,16.40,-74.57
850,440844516,-0.8345,-1.5630,-0.0645,110.91,11.52,-85.67
851,440849515,-0.8696,-1.5200,-0.0723,111.95,7.20,-95.73
852,440854516,-0.9053,-1.4824,-0.0737,112.56,2.99,-105.00
853,440859516,-0.9258,-1.4438,-0.0830,112.68,-0.73,-113.48
854,440864516,-0.9365,-1.4058,-0.0830,112.50,-4.21,-121.28
855,440869515,-0.9390,-1.3755,-0.0972,111.59,-7.32,-128.29
856,440874516,-0.9312,-1.3384,-0.1006,110.37,-10.49,-134.88
857,440879516,-0.9224,-1.3008,-0.1064,108.48,-13.29,-140.98
858,440884516,-0.9048,-1.2642,-0.1113,105.91,-15.85,-146.71
859,440889515,-0.8857,-1.2231,-0.1196,102.74,-18.41,-152.13
860,440894516,-0.8711,-1.1890,-0.1187,99.15,-20.67,-157.44
861,440899517,-0.8438,-1.1631,-0.1279,95.00,-22.87,-162.38
862,440904516,-0.8306,-1.1348,-0.1333,90.73,-25.06,-167.20
863,440909515,-0.8013,-1.1094,-0.1255,86.34,-26.89,-171.65
864,440914516,-0.7700,-1.0854,-0.1348,81.89,-28.90,-176.10
865,440919516,-0.7388,-1.0552,-0.1514,77.44,-30.67,-180.30
866,440924516,-0.7227,-1.0342,-0.1450,73.60,-32.50,-184.27
867,440929514,-0.7017,-1.0186,-0.1519,70.55,-34.27,-187.99
868,440934514,-0.6899,-0.9951,-0.1543,68.35,-35.91,-191.59
869,440939518,-0.6724,-0.9771,-0.1533,66.65,-37.62,-195.00
870,440944515,-0.6587,-0.9590,-0.1523,65.67,-39.27,-198.23
871,440949514,-0.6514,-0.9404,-0.1597,65.12,-41.10,-201.22
872,440954516,-0.6499,-0.9248,-0.1675,64.88,-42.87,-204.27
873,440959516,-0.6431,-0.9150,-0.1748,64.76,-44.63,-207.07
874,440964515,-0.6533,-0.9019,-0.1641,64.94,-46.46,-210.00
875,440969516,-0.6431,-0.8921,-0.1562,65.91,-48.54,-212.74
876,440974515,-0.6411,-0.8672,-0.1611,66.89,-50.55,-215.49
877,440979516,-0.6460,-0.8647,-0.1660,68.60,-52.50,-217.99
878,440984515,-0.6396,-0.9019,-0.1626,70.06,-54.82,-220.18
879,440989516,-0.6880,-0.9116,-0.1792,70.24,-57.07,-221.89
880,440994515,-0.6582,-0.8789,-0.1855,70.06,-59.02,-223.96
881,440999516,-0.6211,-0.8364,-0.1387,71.10,-60.61,-225.67
882,441004515,-0.6094,-0.8213,-0.1611,73.29,-62.20,-227.01
883,441009516,-0.6133,-0.8110,-0.2168,75.79,-64.15,-227.68
884,441014516,-0.6177,-0.8101,-0.2227,78.35,-66.22,-227.80
885,441019516,-0.6362,-0.8110,-0.2373,80.30,-68.05,-227.32
886,441024515,-0.6143,-0.8081,-0.2515,82.01,-69.70,-226.52
887,441029516,-0.5972,-0.8193,-0.2334,82.93,-71.22,-225.67
888,441034518,-0.5762,-0.8306,-0.2070,82.93,-72.80,-224.70
889,441039516,-0.5645,-0.8335,-0.1992,82.01,-74.02,-223.84
890,441044515,-0.5508,-0.8311,-0.1890,80.67,-74.94,-223.29
891,441049516,-0.5200,-0.8130,-0.1934,77.93,-76.10,-222.87
892,441054520,-0.4961,-0.8066,-0.2007,75.37,-77.07,-222.68
893,441059514,-0.4805,-0.8042,-0.2104,73.23,-77.56,-222.74
894,441064517,-0.4604,-0.7969,-0.2075,70.73,-78.29,-222.87
895,441069624,-0.4360,-0.7959,-0.1992,67.99,-78.84,-222.87
896,441074516,-0.4058,-0.7915,-0.1929,66.28,-78.78,-222.74
897,441079514,-0.3657,-0.7905,-0.1826,64.45,-78.78,-222.62
898,441084514,-0.3379,-0.7920,-0.1816,63.54,-78.60,-222.26
899,441089514,-0.3086,-0.7910,-0.1846,62.56,-78.17,-221.71
900,441094516,-0.2769,-0.7778,-0.1880,62.01,-77.62,-221.16
901,441099554,-0.2510,-0.7700,-0.1836,61.22,-76.95,-220.55
902,441104516,-0.2256,-0.7686,-0.1758,60.30,-76.04,-220.00
903,441109516,-0.2056,-0.7622,-0.1885,59.02,-75.24,-219.51
904,441114516,-0.1797,-0.7524,-0.1851,57.32,-74.27,-218.96
905,441119516,-0.1543,-0.7427,-0.1802,55.30,-73.35,-218.66
906,441124519,-0.1255,-0.7358,-0.1880,52.68,-72.26,-218.35
907,441129515,-0.0840,-0.7261,-0.1855,49.94,-71.28,-218.29
908,441134514,-0.0557,-0.7212,-0.1851,47.68,-70.30,-218.17
909,441139516,-0.0137,-0.7104,-0.1719,44.15,-68.90,-218.17
910,441144514,0.0225,-0.7163,-0.1675,40.98,-67.80,-218.29
911,441149516,0.0576,-0.7129,-0.1519,37.87,-66.40,-218.48
912,441154553,0.1006,-0.7129,-0.1494,34.94,-65.06,-218.41
913,441159518,0.1372,-0.7007,-0.1328,32.62,-63.54,-218.29
914,441164515,0.1694,-0.6924,-0.1484,30.91,-62.01,-218.11
915,441169517,0.2012,-0.6807,-0.1475,30.00,-60.67,-217.68
916,441174516,0.2227,-0.6675,-0.1548,30.06,-59.27,-217.13
917,441179516,0.2324,-0.6514,-0.1704,30.79,-57.93,-216.65
918,441184516,0.2412,-0.6294,-0.1646,31.77,-56.34,-216.04
919,441189516,0.2607,-0.6157,-0.1714,32.68,-54.82,-215.55
920,441194519,0.2769,-0.5981,-0.1812,33.29,-53.35,-215.24
921,441199516,0.2969,-0.5776,-0.1797,32.80,-51.77,-215.24
922,441204514,0.3228,-0.5649,-0.1816,31.46,-50.49,-215.55
923,441209516,0.3481,-0.5557,-0.1782,29.15,-49.21,-216.10
924,441214516,0.3711,-0.5356,-0.1748,25.85,-48.05,-216.83
925,441219517,0.4136,-0.5317,-0.1733,21.59,-46.95,-217.68
926,441224516,0.4312,-0.5186,-0.1724,16.59,-45.98,-218.72
927,441229514,0.4541,-0.5068,-0.1792,11.28,-44.88,-219.82
928,441234516,0.4863,-0.4873,-0.1816,5.91,-43.78,-220.98
929,441239516,0.4966,-0.4722,-0.2065,1.16,-42.99,-222.26
930,441244556,0.5049,-0.4619,-0.2085,-2.99,-42.01,-223.35
931,441249516,0.5107,-0.4565,-0.2427,-6.40,-41.10,-224.27
932,441254517,0.5112,-0.4253,-0.2988,-8.60,-40.43,-225.06
933,441259514,0.5537,-0.4536,-0.1963,-9.02,-39.15,-225.24
934,441264516,0.5801,-0.4277,-0.3271,-7.44,-38.05,-225.00
935,441269518,0.6079,-0.3960,-0.3389,-4.76,-37.62,-224.82
936,441274515,0.6416,-0.3506,-0.3237,-2.01,-36.95,-224.39
937,441279516,0.6201,-0.3213,-0.3379,-0.12,-36.71,-223.84
938,441284516,0.6294,-0.2993,-0.3740,0.98,-36.89,-223.41
939,441289517,0.6846,-0.2603,-0.3545,1.77,-37.01,-222.93
940,441294516,0.7119,-0.2246,-0.3281,1.89,-37.01,-222.50
941,441299516,0.6899,-0.1816,-0.3882,1.16,-36.71,-222.13
942,441304516,0.6631,-0.1411,-0.3384,-2.38,-36.28,-222.20
943,441309516,0.6294,-0.1001,-0.3354,-6.83,-35.18,-222.32
944,441314516,0.6133,-0.0796,-0.3223,-11.77,-33.11,-222.26
945,441319516,0.5913,-0.0605,-0.3242,-17.56,-30.61,-221.71
946,441324517,0.5767,-0.0347,-0.3364,-23.84,-27.56,-221.10
947,441329517,0.5757,-0.0024,-0.3198,-30.55,-23.96,-220.49
948,441334516,0.5664,0.0337,-0.2812,-37.68,-19.63,-219.82
949,441339514,0.5664,0.0894,-0.2495,-45.91,-14.76,-219.88
950,441344635,0.6587,0.0889,-0.3018,-54.70,-9.63,-219.76
951,441349516,0.6929,0.0996,-0.2759,-63.66,-4.51,-219.45
952,441354515,0.7085,0.1108,-0.2705,-71.71,1.22,-218.90
953,441359516,0.7480,0.1143,-0.2261,-78.90,7.38,-218.05
954,441364516,0.7583,0.1162,-0.1714,-84.94,14.94,-216.65
955,441369515,0.7329,0.1514,-0.2441,-88.35,22.32,-214.88
956,441374516,0.7339,0.1313,-0.2295,-88.11,29.33,-212.62
957,441379514,0.7607,0.0898,-0.1772,-84.88,36.52,-209.70
958,441384518,0.7808,0.1387,-0.2910,-80.24,43.11,-205.98
959,441389515,0.8311,0.3271,-0.2939,-71.95,49.27,-203.11
960,441394516,0.7671,0.3843,-0.2173,-61.95,55.12,-200.91
961,441399515,0.6548,0.3433,-0.1636,-52.44,61.28,-197.99
962,441404516,0.5835,0.2544,-0.2354,-43.72,66.89,-194.33
963,441409514,0.5825,0.1772,-0.2417,-36.28,72.32,-190.00
964,441414516,0.6333,0.1191,-0.1353,-30.73,77.93,-185.55
965,441419745,0.7051,0.1240,-0.1196,-27.56,83.84,-180.91
966,441424516,0.7544,0.1499,-0.1851,-26.77,87.13,-176.04
967,441429514,0.7759,0.1816,-0.1836,-27.38,90.06,-170.79
968,441434516,0.8008,0.2173,-0.1465,-28.66,93.48,-165.73
969,441439671,0.8608,0.2109,-0.1958,-31.40,95.30,-160.85
970,441444516,0.9604,0.1973,-0.3325,-35.91,95.43,-156.65
971,441449518,0.9941,0.1665,-0.2573,-42.68,93.84,-153.17
972,441454515,0.9741,0.1855,-0.1416,-49.76,93.05,-150.06
973,441459514,0.9536,0.2627,-0.1572,-54.63,92.74,-147.20
974,441464516,0.9360,0.3359,-0.2148,-57.38,91.89,-144.63
975,441469516,0.9243,0.3696,-0.1685,-58.54,91.40,-142.32
976,441474515,0.9180,0.3921,-0.1387,-58.41,90.79,-140.00
977,441479516,0.9170,0.3940,-0.1616,-57.38,90.06,-137.62
978,441484516,0.9292,0.3867,-0.1694,-55.49,89.39,-135.30
979,441489574,0.9214,0.3730,-0.1094,-52.80,88.41,-132.87
980,441494517,0.9209,0.3809,-0.0684,-49.21,88.78,-130.37
981,441499516,0.9351,0.3867,-0.0684,-44.76,88.72,-127.62
982,441504516,0.9473,0.4048,-0.0605,-39.45,88.54,-124.63
983,441509516,0.9297,0.4272,-0.0059,-32.50,88.78,-121.28
984,441514517,0.9038,0.4448,0.0122,-24.27,89.27,-117.62
985,441519514,0.8823,0.4526,0.0015,-14.88,89.94,-113.78
986,441524516,0.8730,0.4546,0.0107,-4.51,90.24,-109.94
987,441529516,0.8521,0.4609,0.0415,6.28,90.61,-105.61
988,441534516,0.8286,0.4766,0.0483,16.89,90.91,-101.59
989,441539516,0.8057,0.4897,0.0225,27.50,91.04,-97.26
990,441544516,0.7734,0.5034,0.0459,37.38,90.67,-93.05
991,441549514,0.7520,0.5127,0.0742,46.40,90.98,-88.90
992,441554718,0.7305,0.5171,0.0806,54.57,90.49,-84.82
993,441559516,0.7148,0.5049,0.0811,61.83,90.49,-80.61
994,441564518,0.7192,0.4961,0.0913,67.93,90.12,-76.59
995,441569515,0.7256,0.4922,0.1226,72.74,89.76,-72.56
996,441574516,0.7407,0.4854,0.1328,76.65,89.57,-68.54
997,441579514,0.7666,0.4854,0.1475,79.76,89.39,-64.70
998,441584516,0.7856,0.4941,0.1704,82.13,89.09,-61.04
999,441589515,0.8110,0.5088,0.1885,84.33,89.15,-57.50
1000,441594516,0.8262,0.5254,0.1885,86.59,89.02,-54.27
1001,441599514,0.8364,0.5439,0.1978,88.84,89.02,-51.46
1002,441604516,0.8335,0.5596,0.2104,91.34,88.84,-48.78
1003,441609515,0.8350,0.5757,0.2251,94.33,89.21,-46.65
1004,441614516,0.8384,0.5942,0.2310,97.50,89.51,-44.57
1005,441619514,0.8359,0.6123,0.2344,100.91,89.27,-43.05
1006,441624516,0.8320,0.6206,0.2549,104.33,89.94,-41.71
1007,441629515,0.8091,0.6284,0.2510,107.80,89.94,-40.67
1008,441634516,0.7861,0.6382,0.2402,110.73,90.30,-39.70
1009,441639516,0.7671,0.6416,0.2437,113.17,90.49,-39.21
1010,441644516,0.7573,0.6367,0.2617,115.00,90.67,-38.84
1011,441649515,0.6406,0.5942,0.3125,116.71,90.55,-38.41
1012,441654516,0.7402,0.6104,0.2822,118.48,90.73,-37.80
1013,441659514,0.8242,0.6445,0.2876,119.76,90.61,-37.56
1014,441664518,0.9004,0.6421,0.2778,119.63,90.43,-37.99
1015,441669515,0.9116,0.6147,0.3413,117.87,90.73,-38.48
1016,441674516,0.9028,0.6094,0.3594,115.73,91.16,-38.78
1017,441679514,0.8516,0.6104,0.3345,113.84,91.59,-38.96
1018,441684516,0.7876,0.5947,0.3198,112.38,91.95,-39.02
1019,441689515,0.7095,0.5747,0.3252,109.15,92.07,-38.84
1020,441694516,0.8257,0.6821,0.3960,106.40,92.13,-39.21
1021,441699516,0.9004,0.7188,0.3828,105.43,92.74,-40.30
1022,441704516,0.9028,0.6831,0.3828,104.02,93.35,-41.40
1023,441709515,0.8813,0.6704,0.3730,102.26,93.84,-42.56
1024,441714516,0.8608,0.6743,0.3638,100.61,94.39,-43.60
1025,441719893,0.8164,0.6709,0.3682,99.88,94.70,-44.63
1026,441724518,0.7510,0.6558,0.3833,99.27,95.18,-45.61
1027,441729515,0.7095,0.6548,0.3730,98.90,95.79,-46.46
1028,441734518,0.7070,0.6465,0.3525,98.41,96.04,-47.26
1029,441739515,0.7300,0.6318,0.3633,97.87,96.04,-47.93
1030,441744514,0.7549,0.6196,0.3906,97.26,96.10,-48.48
1031,441749516,0.7788,0.6182,0.4043,96.46,96.16,-48.72
1032,441754515,0.7930,0.6152,0.4014,95.61,96.28,-48.96
1033,441759516,0.7930,0.6172,0.4165,95.18,96.71,-49.21
1034,441764516,0.7861,0.6226,0.4253,94.57,96.89,-49.33
1035,441769516,0.7817,0.6392,0.4165,94.27,97.07,-49.45
1036,441774516,0.7715,0.6465,0.4043,94.45,97.32,-49.76
1037,441779516,0.7603,0.6597,0.4287,94.94,97.62,-49.88
1038,441784516,0.7480,0.6714,0.4282,95.06,97.93,-50.12
1039,441789516,0.7339,0.6792,0.4263,95.12,98.29,-50.37
1040,441794516,0.7266,0.6816,0.4219,94.94,98.78,-50.67
1041,441799516,0.7070,0.6885,0.4390,93.84,99.27,-50.73
1042,441804517,0.6860,0.6909,0.4443,92.44,99.76,-50.91
1043,441809516,0.6675,0.6904,0.4434,90.18,100.37,-51.04
1044,441814516,0.6528,0.6860,0.4404,87.01,100.98,-50.91
1045,441819673,0.6353,0.6870,0.4321,83.11,101.40,-50.67
1046,441824516,0.6191,0.6812,0.4194,78.54,101.71,-50.30
1047,441829515,0.6118,0.6782,0.4092,73.66,101.71,-49.82
1048,441834516,0.6108,0.6753,0.3960,68.66,101.59,-48.90
1049,441839517,0.6187,0.6792,0.3994,64.15,101.34,-47.99
1050,441844516,0.6318,0.6846,0.4077,60.37,100.55,-46.95
1051,441849514,0.6406,0.6875,0.4004,57.26,100.00,-45.85
1052,441854514,0.6475,0.6870,0.4087,55.06,99.15,-44.45
1053,441859548,0.6470,0.6895,0.4131,53.90,98.29,-42.93
1054,441864516,0.6455,0.6885,0.4214,53.48,97.62,-41.34
1055,441869517,0.6411,0.6953,0.4292,54.27,96.65,-39.57
1056,441874516,0.6401,0.7007,0.4419,56.22,95.61,-37.74
1057,441879516,0.6426,0.7085,0.4497,59.15,94.94,-35.85
1058,441884514,0.6494,0.7231,0.4590,62.93,93.90,-34.15
1059,441889516,0.6484,0.7378,0.4688,67.32,93.23,-32.44
1060,441894517,0.6509,0.7485,0.4893,71.95,92.20,-30.85
1061,441899514,0.6489,0.7598,0.4966,76.71,91.40,-29.39
1062,441904516,0.6499,0.7764,0.5029,81.34,90.43,-28.11
1063,441909518,0.6475,0.7881,0.5078,85.67,89.45,-27.01
1064,441914515,0.6538,0.8057,0.5239,89.57,88.35,-25.91
1065,441919516,0.6602,0.8208,0.5396,92.74,87.01,-25.12
1066,441924516,0.6665,0.8374,0.5513,95.61,86.16,-24.45
1067,441929516,0.6699,0.8579,0.5435,97.80,85.49,-23.90
1068,441934516,0.6733,0.8809,0.5557,99.45,85.37,-23.60
1069,441939515,0.6772,0.8911,0.5605,100.18,85.18,-23.54
1070,441944518,0.6860,0.9121,0.5708,100.00,83.05,-23.54
1071,441949514,0.6904,0.9282,0.5737,99.02,82.07,-23.72
1072,441954516,0.6909,0.9448,0.5820,97.38,80.79,-23.96
1073,441959515,0.6895,0.9517,0.5854,94.82,79.33,-24.45
1074,441964516,0.6938,0.9478,0.5786,91.65,78.05,-24.70
1075,441969514,0.6797,0.9546,0.5811,87.93,76.77,-24.88
1076,441974514,0.6665,0.9614,0.5806,84.09,75.55,-24.88
1077,441979516,0.6567,0.9639,0.5854,80.24,74.09,-25.06
1078,441984515,0.6523,0.9678,0.5864,76.65,72.99,-24.88
1079,441989516,0.6450,0.9741,0.5986,72.99,71.71,-24.57
1080,441994516,0.6357,0.9756,0.5928,69.94,70.67,-24.39
1081,441999516,0.6450,0.9570,0.5923,67.20,69.45,-23.84
1082,442004516,0.6362,0.9570,0.5776,64.57,68.35,-22.93
1083,442009517,0.6226,0.9580,0.5742,62.32,67.01,-22.20
1084,442014516,0.6157,0.9614,0.5811,60.06,66.04,-21.04
1085,442019516,0.6128,0.9595,0.5796,58.05,65.06,-19.94
1086,442024516,0.6060,0.9653,0.5757,56.40,63.84,-18.72
1087,442029516,0.5928,0.9639,0.5767,54.94,62.80,-17.38
1088,442034516,0.5952,0.9629,0.5771,53.41,61.77,-16.04
1089,442039516,0.5913,0.9580,0.5732,52.07,60.98,-14.57
1090,442044516,0.5869,0.9541,0.5688,50.67,59.88,-12.93
1091,442049795,0.5854,0.9468,0.5674,49.45,58.90,-11.34
1092,442054516,0.5840,0.9429,0.5688,48.17,57.87,-9.70
1093,442059514,0.5884,0.9390,0.5684,47.26,56.71,-8.05
1094,442064516,0.5869,0.9380,0.5708,46.65,55.73,-6.34
1095,442069516,0.5864,0.9365,0.5781,46.10,54.76,-4.63
1096,442074517,0.5806,0.9292,0.5791,45.85,53.78,-2.93
1097,442079516,0.5762,0.9351,0.5757,45.79,52.74,-1.22
1098,442084517,0.5859,0.9414,0.5771,46.34,52.01,0.49
1099,442089517,0.5942,0.9360,0.5864,46.89,50.91,2.20
1100,442094516,0.5942,0.9336,0.5840,47.44,50.12,3.66
1101,442099516,0.5967,0.9302,0.5869,47.50,49.21,5.30
1102,442104516,0.6011,0.9219,0.5806,47.01,48.23,6.71
1103,442109517,0.6030,0.9180,0.5728,46.10,47.26,7.99
1104,442114516,0.6118,0.9199,0.5718,44.51,46.28,9.51
1105,442119521,0.6182,0.9199,0.5786,42.62,45.12,10.67
1106,442124515,0.6182,0.9185,0.5688,40.49,44.09,11.89
1107,442129516,0.6221,0.9185,0.5674,38.23,42.87,12.93
1108,442134514,0.6284,0.9175,0.5669,35.85,41.95,14.02
1109,442139516,0.6304,0.9189,0.5723,33.48,40.73,14.88
1110,442144515,0.6333,0.9155,0.5649,31.28,39.76,15.61
1111,442149516,0.6333,0.9106,0.5581,28.84,38.60,16.52
1112,442154516,0.6343,0.9116,0.5620,26.77,37.56,17.32
1113,442159514,0.6377,0.9077,0.5605,24.70,36.65,17.87
1114,442164518,0.6348,0.9014,0.5576,22.87,35.67,18.48
1115,442169519,0.6328,0.9004,0.5557,21.22,34.70,19.27
1116,442174517,0.6343,0.8950,0.5601,19.76,33.72,19.82
1117,442179671,0.6353,0.8921,0.5630,18.23,32.99,20.30
1118,442184515,0.6265,0.8857,0.5566,16.59,31.95,20.91
1119,442189517,0.6328,0.8779,0.5479,14.94,31.16,21.46
1120,442194518,0.6367,0.8770,0.5366,12.99,30.43,21.95
1121,442199517,0.6318,0.8677,0.5415,10.98,29.45,22.20
1122,442204516,0.6348,0.8657,0.5391,9.15,28.60,22.68
1123,442209517,0.6348,0.8584,0.5322,7.26,27.68,23.05
1124,442214516,0.6299,0.8589,0.5298,5.79,26.83,23.17
1125,442219517,0.6304,0.8496,0.5293,4.33,25.91,23.54
1126,442224516,0.6284,0.8481,0.5254,3.11,25.12,23.90
1127,442229517,0.6240,0.8418,0.5293,2.01,24.27,24.02
1128,442234516,0.6250,0.8306,0.5244,1.10,23.48,24.39
1129,442239514,0.6216,0.8267,0.5225,0.37,22.74,24.57
1130,442244516,0.6182,0.8213,0.5151,-0.24,21.65,25.00
1131,442249516,0.6172,0.8145,0.5098,-0.91,20.79,25.30
1132,442254515,0.6182,0.8071,0.5088,-1.59,19.88,25.49
1133,442259514,0.6187,0.7993,0.5039,-2.32,18.96,25.85
1134,442264518,0.6172,0.7896,0.4985,-2.80,18.05,25.98
1135,442269516,0.6167,0.7866,0.4995,-3.60,16.95,26.22
1136,442274516,0.6157,0.7832,0.5015,-3.96,16.10,26.40
1137,442279514,0.6123,0.7817,0.4941,-4.33,15.12,26.52
1138,442284518,0.6040,0.7725,0.4951,-4.63,14.02,26.59
1139,442289515,0.5933,0.7681,0.4902,-4.57,13.11,26.83
1140,442294517,0.5977,0.7627,0.4902,-4.63,12.20,27.07
1141,442299516,0.5991,0.7559,0.4932,-4.39,11.22,27.07
1142,442304515,0.5991,0.7505,0.4873,-4.27,10.30,27.26
1143,442309514,0.5996,0.7466,0.4941,-3.90,9.33,27.38
1144,442314517,0.5981,0.7407,0.4951,-3.54,8.23,27.50
1145,442319518,0.5957,0.7427,0.4849,-2.99,7.44,27.62
1146,442324516,0.5938,0.7363,0.4888,-2.38,6.59,27.68
1147,442329516,0.5903,0.7354,0.4878,-1.52,5.67,27.80
1148,442334516,0.5840,0.7314,0.4844,-0.67,4.82,27.80
1149,442339514,0.5815,0.7285,0.4829,0.12,4.21,27.99
1150,442344514,0.5796,0.7266,0.4883,1.22,3.35,28.05
1151,442349518,0.5801,0.7197,0.4849,2.20,2.62,28.11
1152,442354516,0.5811,0.7168,0.4873,3.23,1.89,28.11
1153,442359518,0.5771,0.7197,0.4756,4.09,1.28,28.17
1154,442364515,0.5742,0.7134,0.4785,4.88,0.55,28.05
1155,442369514,0.5752,0.7095,0.4761,5.37,0.00,27.99
1156,442374518,0.5786,0.7031,0.4775,5.98,-0.61,27.93
1157,442379515,0.5850,0.6968,0.4722,6.28,-1.34,27.93
1158,442384516,0.5884,0.6973,0.4683,6.46,-1.95,27.80
1159,442389515,0.5923,0.6934,0.4644,6.71,-2.56,27.56
1160,442394516,0.5952,0.6890,0.4629,6.65,-3.29,27.44
1161,442399514,0.6006,0.6851,0.4678,6.77,-3.78,27.13
1162,442404514,0.6084,0.6821,0.4624,6.95,-4.51,26.95
1163,442409686,0.6064,0.6841,0.4600,7.13,-5.00,26.71
1164,442414516,0.6084,0.6855,0.4565,7.62,-5.55,26.46
1165,442419890,0.6094,0.6846,0.4590,7.93,-6.04,25.91
1166,442424518,0.6123,0.6855,0.4609,8.35,-6.65,25.73
1167,442429515,0.6113,0.6841,0.4561,8.72,-6.89,25.49
1168,442434516,0.6133,0.6758,0.4561,8.78,-7.13,25.06
1169,442439514,0.6172,0.6782,0.4507,8.35,-7.38,24.63
1170,442444516,0.6196,0.6738,0.4478,7.93,-7.68,24.21
1171,442449515,0.6191,0.6694,0.4482,7.32,-8.11,23.90
1172,442454516,0.6235,0.6685,0.4478,6.46,-8.17,23.48
1173,442459517,0.6240,0.6665,0.4473,5.55,-8.54,22.93
1174,442464515,0.6289,0.6626,0.4414,4.88,-8.66,22.68
1175,442469516,0.6313,0.6572,0.4385,4.15,-8.96,22.26
1176,442474514,0.6353,0.6509,0.4429,3.54,-9.02,21.77
1177,442479518,0.6426,0.6475,0.4443,2.87,-9.39,21.40
1178,442484515,0.6455,0.6436,0.4414,2.62,-9.63,20.91
1179,442489517,0.6558,0.6460,0.4395,2.38,-9.76,20.49
1180,442494516,0.6592,0.6494,0.4404,2.38,-9.88,20.00
1181,442499515,0.6685,0.6426,0.4365,2.74,-10.30,19.57
1182,442504516,0.6631,0.6396,0.4341,3.48,-10.37,19.21
1183,442509516,0.6665,0.6440,0.4390,4.09,-10.49,18.78
1184,442514514,0.6606,0.6426,0.4390,4.76,-10.37,18.17
1185,442519517,0.6631,0.6382,0.4409,5.18,-10.30,17.80
1186,442524516,0.6641,0.6387,0.4321,5.30,-10.37,17.38
1187,442529516,0.6655,0.6338,0.4321,5.18,-10.18,16.95
1188,442534516,0.6660,0.6396,0.4243,5.00,-9.94,16.40
