# skilleye imu stream v1
# device=xiao_esp32c6 imu=mpu6050 addr=0x68
# rate_hz=200 accel_range_g=16 gyro_range_dps=2000 dlpf_hz=94
# units: accel in g, gyro in deg/s, t_us in microseconds since boot (monotonic)
# no shared clock with the camera -- tap the racket once before each take
# so both recordings share a spike to align on
seq,t_us,ax,ay,az,gx,gy,gz
0,80144787,0.7646,-0.5415,-0.2798,-2.50,11.89,5.43
1,80149789,0.7705,-0.5420,-0.2812,-2.50,11.95,5.55
2,80154789,0.7725,-0.5459,-0.2793,-2.38,11.65,5.67
3,80159786,0.7744,-0.5469,-0.2817,-2.38,11.59,5.85
4,80164788,0.7759,-0.5522,-0.2837,-2.26,11.46,6.10
5,80169786,0.7783,-0.5508,-0.2788,-1.89,11.34,6.16
6,80174789,0.7788,-0.5508,-0.2778,-1.89,11.04,6.28
7,80179786,0.7788,-0.5532,-0.2744,-1.52,11.04,6.34
8,80184788,0.7754,-0.5542,-0.2749,-1.46,10.85,6.40
9,80189785,0.7764,-0.5552,-0.2681,-1.16,10.79,6.40
10,80194791,0.7710,-0.5542,-0.2671,-0.91,10.61,6.52
11,80199787,0.7690,-0.5552,-0.2656,-0.73,10.49,6.71
12,80204787,0.7690,-0.5537,-0.2705,-0.43,10.43,6.65
13,80209785,0.7642,-0.5542,-0.2666,-0.18,10.24,6.65
14,80214785,0.7622,-0.5469,-0.2720,-0.12,10.00,6.40
15,80219789,0.7549,-0.5439,-0.2656,0.06,9.88,6.40
16,80224787,0.7534,-0.5420,-0.2612,0.24,9.51,6.28
17,80229787,0.7534,-0.5469,-0.2661,0.37,9.39,6.16
18,80234788,0.7515,-0.5488,-0.2681,0.49,9.09,5.85
19,80239787,0.7490,-0.5449,-0.2661,0.55,8.96,5.73
20,80244786,0.7451,-0.5430,-0.2642,0.67,8.72,5.49
21,80249785,0.7456,-0.5400,-0.2617,0.49,8.29,5.18
22,80254788,0.7471,-0.5386,-0.2666,0.61,8.11,4.88
23,80259787,0.7427,-0.5391,-0.2612,0.73,7.74,4.33
24,80264785,0.7461,-0.5361,-0.2612,0.79,7.62,3.78
25,80269788,0.7383,-0.5361,-0.2554,1.10,7.20,3.35
26,80274787,0.7358,-0.5371,-0.2544,1.46,7.20,2.74
27,80279787,0.7373,-0.5400,-0.2617,1.95,6.83,2.13
28,80284785,0.7339,-0.5454,-0.2549,2.80,6.52,1.59
29,80289789,0.7363,-0.5483,-0.2524,3.72,6.28,0.98
30,80294786,0.7349,-0.5576,-0.2544,5.00,6.22,0.37
31,80299787,0.7349,-0.5679,-0.2515,6.40,5.91,-0.30
32,80304787,0.7319,-0.5737,-0.2495,7.99,5.55,-0.85
33,80309786,0.7329,-0.5752,-0.2437,9.51,5.55,-1.52
34,80315110,0.7344,-0.5815,-0.2461,11.34,5.30,-2.13
35,80319787,0.7363,-0.5845,-0.2500,12.56,4.94,-2.62
36,80324786,0.7334,-0.5859,-0.2500,14.02,4.82,-3.11
37,80329789,0.7329,-0.5898,-0.2417,15.37,4.51,-3.66
38,80334787,0.7319,-0.5859,-0.2363,16.40,4.27,-4.27
39,80339785,0.7388,-0.5869,-0.2358,17.13,4.09,-4.76
40,80344786,0.7354,-0.5825,-0.2319,17.93,3.78,-5.49
41,80349787,0.7358,-0.5811,-0.2295,18.29,3.66,-6.16
42,80354786,0.7349,-0.5801,-0.2197,18.48,3.35,-6.71
43,80359787,0.7275,-0.5786,-0.2163,18.54,3.17,-7.38
44,80364785,0.7358,-0.5796,-0.2124,18.35,3.05,-7.93
45,80369788,0.7358,-0.5708,-0.2095,18.05,2.80,-8.72
46,80374787,0.7314,-0.5723,-0.2153,17.62,2.68,-9.33
47,80379786,0.7349,-0.5713,-0.2114,17.13,2.32,-9.88
48,80384788,0.7310,-0.5757,-0.2065,16.71,2.20,-10.67
49,80389787,0.7310,-0.5801,-0.2065,16.28,2.07,-11.28
50,80394787,0.7314,-0.5776,-0.2124,15.73,1.89,-11.83
51,80399786,0.7373,-0.5811,-0.2114,15.30,1.65,-12.20
52,80405143,0.7378,-0.5801,-0.2070,14.76,1.46,-12.68
53,80409787,0.7354,-0.5806,-0.2100,14.33,1.22,-13.29
54,80414787,0.7407,-0.5742,-0.2139,13.78,0.98,-13.72
55,80419787,0.7407,-0.5747,-0.2124,13.29,0.73,-14.09
56,80424786,0.7412,-0.5786,-0.2168,12.74,0.43,-14.39
57,80429787,0.7451,-0.5728,-0.2212,12.20,0.18,-14.88
58,80434785,0.7476,-0.5767,-0.2227,11.40,-0.06,-15.06
59,80439787,0.7480,-0.5723,-0.2173,10.73,-0.18,-15.49
60,80444787,0.7500,-0.5693,-0.2236,10.12,-0.43,-15.67
61,80449789,0.7515,-0.5640,-0.2119,9.39,-0.67,-15.91
62,80454786,0.7520,-0.5640,-0.2129,8.60,-0.85,-16.16
63,80459787,0.7534,-0.5596,-0.2178,7.80,-0.98,-16.40
64,80464786,0.7539,-0.5581,-0.2104,7.32,-1.10,-16.52
65,80469790,0.7554,-0.5532,-0.2124,6.65,-1.10,-16.65
66,80474791,0.7627,-0.5571,-0.2153,6.28,-1.40,-16.83
67,80479786,0.7632,-0.5532,-0.2183,5.91,-1.46,-16.89
68,80484787,0.7734,-0.5532,-0.2261,5.79,-1.59,-16.89
69,80489787,0.7764,-0.5508,-0.2319,5.67,-1.71,-16.89
70,80494785,0.7842,-0.5518,-0.2354,5.67,-1.59,-16.89
71,80499787,0.7905,-0.5581,-0.2378,5.98,-1.77,-16.65
72,80504785,0.7910,-0.5537,-0.2412,6.28,-1.95,-16.46
73,80509786,0.7979,-0.5542,-0.2451,6.40,-1.89,-16.40
74,80514789,0.7998,-0.5522,-0.2476,6.71,-2.01,-16.10
75,80519786,0.7983,-0.5459,-0.2397,6.89,-2.07,-15.98
76,80524788,0.8018,-0.5415,-0.2393,6.89,-2.38,-15.73
77,80529787,0.7983,-0.5332,-0.2402,6.83,-2.26,-15.55
78,80534785,0.7983,-0.5298,-0.2432,6.52,-2.20,-15.30
79,80539789,0.7939,-0.5210,-0.2456,6.22,-2.20,-15.12
80,80544786,0.7935,-0.5190,-0.2510,5.79,-2.26,-14.94
81,80549787,0.7974,-0.5137,-0.2524,5.12,-2.20,-14.76
82,80554787,0.7920,-0.5073,-0.2554,4.45,-2.13,-14.39
83,80559787,0.7910,-0.5000,-0.2573,3.78,-2.13,-14.21
84,80564786,0.7920,-0.4937,-0.2603,3.05,-2.07,-13.96
85,80569787,0.7866,-0.4897,-0.2637,2.13,-2.26,-13.66
86,80574913,0.7856,-0.4814,-0.2656,1.10,-2.13,-13.35
87,80579787,0.7827,-0.4761,-0.2695,0.06,-2.26,-13.05
88,80584787,0.7773,-0.4722,-0.2720,-1.04,-2.20,-12.74
89,80589787,0.7783,-0.4580,-0.2715,-2.38,-2.38,-12.38
90,80594786,0.7744,-0.4531,-0.2739,-3.60,-2.44,-12.07
91,80599787,0.7681,-0.4448,-0.2759,-5.12,-2.50,-11.83
92,80604787,0.7661,-0.4375,-0.2764,-6.59,-2.62,-11.40
93,80609787,0.7632,-0.4282,-0.2817,-8.11,-2.74,-10.91
94,80614786,0.7651,-0.4219,-0.2847,-9.82,-2.68,-10.61
95,80619787,0.7627,-0.4077,-0.2891,-11.59,-2.93,-10.24
96,80624786,0.7603,-0.4009,-0.2905,-13.35,-3.05,-9.70
97,80629788,0.7603,-0.3940,-0.2837,-15.18,-3.29,-9.33
98,80635059,0.7563,-0.3828,-0.2866,-17.07,-3.29,-8.78
99,80639787,0.7524,-0.3843,-0.2798,-18.84,-3.54,-8.35
100,80644786,0.7563,-0.3784,-0.2866,-20.79,-3.84,-7.68
101,80649789,0.7554,-0.3667,-0.2842,-22.80,-3.90,-7.07
102,80654786,0.7456,-0.3579,-0.3174,-24.94,-4.27,-6.52
103,80659787,0.7412,-0.3496,-0.3057,-27.62,-4.57,-5.98
104,80664786,0.7363,-0.3535,-0.2793,-30.30,-4.94,-5.24
105,80669787,0.7441,-0.3613,-0.2671,-33.05,-5.18,-4.57
106,80674785,0.7505,-0.3569,-0.2686,-35.61,-5.24,-3.78
107,80679785,0.7559,-0.3535,-0.2720,-38.23,-5.61,-2.93
108,80684787,0.7651,-0.3345,-0.2847,-41.34,-5.91,-2.07
109,80689787,0.7524,-0.3174,-0.2988,-44.70,-6.46,-1.28
110,80694789,0.7471,-0.3438,-0.2944,-48.05,-6.89,-0.30
111,80699828,0.7271,-0.3530,-0.2725,-51.46,-7.50,0.67
112,80704787,0.7231,-0.3457,-0.2773,-54.88,-7.93,1.77
113,80709787,0.7241,-0.3379,-0.2827,-58.35,-8.35,2.68
114,80714787,0.7285,-0.3237,-0.2798,-61.95,-8.96,3.78
115,80719787,0.7314,-0.3188,-0.2725,-65.67,-9.45,4.88
116,80724788,0.7466,-0.3188,-0.2837,-69.63,-9.94,5.98
117,80729787,0.7393,-0.3208,-0.2920,-73.60,-10.55,6.95
118,80734785,0.7256,-0.3198,-0.2832,-76.95,-11.16,7.87
119,80739788,0.6968,-0.3188,-0.2832,-82.01,-11.95,9.27
120,80744787,0.6973,-0.2993,-0.2832,-85.37,-12.44,10.18
121,80749787,0.6816,-0.3115,-0.2710,-90.67,-13.35,11.59
122,80754787,0.6914,-0.3228,-0.2700,-94.02,-13.90,12.50
123,80759787,0.7051,-0.3369,-0.2754,-98.17,-14.39,13.72
124,80764785,0.7231,-0.3477,-0.2891,-102.32,-15.06,15.06
125,80769789,0.7314,-0.3467,-0.2803,-106.52,-15.73,16.40
126,80774786,0.7456,-0.3442,-0.2861,-110.98,-16.46,17.68
127,80779787,0.7490,-0.3511,-0.2939,-115.55,-17.26,18.90
128,80785209,0.7549,-0.3643,-0.3013,-121.16,-18.17,20.61
129,80789787,0.7583,-0.3667,-0.2944,-124.88,-18.66,21.65
130,80794787,0.7729,-0.3838,-0.3018,-129.51,-19.63,22.99
131,80799787,0.7798,-0.3984,-0.3188,-134.02,-20.49,24.45
132,80804787,0.7842,-0.4048,-0.3218,-138.05,-21.46,25.98
133,80809787,0.7930,-0.4141,-0.3364,-141.83,-22.56,27.44
134,80814787,0.7935,-0.4292,-0.3501,-145.24,-23.72,29.15
135,80819787,0.7998,-0.4434,-0.3574,-147.99,-25.06,30.79
136,80824786,0.8032,-0.4409,-0.3696,-150.49,-26.22,32.62
137,80829787,0.8145,-0.4409,-0.3726,-152.50,-27.68,34.39
138,80834786,0.8164,-0.4346,-0.3965,-154.39,-29.02,36.16
139,80839787,0.8218,-0.4263,-0.4209,-155.73,-30.43,37.80
140,80844785,0.8198,-0.4268,-0.4414,-157.07,-32.07,39.51
141,80849789,0.8145,-0.4268,-0.4468,-158.17,-33.78,41.28
142,80854787,0.8008,-0.4199,-0.4478,-159.15,-35.49,43.05
143,80859787,0.7935,-0.4126,-0.4590,-160.18,-37.13,44.70
144,80864787,0.7861,-0.4116,-0.4629,-161.28,-38.96,46.40
145,80869787,0.7866,-0.4351,-0.4634,-162.38,-41.04,48.17
146,80874787,0.7822,-0.4111,-0.4536,-163.29,-42.87,50.00
147,80879809,0.7847,-0.4131,-0.4395,-164.51,-44.63,51.59
148,80884785,0.7886,-0.4409,-0.4678,-165.49,-46.40,53.41
149,80889789,0.7930,-0.4673,-0.4834,-166.28,-48.48,55.55
150,80894786,0.7930,-0.4717,-0.4521,-166.59,-50.37,57.56
151,80899787,0.7969,-0.4629,-0.4717,-166.52,-52.13,59.70
152,80904786,0.7852,-0.5054,-0.4297,-165.79,-53.78,61.83
153,80909787,0.7598,-0.6572,0.3320,-159.70,-47.62,67.74
154,80914787,0.6479,-1.6382,1.0244,-149.51,-30.67,78.29
155,80919787,0.8984,0.4771,-1.8452,-131.95,-18.78,91.28
156,80924787,0.8579,0.6450,0.2280,-120.43,-6.71,95.06
157,80929787,0.7910,0.2524,-0.0073,-109.33,6.71,99.76
158,80934788,0.7271,-0.2090,-1.0923,-99.21,9.51,105.00
159,80939787,0.5981,-0.5488,-0.8188,-90.43,10.06,110.98
160,80944785,0.4995,-0.6357,-0.3062,-82.99,13.90,117.68
161,80949789,0.4673,-0.6084,-0.4219,-74.94,14.57,125.30
162,80955296,0.4678,-0.5249,-0.7642,-69.09,13.60,131.59
163,80959788,0.4751,-0.2017,-0.6582,-64.45,11.59,135.49
164,80964786,0.5078,-0.1558,-0.4932,-58.96,12.44,139.82
165,80969787,0.5645,-0.2109,-0.6138,-53.72,12.56,143.84
166,80974786,0.5981,-0.3047,-0.6470,-49.27,11.95,147.38
167,80979787,0.6079,-0.3706,-0.5483,-45.91,11.71,150.91
168,80984785,0.6152,-0.3906,-0.5449,-43.41,11.40,154.02
169,80989787,0.6187,-0.3784,-0.6133,-41.65,10.43,156.71
170,80994787,0.6211,-0.3506,-0.6201,-40.67,8.78,159.27
171,80999787,0.6279,-0.3452,-0.5903,-40.12,7.32,161.52
172,81004787,0.6284,-0.3779,-0.6060,-39.82,5.49,163.84
173,81009786,0.6274,-0.4077,-0.6348,-39.76,3.48,166.16
174,81014789,0.5986,-0.0957,-0.5513,-40.67,2.07,166.89
175,81019786,0.6597,-0.2671,-0.5054,-44.76,1.83,161.95
176,81024787,0.6260,-0.3887,-0.5259,-47.93,2.07,159.09
177,81029787,0.6396,-0.2656,-0.5625,-51.28,1.95,156.16
178,81034787,0.6226,-0.3311,-0.5737,-54.88,1.95,152.80
179,81039787,0.6006,-0.4009,-0.5698,-58.60,1.89,149.88
180,81044785,0.5913,-0.4648,-0.5889,-62.26,1.59,146.77
181,81049788,0.5820,-0.5415,-0.6660,-65.98,0.98,143.90
182,81054787,0.5757,-0.5625,-0.6519,-69.39,0.30,141.22
183,81059786,0.5703,-0.5122,-0.5972,-72.26,0.18,138.35
184,81064805,0.5752,-0.4404,-0.6284,-74.45,0.61,135.55
185,81069789,0.5801,-0.3491,-0.5996,-76.16,1.89,132.20
186,81074787,0.6113,-0.3208,-0.4644,-77.38,5.06,128.35
187,81079787,0.6250,-0.3530,-0.4341,-77.56,10.37,124.02
188,81084785,0.6562,-0.3813,-0.5063,-76.83,16.71,119.27
189,81089785,0.6709,-0.4614,-0.6470,-74.76,23.84,113.90
190,81094787,0.6514,-0.4868,-0.6440,-72.62,27.74,110.85
191,81099786,0.5967,-0.5303,-0.7319,-69.51,31.22,107.50
192,81104785,0.5396,-0.5737,-0.7876,-66.34,33.72,104.82
193,81109789,0.5132,-0.6343,-0.7710,-62.99,35.67,102.56
194,81114788,0.5034,-0.6797,-0.7935,-59.57,37.56,100.85
195,81119789,0.5234,-0.6992,-0.8242,-56.40,38.84,99.27
196,81124787,0.5376,-0.6880,-0.8408,-53.17,40.00,97.68
197,81129787,0.5522,-0.6528,-0.8423,-50.24,40.98,95.79
198,81134786,0.5674,-0.6270,-0.8516,-47.56,41.77,93.66
199,81139787,0.5796,-0.6167,-0.8691,-45.18,42.44,91.22
200,81144787,0.5908,-0.6255,-0.8564,-43.29,43.17,87.74
201,81149787,0.5938,-0.6309,-0.8491,-41.89,43.72,86.10
202,81154788,0.5952,-0.6431,-0.8569,-41.16,44.33,83.90
203,81159788,0.6108,-0.6387,-0.8530,-41.28,44.88,81.46
204,81164788,0.5967,-0.6104,-0.8223,-41.95,45.55,78.90
205,81169787,0.5928,-0.6021,-0.7954,-43.48,46.10,76.16
206,81174787,0.5894,-0.6226,-0.8213,-45.30,46.65,73.72
207,81179787,0.5840,-0.6362,-0.8252,-47.32,47.07,71.16
208,81184786,0.5679,-0.6602,-0.8105,-49.45,47.13,68.84
209,81189785,0.5581,-0.6689,-0.7939,-51.83,47.07,66.65
210,81195478,0.5454,-0.6577,-0.8057,-54.33,46.83,64.33
211,81199788,0.5293,-0.6274,-0.7764,-56.40,46.22,62.01
212,81204915,0.4990,-0.5889,-0.7251,-58.72,46.10,59.39
213,81209787,0.5039,-0.5967,-0.7188,-61.22,46.04,56.46
214,81214787,0.5000,-0.6172,-0.7231,-63.90,45.67,53.78
215,81219787,0.5093,-0.6147,-0.6997,-66.89,45.24,51.22
216,81224953,0.5015,-0.6113,-0.6689,-69.63,45.00,48.60
217,81229787,0.4849,-0.6074,-0.6396,-72.20,44.82,46.16
218,81234788,0.4771,-0.5957,-0.6230,-74.39,44.45,43.60
219,81239787,0.4580,-0.5957,-0.6118,-76.22,44.21,41.28
220,81245139,0.4424,-0.5889,-0.5825,-77.80,43.90,38.90
221,81249787,0.4336,-0.5913,-0.5581,-78.90,43.60,36.83
222,81254788,0.4258,-0.5889,-0.5454,-79.70,43.41,34.82
223,81259787,0.4219,-0.5815,-0.5356,-80.00,42.93,32.80
224,81264787,0.4180,-0.5669,-0.5215,-79.94,42.50,31.04
225,81269787,0.4199,-0.5615,-0.5107,-79.45,42.07,29.27
226,81274788,0.4194,-0.5562,-0.5107,-78.84,41.77,27.44
227,81279787,0.4136,-0.5518,-0.5088,-77.74,41.10,25.79
228,81284785,0.4102,-0.5308,-0.5068,-76.40,40.61,24.09
229,81289785,0.4048,-0.5083,-0.5122,-74.94,40.30,22.62
230,81294785,0.4058,-0.4937,-0.4995,-73.23,39.70,21.22
231,81299788,0.4033,-0.4775,-0.5029,-71.46,39.27,20.06
232,81304786,0.3979,-0.4600,-0.5073,-69.51,38.60,18.96
233,81309787,0.3970,-0.4497,-0.5127,-67.68,37.99,18.17
234,81314787,0.3975,-0.4346,-0.5181,-66.04,37.62,17.38
235,81319786,0.3911,-0.4224,-0.5259,-64.39,37.01,16.71
236,81324785,0.3828,-0.4146,-0.5264,-63.17,36.52,16.10
237,81329789,0.3589,-0.4136,-0.5381,-62.13,36.04,15.85
238,81334787,0.3691,-0.4121,-0.5298,-61.65,35.55,15.55
239,81339787,0.3809,-0.3979,-0.5288,-61.40,35.18,15.37
240,81344787,0.4043,-0.3779,-0.5264,-61.89,34.82,15.24
241,81349787,0.4443,-0.3711,-0.5332,-62.80,34.27,15.18
242,81354785,0.4731,-0.3657,-0.5181,-63.60,34.15,15.30
243,81360550,0.4590,-0.3623,-0.5176,-64.94,33.48,15.30
244,81364788,0.4551,-0.3730,-0.5225,-65.79,32.74,15.30
245,81369787,0.4653,-0.3818,-0.5137,-66.95,32.13,15.37
246,81374788,0.4639,-0.3799,-0.5352,-68.17,31.28,15.37
247,81379787,0.4546,-0.3643,-0.5464,-69.09,30.49,15.24
248,81384786,0.4507,-0.3516,-0.5327,-70.06,29.15,14.94
249,81389788,0.4497,-0.3472,-0.5298,-70.98,28.17,14.82
250,81394785,0.4541,-0.3555,-0.5327,-71.65,27.20,14.70
251,81399785,0.4502,-0.3438,-0.5493,-72.50,25.91,14.76
252,81404789,0.4546,-0.3276,-0.5410,-73.11,24.88,14.70
253,81409786,0.4717,-0.3379,-0.5562,-74.39,23.78,14.76
254,81414787,0.4878,-0.3481,-0.5728,-75.79,22.50,15.00
255,81419786,0.4834,-0.3662,-0.5952,-77.56,20.91,15.18
256,81424789,0.5063,-0.3721,-0.5879,-79.63,19.63,15.67
257,81429786,0.4985,-0.3647,-0.5835,-82.13,18.41,15.98
258,81434785,0.4829,-0.3672,-0.5581,-84.94,17.26,16.46
259,81439788,0.4810,-0.3350,-0.5493,-87.62,16.16,16.89
260,81444788,0.4873,-0.3105,-0.5615,-90.12,14.94,17.20
261,81449787,0.4961,-0.2998,-0.5654,-92.13,13.60,17.56
262,81454785,0.5039,-0.3013,-0.5527,-93.66,12.07,18.05
263,81459788,0.5200,-0.3022,-0.5415,-94.76,10.67,18.78
264,81464787,0.5239,-0.3164,-0.5601,-94.76,8.96,19.70
265,81469786,0.5312,-0.3169,-0.5776,-94.33,7.13,20.91
266,81474787,0.5479,-0.3149,-0.5776,-93.29,4.76,22.13
267,81479786,0.5688,-0.3032,-0.5786,-91.77,2.44,23.54
268,81484787,0.5884,-0.2930,-0.5703,-89.82,-0.12,25.00
269,81489786,0.6064,-0.2832,-0.5483,-87.26,-2.56,26.52
270,81494785,0.6230,-0.2769,-0.5356,-84.15,-4.82,27.99
271,81499785,0.6348,-0.2671,-0.5239,-80.37,-6.89,29.57
272,81504787,0.6431,-0.2632,-0.5112,-76.10,-8.90,31.16
273,81509786,0.6470,-0.2529,-0.5054,-71.40,-10.49,32.68
274,81514789,0.6411,-0.2412,-0.5054,-66.28,-12.26,34.15
275,81519786,0.6416,-0.2261,-0.5190,-60.91,-13.90,35.49
276,81524785,0.6274,-0.2148,-0.5249,-54.88,-15.85,36.71
277,81529787,0.6313,-0.2100,-0.5337,-48.78,-17.44,37.87
278,81534787,0.6416,-0.2178,-0.5454,-42.44,-19.45,39.09
279,81539787,0.6538,-0.2290,-0.5664,-35.67,-21.22,40.30
280,81544787,0.6533,-0.2427,-0.6099,-28.11,-22.74,41.52
281,81549787,0.6372,-0.2485,-0.6348,-20.30,-24.09,42.62
282,81554785,0.6201,-0.2505,-0.6226,-12.56,-25.12,43.78
283,81559785,0.5903,-0.2495,-0.5869,-5.12,-25.61,44.76
284,81565316,0.5820,-0.2231,-0.5796,3.05,-25.98,45.55
285,81569789,0.5747,-0.1924,-0.6040,7.87,-25.91,45.91
286,81574790,0.5566,-0.1699,-0.6479,14.39,-25.91,46.40
287,81579787,0.5537,-0.1772,-0.6538,17.74,-25.79,46.77
288,81584787,0.5669,-0.1875,-0.6382,20.98,-25.49,47.38
289,81589787,0.5859,-0.1836,-0.6436,22.93,-24.94,47.99
290,81594787,0.6025,-0.1792,-0.6650,23.90,-24.02,48.54
291,81599787,0.5850,-0.1187,-0.6938,23.78,-23.35,49.27
292,81604787,0.5669,-0.1299,-0.6802,21.95,-22.26,49.88
293,81609787,0.5420,-0.1587,-0.6890,19.15,-21.04,50.79
294,81614787,0.5464,-0.1919,-0.7119,15.85,-19.57,51.77
295,81619787,0.5425,-0.2065,-0.7202,12.13,-17.99,52.62
296,81625229,0.5264,-0.2075,-0.7334,7.32,-15.73,53.60
297,81629787,0.4937,-0.2095,-0.7202,3.66,-13.90,54.21
298,81634786,0.4937,-0.2173,-0.7241,-1.52,-12.13,54.63
299,81639788,0.5137,-0.2153,-0.7480,-7.32,-9.88,55.12
300,81644787,0.5229,-0.2163,-0.7588,-13.17,-7.87,55.67
301,81649786,0.5195,-0.2368,-0.7739,-19.21,-5.67,56.28
302,81654788,0.5195,-0.2490,-0.7974,-25.06,-3.29,57.01
303,81659786,0.5200,-0.2593,-0.8008,-31.04,-1.16,57.80
304,81664785,0.5010,-0.2607,-0.8052,-37.13,1.22,58.54
305,81669789,0.4971,-0.2607,-0.8149,-43.66,3.35,59.15
306,81674787,0.4976,-0.2539,-0.8315,-50.61,5.67,59.57
307,81679786,0.4868,-0.2471,-0.8350,-57.56,7.93,59.94
308,81684785,0.4829,-0.2393,-0.8311,-65.12,10.00,60.12
309,81689787,0.4883,-0.2358,-0.8384,-73.05,11.95,60.37
310,81694786,0.5044,-0.2358,-0.8442,-81.04,13.84,60.37
311,81699785,0.5161,-0.2300,-0.8472,-88.90,15.61,60.49
312,81705484,0.5098,-0.2222,-0.8472,-98.35,17.56,60.61
313,81709788,0.5469,-0.2402,-0.8608,-104.63,18.96,60.37
314,81714787,0.5732,-0.2451,-0.8862,-110.98,20.67,60.49
315,81719787,0.5571,-0.2422,-0.8799,-115.91,22.56,60.37
316,81724788,0.4937,-0.1938,-0.9053,-120.00,24.27,60.30
317,81729787,0.5205,-0.2134,-0.8896,-122.56,25.98,60.24
318,81734789,0.5649,-0.2417,-0.8691,-124.51,27.62,60.06
319,81739786,0.5884,-0.2729,-0.8735,-125.79,29.63,59.82
320,81744789,0.6055,-0.2842,-0.8750,-125.98,31.28,59.57
321,81749786,0.6128,-0.2783,-0.8813,-125.24,33.05,59.33
322,81754788,0.6265,-0.2808,-0.8892,-123.05,34.94,58.84
323,81759786,0.6353,-0.2793,-0.9077,-119.51,36.77,58.41
324,81764785,0.6514,-0.2690,-0.9146,-114.39,38.23,58.11
325,81770211,0.6621,-0.2681,-0.9351,-108.23,39.88,57.50
326,81774789,0.6641,-0.2642,-0.9526,-101.59,41.28,56.95
327,81779786,0.6904,-0.2603,-0.9253,-94.27,42.93,56.59
328,81785220,0.7085,-0.2437,-0.9316,-86.83,44.82,56.10
329,81789787,0.7339,-0.2310,-0.9409,-79.27,46.65,55.61
330,81794788,0.7480,-0.2129,-0.9282,-72.38,48.17,54.76
331,81799787,0.7559,-0.1914,-0.9189,-65.91,49.88,53.96
332,81804785,0.7686,-0.1733,-0.9341,-60.55,51.34,53.23
333,81809789,0.7793,-0.1606,-0.9248,-56.46,52.62,52.26
334,81814787,0.7905,-0.1475,-0.9028,-53.41,53.84,51.52
335,81819786,0.8032,-0.1318,-0.8906,-51.46,54.94,50.79
336,81824789,0.8076,-0.1270,-0.8838,-50.43,55.91,49.94
337,81829786,0.8130,-0.1196,-0.8745,-50.37,56.59,49.21
338,81834848,0.8174,-0.1167,-0.8579,-51.10,57.26,48.48
339,81839786,0.8203,-0.1191,-0.8477,-52.56,57.80,47.74
340,81844789,0.8276,-0.1196,-0.8340,-54.76,58.35,47.07
341,81849786,0.8335,-0.1216,-0.8252,-57.32,58.72,46.40
342,81854787,0.8418,-0.1338,-0.8081,-60.55,58.96,45.61
343,81859786,0.8149,-0.1284,-0.8105,-63.78,59.15,45.12
344,81864785,0.8252,-0.1470,-0.7905,-66.83,59.15,44.51
345,81869789,0.8198,-0.1377,-0.7822,-69.51,59.09,43.90
346,81875090,0.8213,-0.1353,-0.7734,-71.52,59.15,43.17
347,81879787,0.8374,-0.1343,-0.7588,-72.93,59.09,42.44
348,81884882,0.8140,-0.1509,-0.7881,-74.15,58.96,41.77
349,81889787,0.7944,-0.1445,-0.7627,-75.24,58.72,41.28
350,81894785,0.8076,-0.1421,-0.7646,-76.04,58.72,40.61
351,81899787,0.8164,-0.1338,-0.7778,-76.71,58.84,39.76
352,81904785,0.8306,-0.1318,-0.7661,-76.95,58.90,38.72
353,81910225,0.8423,-0.1284,-0.7515,-77.13,59.27,37.87
354,81914787,0.8413,-0.1255,-0.7622,-77.07,59.63,36.71
355,81919786,0.8330,-0.1172,-0.7637,-77.13,59.94,35.55
356,81924787,0.8081,-0.1108,-0.7563,-77.32,60.18,34.33
357,81929786,0.8027,-0.1143,-0.7593,-77.87,60.49,33.05
358,81935050,0.7969,-0.1104,-0.7559,-78.72,60.67,31.89
359,81939787,0.7979,-0.1030,-0.7520,-79.94,61.04,30.79
360,81944787,0.8052,-0.1016,-0.7344,-81.71,61.52,29.57
361,81949787,0.8110,-0.0889,-0.7290,-83.84,62.07,28.48
362,81954788,0.8286,-0.0703,-0.7183,-86.10,62.74,27.56
363,81959787,0.8296,-0.0537,-0.7095,-88.78,63.66,26.52
364,81964813,0.8340,-0.0391,-0.7148,-92.07,64.51,25.55
365,81969789,0.8271,-0.0205,-0.7119,-95.55,65.43,24.70
366,81974787,0.8086,-0.0083,-0.7100,-99.51,66.34,23.90
367,81979787,0.7939,0.0015,-0.7231,-102.87,66.77,23.17
368,81984786,0.7734,0.0161,-0.7412,-107.50,67.32,22.44
369,81989787,0.7651,0.0371,-0.7627,-112.50,67.93,21.65
370,81994787,0.7681,0.0444,-0.7524,-117.68,68.35,20.98
371,81999787,0.7656,0.0464,-0.7539,-122.74,69.02,20.49
372,82004785,0.7666,0.0483,-0.7754,-127.99,69.63,19.94
373,82009785,0.7690,0.0591,-0.7822,-132.87,70.24,19.51
374,82014788,0.7705,0.0625,-0.7773,-137.62,71.10,19.21
375,82019787,0.7632,0.0645,-0.7988,-141.83,72.07,19.02
376,82024787,0.7539,0.0684,-0.8125,-145.79,72.99,18.78
377,82029787,0.7466,0.0649,-0.8101,-149.27,73.96,18.72
378,82035034,0.7412,0.0571,-0.8208,-152.38,75.18,18.78
379,82039787,0.7397,0.0493,-0.8252,-153.84,76.04,18.84
380,82044786,0.7314,0.0366,-0.8315,-154.82,77.26,18.96
381,82049788,0.7256,0.0234,-0.8296,-154.57,78.23,19.02
382,82054786,0.7217,0.0117,-0.8218,-152.99,79.33,19.39
383,82059788,0.7080,0.0054,-0.8242,-150.18,80.73,19.82
384,82064787,0.6997,0.0093,-0.8140,-145.91,82.07,20.06
385,82069789,0.6953,0.0151,-0.8232,-138.96,84.51,20.43
386,82074787,0.7017,0.0156,-0.8179,-133.54,85.55,20.49
387,82080766,0.7085,0.0181,-0.8228,-124.57,86.04,20.79
388,82084789,0.7056,0.0132,-0.8203,-118.29,85.79,20.73
389,82089785,0.7070,0.0171,-0.8247,-110.55,85.73,20.98
390,82094787,0.7231,0.0068,-0.8262,-102.93,86.28,20.79
391,82099785,0.7319,0.0073,-0.8218,-95.98,87.20,20.91
392,82104785,0.7354,0.0137,-0.8213,-89.27,87.68,20.73
393,82109785,0.7427,0.0132,-0.8188,-83.84,88.48,20.30
394,82114790,0.7417,0.0112,-0.8159,-79.33,88.84,19.57
395,82119786,0.7324,-0.0010,-0.8066,-76.28,88.41,18.72
396,82124787,0.7183,-0.0171,-0.7866,-74.76,88.11,17.62
397,82129786,0.7046,-0.0435,-0.7744,-74.63,87.74,16.40
398,82134789,0.6899,-0.0645,-0.7573,-76.16,88.05,15.06
399,82139786,0.6899,-0.0830,-0.7451,-78.96,88.54,13.84
400,82144787,0.6592,-0.1006,-0.7266,-83.11,88.48,12.56
401,82149786,0.6299,-0.1318,-0.7275,-88.11,88.35,11.46
402,82154785,0.6060,-0.1123,-0.6787,-93.29,88.29,10.43
403,82159785,0.5874,-0.1162,-0.6592,-99.70,88.29,9.27
404,82164794,0.5884,-0.1772,-0.6279,-103.84,88.41,8.66
405,82169786,0.5708,-0.1562,-0.6675,-109.02,88.72,8.05
406,82174785,0.6309,-0.1738,-0.6431,-115.43,88.90,7.26
407,82179788,0.6714,-0.1475,-0.6396,-119.82,88.66,6.95
408,82184787,0.6567,-0.1328,-0.6421,-125.37,87.74,6.40
409,82189786,0.6084,-0.1523,-0.6245,-131.16,86.83,6.16
410,82194789,0.6611,-0.1367,-0.5767,-137.13,87.93,5.79
411,82199787,0.6924,-0.1235,-0.5303,-142.99,87.50,5.12
412,82204815,0.6826,-0.0913,-0.5229,-148.60,87.44,4.15
413,82209787,0.6553,-0.0815,-0.5137,-153.60,87.68,2.93
414,82214785,0.6230,-0.0767,-0.4980,-158.29,88.41,1.65
415,82219789,0.6079,-0.0898,-0.4854,-162.87,88.66,0.49
416,82224787,0.6030,-0.1021,-0.4556,-167.07,88.90,-0.43
417,82229786,0.6035,-0.1035,-0.4341,-171.22,89.63,-1.04
418,82234789,0.6021,-0.0947,-0.4121,-174.82,90.18,-1.34
419,82239786,0.6152,-0.0908,-0.3853,-178.05,90.67,-1.59
420,82244787,0.6372,-0.0923,-0.3789,-180.67,90.98,-1.40
421,82249785,0.6606,-0.0908,-0.3638,-182.50,91.16,-0.73
422,82254786,0.6689,-0.0693,-0.3257,-183.60,90.98,-0.12
423,82259785,0.6904,-0.0591,-0.3013,-183.66,90.55,0.49
424,82264787,0.6992,-0.0513,-0.2690,-182.62,90.18,1.10
425,82269936,0.7036,-0.0337,-0.2432,-180.12,89.63,1.77
426,82274786,0.7119,-0.0098,-0.2202,-176.40,89.02,2.38
427,82279785,0.7305,0.0210,-0.2085,-172.01,88.66,3.05
428,82284789,0.7456,0.0415,-0.1943,-167.01,88.05,3.60
429,82289787,0.7573,0.0693,-0.1675,-161.65,85.61,4.57
430,82294786,0.7769,0.0854,-0.1436,-156.34,85.37,5.55
431,82299789,0.8032,0.1074,-0.1279,-151.22,85.18,6.46
432,82304786,0.8188,0.1328,-0.1030,-146.10,82.80,7.44
433,82309785,0.8340,0.1489,-0.0742,-141.95,81.16,8.23
434,82314785,0.8447,0.1523,-0.0747,-138.41,79.21,9.27
435,82319785,0.8574,0.1602,-0.0723,-135.85,77.32,10.30
436,82324788,0.8633,0.1763,-0.0547,-134.09,75.49,11.46
437,82329787,0.8667,0.1904,-0.0454,-133.35,73.48,12.62
438,82334787,0.8667,0.2056,-0.0190,-133.60,71.59,13.78
439,82339844,0.8638,0.2251,0.0146,-134.39,70.00,14.94
440,82344789,0.8657,0.2319,0.0332,-135.73,68.54,16.16
441,82349787,0.8662,0.2422,0.0376,-137.20,66.89,17.26
442,82354823,0.8872,0.2573,0.0483,-139.02,65.30,18.29
443,82359790,0.8892,0.2817,0.0601,-140.91,63.60,19.39
444,82364786,0.8921,0.2886,0.0742,-143.29,61.77,20.49
445,82369789,0.8950,0.2954,0.0713,-145.98,59.88,21.46
446,82374786,0.8989,0.2915,0.0825,-149.21,57.87,22.50
447,82379785,0.9014,0.2915,0.0903,-152.87,55.91,23.29
448,82384789,0.8984,0.2925,0.0830,-156.71,54.02,24.39
449,82389832,0.8916,0.2925,0.0815,-160.85,52.01,25.18
450,82394786,0.8853,0.2837,0.0889,-165.30,50.18,25.98
451,82399787,0.8804,0.2837,0.0815,-170.06,48.23,26.77
452,82404786,0.8755,0.2725,0.0850,-174.82,46.71,27.56
453,82409785,0.8687,0.2681,0.0908,-180.00,45.00,28.35
454,82414785,0.8574,0.2588,0.0894,-185.18,43.41,29.33
455,82419894,0.8457,0.2480,0.0967,-190.12,42.07,30.18
456,82424787,0.8379,0.2393,0.0952,-195.06,40.85,30.98
457,82429787,0.8311,0.2275,0.0928,-199.63,39.63,32.07
458,82434787,0.8179,0.2144,0.0806,-203.90,38.35,33.05
459,82439786,0.7988,0.2021,0.1021,-207.74,37.26,34.33
460,82444787,0.7979,0.1929,0.0986,-210.91,36.46,35.55
461,82449787,0.7935,0.1787,0.0908,-213.66,35.37,36.95
462,82454787,0.7847,0.1685,0.0840,-215.61,34.33,38.48
463,82459788,0.7734,0.1523,0.0874,-216.83,33.54,40.06
464,82464787,0.7715,0.1377,0.0771,-217.56,32.56,41.46
465,82469787,0.7681,0.1289,0.0835,-217.56,31.46,43.05
466,82474787,0.7646,0.1201,0.0879,-216.89,30.61,44.88
467,82479785,0.7583,0.1060,0.0825,-215.61,29.76,46.22
468,82484788,0.7495,0.0986,0.0928,-213.60,28.90,47.74
469,82489787,0.7378,0.0962,0.0972,-211.22,28.23,49.09
470,82494787,0.7256,0.0879,0.1011,-208.48,27.38,50.24
471,82499787,0.7139,0.0762,0.1104,-205.55,26.89,51.52
472,82504787,0.7041,0.0674,0.1167,-202.80,26.34,52.74
473,82509786,0.6982,0.0542,0.1172,-200.00,25.85,53.90
474,82514787,0.6953,0.0425,0.1240,-197.38,25.24,55.12
475,82519788,0.6929,0.0298,0.1299,-195.06,24.57,56.22
476,82524787,0.6938,0.0181,0.1323,-192.87,24.09,57.50
477,82529786,0.7021,0.0024,0.1396,-190.79,23.29,58.84
478,82534787,0.7085,-0.0122,0.1440,-188.60,22.56,60.12
479,82539787,0.7173,-0.0239,0.1465,-186.52,21.52,61.34
480,82544787,0.7202,-0.0332,0.1582,-184.39,20.79,62.68
481,82549785,0.7227,-0.0405,0.1572,-182.01,19.70,63.96
482,82554789,0.7163,-0.0527,0.1538,-179.57,18.60,65.24
483,82559787,0.7144,-0.0576,0.1567,-177.01,17.56,66.34
484,82564787,0.7178,-0.0664,0.1636,-174.94,16.65,67.26
485,82569789,0.7080,-0.0723,0.1743,-171.95,15.12,68.54
486,82574786,0.7021,-0.0776,0.1812,-169.94,14.33,69.27
487,82579787,0.6978,-0.0791,0.1885,-167.74,13.29,70.18
488,82584786,0.6919,-0.0801,0.1875,-165.67,12.20,70.91
489,82589789,0.6924,-0.0830,0.1851,-164.02,11.28,71.59
490,82594786,0.6885,-0.0874,0.1938,-162.74,10.37,72.20
491,82599787,0.6914,-0.0913,0.1948,-161.95,9.21,72.56
492,82604786,0.6855,-0.0972,0.1987,-161.71,8.23,72.93
493,82609787,0.6831,-0.1050,0.2007,-161.83,7.26,73.29
494,82614786,0.6753,-0.1138,0.2007,-162.56,6.28,73.60
495,82619785,0.6680,-0.1309,0.1948,-163.60,5.43,74.02
496,82624785,0.6602,-0.1465,0.2065,-164.82,4.51,74.70
497,82629789,0.6538,-0.1558,0.2119,-166.65,3.84,75.37
498,82634786,0.6523,-0.1694,0.2163,-168.29,2.99,76.16
499,82639787,0.6455,-0.1802,0.2222,-170.12,2.26,77.07
500,82644786,0.6406,-0.1934,0.2319,-171.77,1.65,78.05
501,82649787,0.6406,-0.2002,0.2368,-173.29,1.16,79.09
502,82654786,0.6519,-0.2100,0.2310,-174.82,0.30,80.37
503,82659787,0.6675,-0.2158,0.2227,-175.91,-0.55,81.59
504,82664786,0.6978,-0.2300,0.2227,-177.07,-1.59,82.99
505,82669785,0.7280,-0.2422,0.2153,-177.99,-2.87,84.82
506,82674788,0.7500,-0.2598,0.2041,-178.96,-4.39,87.07
507,82679798,0.7686,-0.2686,0.1924,-179.57,-6.10,87.62
508,82684785,0.7690,-0.2837,0.1880,-180.18,-7.80,89.70
509,82689789,0.7656,-0.2974,0.1875,-180.43,-9.76,91.77
510,82694787,0.7510,-0.3101,0.1865,-180.67,-11.52,93.84
511,82699787,0.7407,-0.3193,0.1787,-180.61,-13.17,96.10
512,82704787,0.7271,-0.3237,0.1802,-180.24,-14.76,98.35
513,82709785,0.7095,-0.3301,0.1846,-179.51,-16.34,100.61
514,82714787,0.6982,-0.3335,0.1714,-178.41,-17.74,102.74
515,82719786,0.6846,-0.3438,0.1694,-177.20,-19.02,105.06
516,82724785,0.6733,-0.3477,0.1626,-175.18,-20.30,107.13
517,82730094,0.6592,-0.3452,0.1655,-172.32,-21.89,109.63
518,82734787,0.6440,-0.3447,0.1646,-170.06,-22.87,111.52
519,82739787,0.6313,-0.3540,0.1528,-166.83,-24.02,113.60
520,82744787,0.6284,-0.3687,0.1445,-163.35,-25.06,115.85
521,82749843,0.6323,-0.3862,0.1323,-160.06,-26.10,118.23
522,82754787,0.6323,-0.4038,0.1182,-156.52,-27.07,120.79
523,82759788,0.6274,-0.4189,0.1162,-152.99,-27.99,123.54
524,82764787,0.6162,-0.4355,0.1108,-149.27,-28.66,126.40
525,82769788,0.6006,-0.4438,0.1118,-145.30,-29.33,129.39
526,82774787,0.5767,-0.4585,0.0986,-141.04,-29.94,132.20
527,82779786,0.5576,-0.4678,0.1025,-136.28,-30.12,135.18
528,82784787,0.5352,-0.4756,0.0928,-131.16,-30.30,137.99
529,82789789,0.5181,-0.4780,0.0918,-125.43,-30.30,140.79
530,82794786,0.4873,-0.4712,0.0869,-119.02,-30.18,143.48
531,82799789,0.4668,-0.4761,0.0938,-112.07,-29.88,145.91
532,82804785,0.4541,-0.4829,0.0815,-104.57,-29.63,148.35
533,82809789,0.4380,-0.4873,0.0728,-96.89,-29.02,150.67
534,82814786,0.4287,-0.4946,0.0713,-88.96,-28.72,152.93
535,82819787,0.4175,-0.5015,0.0693,-81.04,-28.23,155.18
536,82824786,0.3970,-0.5098,0.0747,-73.17,-27.62,157.50
537,82829785,0.3647,-0.5225,0.0576,-65.79,-26.83,159.57
538,82834789,0.3477,-0.5283,0.0464,-58.41,-26.40,161.71
539,82839787,0.3389,-0.5352,0.0483,-51.59,-25.67,163.60
540,82844786,0.3291,-0.5459,0.0371,-45.12,-24.94,165.67
541,82849787,0.3145,-0.5645,0.0317,-39.45,-24.27,167.50
542,82854786,0.3018,-0.5762,0.0229,-34.51,-23.48,169.33
543,82859789,0.2974,-0.5928,0.0195,-30.43,-22.74,171.10
544,82864786,0.2769,-0.6118,0.0142,-27.44,-22.07,172.80
545,82869787,0.2681,-0.6333,0.0044,-25.55,-21.34,174.76
546,82874786,0.2563,-0.6523,0.0190,-24.63,-20.73,176.59
547,82879788,0.2363,-0.6572,0.0181,-24.88,-20.12,178.29
548,82884786,0.2075,-0.6606,0.0269,-26.22,-19.45,179.76
549,82889789,0.1797,-0.6631,0.0396,-28.05,-18.78,181.10
550,82894786,0.1543,-0.6670,0.0396,-31.04,-18.23,182.20
551,82899787,0.1396,-0.6841,0.0269,-35.12,-18.11,183.05
552,82904786,0.1328,-0.7075,0.0234,-40.18,-18.11,184.09
553,82909787,0.1221,-0.7300,0.0229,-46.59,-18.48,185.12
554,82914786,0.1055,-0.7715,0.0024,-54.02,-19.02,186.16
555,82919821,0.0933,-0.7949,0.0039,-62.50,-20.18,187.32
556,82924786,0.0825,-0.8115,0.0010,-71.40,-21.40,188.54
557,82929785,0.0586,-0.8438,-0.0151,-80.43,-22.87,189.63
558,82934789,0.0239,-0.8740,-0.0068,-89.02,-24.57,190.91
559,82939787,-0.0029,-0.8960,-0.0093,-97.07,-26.52,191.95
560,82944787,-0.0366,-0.9209,-0.0166,-104.15,-28.41,192.87
561,82949785,-0.0698,-0.9287,-0.0225,-110.00,-30.49,193.66
562,82954788,-0.1030,-0.9370,-0.0190,-114.21,-32.62,194.21
563,82959786,-0.1406,-0.9487,-0.0317,-116.71,-34.88,194.70
564,82964786,-0.1748,-0.9756,-0.0308,-117.80,-37.07,194.94
565,82969787,-0.2222,-0.9976,-0.0449,-117.50,-39.45,195.24
566,82974786,-0.2607,-1.0190,-0.0415,-115.79,-41.95,195.61
567,82979787,-0.2900,-1.0366,-0.0591,-112.74,-44.27,195.67
568,82984786,-0.3286,-1.0571,-0.0801,-108.54,-46.71,195.79
569,82989785,-0.3530,-1.0859,-0.0977,-103.48,-49.27,195.98
570,82994787,-0.3906,-1.1162,-0.1274,-97.93,-51.83,196.34
571,82999976,-0.4175,-1.1411,-0.1475,-91.89,-54.57,196.40
572,83004787,-0.4575,-1.1553,-0.1528,-85.67,-57.01,196.59
573,83009786,-0.5132,-1.1724,-0.1699,-79.21,-58.90,196.40
574,83014787,-0.5532,-1.1875,-0.1919,-72.87,-60.79,196.04
575,83019787,-0.5874,-1.1963,-0.2051,-67.01,-62.99,195.61
576,83024787,-0.6235,-1.2109,-0.2100,-61.59,-64.70,194.94
577,83029786,-0.6548,-1.2305,-0.2285,-56.65,-66.65,194.15
578,83034787,-0.6865,-1.2476,-0.2373,-52.62,-68.54,193.29
579,83039787,-0.7212,-1.2622,-0.2490,-49.76,-70.24,192.32
580,83044786,-0.7446,-1.2764,-0.2622,-47.80,-72.38,191.16
581,83049787,-0.7739,-1.2925,-0.2764,-46.65,-74.45,190.00
582,83054786,-0.7969,-1.3091,-0.2700,-46.46,-76.52,188.78
583,83059787,-0.8154,-1.3242,-0.2700,-47.44,-78.84,187.20
584,83064786,-0.8374,-1.3428,-0.2812,-49.21,-81.28,185.37
585,83069787,-0.8481,-1.3579,-0.2759,-51.59,-83.84,183.60
586,83074786,-0.8579,-1.3613,-0.2827,-54.33,-86.65,181.65
587,83081045,-0.8672,-1.3809,-0.2861,-57.93,-89.94,179.09
588,83084787,-0.8735,-1.3965,-0.2822,-60.30,-92.38,177.20
589,83089787,-0.8853,-1.4028,-0.2637,-62.74,-95.24,175.06
590,83094787,-0.8877,-1.4058,-0.2651,-64.82,-98.35,172.62
591,83099785,-0.8955,-1.3755,-0.2725,-66.04,-101.77,169.82
592,83104789,-0.9097,-1.3564,-0.2563,-66.16,-105.06,166.89
593,83109787,-0.9023,-1.3604,-0.2476,-65.24,-108.54,163.60
594,83114788,-0.9033,-1.3721,-0.2632,-63.41,-112.13,160.37
595,83119785,-0.9102,-1.3853,-0.2500,-61.16,-115.79,157.01
596,83124787,-0.9087,-1.3823,-0.2373,-58.48,-119.51,153.54
597,83129787,-0.9038,-1.3745,-0.2520,-55.43,-123.23,149.88
598,83134787,-0.9043,-1.3628,-0.2500,-52.56,-127.20,146.04
599,83139789,-0.9058,-1.3579,-0.2554,-49.76,-131.40,141.65
600,83144786,-0.9062,-1.3574,-0.2588,-47.74,-134.51,138.11
601,83149787,-0.9160,-1.3408,-0.2627,-45.37,-139.63,132.50
602,83154786,-0.9258,-1.3286,-0.2573,-44.21,-143.17,128.72
603,83159789,-0.9399,-1.3193,-0.2661,-43.35,-148.54,122.68
604,83164787,-0.9497,-1.3218,-0.2744,-43.17,-152.44,118.66
605,83169787,-0.9658,-1.3208,-0.2871,-43.78,-157.32,113.66
606,83174787,-0.9941,-1.3193,-0.3027,-45.24,-162.56,108.96
607,83179786,-1.0356,-1.3218,-0.3145,-47.50,-167.99,104.02
608,83184787,-1.0659,-1.3237,-0.3252,-50.37,-173.48,99.09
609,83189786,-1.0952,-1.3184,-0.3379,-53.29,-179.09,94.09
610,83194788,-1.1226,-1.3101,-0.3525,-56.52,-184.76,88.90
611,83199785,-1.1406,-1.3081,-0.3721,-59.45,-190.61,83.96
612,83204789,-1.1724,-1.3047,-0.3887,-62.32,-196.89,78.29
613,83209787,-1.2124,-1.3105,-0.3901,-64.88,-203.05,72.62
614,83214786,-1.2471,-1.3091,-0.3989,-67.01,-209.09,67.07
615,83219789,-1.2798,-1.3120,-0.4116,-69.02,-215.18,61.46
616,83224786,-1.3066,-1.3110,-0.4326,-70.67,-221.59,55.49
617,83229787,-1.3447,-1.3140,-0.4585,-72.13,-228.29,49.51
618,83234785,-1.3960,-1.3130,-0.4814,-73.41,-234.94,43.60
619,83239785,-1.4668,-1.3218,-0.5078,-74.88,-243.35,36.10
620,83244787,-1.5254,-1.3237,-0.5205,-75.91,-249.02,30.91
621,83249788,-1.5942,-1.3335,-0.5454,-77.68,-256.34,24.57
622,83254787,-1.6807,-1.3442,-0.5845,-80.18,-264.21,17.93
623,83259786,-1.7495,-1.3618,-0.6084,-83.23,-272.50,11.04
624,83264787,-1.8247,-1.3804,-0.6299,-86.83,-280.85,4.09
625,83269787,-1.8916,-1.3936,-0.6475,-90.61,-289.45,-2.87
626,83274787,-1.9395,-1.4082,-0.6631,-94.63,-298.05,-10.06
627,83279969,-1.9692,-1.4180,-0.6787,-97.87,-306.83,-17.32
628,83284787,-1.9985,-1.4277,-0.6982,-100.30,-315.55,-24.70
629,83289788,-2.0308,-1.4263,-0.6992,-101.59,-324.51,-32.13
630,83294824,-2.0747,-1.4136,-0.7144,-101.10,-333.11,-40.00
631,83299850,-2.1230,-1.3950,-0.7422,-99.45,-341.65,-48.23
632,83304789,-2.1768,-1.3745,-0.7529,-96.95,-350.67,-56.95
633,83310030,-2.2402,-1.3633,-0.7710,-93.84,-359.15,-66.04
634,83314787,-2.3384,-1.3506,-0.7959,-90.61,-367.80,-75.37
635,83319788,-2.4287,-1.3379,-0.8389,-88.05,-376.28,-84.94
636,83324787,-2.5171,-1.3403,-0.8745,-86.28,-384.82,-94.63
637,83329786,-2.6016,-1.3550,-0.9224,-85.43,-393.60,-104.45
638,83334787,-2.6880,-1.3716,-0.9683,-85.61,-402.13,-113.72
639,83339785,-2.7637,-1.3965,-1.0059,-86.52,-410.55,-122.74
640,83344786,-2.8311,-1.4141,-1.0347,-88.17,-418.72,-131.40
641,83349789,-2.8896,-1.4355,-1.0752,-89.51,-426.28,-139.70
642,83354786,-2.9326,-1.4424,-1.1143,-90.55,-433.48,-147.62
643,83360193,-2.9780,-1.4399,-1.1509,-90.55,-441.77,-156.95
644,83364787,-3.0059,-1.4414,-1.1748,-89.63,-446.83,-163.05
645,83369788,-3.0820,-1.4258,-1.2251,-87.44,-452.99,-170.61
646,83374787,-3.1270,-1.4009,-1.2578,-83.54,-459.21,-178.35
647,83380391,-3.1699,-1.3843,-1.2959,-76.77,-466.04,-187.56
648,83384787,-3.1958,-1.3867,-1.3335,-71.28,-470.30,-193.66
649,83389787,-3.2271,-1.3745,-1.3701,-63.66,-475.49,-200.91
650,83394787,-3.2520,-1.3726,-1.4229,-55.37,-480.91,-208.05
651,83399785,-3.2681,-1.3696,-1.4648,-46.83,-486.04,-214.57
652,83404785,-3.2998,-1.3677,-1.5093,-38.54,-491.34,-220.85
653,83409788,-3.3594,-1.3657,-1.5532,-30.67,-496.34,-226.95
654,83414787,-3.4399,-1.3579,-1.5732,-23.48,-500.79,-232.87
655,83419788,-3.5181,-1.3623,-1.5957,-17.13,-504.57,-238.48
656,83424787,-3.5708,-1.3589,-1.6289,-11.71,-507.74,-243.90
657,83429787,-3.6084,-1.3540,-1.6733,-6.95,-510.85,-249.09
658,83434787,-3.6304,-1.3481,-1.7114,-2.93,-513.72,-254.33
659,83439785,-3.6514,-1.3501,-1.7578,0.43,-516.34,-259.57
660,83444880,-3.6895,-1.3452,-1.7979,3.23,-518.60,-265.12
661,83449789,-3.7090,-1.3291,-1.8301,5.98,-520.61,-270.85
662,83454786,-3.7012,-1.3232,-1.8691,8.48,-522.56,-276.83
663,83459787,-3.6670,-1.3164,-1.9067,10.73,-523.96,-283.23
664,83464787,-3.6230,-1.3271,-1.9468,12.99,-525.73,-289.63
665,83469787,-3.5928,-1.3477,-1.9702,15.06,-526.83,-296.10
666,83474787,-3.5947,-1.3687,-1.9922,17.38,-527.62,-302.26
667,83479787,-3.6162,-1.3750,-2.0093,19.70,-527.74,-308.41
668,83484787,-3.6577,-1.3862,-2.0430,22.07,-527.20,-314.15
669,83490345,-3.7007,-1.3862,-2.0889,24.82,-526.10,-320.12
670,83494788,-3.7393,-1.3857,-2.1279,27.44,-524.33,-326.28
671,83499786,-3.7749,-1.3774,-2.1621,30.73,-522.01,-332.26
672,83504785,-3.8022,-1.3774,-2.2168,33.84,-519.09,-338.78
673,83509940,-3.8350,-1.3696,-2.2437,37.13,-515.67,-345.18
674,83514786,-3.8389,-1.3735,-2.2910,40.61,-511.83,-351.77
675,83519787,-3.8438,-1.3672,-2.3286,43.90,-507.50,-358.60
676,83524786,-3.8540,-1.3535,-2.3506,46.95,-502.87,-365.55
677,83529787,-3.8516,-1.3477,-2.3726,50.00,-498.05,-372.68
678,83534786,-3.8379,-1.3364,-2.3960,52.99,-492.93,-379.88
679,83539785,-3.8271,-1.3276,-2.4082,55.49,-487.20,-387.26
680,83544785,-3.8184,-1.3213,-2.4292,57.44,-481.16,-394.57
681,83549787,-3.8193,-1.3154,-2.4331,58.23,-474.82,-402.07
682,83554786,-3.8203,-1.3252,-2.4517,57.26,-467.56,-409.45
683,83559787,-3.8110,-1.3188,-2.4438,55.00,-459.21,-417.01
684,83564786,-3.7817,-1.3037,-2.4434,51.77,-450.43,-424.33
685,83569787,-3.7471,-1.2964,-2.4414,47.99,-440.61,-432.20
686,83574786,-3.6997,-1.2798,-2.4277,43.48,-430.18,-440.00
687,83579787,-3.6519,-1.2568,-2.4150,38.72,-419.33,-447.93
688,83584786,-3.5933,-1.2427,-2.4019,33.90,-407.93,-455.79
689,83589787,-3.5278,-1.2207,-2.3823,29.21,-396.10,-463.84
690,83594786,-3.4502,-1.1812,-2.3652,24.27,-384.02,-472.01
691,83599788,-3.3755,-1.1538,-2.3452,19.57,-371.71,-480.06
692,83604786,-3.3174,-1.1201,-2.3311,15.24,-359.33,-488.23
693,83609785,-3.2578,-1.0859,-2.3091,10.73,-347.13,-496.22
694,83614789,-3.1753,-1.0503,-2.2915,6.22,-335.06,-503.84
695,83619786,-3.0933,-1.0044,-2.2783,1.71,-323.11,-511.46
696,83624789,-3.0376,-0.9639,-2.2798,-1.77,-311.28,-518.84
697,83630174,-2.9751,-0.9121,-2.2451,-5.43,-299.51,-526.28
698,83634787,-2.9136,-0.8550,-2.2324,-10.37,-287.93,-533.54
699,83639788,-2.8555,-0.7969,-2.2227,-15.85,-276.28,-540.79
700,83644787,-2.8071,-0.7324,-2.2021,-21.34,-264.39,-548.35
701,83649785,-2.7744,-0.6680,-2.1572,-28.23,-251.89,-555.61
702,83654787,-2.7490,-0.5889,-2.1250,-37.13,-239.09,-562.68
703,83659788,-2.7378,-0.5332,-2.1094,-47.38,-225.73,-569.88
704,83664787,-2.7188,-0.4697,-2.0918,-58.29,-211.71,-576.83
705,83669785,-2.6909,-0.4014,-2.0664,-69.82,-197.13,-583.72
706,83674785,-2.6895,-0.3320,-2.0249,-81.95,-182.07,-590.30
707,83679788,-2.6860,-0.2783,-2.0166,-94.70,-166.65,-596.95
708,83684787,-2.6890,-0.2212,-2.0117,-107.87,-150.55,-603.35
709,83689787,-2.6758,-0.1509,-1.9780,-120.85,-133.90,-609.82
710,83694787,-2.6748,-0.0864,-1.9204,-133.78,-116.71,-616.22
711,83699788,-2.6890,-0.0317,-1.8862,-146.22,-99.33,-622.68
712,83704787,-2.7080,0.0171,-1.8530,-159.02,-81.10,-629.39
713,83709785,-2.7231,0.0674,-1.8184,-172.56,-62.13,-636.04
714,83714785,-2.7290,0.1338,-1.7661,-187.68,-42.38,-642.87
715,83719789,-2.5171,0.4160,-1.8408,-203.17,-22.26,-650.24
716,83724786,-2.6465,0.5352,-1.8872,-219.15,-1.52,-657.20
717,83729789,-2.6216,0.6528,-1.8911,-237.32,19.70,-663.29
718,83734786,-2.4541,0.7119,-2.0649,-254.70,41.52,-668.54
719,83739787,-2.4614,0.7324,-2.1162,-271.46,63.90,-672.13
720,83744786,-2.5811,0.7588,-2.0420,-285.73,81.89,-673.41
721,83749785,-2.7402,0.7168,-1.9233,-305.00,105.61,-673.35
722,83754787,-2.8931,0.6523,-1.7153,-330.18,134.15,-670.49
723,83759787,-2.9346,0.6035,-1.5117,-351.83,158.48,-666.04
724,83764786,-2.9292,0.5723,-1.3481,-368.78,177.99,-661.52
725,83770302,-2.9126,0.5757,-1.1484,-391.65,207.56,-652.62
726,83774787,-2.9399,0.4863,-1.0361,-404.27,227.20,-645.37
727,83779787,-2.9966,-0.0669,-0.8872,-417.01,250.98,-632.01
728,83784786,-2.9102,-0.0957,-0.7905,-423.54,273.84,-614.39
729,83789787,-2.8228,0.1636,-0.6323,-421.28,296.10,-596.04
730,83794786,-2.7764,0.4038,-0.5356,-410.61,317.20,-578.05
731,83799787,-2.8237,0.3999,-0.5845,-391.95,335.91,-558.66
732,83804786,-2.7930,0.4658,-0.5884,-366.28,351.89,-537.20
733,83809787,-2.6577,0.3804,-0.3813,-332.87,365.79,-514.33
734,83814786,-2.5332,0.4048,-0.4160,-292.26,377.74,-489.57
735,83819789,-2.4346,0.5386,-0.3228,-245.73,386.65,-465.43
736,83824786,-2.4316,0.7739,-0.3364,-194.57,393.29,-442.13
737,83829785,-2.5532,0.9380,-0.2349,-142.99,397.38,-420.12
738,83834789,-2.6836,1.0854,-0.0879,-95.49,398.72,-399.70
739,83839787,-2.7095,1.2168,0.0361,-55.30,398.17,-380.43
740,83844787,-2.6191,1.3477,0.1401,-24.02,395.73,-362.80
741,83849785,-2.5366,1.4487,0.2417,-2.50,392.01,-346.10
742,83854785,-2.5220,1.5137,0.3022,10.24,387.50,-330.37
743,83859789,-2.5161,1.5410,0.3438,14.09,382.32,-315.12
744,83864787,-2.4980,1.5464,0.4136,10.43,377.01,-300.61
745,83869789,-2.4731,1.4854,0.4678,0.55,371.59,-286.22
746,83874786,-2.4873,1.4355,0.5439,-14.63,366.40,-271.89
747,83879785,-2.5342,1.3989,0.6045,-33.29,361.59,-258.05
748,83884789,-2.6108,1.3950,0.6816,-53.84,356.77,-244.70
749,83889787,-2.7256,1.4043,0.7764,-74.45,352.50,-232.07
750,83894786,-2.8667,1.4536,0.8584,-93.84,347.93,-220.06
751,83899785,-3.0166,1.5386,0.9331,-111.28,342.99,-208.60
752,83904789,-3.1675,1.6338,1.0117,-125.85,337.32,-197.62
753,83909786,-3.3965,1.7949,1.0845,-137.07,330.91,-187.44
754,83914789,-3.3979,1.8696,1.2788,-147.32,324.15,-177.56
755,83919786,-3.3750,1.9795,1.2861,-157.62,317.01,-168.05
756,83924787,-3.3799,2.0806,1.3462,-167.62,308.17,-158.41
757,83929787,-3.2876,2.1265,1.4473,-176.10,298.41,-148.66
758,83934787,-3.1323,2.1318,1.4839,-181.89,287.44,-137.93
759,83939785,-2.9717,2.1479,1.5298,-184.82,275.00,-126.34
760,83944787,-2.7803,2.1250,1.6104,-183.29,261.83,-113.96
761,83949786,-2.5454,2.1064,1.5879,-178.84,248.11,-100.55
762,83954785,-2.2310,2.0610,1.5649,-172.44,233.17,-86.46
763,83959787,-1.9878,2.0000,1.5454,-163.23,217.74,-71.89
764,83964787,-1.7397,1.9253,1.5503,-151.16,202.07,-57.07
765,83969788,-1.5249,1.8403,1.5034,-136.77,186.10,-42.01
766,83974787,-1.3145,1.7388,1.4722,-120.98,169.94,-26.95
767,83979787,-1.1479,1.6147,1.4312,-103.60,153.96,-11.95
768,83984787,-0.9736,1.5342,1.3867,-85.85,137.99,2.93
769,83989785,-0.8242,1.4424,1.3296,-69.02,122.50,17.32
770,83994787,-0.6875,1.3628,1.2900,-53.96,107.20,31.28
771,83999787,-0.5723,1.2969,1.2412,-41.34,92.44,45.00
772,84004787,-0.4917,1.2534,1.2017,-31.95,78.72,58.17
773,84009787,-0.4487,1.2183,1.1714,-25.67,65.06,70.49
774,84014787,-0.4258,1.1777,1.1226,-22.56,52.44,82.38
775,84019788,-0.4155,1.1357,1.0737,-21.77,40.85,92.62
776,84024787,-0.4229,1.1025,1.0127,-22.20,29.63,102.68
777,84029787,-0.4438,1.0693,0.9604,-22.99,19.27,111.34
778,84034787,-0.4653,1.0317,0.9019,-23.29,9.57,119.57
779,84039787,-0.4849,0.9961,0.8398,-22.13,0.37,126.65
780,84044787,-0.5142,0.9624,0.7896,-19.33,-7.62,133.05
781,84049787,-0.5464,0.9463,0.7422,-15.00,-15.18,138.60
782,84054787,-0.5693,0.9185,0.7036,-9.57,-21.71,143.54
783,84059880,-0.5864,0.8999,0.6665,-3.35,-27.68,147.99
784,84064789,-0.6089,0.8833,0.6270,3.17,-32.87,151.71
785,84069787,-0.6274,0.8706,0.5840,9.94,-37.26,154.94
786,84074787,-0.6372,0.8506,0.5522,16.34,-41.16,157.50
787,84079787,-0.6431,0.8403,0.5186,22.38,-44.57,159.63
788,84084786,-0.6587,0.8345,0.4912,27.93,-47.32,161.28
789,84089787,-0.6729,0.8257,0.4629,32.50,-49.70,162.38
790,84094786,-0.6865,0.8149,0.4517,36.22,-51.40,163.11
791,84099787,-0.7007,0.7988,0.4321,39.09,-52.74,163.41
792,84104786,-0.7139,0.7827,0.4106,41.04,-53.48,163.48
793,84109789,-0.7280,0.7773,0.4053,42.38,-53.90,163.54
794,84114787,-0.7305,0.7554,0.3882,43.60,-53.72,163.29
795,84119785,-0.7222,0.7632,0.3647,44.88,-53.41,162.99
796,84124844,-0.7109,0.7930,0.3613,46.04,-52.56,162.20
797,84129787,-0.6885,0.8125,0.3369,47.07,-51.77,161.40
798,84134786,-0.6655,0.8228,0.3115,47.50,-50.73,160.37
799,84139789,-0.6382,0.8428,0.3057,47.93,-49.51,159.21
800,84144913,-0.6123,0.8569,0.2832,47.80,-48.23,157.99
801,84149787,-0.5850,0.8726,0.2681,47.32,-46.89,156.83
802,84154786,-0.5469,0.8833,0.2622,46.52,-45.37,155.55
803,84159785,-0.5107,0.8906,0.2495,45.55,-44.09,154.21
804,84164787,-0.4824,0.8970,0.2422,44.39,-42.68,152.93
805,84169789,-0.4546,0.8989,0.2339,43.17,-41.16,151.65
806,84174786,-0.4341,0.8984,0.2231,41.59,-39.70,150.43
807,84179787,-0.4121,0.8984,0.2305,39.70,-38.54,149.39
808,84184786,-0.4023,0.8774,0.2271,37.99,-37.50,148.66
809,84189787,-0.3813,0.8623,0.2183,35.85,-36.34,147.99
810,84194789,-0.3657,0.8633,0.2349,33.96,-35.30,147.68
811,84199787,-0.3516,0.8594,0.2656,32.50,-34.33,147.44
812,84204786,-0.3345,0.8418,0.2788,31.95,-33.11,147.20
813,84209787,-0.3252,0.8281,0.2910,31.95,-32.20,146.89
814,84214786,-0.3164,0.8208,0.2964,32.68,-31.28,146.71
815,84219785,-0.3105,0.8154,0.3013,33.90,-30.55,146.46
816,84224789,-0.2979,0.8188,0.2910,35.73,-29.76,146.16
817,84230064,-0.2905,0.8242,0.2827,37.44,-28.96,145.61
818,84234787,-0.2925,0.8267,0.2754,39.51,-28.23,144.94
819,84239788,-0.2930,0.8311,0.2666,41.71,-27.62,144.02
820,84244787,-0.2925,0.8335,0.2529,43.78,-26.89,143.05
821,84249787,-0.2842,0.8315,0.2495,45.61,-26.22,141.95
822,84254787,-0.2729,0.8374,0.2373,47.07,-25.30,140.73
823,84259785,-0.2588,0.8374,0.2324,48.17,-24.39,139.51
824,84264785,-0.2593,0.8379,0.2349,48.84,-23.48,138.29
825,84269787,-0.2603,0.8379,0.2314,49.02,-22.56,137.13
826,84274786,-0.2485,0.8389,0.2251,48.84,-21.65,136.04
827,84279785,-0.2373,0.8433,0.2339,48.54,-20.73,135.06
828,84284787,-0.2290,0.8491,0.2266,48.35,-19.94,134.27
829,84289786,-0.2188,0.8535,0.2222,48.41,-19.21,133.48
830,84294789,-0.2080,0.8521,0.2119,49.09,-18.66,132.68
831,84299787,-0.1997,0.8516,0.2178,50.00,-18.60,132.07
832,84304787,-0.1924,0.8457,0.2085,51.52,-18.41,131.77
833,84310186,-0.1787,0.8389,0.2148,53.41,-18.66,131.52
834,84314787,-0.1616,0.8350,0.2085,55.73,-18.90,131.40
835,84319786,-0.1357,0.8354,0.2051,58.05,-19.02,131.28
836,84324806,-0.1123,0.8379,0.1992,60.30,-19.45,131.52
837,84329788,-0.0972,0.8374,0.1846,62.26,-19.94,131.77
838,84334787,-0.0796,0.8320,0.1812,63.72,-20.49,132.32
839,84339787,-0.0645,0.8267,0.1714,64.33,-21.28,132.93
840,84344787,-0.0425,0.8276,0.1548,64.09,-22.13,133.90
841,84350239,-0.0278,0.8335,0.1494,63.05,-23.17,134.76
842,84354787,-0.0059,0.8433,0.1475,61.22,-24.33,135.79
843,84359787,0.0039,0.8398,0.1338,59.15,-25.49,136.65
844,84364787,0.0210,0.8398,0.1289,55.85,-27.01,137.93
845,84370205,0.0454,0.8364,0.1250,51.71,-28.96,139.39
846,84374787,0.0698,0.8384,0.1206,48.66,-30.43,140.43
847,84379788,0.1162,0.8223,0.1157,45.12,-32.32,141.77
848,84384787,0.1177,0.8384,0.1099,42.87,-34.02,143.11
849,84389785,0.1201,0.7983,0.1694,44.02,-34.45,142.68
850,84394787,0.1030,0.8218,0.2202,46.77,-33.78,142.50
851,84399786,0.1494,0.8184,0.1367,49.33,-33.66,143.23
852,84404789,0.2334,0.8516,0.0088,51.16,-33.90,144.39
853,84409785,0.2817,0.8350,0.1436,52.80,-34.02,145.43
854,84414788,0.3394,0.7173,0.1836,55.24,-33.41,146.83
855,84419787,0.4780,0.6982,0.1787,59.82,-32.93,149.02
856,84424785,0.5332,0.8418,0.1050,67.26,-31.89,151.59
857,84429785,0.5674,0.9092,0.2061,74.82,-30.00,153.35
858,84434785,0.5596,0.8906,0.2915,82.56,-26.71,154.57
859,84439785,0.5059,0.8354,0.2197,90.00,-23.66,155.30
860,84444790,0.4819,0.7710,0.1138,97.20,-21.52,156.28
861,84449787,0.5088,0.7412,0.1597,103.96,-19.21,157.13
862,84454786,0.5200,0.7397,0.2197,110.49,-16.71,158.11
863,84459789,0.5288,0.7520,0.1367,116.04,-14.63,158.78
864,84464786,0.5420,0.7603,0.0752,121.04,-12.93,159.57
865,84469793,0.5547,0.7466,0.1421,124.88,-11.28,160.12
866,84474786,0.5718,0.7065,0.1836,128.96,-8.84,160.91
867,84479789,0.5850,0.6582,0.1040,129.82,-7.20,161.59
868,84484786,0.5991,0.6128,0.0605,129.51,-5.98,162.20
869,84489787,0.6069,0.5889,0.1079,129.51,-4.63,162.80
870,84494786,0.6133,0.5791,0.1152,128.90,-3.35,163.35
871,84499785,0.6211,0.5806,0.0264,128.84,-2.38,163.84
872,84504789,0.6279,0.5825,0.0039,127.99,-2.26,164.09
873,84509787,0.6338,0.5752,0.0400,124.70,-1.71,164.39
874,84514787,0.6304,0.5483,0.0532,121.34,-1.04,164.33
875,84519788,0.6401,0.5239,-0.0444,117.93,-1.04,164.33
876,84524787,0.6694,0.5137,-0.0542,114.09,-1.28,164.15
877,84529785,0.6792,0.5044,0.0327,109.88,-1.22,163.78
878,84534789,0.6606,0.4819,0.0142,105.49,-0.85,163.29
879,84539787,0.6719,0.4897,-0.0596,100.98,-1.16,162.87
880,84544786,0.6753,0.4961,-0.0425,96.46,-1.59,162.13
881,84549787,0.6670,0.4951,0.0015,91.83,-1.46,161.52
882,84554789,0.6465,0.4746,-0.0225,87.44,-1.52,160.79
883,84560026,0.6592,0.4688,-0.0962,83.66,-2.01,160.06
884,84564787,0.6797,0.4644,-0.0703,80.30,-2.50,159.21
885,84569786,0.6738,0.4541,-0.0444,77.44,-2.68,158.23
886,84574789,0.6533,0.4419,-0.0425,75.37,-2.87,157.26
887,84579787,0.6729,0.4482,-0.1133,74.27,-3.23,156.40
888,84584787,0.7041,0.4609,-0.1118,74.09,-3.96,155.55
889,84589787,0.7261,0.4639,-0.0933,74.82,-4.21,154.57
890,84594787,0.7148,0.4512,-0.1211,75.79,-4.63,153.54
891,84599804,0.7031,0.4395,-0.1548,77.32,-5.18,152.62
892,84604787,0.6958,0.4204,-0.1514,79.15,-5.55,151.83
893,84609788,0.7002,0.4204,-0.1406,81.16,-5.91,151.04
894,84614787,0.7007,0.4224,-0.1694,83.29,-6.10,150.24
895,84619787,0.6919,0.4233,-0.1836,85.67,-6.28,149.33
896,84624787,0.6860,0.4189,-0.1846,88.17,-6.28,148.66
897,84629787,0.6772,0.4062,-0.1812,90.43,-6.22,147.93
898,84634787,0.6797,0.4062,-0.1963,92.38,-5.98,147.26
899,84639788,0.6733,0.3950,-0.1982,93.90,-5.79,146.46
900,84644787,0.6704,0.3721,-0.1987,95.43,-5.12,145.73
901,84649787,0.6689,0.3657,-0.1880,96.22,-4.21,145.24
902,84654787,0.6797,0.3701,-0.2075,96.65,-3.35,144.45
903,84659785,0.6865,0.3589,-0.2075,96.22,-2.20,143.78
904,84664788,0.7036,0.3506,-0.1934,95.24,-0.73,143.05
905,84669786,0.6992,0.3418,-0.1885,93.11,0.85,142.13
906,84674894,0.7300,0.3286,-0.2339,90.49,2.50,141.16
907,84679785,0.7471,0.3208,-0.2236,86.89,4.09,140.30
908,84684789,0.7383,0.3101,-0.2168,83.11,5.85,139.57
909,84689787,0.7383,0.2969,-0.2197,79.15,7.68,138.60
910,84694787,0.7583,0.2891,-0.2329,75.43,9.27,137.87
911,84699925,0.7715,0.2773,-0.2295,71.46,11.10,137.07
912,84704787,0.7417,0.2676,-0.2324,68.05,12.87,136.40
913,84709787,0.8052,0.2397,-0.2207,65.06,14.51,135.85
914,84714787,0.8496,0.2134,-0.2485,62.50,16.22,135.49
915,84719787,0.8589,0.1880,-0.2524,60.79,17.74,135.37
916,84724787,0.8433,0.1631,-0.2441,59.57,19.27,135.43
917,84729785,0.8408,0.1392,-0.2383,58.90,20.79,135.79
918,84735240,0.8501,0.1138,-0.2529,58.96,22.20,136.16
919,84739789,0.8647,0.0967,-0.2573,59.21,23.48,136.77
920,84744786,0.8745,0.0942,-0.2661,60.00,24.45,137.38
921,84749787,0.8696,0.0845,-0.2588,60.91,25.61,137.99
922,84754786,0.8799,0.0581,-0.2461,62.26,26.83,138.41
923,84759785,0.8955,0.0552,-0.2480,63.60,28.11,138.90
924,84764787,0.9082,0.0537,-0.2427,64.76,29.21,139.21
925,84769786,0.9136,0.0464,-0.2559,65.67,30.30,139.33
926,84774785,0.9141,0.0264,-0.2495,66.34,31.28,139.51
927,84779789,0.9141,0.0078,-0.2412,66.95,32.38,139.63
928,84784787,0.9180,-0.0171,-0.2363,67.13,33.41,139.76
929,84789787,0.9165,-0.0410,-0.2412,66.89,34.33,139.88
930,84794787,0.9180,-0.0566,-0.2432,66.77,35.30,139.88
931,84799787,0.9141,-0.0781,-0.2285,66.10,36.10,140.12
932,84804787,0.9150,-0.0967,-0.2202,65.30,36.89,140.12
933,84809787,0.9126,-0.1162,-0.2246,64.15,37.87,140.00
934,84814787,0.9146,-0.1187,-0.2256,62.80,38.54,140.06
935,84819788,0.9175,-0.1230,-0.2144,60.98,39.39,139.76
936,84824787,0.9131,-0.1255,-0.2134,59.21,40.24,139.21
937,84829787,0.9170,-0.1294,-0.2168,56.83,40.79,138.72
938,84834787,0.9189,-0.1372,-0.2100,54.51,41.46,137.93
939,84839785,0.9258,-0.1426,-0.1914,51.83,42.07,137.01
940,84844789,0.9297,-0.1519,-0.1821,49.21,42.74,136.04
941,84849787,0.9268,-0.1733,-0.1943,46.04,43.17,135.06
942,84854787,0.9219,-0.1777,-0.1704,42.87,43.48,133.84
943,84859788,0.9189,-0.1978,-0.1519,39.76,43.78,132.68
944,84864787,0.9146,-0.2134,-0.1694,36.65,43.90,131.34
945,84869785,0.8984,-0.2158,-0.1836,33.41,43.78,129.88
946,84874785,0.8813,-0.2261,-0.1885,30.06,43.11,128.11
947,84879785,0.8657,-0.2388,-0.1821,26.89,42.32,126.10
948,84884785,0.8491,-0.2573,-0.1758,23.84,41.16,124.02
949,84889788,0.8354,-0.2764,-0.1606,20.79,40.06,121.71
950,84894787,0.8496,-0.3018,-0.1621,17.87,38.84,119.15
951,84899785,0.8691,-0.3237,-0.1611,14.88,37.80,116.52
952,84904787,0.8701,-0.3569,-0.1528,11.89,36.28,114.02
953,84909787,0.8672,-0.3853,-0.1362,9.21,34.94,111.34
954,84914787,0.8618,-0.4053,-0.1147,6.40,33.72,108.54
955,84919787,0.8604,-0.4233,-0.1030,3.78,32.44,105.73
956,84924787,0.8667,-0.4380,-0.1094,1.04,31.28,103.05
957,84929788,0.8770,-0.4517,-0.1064,-1.28,30.00,100.00
958,84934787,0.8809,-0.4663,-0.1006,-3.41,28.84,96.83
959,84940151,0.8818,-0.4731,-0.0938,-5.06,27.62,93.78
960,84944788,0.8838,-0.4878,-0.0967,-6.16,26.28,90.43
961,84949787,0.8892,-0.5039,-0.0947,-6.83,25.00,87.74
962,84954787,0.9019,-0.5181,-0.0928,-7.07,23.66,85.55
963,84959788,0.9170,-0.5249,-0.0977,-6.46,22.56,81.89
964,84964787,0.9331,-0.5308,-0.1064,-5.37,21.46,78.84
965,84969787,0.9414,-0.5386,-0.1157,-3.84,20.18,75.85
966,84974787,0.9634,-0.5630,-0.0933,-1.83,19.15,72.99
967,84979785,0.9800,-0.5693,-0.0884,0.12,18.66,70.91
968,84984789,1.0049,-0.5723,-0.1021,3.41,17.50,67.87
969,84989787,1.0112,-0.5732,-0.0981,5.79,16.77,65.73
970,84994786,1.0195,-0.5830,-0.1055,8.90,15.91,63.23
971,84999787,1.0303,-0.5884,-0.1016,11.95,15.37,60.79
972,85004786,1.0337,-0.5933,-0.1001,15.06,14.51,58.41
973,85009787,1.0410,-0.5942,-0.0996,18.17,13.72,56.04
974,85014786,1.0488,-0.5947,-0.0923,20.85,13.17,53.66
975,85019787,1.0532,-0.6001,-0.0942,23.54,12.62,51.52
976,85024786,1.0562,-0.6011,-0.0908,25.67,12.07,49.33
977,85029787,1.0566,-0.5991,-0.0786,27.68,11.59,47.13
978,85034786,1.0566,-0.6035,-0.0747,29.33,11.22,44.63
979,85039789,1.0566,-0.6089,-0.0781,30.12,10.98,42.99
980,85044786,1.0586,-0.6143,-0.0781,30.79,10.67,40.98
981,85049943,1.0557,-0.6230,-0.0737,31.16,10.30,38.72
982,85054787,1.0518,-0.6289,-0.0630,31.04,10.18,37.26
983,85059787,1.0532,-0.6270,-0.0610,30.61,9.88,35.37
984,85064787,1.0508,-0.6309,-0.0586,29.76,9.51,33.66
985,85069787,1.0483,-0.6289,-0.0537,28.72,9.27,31.89
986,85074787,1.0386,-0.6289,-0.0547,27.13,9.02,30.18
987,85079785,1.0269,-0.6289,-0.0454,25.67,8.78,28.54
988,85084787,1.0205,-0.6260,-0.0474,23.78,8.66,26.71
989,85089787,1.0068,-0.6265,-0.0405,22.01,8.05,24.94
990,85094786,1.0000,-0.6240,-0.0400,20.06,7.99,23.23
991,85099787,0.9868,-0.6245,-0.0371,18.23,7.44,21.52
992,85104786,0.9771,-0.6221,-0.0381,16.40,7.01,19.82
993,85109785,0.9688,-0.6235,-0.0303,14.63,6.52,18.17
994,85114789,0.9624,-0.6221,-0.0322,13.17,6.10,16.46
995,85119790,0.9546,-0.6162,-0.0361,11.71,5.55,14.88
996,85124786,0.9453,-0.6157,-0.0293,10.43,5.06,13.23
997,85129785,0.9390,-0.6162,-0.0352,9.39,4.57,11.52
998,85134787,0.9307,-0.6089,-0.0317,8.54,3.96,9.94
999,85139786,0.9238,-0.6060,-0.0293,7.80,3.29,8.17
1000,85144789,0.9194,-0.6060,-0.0303,7.50,2.74,6.65
1001,85151093,0.9141,-0.5977,-0.0249,7.01,1.65,4.51
1002,85154789,0.9082,-0.5938,-0.0347,7.01,1.28,3.48
1003,85159834,0.9072,-0.5923,-0.0327,6.77,0.73,1.95
1004,85164787,0.9102,-0.5840,-0.0220,6.65,0.18,0.49
1005,85169787,0.9062,-0.5771,-0.0225,6.59,-0.30,-0.91
1006,85174787,0.9092,-0.5732,-0.0254,6.52,-0.85,-2.38
1007,85179785,0.9048,-0.5649,-0.0249,6.34,-1.40,-3.84
1008,85184785,0.9043,-0.5610,-0.0293,5.98,-1.89,-5.18
1009,85189785,0.9014,-0.5474,-0.0200,5.85,-2.20,-6.59
1010,85194790,0.9019,-0.5396,-0.0234,5.43,-2.68,-7.87
1011,85199786,0.8994,-0.5337,-0.0254,5.12,-2.93,-9.21
1012,85204787,0.9014,-0.5332,-0.0205,4.82,-3.17,-10.37
1013,85209786,0.9028,-0.5264,-0.0322,4.57,-3.41,-11.52
1014,85214789,0.9077,-0.5225,-0.0293,4.27,-3.60,-12.68
1015,85219862,0.9092,-0.5190,-0.0278,4.15,-3.60,-13.72
1016,85224787,0.9106,-0.5122,-0.0327,3.90,-3.78,-14.70
1017,85230266,0.9102,-0.5083,-0.0376,3.84,-3.78,-15.55
1018,85234789,0.9146,-0.5049,-0.0366,3.78,-3.72,-16.28
1019,85239786,0.9082,-0.5020,-0.0366,3.84,-3.72,-17.13
1020,85244787,0.9072,-0.4941,-0.0361,3.72,-3.78,-17.87
1021,85249785,0.9062,-0.4893,-0.0420,3.60,-3.78,-18.35
1022,85254789,0.9033,-0.4819,-0.0444,3.35,-3.66,-18.96
1023,85259833,0.9087,-0.4741,-0.0400,3.29,-3.60,-19.57
1024,85264789,0.9106,-0.4722,-0.0483,3.17,-3.35,-20.06
1025,85269786,0.9116,-0.4712,-0.0464,3.17,-3.48,-20.67
1026,85274787,0.9087,-0.4648,-0.0522,3.35,-3.35,-21.04
1027,85279785,0.9126,-0.4624,-0.0513,3.60,-3.23,-21.52
1028,85284785,0.9131,-0.4575,-0.0518,4.02,-2.99,-21.95
1029,85289884,0.9150,-0.4551,-0.0601,4.15,-2.93,-22.44
1030,85294789,0.9224,-0.4517,-0.0547,4.51,-2.56,-22.68
1031,85299786,0.9214,-0.4434,-0.0625,4.82,-2.68,-22.93
1032,85304787,0.9253,-0.4453,-0.0620,5.18,-2.44,-23.05
1033,85309787,0.9282,-0.4380,-0.0640,5.49,-2.38,-23.35
1034,85314787,0.9268,-0.4355,-0.0625,5.61,-2.26,-23.41
1035,85320232,0.9248,-0.4351,-0.0669,5.73,-2.32,-23.54
1036,85324787,0.9229,-0.4331,-0.0664,5.91,-2.32,-23.48
1037,85329787,0.9214,-0.4272,-0.0703,6.10,-2.20,-23.60
1038,85334787,0.9155,-0.4238,-0.0723,6.34,-2.44,-23.60
1039,85339787,0.9106,-0.4150,-0.0718,6.40,-2.32,-23.60
1040,85344787,0.9082,-0.4126,-0.0747,6.40,-2.50,-23.66
1041,85349786,0.9028,-0.4019,-0.0698,6.52,-2.56,-23.72
1042,85354788,0.8975,-0.4067,-0.0752,6.40,-2.62,-23.84
1043,85359787,0.8931,-0.4014,-0.0669,6.28,-2.74,-23.90
1044,85364786,0.8882,-0.3975,-0.0723,6.16,-2.87,-23.96
1045,85369787,0.8911,-0.3945,-0.0742,6.16,-2.80,-24.02
1046,85374787,0.8872,-0.3896,-0.0742,5.98,-2.80,-24.02
1047,85379788,0.8892,-0.3862,-0.0649,5.73,-3.05,-24.02
1048,85384786,0.8887,-0.3813,-0.0713,5.55,-2.99,-24.27
1049,85389785,0.8926,-0.3779,-0.0654,5.12,-2.93,-24.15
1050,85394839,0.8931,-0.3770,-0.0649,4.88,-2.99,-24.15
1051,85399787,0.8911,-0.3730,-0.0654,4.57,-2.80,-24.15
1052,85404789,0.8931,-0.3682,-0.0615,4.02,-2.87,-24.09
1053,85409787,0.8916,-0.3667,-0.0664,3.72,-2.68,-24.15
1054,85414787,0.8989,-0.3584,-0.0635,3.23,-2.56,-24.15
1055,85419787,0.8994,-0.3560,-0.0640,2.68,-2.32,-24.15
1056,85424786,0.8945,-0.3545,-0.0571,2.13,-2.13,-23.96
1057,85429866,0.9028,-0.3501,-0.0518,1.59,-2.01,-24.02
1058,85435159,0.9033,-0.3472,-0.0576,0.98,-1.77,-23.78
1059,85439789,0.9004,-0.3442,-0.0557,0.43,-1.46,-23.78
1060,85444786,0.8994,-0.3384,-0.0596,-0.06,-1.22,-23.54
1061,85449785,0.9019,-0.3364,-0.0562,-0.37,-0.91,-23.48
1062,85454789,0.8999,-0.3291,-0.0601,-0.55,-0.67,-23.35
1063,85459787,0.9009,-0.3228,-0.0586,-0.67,-0.37,-23.11
1064,85464787,0.9058,-0.3232,-0.0586,-0.61,-0.12,-23.05
1065,85469787,0.9043,-0.3218,-0.0581,-0.61,0.30,-22.80
1066,85474787,0.9014,-0.3145,-0.0532,-0.49,0.61,-22.56
1067,85480087,0.9023,-0.3125,-0.0601,-0.18,0.79,-22.38
1068,85484788,0.9077,-0.3047,-0.0532,0.12,1.22,-22.01
1069,85489785,0.9038,-0.3052,-0.0513,0.55,1.59,-21.83
1070,85494787,0.9062,-0.2983,-0.0527,1.16,1.95,-21.34
1071,85499787,0.9111,-0.2935,-0.0503,1.89,2.38,-21.16
1072,85504787,0.9082,-0.2891,-0.0552,2.68,2.68,-20.85
1073,85509785,0.9019,-0.2871,-0.0547,3.60,3.05,-20.49
1074,85514929,0.9009,-0.2856,-0.0508,4.57,3.41,-20.37
1075,85519786,0.9038,-0.2822,-0.0474,5.61,3.90,-19.88
1076,85524785,0.9062,-0.2764,-0.0547,6.95,4.27,-19.57
1077,85529789,0.9038,-0.2749,-0.0562,8.11,4.57,-19.27
1078,85534787,0.9067,-0.2720,-0.0498,9.15,5.00,-18.78
1079,85539786,0.9106,-0.2695,-0.0532,10.37,5.43,-18.35
1080,85544788,0.9097,-0.2681,-0.0483,11.59,5.61,-17.93
1081,85549856,0.9126,-0.2705,-0.0542,12.62,5.85,-17.50
1082,85554800,0.9150,-0.2720,-0.0469,13.72,6.22,-16.89
1083,85559787,0.9185,-0.2686,-0.0562,14.82,6.46,-16.28
1084,85564789,0.9170,-0.2749,-0.0464,15.55,6.77,-15.67
1085,85569786,0.9180,-0.2676,-0.0532,16.40,6.95,-15.06
1086,85574787,0.9189,-0.2705,-0.0522,17.07,7.13,-14.39
1087,85579787,0.9224,-0.2725,-0.0503,17.68,7.38,-13.72
1088,85584787,0.9209,-0.2705,-0.0444,18.05,7.50,-12.99
1089,85589785,0.9209,-0.2749,-0.0439,18.35,7.62,-12.50
1090,85594785,0.9229,-0.2769,-0.0415,18.48,7.80,-11.77
1091,85599787,0.9199,-0.2798,-0.0503,18.48,7.99,-10.98
1092,85604786,0.9229,-0.2749,-0.0469,18.35,7.93,-10.37
1093,85609874,0.9233,-0.2744,-0.0430,18.05,7.99,-9.57
1094,85614789,0.9253,-0.2783,-0.0405,17.62,8.11,-9.02
1095,85619786,0.9233,-0.2773,-0.0400,17.01,8.11,-8.48
1096,85624787,0.9219,-0.2759,-0.0430,16.28,8.17,-7.80
1097,85629785,0.9263,-0.2754,-0.0410,15.43,8.17,-7.07
1098,85634787,0.9229,-0.2739,-0.0376,14.27,8.05,-6.34
1099,85639925,0.9199,-0.2715,-0.0337,13.17,8.29,-5.79
1100,85644787,0.9199,-0.2754,-0.0361,12.13,8.23,-5.49
1101,85649785,0.9204,-0.2734,-0.0342,10.85,8.23,-4.94
1102,85654785,0.9170,-0.2739,-0.0312,9.63,8.23,-4.39
1103,85659789,0.9199,-0.2705,-0.0337,8.17,8.23,-3.96
1104,85664787,0.9160,-0.2690,-0.0303,6.77,8.29,-3.41
1105,85669786,0.9106,-0.2686,-0.0303,5.43,7.93,-3.05
1106,85674787,0.9136,-0.2632,-0.0342,4.15,8.05,-2.62
1107,85679787,0.9160,-0.2651,-0.0303,2.99,7.87,-2.26
1108,85684787,0.9131,-0.2637,-0.0254,1.77,7.93,-1.89
1109,85689786,0.9150,-0.2671,-0.0249,0.67,7.87,-1.40
1110,85694787,0.9097,-0.2627,-0.0254,-0.24,7.74,-1.04
1111,85699785,0.9102,-0.2661,-0.0298,-1.04,7.80,-0.67
1112,85704792,0.9141,-0.2690,-0.0269,-1.71,7.44,-0.24
1113,85709786,0.9106,-0.2612,-0.0156,-2.26,7.32,0.06
1114,85714787,0.9126,-0.2656,-0.0254,-2.68,7.26,0.43
1115,85719786,0.9146,-0.2676,-0.0259,-3.05,7.13,0.85
1116,85724787,0.9121,-0.2637,-0.0195,-3.11,6.89,1.10
1117,85729786,0.9204,-0.2612,-0.0190,-3.17,6.77,1.40
1118,85734787,0.9229,-0.2588,-0.0195,-3.17,6.65,1.65
1119,85739786,0.9272,-0.2607,-0.0137,-3.05,6.59,2.01
1120,85744787,0.9282,-0.2637,-0.0151,-2.93,6.59,2.26
1121,85749787,0.9307,-0.2603,-0.0127,-2.62,6.34,2.50
1122,85754787,0.9321,-0.2651,-0.0107,-2.62,6.28,2.87
1123,85759785,0.9331,-0.2661,-0.0122,-2.20,6.16,3.05
1124,85764907,0.9390,-0.2690,-0.0156,-1.95,6.10,3.23
1125,85769787,0.9355,-0.2676,-0.0137,-1.65,5.91,3.41
1126,85774786,0.9385,-0.2676,-0.0103,-1.16,5.91,3.78
1127,85779787,0.9390,-0.2715,-0.0103,-0.98,5.61,4.02
1128,85784787,0.9429,-0.2734,-0.0098,-0.73,5.55,4.45
1129,85789787,0.9375,-0.2783,-0.0054,-0.43,5.37,4.51
1130,85794786,0.9399,-0.2769,-0.0059,0.12,5.24,4.94
1131,85799785,0.9443,-0.2783,-0.0034,0.06,5.12,5.00
1132,85804787,0.9414,-0.2817,-0.0029,0.30,5.00,5.30
1133,85809787,0.9434,-0.2793,-0.0024,0.37,4.88,5.43
1134,85814787,0.9458,-0.2783,-0.0005,0.43,4.63,5.61
1135,85819787,0.9443,-0.2773,-0.0015,0.37,4.39,5.85
1136,85824787,0.9429,-0.2783,-0.0029,0.30,4.33,6.04
1137,85830205,0.9419,-0.2832,0.0039,0.37,4.39,6.28
1138,85834787,0.9458,-0.2847,-0.0073,0.30,4.09,6.40
1139,85839786,0.9453,-0.2900,-0.0059,0.24,3.96,6.59
1140,85844787,0.9478,-0.2915,0.0000,0.18,3.84,6.65
1141,85849786,0.9473,-0.2876,0.0005,0.00,3.72,6.77
1142,85854787,0.9478,-0.2910,-0.0015,-0.18,3.48,7.01
1143,85859785,0.9463,-0.2983,-0.0015,-0.37,3.29,7.13
1144,85864789,0.9502,-0.2979,0.0005,-0.55,3.23,7.32
1145,85869786,0.9526,-0.2974,0.0020,-0.79,3.11,7.44
1146,85874787,0.9517,-0.3022,0.0103,-1.22,2.99,7.56
1147,85879786,0.9482,-0.2974,0.0083,-1.28,2.74,7.68
1148,85884787,0.9521,-0.3027,0.0000,-1.71,2.62,7.74
1149,85889786,0.9507,-0.3042,0.0083,-2.07,2.50,7.93
1150,85894787,0.9502,-0.3042,0.0073,-2.38,2.44,7.99
1151,85899785,0.9521,-0.3047,0.0078,-2.50,2.26,7.99
1152,85904787,0.9482,-0.3076,0.0054,-2.74,2.01,7.87
1153,85909789,0.9507,-0.3105,0.0103,-2.99,1.95,7.99
1154,85914791,0.9473,-0.3091,0.0132,-3.11,1.77,8.05
1155,85919785,0.9463,-0.3105,0.0098,-3.17,1.77,8.11
1156,85924786,0.9458,-0.3062,0.0127,-3.29,1.77,8.05
1157,85929786,0.9482,-0.3042,0.0151,-3.41,1.40,8.05
1158,85934788,0.9482,-0.3071,0.0200,-3.48,1.28,8.05
1159,85939787,0.9463,-0.3081,0.0205,-3.54,1.16,7.93
1160,85944787,0.9473,-0.3047,0.0181,-3.48,1.28,7.74
1161,85949787,0.9443,-0.3037,0.0151,-3.60,1.22,7.68
1162,85954787,0.9438,-0.3086,0.0181,-3.48,1.16,7.62
1163,85959785,0.9434,-0.3081,0.0181,-3.48,1.10,7.38
1164,85964788,0.9414,-0.3042,0.0176,-3.35,1.04,7.13
1165,85969786,0.9419,-0.3052,0.0186,-3.23,0.91,6.89
1166,85974884,0.9424,-0.3052,0.0220,-3.17,0.79,6.71
1167,85979787,0.9434,-0.3110,0.0205,-3.05,0.55,6.34
1168,85984787,0.9448,-0.3105,0.0181,-2.80,0.55,6.04
1169,85989787,0.9478,-0.3076,0.0137,-2.62,0.55,5.73
1170,85994787,0.9404,-0.3120,0.0171,-2.32,0.55,5.43
1171,85999785,0.9448,-0.3101,0.0117,-1.95,0.49,5.18
1172,86004937,0.9424,-0.3135,0.0176,-1.71,0.30,4.94
1173,86009788,0.9438,-0.3140,0.0176,-1.22,0.37,4.76
1174,86014787,0.9478,-0.3188,0.0181,-0.79,0.30,4.51
1175,86019787,0.9453,-0.3169,0.0103,-0.37,0.00,4.33
1176,86024787,0.9492,-0.3184,0.0200,0.12,0.00,4.09
1177,86029785,0.9492,-0.3125,0.0107,0.55,-0.12,3.84
1178,86034786,0.9497,-0.3159,0.0156,1.04,-0.18,3.72
1179,86039787,0.9487,-0.3145,0.0161,1.52,-0.37,3.41
1180,86044786,0.9517,-0.3188,0.0088,1.83,-0.55,3.23
1181,86049787,0.9487,-0.3164,0.0103,2.20,-0.61,2.99
1182,86054788,0.9517,-0.3198,0.0107,2.38,-0.73,2.68
1183,86059787,0.9526,-0.3208,0.0132,2.62,-0.91,2.44
1184,86064788,0.9521,-0.3169,0.0059,2.80,-1.04,2.32
1185,86069785,0.9561,-0.3208,0.0039,2.93,-1.16,2.01
1186,86074787,0.9536,-0.3169,0.0059,2.80,-1.16,1.71
1187,86079830,0.9531,-0.3184,0.0088,2.93,-1.34,1.52
1188,86084787,0.9502,-0.3203,0.0112,2.80,-1.46,1.28
1189,86089809,0.9531,-0.3213,0.0142,2.62,-1.59,1.10
1190,86094787,0.9502,-0.3247,0.0078,2.50,-1.77,0.79
1191,86099787,0.9541,-0.3247,0.0054,2.44,-1.71,0.55
1192,86104786,0.9580,-0.3232,0.0049,2.20,-1.65,0.30
1193,86109787,0.9541,-0.3198,0.0054,2.01,-2.01,-0.06
1194,86114787,0.9551,-0.3193,0.0054,1.83,-2.07,-0.30
1195,86119789,0.9561,-0.3184,0.0024,1.77,-2.26,-0.37
1196,86124825,0.9556,-0.3281,0.0020,1.46,-2.32,-0.61
1197,86129789,0.9561,-0.3203,0.0039,1.40,-2.32,-0.79
1198,86134786,0.9580,-0.3218,0.0039,1.22,-2.38,-1.10
1199,86139788,0.9590,-0.3213,0.0015,1.28,-2.44,-1.10
1200,86144786,0.9561,-0.3203,0.0093,1.22,-2.50,-1.22
1201,86149787,0.9619,-0.3223,0.0005,1.10,-2.56,-1.46
1202,86154787,0.9629,-0.3213,0.0029,0.98,-2.56,-1.46
1203,86159786,0.9668,-0.3203,0.0063,0.98,-2.68,-1.59
1204,86164787,0.9614,-0.3193,0.0122,1.04,-2.56,-1.71
1205,86169785,0.9619,-0.3184,0.0029,1.16,-2.56,-1.77
1206,86174787,0.9629,-0.3140,0.0068,0.98,-2.56,-1.89
1207,86179787,0.9609,-0.3154,0.0098,1.04,-2.44,-1.89
1208,86184786,0.9565,-0.3145,0.0000,0.98,-2.50,-2.07
1209,86189786,0.9536,-0.3120,-0.0024,0.98,-2.38,-2.20
1210,86194790,0.9556,-0.3115,0.0112,0.85,-2.13,-2.20
1211,86199787,0.9580,-0.3096,0.0034,0.61,-2.13,-2.26
1212,86204785,0.9590,-0.3081,0.0010,0.55,-2.07,-2.32
1213,86209785,0.9551,-0.3047,0.0044,0.43,-2.07,-2.44
1214,86214787,0.9502,-0.3047,-0.0010,0.37,-1.77,-2.50
1215,86219788,0.9517,-0.3003,0.0015,0.18,-1.71,-2.56
1216,86224787,0.9556,-0.2993,0.0010,0.12,-1.59,-2.62
1217,86229785,0.9502,-0.3003,0.0005,-0.12,-1.52,-2.87
1218,86234787,0.9531,-0.2974,0.0015,-0.18,-1.52,-2.80
1219,86239789,0.9497,-0.3018,0.0039,-0.12,-1.34,-2.93
1220,86244786,0.9526,-0.2974,0.0049,-0.30,-1.16,-2.93
1221,86249787,0.9521,-0.3013,-0.0020,-0.12,-1.04,-2.99
1222,86254786,0.9507,-0.2988,0.0034,-0.12,-0.91,-3.05
1223,86259788,0.9487,-0.2964,-0.0005,0.00,-0.79,-3.11
1224,86264786,0.9487,-0.2949,-0.0049,0.18,-0.85,-3.05
1225,86269787,0.9507,-0.2939,-0.0083,0.37,-0.79,-3.17
1226,86274787,0.9492,-0.2949,-0.0098,0.37,-0.67,-3.17
1227,86279787,0.9502,-0.2949,-0.0029,0.55,-0.55,-3.23
1228,86284787,0.9497,-0.2949,-0.0137,0.79,-0.55,-3.17
1229,86289787,0.9448,-0.2910,-0.0078,1.10,-0.43,-3.17
1230,86294787,0.9424,-0.2910,-0.0132,1.28,-0.43,-3.23
1231,86299788,0.9473,-0.2886,-0.0088,1.52,-0.49,-3.23
1232,86304787,0.9478,-0.2949,-0.0107,1.59,-0.18,-3.17
1233,86309785,0.9463,-0.2930,-0.0107,1.89,-0.43,-3.17
1234,86314787,0.9443,-0.2925,-0.0107,2.13,-0.37,-3.23
1235,86319787,0.9419,-0.2954,-0.0225,2.32,-0.37,-3.23
1236,86324787,0.9395,-0.2930,-0.0112,2.56,-0.37,-3.23
1237,86329787,0.9395,-0.2920,-0.0171,2.74,-0.43,-3.23
1238,86334786,0.9409,-0.2925,-0.0142,2.93,-0.49,-3.11
1239,86339787,0.9404,-0.2925,-0.0156,3.23,-0.55,-3.23
1240,86344786,0.9448,-0.2886,-0.0190,3.48,-0.49,-3.17
1241,86349787,0.9404,-0.2915,-0.0205,3.66,-0.61,-3.11
1242,86354786,0.9399,-0.2891,-0.0176,3.90,-0.67,-3.23
1243,86359787,0.9438,-0.2954,-0.0122,4.15,-0.73,-3.23
1244,86364786,0.9438,-0.2935,-0.0166,4.45,-0.73,-3.11
1245,86369785,0.9424,-0.2930,-0.0122,4.82,-0.73,-3.17
1246,86374787,0.9399,-0.2939,-0.0151,5.00,-0.91,-3.23
1247,86379787,0.9390,-0.2891,-0.0142,5.43,-0.98,-3.17
1248,86384786,0.9424,-0.2954,-0.0171,5.73,-0.91,-3.05
1249,86389787,0.9395,-0.2935,-0.0171,5.91,-1.04,-3.05
1250,86394786,0.9390,-0.2930,-0.0161,6.04,-1.10,-2.99
1251,86399787,0.9395,-0.2930,-0.0205,6.16,-1.16,-3.05
1252,86404786,0.9385,-0.2891,-0.0278,6.22,-1.34,-3.11
1253,86409785,0.9341,-0.2861,-0.0195,6.22,-1.40,-2.99
1254,86414848,0.9341,-0.2827,-0.0132,6.04,-1.28,-3.05
1255,86419789,0.9355,-0.2812,-0.0161,5.91,-1.52,-3.11
1256,86424786,0.9351,-0.2788,-0.0210,5.73,-1.46,-3.23
1257,86429787,0.9336,-0.2778,-0.0186,5.55,-1.65,-3.29
1258,86434786,0.9321,-0.2764,-0.0098,5.30,-1.83,-3.29
1259,86439785,0.9321,-0.2783,-0.0156,5.18,-1.95,-3.41
1260,86444787,0.9326,-0.2764,-0.0195,4.94,-2.13,-3.54
1261,86449789,0.9282,-0.2715,-0.0225,4.82,-2.20,-3.66
1262,86454786,0.9351,-0.2739,-0.0264,4.57,-2.26,-3.66
1263,86459898,0.9399,-0.2744,-0.0234,4.39,-2.56,-3.72
1264,86464788,0.9448,-0.2739,-0.0234,4.21,-2.56,-3.72
1265,86469786,0.9482,-0.2715,-0.0278,3.90,-2.68,-3.78
1266,86474789,0.9492,-0.2705,-0.0220,3.54,-2.68,-3.72
1267,86480058,0.9565,-0.2690,-0.0283,3.17,-2.87,-3.66
1268,86484787,0.9570,-0.2700,-0.0186,2.80,-2.80,-3.66
1269,86489787,0.9585,-0.2700,-0.0210,2.50,-2.93,-3.66
1270,86494787,0.9634,-0.2710,-0.0234,1.89,-2.87,-3.60
1271,86499786,0.9668,-0.2676,-0.0278,1.34,-2.80,-3.48
1272,86504787,0.9658,-0.2720,-0.0186,0.85,-2.56,-3.48
1273,86509786,0.9658,-0.2661,-0.0269,0.24,-2.50,-3.41
1274,86514785,0.9639,-0.2632,-0.0210,-0.37,-2.56,-3.48
1275,86519786,0.9683,-0.2603,-0.0210,-1.10,-2.50,-3.41
1276,86524789,0.9678,-0.2637,-0.0190,-1.71,-2.32,-3.48
1277,86529787,0.9653,-0.2598,-0.0146,-2.32,-2.38,-3.41
1278,86534786,0.9648,-0.2617,-0.0122,-2.93,-2.26,-3.54
1279,86539787,0.9678,-0.2612,-0.0190,-3.48,-2.07,-3.48
1280,86544787,0.9683,-0.2598,-0.0142,-3.84,-1.89,-3.60
1281,86549786,0.9648,-0.2627,-0.0156,-4.33,-1.83,-3.60
1282,86554786,0.9673,-0.2622,-0.0186,-4.57,-1.71,-3.48
1283,86559789,0.9648,-0.2622,-0.0142,-4.76,-1.65,-3.66
1284,86564786,0.9624,-0.2671,-0.0166,-5.06,-1.46,-3.60
1285,86569787,0.9639,-0.2715,-0.0166,-5.06,-1.59,-3.60
1286,86574786,0.9609,-0.2681,-0.0176,-5.06,-1.40,-3.41
1287,86579787,0.9604,-0.2715,-0.0151,-5.12,-1.34,-3.48
1288,86584787,0.9624,-0.2734,-0.0151,-4.88,-1.22,-3.54
1289,86589787,0.9556,-0.2705,-0.0176,-4.70,-1.22,-3.29
1290,86594786,0.9561,-0.2725,-0.0146,-4.70,-1.22,-3.29
1291,86599789,0.9561,-0.2739,-0.0156,-4.51,-1.22,-3.35
1292,86604785,0.9541,-0.2749,-0.0156,-4.33,-0.91,-3.23
1293,86609787,0.9517,-0.2759,-0.0112,-4.15,-1.04,-3.05
1294,86614786,0.9521,-0.2759,-0.0200,-4.02,-0.91,-3.11
1295,86619942,0.9517,-0.2734,-0.0186,-4.02,-0.85,-3.11
1296,86624789,0.9492,-0.2734,-0.0142,-3.96,-0.67,-2.93
1297,86629787,0.9482,-0.2744,-0.0098,-3.78,-0.61,-3.05
1298,86634786,0.9458,-0.2734,-0.0127,-3.78,-0.49,-3.05
1299,86639787,0.9453,-0.2754,-0.0078,-3.78,-0.43,-2.99
1300,86644785,0.9414,-0.2759,-0.0073,-3.72,-0.49,-2.93
1301,86649892,0.9443,-0.2749,-0.0142,-3.66,-0.24,-2.99
1302,86654787,0.9424,-0.2769,-0.0088,-3.60,-0.18,-2.87
1303,86659786,0.9424,-0.2773,-0.0063,-3.54,0.00,-2.80
1304,86664787,0.9375,-0.2769,-0.0088,-3.48,0.06,-2.87
1305,86669787,0.9399,-0.2729,-0.0132,-3.29,0.18,-2.74
1306,86674787,0.9399,-0.2734,-0.0063,-3.11,0.18,-2.80
1307,86679787,0.9360,-0.2720,-0.0093,-3.11,0.37,-2.62
1308,86684787,0.9438,-0.2729,-0.0068,-2.93,0.43,-2.68
1309,86689787,0.9419,-0.2700,-0.0098,-2.74,0.55,-2.74
1310,86694786,0.9375,-0.2720,-0.0054,-2.62,0.67,-2.74
1311,86699787,0.9429,-0.2725,-0.0044,-2.44,0.91,-2.62
1312,86704787,0.9399,-0.2676,-0.0015,-2.20,1.04,-2.74
1313,86709787,0.9429,-0.2686,-0.0073,-2.07,1.04,-2.68
1314,86714785,0.9404,-0.2681,0.0000,-1.83,1.28,-2.68
1315,86719785,0.9385,-0.2642,-0.0039,-1.52,1.52,-2.68
1316,86724787,0.9414,-0.2671,-0.0005,-1.28,1.71,-2.68
1317,86729789,0.9399,-0.2646,-0.0034,-0.98,1.89,-2.68
