# skilleye imu stream v1
# device=xiao_esp32c6 imu=mpu6050 addr=0x68
# rate_hz=200 accel_range_g=16 gyro_range_dps=2000 dlpf_hz=94
# units: accel in g, gyro in deg/s, t_us in microseconds since boot (monotonic)
# no shared clock with the camera -- tap the racket once before each take
# so both recordings share a spike to align on
seq,t_us,ax,ay,az,gx,gy,gz
0,164934787,0.1421,-0.8687,-0.2749,20.00,4.15,6.22
1,164939789,0.1372,-0.8706,-0.2808,21.65,4.51,6.77
2,164944786,0.1348,-0.8745,-0.2729,23.05,4.63,7.26
3,164949787,0.1318,-0.8706,-0.2705,24.09,4.82,7.74
4,164954785,0.1318,-0.8750,-0.2720,24.76,5.00,8.17
5,164959787,0.1279,-0.8745,-0.2788,25.18,5.06,8.60
6,164964786,0.1226,-0.8735,-0.2646,25.30,5.49,8.96
7,164969789,0.1230,-0.8711,-0.2671,25.06,5.67,9.33
8,164974785,0.1182,-0.8682,-0.2681,24.39,5.98,9.63
9,164979785,0.1196,-0.8662,-0.2651,23.66,6.28,9.82
10,164984787,0.1177,-0.8672,-0.2637,22.74,6.65,10.06
11,164989786,0.1167,-0.8691,-0.2607,21.89,6.89,10.24
12,164994789,0.1167,-0.8662,-0.2583,21.04,7.32,10.43
13,164999785,0.1191,-0.8662,-0.2593,20.43,7.56,10.67
14,165004787,0.1123,-0.8730,-0.2559,19.88,7.99,10.91
15,165009787,0.1060,-0.8706,-0.2544,19.57,8.35,11.04
16,165014787,0.1074,-0.8711,-0.2490,19.45,8.72,11.40
17,165019785,0.1045,-0.8730,-0.2466,19.63,9.09,11.46
18,165024789,0.1001,-0.8755,-0.2485,19.94,9.45,11.89
19,165029785,0.1016,-0.8794,-0.2490,20.37,9.82,12.01
20,165034787,0.0991,-0.8813,-0.2456,21.22,10.12,12.32
21,165039789,0.1011,-0.8804,-0.2441,22.20,10.61,12.62
22,165044786,0.0981,-0.8799,-0.2407,23.35,10.98,12.87
23,165049785,0.1055,-0.8813,-0.2412,24.63,11.52,13.11
24,165054785,0.1113,-0.8779,-0.2393,25.85,11.95,13.48
25,165059785,0.1167,-0.8760,-0.2329,27.26,12.44,13.72
26,165064789,0.1265,-0.8770,-0.2354,28.66,12.80,13.96
27,165069786,0.1313,-0.8765,-0.2358,30.06,13.17,14.21
28,165074789,0.1367,-0.8779,-0.2412,31.59,13.60,14.57
29,165080163,0.1475,-0.8799,-0.2383,32.99,13.96,14.88
30,165084787,0.1523,-0.8794,-0.2344,34.33,14.27,15.18
31,165089869,0.1548,-0.8838,-0.2402,35.30,14.63,15.55
32,165094788,0.1606,-0.8843,-0.2314,36.28,14.94,15.85
33,165099787,0.1631,-0.8882,-0.2363,36.83,15.18,16.34
34,165104787,0.1611,-0.8945,-0.2324,37.07,15.49,16.71
35,165109786,0.1626,-0.8965,-0.2280,37.01,15.79,16.95
36,165114787,0.1626,-0.8975,-0.2290,36.77,16.10,17.26
37,165120227,0.1582,-0.8999,-0.2197,36.16,16.28,17.62
38,165124788,0.1597,-0.8999,-0.2251,35.43,16.59,17.80
39,165129787,0.1597,-0.9043,-0.2192,34.57,16.77,18.11
40,165134787,0.1582,-0.9028,-0.2173,33.54,17.20,18.41
41,165139788,0.1621,-0.9067,-0.2192,32.68,17.38,18.60
42,165144787,0.1665,-0.9082,-0.2188,31.71,17.68,18.90
43,165149788,0.1665,-0.9141,-0.2183,30.98,17.74,18.96
44,165154787,0.1636,-0.9121,-0.2100,30.18,18.17,19.33
45,165159785,0.1641,-0.9146,-0.2114,29.51,18.29,19.39
46,165164789,0.1660,-0.9175,-0.2119,28.90,18.48,19.57
47,165169788,0.1641,-0.9180,-0.2051,28.35,18.54,19.76
48,165174787,0.1660,-0.9214,-0.1982,27.80,18.72,20.00
49,165179786,0.1665,-0.9209,-0.1968,27.44,18.84,20.00
50,165184787,0.1670,-0.9185,-0.1934,27.01,19.15,20.00
51,165189923,0.1646,-0.9180,-0.1904,26.71,19.27,19.94
52,165194789,0.1646,-0.9224,-0.1865,26.40,19.45,20.06
53,165199788,0.1626,-0.9185,-0.1787,26.22,19.63,20.06
54,165204787,0.1631,-0.9219,-0.1753,25.91,20.00,20.00
55,165209787,0.1665,-0.9253,-0.1772,25.79,20.00,19.82
56,165214787,0.1689,-0.9253,-0.1675,25.67,20.18,19.70
57,165219788,0.1694,-0.9263,-0.1646,25.67,20.49,19.57
58,165224787,0.1729,-0.9229,-0.1709,26.04,20.73,19.51
59,165229832,0.1729,-0.9282,-0.1631,26.28,21.04,19.45
60,165234787,0.1729,-0.9233,-0.1611,26.77,21.34,19.39
61,165239788,0.1777,-0.9258,-0.1543,27.44,21.65,19.45
62,165244787,0.1763,-0.9297,-0.1567,28.17,21.95,19.27
63,165249786,0.1802,-0.9287,-0.1445,29.09,22.20,19.51
64,165254787,0.1758,-0.9302,-0.1523,29.76,22.32,19.51
65,165259785,0.1787,-0.9365,-0.1470,30.61,22.62,19.51
66,165264786,0.1763,-0.9351,-0.1436,31.46,22.80,19.51
67,165269846,0.1797,-0.9346,-0.1406,32.13,22.99,19.57
68,165274786,0.1738,-0.9380,-0.1357,32.87,23.41,19.57
69,165279789,0.1719,-0.9424,-0.1328,33.35,23.60,19.57
70,165284786,0.1714,-0.9395,-0.1284,33.84,23.84,19.45
71,165289785,0.1714,-0.9438,-0.1201,34.27,23.96,19.51
72,165294789,0.1680,-0.9453,-0.1255,34.51,24.09,19.39
73,165299787,0.1646,-0.9434,-0.1182,34.76,24.02,19.33
74,165304786,0.1655,-0.9482,-0.1196,34.76,24.21,19.21
75,165309788,0.1694,-0.9536,-0.1147,34.70,24.51,19.21
76,165314786,0.1665,-0.9521,-0.1089,34.70,24.63,18.90
77,165319785,0.1689,-0.9526,-0.1074,34.39,24.63,18.90
78,165324789,0.1709,-0.9526,-0.1074,34.21,24.51,18.60
79,165329786,0.1758,-0.9546,-0.0957,33.96,24.76,18.41
80,165334790,0.1748,-0.9624,-0.0952,33.78,24.70,18.41
81,165339787,0.1758,-0.9634,-0.1021,33.54,24.63,18.23
82,165344787,0.1807,-0.9648,-0.0947,33.41,24.51,18.05
83,165349786,0.1792,-0.9702,-0.0996,33.29,24.51,17.99
84,165354787,0.1802,-0.9663,-0.0977,32.99,24.27,17.93
85,165359786,0.1807,-0.9751,-0.0898,32.74,24.15,17.80
86,165364787,0.1768,-0.9766,-0.0903,32.32,24.09,17.68
87,165369788,0.1724,-0.9814,-0.0815,31.89,23.96,17.80
88,165374785,0.1699,-0.9854,-0.0869,31.22,23.72,17.68
89,165379789,0.1660,-0.9854,-0.0830,30.67,23.66,17.56
90,165384786,0.1621,-0.9888,-0.0781,29.76,23.35,17.56
91,165389787,0.1602,-0.9937,-0.0776,28.96,23.17,17.38
92,165394785,0.1548,-0.9941,-0.0791,27.93,23.05,17.13
93,165399864,0.1528,-0.9995,-0.0747,27.01,22.87,17.07
94,165404786,0.1494,-1.0000,-0.0713,26.04,22.62,16.83
95,165410308,0.1465,-1.0029,-0.0688,24.88,22.44,16.65
96,165414787,0.1450,-1.0063,-0.0708,23.96,22.20,16.40
97,165419786,0.1431,-1.0054,-0.0610,22.93,22.07,16.22
98,165424785,0.1382,-1.0103,-0.0688,22.07,21.89,15.91
99,165429785,0.1338,-1.0112,-0.0645,21.16,21.65,15.79
100,165434789,0.1294,-1.0103,-0.0615,20.24,21.34,15.49
101,165439787,0.1294,-1.0127,-0.0591,19.45,21.10,15.00
102,165444787,0.1274,-1.0210,-0.0586,18.54,20.98,14.82
103,165449785,0.1255,-1.0176,-0.0586,17.62,20.73,14.39
104,165454789,0.1240,-1.0229,-0.0566,16.65,20.37,14.09
105,165459786,0.1172,-1.0244,-0.0542,15.67,20.37,13.78
106,165464785,0.1133,-1.0278,-0.0488,14.88,20.00,13.23
107,165469785,0.1089,-1.0342,-0.0479,13.84,19.88,12.87
108,165474787,0.1074,-1.0303,-0.0439,12.80,19.57,12.26
109,165479788,0.1030,-1.0278,-0.0410,11.95,19.45,11.89
110,165484787,0.0977,-1.0322,-0.0410,11.16,19.33,11.40
111,165490285,0.0986,-1.0293,-0.0425,10.49,19.09,10.79
112,165494788,0.0942,-1.0312,-0.0435,10.00,18.84,10.30
113,165499786,0.0938,-1.0293,-0.0400,9.70,18.66,9.82
114,165504789,0.0952,-1.0308,-0.0449,9.39,18.35,9.27
115,165509787,0.0962,-1.0278,-0.0396,9.27,18.23,8.78
116,165514787,0.0967,-1.0269,-0.0376,9.21,17.93,8.29
117,165519786,0.0962,-1.0254,-0.0410,9.33,17.74,7.87
118,165524787,0.0928,-1.0234,-0.0435,9.39,17.62,7.38
119,165529786,0.0962,-1.0220,-0.0317,9.57,17.50,7.07
120,165534785,0.0957,-1.0225,-0.0356,9.76,17.13,6.71
121,165539785,0.0957,-1.0195,-0.0332,9.88,17.01,6.22
122,165544789,0.0986,-1.0215,-0.0327,10.06,16.83,5.91
123,165549789,0.0967,-1.0161,-0.0293,10.00,16.77,5.43
124,165554786,0.1011,-1.0166,-0.0278,9.88,16.34,5.12
125,165559787,0.1011,-1.0142,-0.0273,9.82,16.10,4.76
126,165564785,0.0962,-1.0107,-0.0308,9.82,16.16,4.51
127,165569785,0.0972,-1.0093,-0.0278,9.51,16.04,4.02
128,165574787,0.1050,-1.0034,-0.0278,9.45,15.67,3.84
129,165579789,0.1040,-1.0044,-0.0210,9.27,15.61,3.60
130,165584786,0.1050,-1.0024,-0.0264,8.90,15.49,3.29
131,165589787,0.1064,-1.0005,-0.0259,8.72,15.24,3.11
132,165594786,0.1040,-0.9971,-0.0234,8.54,15.06,2.93
133,165599789,0.1074,-0.9966,-0.0249,8.11,15.00,2.87
134,165604786,0.1084,-0.9956,-0.0225,7.80,14.57,2.74
135,165609787,0.1099,-0.9927,-0.0190,7.68,14.51,2.62
136,165614786,0.1094,-0.9912,-0.0195,7.44,14.21,2.44
137,165619789,0.1104,-0.9917,-0.0186,7.13,14.15,2.38
138,165624786,0.1108,-0.9922,-0.0215,7.01,14.02,2.26
139,165629785,0.1133,-0.9897,-0.0215,6.77,13.78,2.32
140,165634790,0.1128,-0.9849,-0.0107,6.65,13.60,2.32
141,165639908,0.1143,-0.9863,-0.0107,6.52,13.41,2.32
142,165644787,0.1162,-0.9844,-0.0151,6.40,13.17,2.32
143,165649788,0.1162,-0.9790,-0.0098,6.34,13.17,2.38
144,165654787,0.1167,-0.9819,-0.0088,6.34,12.87,2.44
145,165659787,0.1152,-0.9775,-0.0117,6.34,12.68,2.56
146,165664786,0.1187,-0.9780,-0.0127,6.16,12.38,2.50
147,165669785,0.1177,-0.9766,-0.0112,5.98,12.38,2.62
148,165674785,0.1147,-0.9775,-0.0029,5.67,12.01,2.80
149,165679788,0.1128,-0.9741,-0.0059,5.43,11.71,2.80
150,165684785,0.1182,-0.9727,-0.0049,5.24,11.40,2.80
151,165689789,0.1187,-0.9707,-0.0034,4.82,11.34,2.80
152,165694786,0.1211,-0.9712,0.0015,4.39,11.10,2.93
153,165699785,0.1143,-0.9731,-0.0054,3.96,10.91,2.93
154,165704788,0.1138,-0.9722,-0.0034,3.48,10.61,2.93
155,165709789,0.1196,-0.9697,0.0020,3.05,10.43,2.74
156,165714786,0.1128,-0.9683,-0.0029,2.62,10.24,2.80
157,165719787,0.1128,-0.9697,0.0010,2.20,10.06,2.80
158,165724786,0.1133,-0.9688,0.0010,1.77,9.88,2.80
159,165729785,0.1133,-0.9688,0.0088,1.46,9.70,2.68
160,165734785,0.1138,-0.9697,0.0020,1.04,9.70,2.80
161,165740167,0.1152,-0.9712,0.0034,0.73,9.45,2.68
162,165744787,0.1143,-0.9707,0.0063,0.61,9.33,2.74
163,165749823,0.1147,-0.9746,0.0068,0.49,9.21,2.68
164,165754787,0.1211,-0.9741,0.0103,0.37,9.02,2.74
165,165759785,0.1191,-0.9741,0.0137,0.24,8.78,2.87
166,165764789,0.1196,-0.9795,0.0034,0.24,8.60,2.80
167,165769786,0.1187,-0.9814,0.0176,0.18,8.41,2.87
168,165774785,0.1118,-0.9824,0.0146,0.49,8.23,2.87
169,165779787,0.1113,-0.9873,0.0151,0.55,7.99,2.93
170,165784786,0.1118,-0.9897,0.0210,0.61,7.56,2.87
171,165789789,0.1108,-0.9932,0.0156,0.85,7.50,2.68
172,165794786,0.1128,-0.9922,0.0151,1.16,7.20,2.56
173,165799787,0.1118,-0.9966,0.0112,1.40,7.07,2.38
174,165804786,0.1079,-0.9956,0.0200,1.59,6.52,2.26
175,165809789,0.1123,-0.9990,0.0181,1.71,6.28,2.13
176,165814786,0.1143,-0.9995,0.0249,1.83,6.10,1.95
177,165819785,0.1138,-0.9980,0.0220,2.07,5.98,1.77
178,165824787,0.1152,-1.0010,0.0249,2.32,5.79,1.52
179,165829787,0.1177,-1.0015,0.0186,2.56,5.43,1.40
180,165834787,0.1187,-1.0039,0.0225,2.68,5.30,1.22
181,165839785,0.1196,-1.0015,0.0161,3.17,5.12,1.04
182,165844789,0.1191,-1.0054,0.0278,3.29,4.88,0.98
183,165849787,0.1211,-1.0078,0.0205,3.60,4.76,0.79
184,165854787,0.1196,-1.0093,0.0249,3.78,4.45,0.49
185,165859785,0.1211,-1.0127,0.0229,3.96,4.15,0.24
186,165864787,0.1211,-1.0137,0.0283,4.15,3.96,0.06
187,165869786,0.1235,-1.0142,0.0278,4.15,3.66,-0.24
188,165874785,0.1250,-1.0156,0.0283,3.96,3.41,-0.61
189,165879785,0.1260,-1.0166,0.0239,3.78,3.05,-0.85
190,165884787,0.1211,-1.0151,0.0347,3.41,2.93,-1.16
191,165889788,0.1211,-1.0171,0.0327,3.23,2.50,-1.59
192,165894787,0.1245,-1.0181,0.0317,3.11,2.26,-1.89
193,165899787,0.1270,-1.0210,0.0332,2.87,2.01,-2.38
194,165904787,0.1289,-1.0210,0.0356,2.74,1.83,-2.68
195,165909788,0.1299,-1.0264,0.0278,2.87,1.46,-3.17
196,165914787,0.1343,-1.0273,0.0376,2.80,1.04,-3.54
197,165919787,0.1357,-1.0288,0.0337,2.74,0.73,-3.96
198,165924787,0.1436,-1.0312,0.0332,2.74,0.24,-4.21
199,165929787,0.1416,-1.0337,0.0347,2.50,0.00,-4.57
200,165934787,0.1465,-1.0342,0.0376,2.38,-0.49,-4.82
201,165939785,0.1499,-1.0371,0.0356,2.07,-0.85,-5.12
202,165944788,0.1514,-1.0361,0.0415,1.83,-1.34,-5.61
203,165949787,0.1538,-1.0425,0.0435,1.34,-1.95,-5.73
204,165954786,0.1592,-1.0449,0.0479,0.85,-2.26,-6.10
205,165959787,0.1543,-1.0513,0.0474,0.61,-2.87,-6.59
206,165964786,0.1523,-1.0571,0.0498,0.24,-3.17,-6.83
207,165969787,0.1582,-1.0615,0.0479,0.12,-3.66,-7.20
208,165974786,0.1587,-1.0645,0.0479,-0.12,-4.15,-7.68
209,165979785,0.1558,-1.0708,0.0444,-0.37,-4.76,-8.17
210,165984787,0.1553,-1.0742,0.0532,-0.61,-5.43,-8.66
211,165989788,0.1587,-1.0757,0.0503,-0.98,-5.91,-9.21
212,165994787,0.1587,-1.0801,0.0552,-1.34,-6.52,-9.70
213,165999787,0.1567,-1.0845,0.0474,-1.77,-7.01,-10.43
214,166004787,0.1572,-1.0864,0.0562,-2.44,-7.50,-11.10
215,166009787,0.1582,-1.0908,0.0581,-2.93,-7.93,-11.77
216,166014786,0.1548,-1.0938,0.0566,-3.54,-8.54,-12.62
217,166019787,0.1523,-1.0981,0.0522,-4.02,-9.09,-13.48
218,166024794,0.1509,-1.0986,0.0640,-4.70,-9.63,-14.39
219,166029789,0.1494,-1.1089,0.0615,-5.18,-10.06,-15.30
220,166034786,0.1460,-1.1084,0.0566,-5.79,-10.67,-16.28
221,166039785,0.1455,-1.1113,0.0522,-6.40,-11.16,-17.44
222,166044785,0.1455,-1.1147,0.0557,-6.95,-11.65,-18.54
223,166049789,0.1440,-1.1206,0.0562,-7.32,-12.20,-19.76
224,166054786,0.1392,-1.1216,0.0469,-7.80,-12.56,-20.85
225,166059787,0.1426,-1.1260,0.0547,-7.99,-13.17,-22.07
226,166064786,0.1426,-1.1270,0.0522,-8.11,-13.72,-23.29
227,166069787,0.1450,-1.1313,0.0469,-7.93,-14.33,-24.39
228,166074786,0.1445,-1.1377,0.0459,-7.80,-14.88,-25.55
229,166079785,0.1450,-1.1406,0.0381,-7.38,-15.55,-26.71
230,166084787,0.1465,-1.1387,0.0366,-6.89,-16.04,-27.99
231,166089787,0.1504,-1.1416,0.0415,-6.46,-16.65,-29.09
232,166094786,0.1509,-1.1411,0.0342,-6.10,-17.38,-30.30
233,166099787,0.1514,-1.1445,0.0293,-5.73,-17.87,-31.52
234,166104786,0.1538,-1.1440,0.0337,-5.43,-18.48,-32.80
235,166109785,0.1528,-1.1465,0.0327,-5.18,-18.96,-33.96
236,166114789,0.1519,-1.1509,0.0327,-5.12,-19.51,-35.30
237,166119788,0.1553,-1.1499,0.0288,-5.18,-20.00,-36.65
238,166124787,0.1538,-1.1504,0.0312,-5.24,-20.55,-37.87
239,166129787,0.1592,-1.1558,0.0269,-5.49,-21.04,-39.21
240,166134787,0.1602,-1.1533,0.0210,-5.55,-21.65,-40.61
241,166139785,0.1562,-1.1558,0.0195,-5.91,-22.20,-42.07
242,166144785,0.1475,-1.1543,0.0190,-6.40,-22.74,-43.66
243,166149788,0.1436,-1.1455,0.0137,-7.07,-23.41,-45.12
244,166154787,0.1421,-1.1406,0.0176,-7.93,-23.78,-46.71
245,166159787,0.1416,-1.1353,0.0137,-8.90,-24.39,-48.29
246,166164787,0.1445,-1.1235,0.0166,-9.94,-24.88,-49.70
247,166169787,0.1450,-1.1118,0.0146,-11.16,-25.18,-51.28
248,166174787,0.1494,-1.0977,0.0127,-12.50,-25.49,-52.80
249,166179785,0.1543,-1.0835,0.0088,-13.78,-25.91,-54.21
250,166184786,0.1572,-1.0718,0.0083,-15.30,-26.34,-55.49
251,166189787,0.1646,-1.0605,0.0093,-16.46,-26.52,-56.71
252,166194788,0.1689,-1.0449,0.0015,-17.80,-26.89,-57.93
253,166199788,0.1724,-1.0317,0.0049,-18.96,-27.01,-58.84
254,166204787,0.1782,-1.0190,0.0039,-20.06,-27.07,-59.82
255,166209787,0.1787,-0.9995,0.0020,-20.91,-27.32,-60.55
256,166214787,0.1885,-0.9854,0.0039,-21.52,-27.38,-61.22
257,166219788,0.1992,-0.9702,-0.0068,-22.07,-27.38,-61.65
258,166224787,0.2021,-0.9604,-0.0083,-22.26,-27.38,-62.01
259,166229789,0.2104,-0.9468,-0.0054,-22.32,-27.38,-62.26
260,166234787,0.2109,-0.9297,-0.0010,-22.20,-27.44,-62.44
261,166239786,0.2168,-0.9087,-0.0039,-21.77,-27.44,-62.56
262,166244789,0.2202,-0.8994,-0.0078,-21.28,-27.50,-62.44
263,166249786,0.2339,-0.8730,-0.0454,-20.73,-27.44,-62.26
264,166254787,0.3042,-0.8130,-0.3564,-20.79,-27.74,-62.07
265,166259788,0.3813,-0.7471,-0.4780,-24.57,-27.01,-61.77
266,166264787,0.3252,-0.7515,-0.5913,-30.98,-24.57,-60.73
267,166269871,0.3647,-0.1567,-0.7808,-36.89,-22.68,-59.15
268,166274789,0.3677,-0.2935,-0.7627,-37.68,-20.24,-56.83
269,166279853,0.0420,-0.6494,-0.4551,-37.32,-15.73,-50.43
270,166284787,-0.0234,-0.6650,-0.4404,-38.29,-10.91,-45.55
271,166289788,0.1646,-0.6406,-0.3477,-38.78,-8.60,-43.23
272,166294787,0.3115,-0.6382,-0.1279,-38.05,-6.83,-41.89
273,166300338,0.3369,-0.6611,-0.0449,-36.28,-6.04,-40.98
274,166304788,0.2969,-0.6919,-0.0659,-34.82,-5.91,-40.49
275,166309833,0.2432,-0.7241,-0.0249,-33.35,-5.85,-39.45
276,166314787,0.2124,-0.7422,0.0059,-32.01,-5.67,-38.29
277,166319788,0.2217,-0.7368,-0.0112,-30.55,-5.61,-37.13
278,166324787,0.2485,-0.7275,-0.0195,-29.09,-5.55,-36.10
279,166329788,0.2388,-0.7183,-0.0122,-27.26,-5.55,-35.18
280,166334787,0.2393,-0.7368,-0.0273,-25.37,-5.49,-34.27
281,166339787,0.2378,-0.8066,-0.0513,-23.41,-5.43,-33.17
282,166344787,0.2656,-1.0142,-0.0986,-21.28,-5.12,-32.13
283,166349789,0.2861,-0.9468,-0.0542,-18.78,-4.57,-31.89
284,166354787,0.3442,-0.8945,-0.1030,-15.12,-4.33,-33.11
285,166359790,0.3765,-0.8672,-0.0273,-11.89,-4.39,-34.15
286,166364787,0.3447,-0.8916,0.0503,-8.66,-3.96,-34.15
287,166369800,0.2939,-0.8931,0.0190,-5.24,-3.35,-34.02
288,166374787,0.2881,-0.8638,-0.0483,-1.83,-3.23,-33.96
289,166379788,0.3296,-0.8511,-0.0684,1.34,-3.23,-33.90
290,166384787,0.3628,-0.8403,-0.0630,3.90,-3.35,-33.78
291,166389785,0.3657,-0.8052,-0.1025,6.04,-3.05,-33.54
292,166394787,0.3589,-0.7764,-0.1519,7.38,-3.11,-33.17
293,166399789,0.3506,-0.7402,-0.1860,8.35,-2.74,-32.93
294,166404786,0.3506,-0.7095,-0.2124,8.60,-2.26,-32.07
295,166409789,0.3545,-0.6821,-0.2305,8.66,-1.52,-31.04
296,166414786,0.3457,-0.6865,-0.2476,8.48,-0.85,-29.70
297,166420020,0.3193,-0.7070,-0.2388,8.05,0.06,-28.17
298,166424787,0.3081,-0.7285,-0.2139,7.74,0.79,-26.65
299,166429788,0.3105,-0.7427,-0.1870,7.44,1.77,-25.30
300,166434787,0.3208,-0.7563,-0.1616,7.32,2.20,-24.33
301,166439788,0.3296,-0.7627,-0.1489,7.62,2.56,-23.54
302,166444787,0.3350,-0.7686,-0.1284,8.29,2.80,-22.93
303,166449785,0.3511,-0.7729,-0.1157,8.96,2.74,-22.44
304,166455327,0.3555,-0.7798,-0.1182,10.24,2.74,-21.77
305,166459789,0.3623,-0.7788,-0.1157,10.98,2.68,-21.34
306,166464786,0.3638,-0.7769,-0.1133,11.65,2.50,-20.91
307,166469787,0.3672,-0.7793,-0.1216,12.56,2.50,-20.06
308,166474786,0.3711,-0.7793,-0.1226,12.93,2.56,-19.27
309,166479787,0.3711,-0.7803,-0.1284,13.29,2.32,-18.48
310,166484786,0.3721,-0.7876,-0.1255,13.54,2.38,-17.62
311,166489785,0.3667,-0.7910,-0.1250,13.72,2.44,-16.71
312,166494878,0.3691,-0.7964,-0.1235,13.84,2.26,-15.79
313,166499789,0.3672,-0.7959,-0.1211,13.84,2.38,-15.00
314,166504786,0.3745,-0.7983,-0.1221,14.02,2.32,-14.21
315,166509787,0.3755,-0.7979,-0.1206,13.96,2.01,-13.54
316,166514786,0.3779,-0.7974,-0.1157,13.90,2.01,-12.93
317,166519785,0.3779,-0.7954,-0.1216,13.90,2.01,-12.20
318,166524788,0.3779,-0.8013,-0.1162,13.78,1.89,-11.52
319,166530138,0.3740,-0.7964,-0.1099,13.60,1.71,-10.79
320,166534787,0.3755,-0.7974,-0.1138,13.35,1.59,-10.24
321,166539785,0.3745,-0.7979,-0.1157,13.17,1.46,-9.51
322,166544789,0.3750,-0.7964,-0.1099,12.87,1.40,-8.78
323,166549789,0.3813,-0.7988,-0.1045,12.62,1.34,-8.11
324,166554785,0.3804,-0.8027,-0.1040,12.44,1.10,-7.26
325,166559787,0.3818,-0.8101,-0.1011,12.44,0.85,-6.65
326,166564785,0.3857,-0.8149,-0.0977,12.26,0.73,-5.85
327,166569789,0.3931,-0.8213,-0.0986,12.38,0.49,-5.30
328,166574785,0.3887,-0.8252,-0.0981,12.32,0.37,-4.76
329,166579787,0.3965,-0.8325,-0.0952,12.56,0.24,-4.09
330,166584787,0.4004,-0.8369,-0.0986,12.74,0.00,-3.48
331,166589785,0.4014,-0.8438,-0.0986,12.93,-0.30,-2.99
332,166594894,0.4004,-0.8477,-0.1006,13.35,-0.55,-2.44
333,166599789,0.4053,-0.8516,-0.1016,13.66,-1.04,-1.95
334,166604786,0.4053,-0.8535,-0.1040,14.02,-1.10,-1.40
335,166609787,0.4028,-0.8574,-0.1143,14.21,-1.46,-0.91
336,166614786,0.4058,-0.8584,-0.1133,14.39,-1.89,-0.37
337,166619787,0.4067,-0.8555,-0.1172,14.45,-2.20,0.00
338,166624786,0.4062,-0.8589,-0.1128,14.45,-2.32,0.43
339,166629787,0.4033,-0.8657,-0.1123,14.33,-2.62,0.91
340,166634786,0.4023,-0.8662,-0.1196,14.09,-2.93,1.34
341,166639789,0.4009,-0.8633,-0.1172,13.84,-3.11,1.59
342,166644786,0.4067,-0.8647,-0.1221,13.48,-3.48,2.01
343,166649785,0.4028,-0.8701,-0.1172,12.93,-3.66,2.26
344,166654787,0.4028,-0.8652,-0.1172,12.50,-3.84,2.56
345,166659786,0.3945,-0.8652,-0.1172,11.77,-4.15,2.87
346,166664789,0.3970,-0.8652,-0.1226,11.04,-4.27,2.93
347,166669787,0.3950,-0.8643,-0.1196,10.24,-4.45,3.23
348,166674788,0.3926,-0.8726,-0.1162,9.51,-4.57,3.23
349,166679789,0.3999,-0.8721,-0.1182,8.72,-4.82,3.48
350,166684788,0.4004,-0.8755,-0.1240,8.11,-4.88,3.54
351,166689786,0.3979,-0.8813,-0.1123,7.56,-5.06,3.54
352,166694785,0.4038,-0.8838,-0.1245,7.13,-5.18,3.60
353,166699790,0.3999,-0.8848,-0.1260,6.71,-5.30,3.66
354,166704786,0.4019,-0.8838,-0.1250,6.28,-5.30,3.66
355,166709787,0.4033,-0.8862,-0.1289,6.04,-5.67,3.48
356,166714786,0.4028,-0.8804,-0.1304,5.73,-5.79,3.35
357,166719785,0.4028,-0.8853,-0.1250,5.49,-5.85,3.41
358,166724789,0.3940,-0.8877,-0.1289,5.06,-5.85,3.23
359,166729786,0.3975,-0.8857,-0.1279,4.94,-5.98,3.17
360,166734787,0.4009,-0.8828,-0.1304,4.63,-5.79,3.11
361,166739786,0.4048,-0.8838,-0.1372,4.39,-5.73,2.93
362,166744789,0.4023,-0.8804,-0.1357,4.09,-5.85,2.80
363,166749786,0.4019,-0.8779,-0.1289,3.66,-5.79,2.62
364,166754785,0.4023,-0.8770,-0.1338,3.35,-5.79,2.50
365,166759785,0.4009,-0.8765,-0.1343,2.99,-5.49,2.44
366,166764789,0.3984,-0.8745,-0.1367,2.80,-5.43,2.26
367,166769847,0.3994,-0.8770,-0.1372,2.44,-5.30,2.20
368,166774786,0.4014,-0.8750,-0.1377,2.13,-5.24,2.20
369,166779789,0.4058,-0.8730,-0.1279,2.07,-5.00,2.26
370,166784786,0.4077,-0.8726,-0.1328,1.83,-4.82,2.13
371,166789787,0.4116,-0.8755,-0.1338,1.77,-4.76,2.13
372,166794785,0.4136,-0.8750,-0.1353,1.65,-4.76,2.13
373,166799785,0.4126,-0.8750,-0.1353,1.52,-4.57,2.07
374,166804789,0.4121,-0.8755,-0.1328,1.40,-4.33,2.07
375,166810326,0.4121,-0.8730,-0.1362,1.28,-4.09,2.01
376,166814787,0.4111,-0.8730,-0.1382,1.10,-3.78,2.20
377,166819788,0.4165,-0.8774,-0.1475,0.98,-3.60,2.20
378,166824787,0.4180,-0.8770,-0.1411,0.67,-3.48,2.20
379,166829787,0.4126,-0.8745,-0.1387,0.55,-3.17,2.38
380,166834786,0.4155,-0.8740,-0.1377,0.43,-2.74,2.44
381,166839789,0.4180,-0.8740,-0.1406,0.30,-2.68,2.38
382,166845216,0.4136,-0.8726,-0.1343,0.12,-2.38,2.38
383,166849789,0.4180,-0.8765,-0.1362,-0.06,-2.13,2.44
384,166854785,0.4146,-0.8755,-0.1387,-0.37,-1.77,2.44
385,166859785,0.4155,-0.8794,-0.1382,-0.30,-1.46,2.44
386,166864789,0.4180,-0.8740,-0.1401,-0.67,-1.34,2.62
387,166870033,0.4160,-0.8784,-0.1377,-0.85,-0.91,2.68
388,166874787,0.4131,-0.8779,-0.1377,-0.91,-0.79,2.68
389,166879788,0.4199,-0.8765,-0.1411,-1.34,-0.49,2.68
390,166884787,0.4175,-0.8779,-0.1372,-1.52,-0.18,2.68
391,166889789,0.4243,-0.8794,-0.1328,-1.59,0.24,2.74
392,166894785,0.4175,-0.8828,-0.1411,-1.89,0.43,2.74
393,166899785,0.4189,-0.8765,-0.1416,-2.13,0.73,2.68
394,166904848,0.4214,-0.8774,-0.1338,-2.26,1.04,2.80
395,166909789,0.4199,-0.8818,-0.1338,-2.44,1.40,2.93
396,166914786,0.4185,-0.8789,-0.1362,-2.56,1.46,2.87
397,166919785,0.4175,-0.8779,-0.1357,-2.68,1.77,2.87
398,166924785,0.4199,-0.8721,-0.1353,-2.80,2.20,2.87
399,166929789,0.4219,-0.8818,-0.1245,-2.74,2.38,2.74
400,166934786,0.4185,-0.8838,-0.1323,-2.99,2.62,2.74
401,166939894,0.4185,-0.8828,-0.1309,-2.87,2.80,2.87
402,166944787,0.4165,-0.8799,-0.1318,-2.80,3.11,2.80
403,166949788,0.4189,-0.8779,-0.1265,-2.62,3.29,2.62
404,166954787,0.4185,-0.8740,-0.1196,-2.44,3.66,2.56
405,166959785,0.4199,-0.8818,-0.1216,-2.26,3.90,2.44
406,166964785,0.4175,-0.8857,-0.1230,-2.13,3.96,2.38
407,166969789,0.4170,-0.8789,-0.1196,-1.95,4.27,2.26
408,166974787,0.4170,-0.8857,-0.1182,-1.77,4.39,2.07
409,166979788,0.4189,-0.8838,-0.1201,-1.52,4.57,1.89
410,166984787,0.4136,-0.8818,-0.1191,-1.22,4.70,1.65
411,166989786,0.4175,-0.8833,-0.1133,-0.85,4.88,1.52
412,166994787,0.4165,-0.8872,-0.1138,-0.67,5.06,1.40
413,166999787,0.4199,-0.8857,-0.1157,-0.49,5.06,1.16
414,167004787,0.4185,-0.8916,-0.1108,-0.18,5.24,0.98
415,167009786,0.4189,-0.8916,-0.1128,0.00,5.24,0.61
416,167014787,0.4199,-0.8960,-0.1104,0.24,5.55,0.37
417,167019787,0.4253,-0.8994,-0.1055,0.61,5.49,-0.06
418,167024787,0.4224,-0.8984,-0.1069,0.79,5.67,-0.43
419,167029786,0.4224,-0.9028,-0.1104,1.10,5.79,-0.85
420,167034787,0.4253,-0.9053,-0.1030,1.46,5.85,-1.46
421,167039787,0.4268,-0.9072,-0.1035,1.52,5.98,-1.83
422,167044787,0.4336,-0.9043,-0.1030,1.59,6.22,-2.20
423,167049786,0.4336,-0.9038,-0.1040,1.65,6.28,-2.74
424,167054787,0.4312,-0.9014,-0.1021,1.59,6.34,-3.23
425,167060217,0.4360,-0.9019,-0.1030,1.52,6.46,-3.72
426,167064788,0.4346,-0.8984,-0.1060,1.46,6.34,-4.21
427,167070168,0.4336,-0.9009,-0.1045,1.22,6.52,-4.70
428,167074787,0.4404,-0.8940,-0.0977,0.91,6.46,-5.12
429,167079788,0.4399,-0.8906,-0.0957,0.67,6.46,-5.55
430,167084787,0.4390,-0.8833,-0.0981,0.43,6.52,-5.91
431,167089785,0.4380,-0.8823,-0.0981,0.00,6.40,-6.34
432,167094787,0.4346,-0.8794,-0.0913,-0.43,6.52,-6.65
433,167099786,0.4375,-0.8750,-0.0952,-0.73,6.34,-6.95
434,167104785,0.4370,-0.8711,-0.0981,-1.16,6.40,-7.26
435,167109787,0.4399,-0.8687,-0.0923,-1.59,6.34,-7.38
436,167114787,0.4424,-0.8672,-0.0977,-1.71,6.22,-7.56
437,167119789,0.4463,-0.8696,-0.0923,-2.01,6.04,-7.74
438,167124787,0.4434,-0.8745,-0.0859,-2.07,5.91,-7.93
439,167129785,0.4443,-0.8755,-0.0923,-2.26,5.85,-7.93
440,167134890,0.4448,-0.8721,-0.0942,-2.20,5.61,-8.05
441,167139789,0.4468,-0.8652,-0.0913,-2.20,5.67,-8.17
442,167144787,0.4521,-0.8726,-0.0908,-1.95,5.30,-8.23
443,167149787,0.4473,-0.8711,-0.0845,-1.77,5.18,-8.29
444,167154787,0.4473,-0.8706,-0.0850,-1.40,4.94,-8.48
445,167159786,0.4497,-0.8672,-0.0908,-1.16,4.82,-8.54
446,167164787,0.4561,-0.8633,-0.0908,-0.73,4.51,-8.48
447,167169786,0.4502,-0.8594,-0.0942,-0.49,4.39,-8.60
448,167174788,0.4487,-0.8638,-0.0898,-0.24,4.09,-8.66
449,167179787,0.4429,-0.8647,-0.0884,0.06,4.02,-8.66
450,167184786,0.4419,-0.8579,-0.0918,0.06,3.78,-8.54
451,167189787,0.4473,-0.8555,-0.0938,0.30,3.66,-8.60
452,167194788,0.4473,-0.8501,-0.0938,0.49,3.35,-8.66
453,167199788,0.4429,-0.8584,-0.0889,0.55,3.23,-8.66
454,167204785,0.4414,-0.8589,-0.0879,0.49,3.05,-8.72
455,167210285,0.4375,-0.8525,-0.0879,0.49,2.80,-8.48
456,167214787,0.4399,-0.8530,-0.0864,0.43,2.74,-8.48
457,167220333,0.4409,-0.8589,-0.0928,0.37,2.62,-8.48
458,167224787,0.4434,-0.8511,-0.0894,0.37,2.32,-8.54
459,167229788,0.4438,-0.8560,-0.0938,0.30,2.26,-8.60
460,167234787,0.4414,-0.8535,-0.0928,0.30,2.07,-8.60
461,167239786,0.4375,-0.8516,-0.0938,0.30,1.89,-8.60
462,167244787,0.4419,-0.8521,-0.0884,0.30,1.83,-8.66
463,167250118,0.4365,-0.8501,-0.0903,0.24,1.65,-8.66
464,167254788,0.4429,-0.8486,-0.0952,0.37,1.40,-8.66
465,167259787,0.4478,-0.8496,-0.0928,0.37,1.22,-8.72
466,167264787,0.4473,-0.8491,-0.0864,0.49,1.16,-8.78
467,167269785,0.4497,-0.8516,-0.0928,0.55,1.10,-8.84
468,167274788,0.4482,-0.8496,-0.0928,0.61,0.85,-8.84
469,167279787,0.4526,-0.8486,-0.0986,0.67,0.91,-8.90
470,167284787,0.4546,-0.8462,-0.0981,0.67,0.79,-8.90
471,167289788,0.4521,-0.8486,-0.0967,0.67,0.61,-9.02
472,167294787,0.4512,-0.8516,-0.0952,0.79,0.67,-8.96
473,167299788,0.4565,-0.8496,-0.0918,0.85,0.55,-9.02
474,167304787,0.4619,-0.8457,-0.0972,0.85,0.55,-8.90
475,167309785,0.4604,-0.8462,-0.0981,0.85,0.49,-8.90
476,167314787,0.4624,-0.8462,-0.0991,0.85,0.30,-9.02
477,167319789,0.4658,-0.8501,-0.1035,0.85,0.37,-8.90
478,167324786,0.4629,-0.8462,-0.1040,0.79,0.24,-8.84
479,167329787,0.4561,-0.8403,-0.0942,0.49,0.49,-9.02
480,167334786,0.4619,-0.8433,-0.1011,0.37,0.37,-9.02
481,167339789,0.4653,-0.8389,-0.0986,0.06,0.43,-9.09
482,167344786,0.4639,-0.8423,-0.1069,0.00,0.49,-9.21
483,167349790,0.4639,-0.8462,-0.1074,-0.06,0.37,-9.09
484,167354786,0.4629,-0.8438,-0.1079,-0.12,0.43,-9.27
485,167359788,0.4590,-0.8481,-0.1011,-0.12,0.49,-9.27
486,167364786,0.4678,-0.8462,-0.1025,-0.18,0.55,-9.51
487,167369789,0.4692,-0.8433,-0.1045,-0.12,0.61,-9.51
488,167374785,0.4707,-0.8452,-0.1113,0.12,0.67,-9.45
489,167379800,0.4819,-0.8433,-0.1157,0.00,0.55,-9.63
490,167384786,0.4692,-0.8516,-0.0991,-0.18,0.43,-9.63
491,167389789,0.4561,-0.8379,-0.1040,-0.49,0.67,-9.70
492,167394786,0.4565,-0.8315,-0.1162,-0.73,0.79,-10.00
493,167399787,0.4702,-0.8320,-0.1133,-0.85,0.85,-10.00
494,167404786,0.4688,-0.8413,-0.1128,-0.91,0.79,-10.18
495,167409785,0.4712,-0.8359,-0.1079,-0.98,0.85,-10.24
496,167414785,0.4668,-0.8330,-0.1089,-0.91,0.91,-10.18
497,167419789,0.4692,-0.8345,-0.1172,-0.91,0.85,-10.12
498,167424787,0.4766,-0.8301,-0.1133,-1.10,1.04,-10.30
499,167429786,0.4795,-0.8286,-0.1133,-1.04,1.10,-10.24
500,167434789,0.4775,-0.8286,-0.1138,-0.98,1.28,-10.18
501,167439849,0.4795,-0.8267,-0.1113,-0.73,1.16,-10.18
502,167444787,0.4736,-0.8286,-0.1167,-0.73,1.22,-10.24
503,167449786,0.4795,-0.8291,-0.1108,-0.61,1.22,-10.06
504,167454787,0.4814,-0.8271,-0.1104,-0.30,1.34,-10.00
505,167459787,0.4834,-0.8267,-0.1094,-0.06,1.46,-9.94
506,167464787,0.4844,-0.8311,-0.1133,0.18,1.40,-9.94
507,167469785,0.4863,-0.8296,-0.1123,0.37,1.40,-9.88
508,167474789,0.4922,-0.8311,-0.1157,0.49,1.52,-9.82
509,167479787,0.4917,-0.8301,-0.1157,0.79,1.71,-9.76
510,167484787,0.5020,-0.8286,-0.1138,1.04,1.71,-9.70
511,167489788,0.4980,-0.8330,-0.1147,1.16,1.77,-9.82
512,167494787,0.4907,-0.8359,-0.1187,1.28,1.83,-9.82
513,167499787,0.4917,-0.8247,-0.1216,1.34,1.83,-9.88
514,167504787,0.4902,-0.8242,-0.1191,1.34,1.77,-9.82
515,167509788,0.4937,-0.8228,-0.1187,1.16,1.89,-9.94
516,167514787,0.4937,-0.8228,-0.1157,1.16,2.07,-9.88
517,167519786,0.4932,-0.8188,-0.1133,0.98,2.13,-9.94
518,167524880,0.4956,-0.8203,-0.1050,0.79,2.07,-9.88
519,167529788,0.4976,-0.8213,-0.1128,0.55,2.13,-9.76
520,167534787,0.4990,-0.8169,-0.1104,0.30,2.13,-9.63
521,167539857,0.4980,-0.8140,-0.1138,-0.12,2.20,-9.57
522,167544788,0.5034,-0.8159,-0.1182,-0.55,2.38,-9.39
523,167549787,0.5005,-0.8115,-0.1084,-0.98,2.26,-9.33
524,167554786,0.5024,-0.8135,-0.1069,-1.65,2.20,-9.27
525,167559785,0.5010,-0.8135,-0.1099,-2.13,2.32,-9.21
526,167564789,0.5010,-0.8169,-0.1118,-2.74,2.32,-9.21
527,167569799,0.5068,-0.8145,-0.1123,-3.35,2.32,-9.15
528,167574785,0.5015,-0.8105,-0.1045,-3.84,2.20,-8.96
529,167579788,0.5054,-0.8101,-0.1147,-4.51,2.13,-9.09
530,167584787,0.5054,-0.8145,-0.1094,-4.94,2.13,-8.96
531,167589787,0.5010,-0.8076,-0.1094,-5.61,2.07,-8.84
532,167594787,0.5005,-0.8066,-0.1123,-6.34,1.95,-8.72
533,167599789,0.5044,-0.8057,-0.1152,-6.83,1.95,-8.78
534,167604786,0.5068,-0.8086,-0.1152,-7.56,2.07,-8.66
535,167609789,0.5005,-0.8096,-0.1128,-8.35,2.01,-8.66
536,167614785,0.5015,-0.8076,-0.1172,-9.15,1.89,-8.72
537,167620009,0.4995,-0.8032,-0.1196,-10.06,1.95,-8.72
538,167624787,0.4980,-0.8032,-0.1162,-10.79,1.71,-8.72
539,167629786,0.4966,-0.8003,-0.1172,-11.77,1.83,-8.66
540,167634788,0.5015,-0.8022,-0.1187,-12.62,1.77,-8.78
541,167639788,0.5015,-0.7998,-0.1201,-13.41,1.83,-8.84
542,167644787,0.5015,-0.8013,-0.1147,-14.39,1.77,-8.84
543,167649787,0.4985,-0.7983,-0.1240,-15.24,1.71,-8.96
544,167654787,0.4956,-0.7969,-0.1191,-15.98,1.77,-8.84
545,167660212,0.4961,-0.7983,-0.1284,-16.65,1.77,-8.90
546,167664787,0.4966,-0.7974,-0.1226,-17.07,1.65,-8.90
547,167669787,0.4951,-0.7979,-0.1201,-17.68,1.65,-8.90
548,167674787,0.4946,-0.7979,-0.1201,-17.80,1.46,-8.90
549,167680093,0.4966,-0.8018,-0.1235,-17.74,1.28,-8.84
550,167684788,0.5049,-0.7993,-0.1318,-17.50,1.22,-8.90
551,167689787,0.5059,-0.7969,-0.1240,-17.26,1.16,-8.84
552,167694787,0.5063,-0.7998,-0.1333,-16.59,0.98,-8.72
553,167699834,0.5122,-0.7988,-0.1465,-16.10,0.98,-8.66
554,167704787,0.5161,-0.8047,-0.1328,-15.37,0.79,-8.60
555,167709789,0.5161,-0.8101,-0.1372,-14.70,0.55,-8.41
556,167714785,0.5161,-0.8091,-0.1372,-13.96,0.49,-8.29
557,167719785,0.5171,-0.8081,-0.1426,-13.23,0.43,-7.99
558,167724787,0.5171,-0.8027,-0.1396,-12.56,0.12,-7.99
559,167729788,0.5132,-0.8037,-0.1401,-12.20,0.24,-7.80
560,167734787,0.5137,-0.8101,-0.1426,-11.71,0.00,-7.68
561,167739785,0.5161,-0.8057,-0.1475,-11.65,-0.12,-7.50
562,167744787,0.5181,-0.8071,-0.1504,-11.59,-0.06,-7.32
563,167749788,0.5181,-0.8057,-0.1426,-11.65,-0.18,-7.20
564,167754787,0.5229,-0.8066,-0.1523,-11.65,-0.24,-7.07
565,167759786,0.5269,-0.8057,-0.1494,-11.77,-0.49,-6.89
566,167764787,0.5283,-0.8091,-0.1587,-12.07,-0.55,-6.95
567,167769787,0.5298,-0.8071,-0.1562,-12.13,-0.61,-6.77
568,167774787,0.5288,-0.8071,-0.1548,-12.32,-0.61,-6.83
569,167779788,0.5327,-0.8081,-0.1650,-12.56,-0.85,-6.77
570,167784787,0.5332,-0.8027,-0.1694,-12.99,-0.98,-6.65
571,167789788,0.5386,-0.8047,-0.1631,-13.35,-0.91,-6.65
572,167794787,0.5391,-0.8018,-0.1665,-13.90,-0.91,-6.59
573,167799786,0.5376,-0.8066,-0.1660,-14.63,-0.85,-6.59
574,167804787,0.5376,-0.8022,-0.1670,-15.61,-0.91,-6.71
575,167809787,0.5396,-0.8057,-0.1680,-16.46,-0.85,-6.71
576,167814787,0.5386,-0.7988,-0.1724,-17.32,-0.85,-6.65
577,167819785,0.5405,-0.7998,-0.1802,-18.29,-0.79,-6.83
578,167824877,0.5400,-0.7915,-0.1768,-19.27,-0.73,-6.89
579,167829789,0.5381,-0.7910,-0.1738,-20.00,-0.61,-7.01
580,167834786,0.5376,-0.7920,-0.1729,-20.79,-0.55,-7.20
581,167839787,0.5435,-0.7896,-0.1816,-21.34,-0.12,-7.20
582,167844786,0.5449,-0.7852,-0.1807,-21.65,-0.12,-7.44
583,167849785,0.5459,-0.7827,-0.1831,-22.13,-0.06,-7.38
584,167854787,0.5566,-0.7886,-0.1943,-22.56,0.18,-7.50
585,167859789,0.5449,-0.7861,-0.1699,-23.05,0.37,-7.62
586,167864786,0.5312,-0.7769,-0.1841,-23.78,0.73,-7.62
587,167869789,0.5400,-0.7817,-0.1860,-24.70,0.98,-7.62
588,167874786,0.5435,-0.7808,-0.1934,-25.91,1.46,-7.68
589,167879870,0.5249,-0.7588,-0.2041,-26.95,1.89,-7.80
590,167884968,0.5078,-0.7563,-0.2075,-27.56,2.32,-8.17
591,167889787,0.4868,-0.7910,-0.1704,-28.23,2.99,-8.48
592,167894787,0.4902,-0.7949,-0.1997,-29.70,3.60,-8.35
593,167899788,0.5171,-0.7622,-0.2480,-31.77,4.15,-8.11
594,167904787,0.5386,-0.7412,-0.2236,-33.23,4.39,-8.54
595,167909786,0.5493,-0.7563,-0.2134,-33.90,4.76,-8.84
596,167914787,0.5557,-0.7671,-0.2144,-34.09,5.06,-9.27
597,167919786,0.5635,-0.7671,-0.2080,-33.78,5.55,-9.57
598,167924785,0.5674,-0.7588,-0.2139,-32.87,5.85,-10.00
599,167929789,0.5737,-0.7573,-0.2114,-31.71,6.04,-10.24
600,167935866,0.5732,-0.7510,-0.2197,-30.00,6.34,-10.43
601,167939787,0.5693,-0.7559,-0.2124,-28.66,6.65,-10.55
602,167944789,0.5674,-0.7539,-0.2207,-26.89,7.01,-10.55
603,167950187,0.5679,-0.7412,-0.2256,-24.88,7.38,-10.49
604,167954787,0.5684,-0.7422,-0.2261,-23.41,7.56,-10.49
605,167959788,0.5664,-0.7446,-0.2266,-21.34,7.99,-10.49
606,167964787,0.5684,-0.7495,-0.2261,-19.39,8.48,-10.24
607,167969789,0.5752,-0.7441,-0.2305,-17.07,8.84,-10.00
608,167974788,0.5820,-0.7432,-0.2305,-15.37,8.96,-9.88
609,167980166,0.5840,-0.7383,-0.2334,-12.99,9.33,-9.70
610,167984787,0.5845,-0.7407,-0.2275,-11.34,9.33,-9.70
611,167989786,0.5845,-0.7412,-0.2285,-9.33,9.70,-9.45
612,167994789,0.5835,-0.7490,-0.2246,-7.68,9.88,-9.33
613,167999787,0.5913,-0.7344,-0.2300,-6.71,10.12,-9.02
614,168004787,0.5942,-0.7256,-0.2231,-5.85,10.18,-8.96
615,168009788,0.5957,-0.7280,-0.2144,-5.18,10.24,-8.78
616,168014787,0.5942,-0.7310,-0.2090,-4.57,10.43,-8.78
617,168019786,0.5991,-0.7319,-0.2100,-4.45,10.43,-8.72
618,168024785,0.6069,-0.7324,-0.2056,-4.27,10.55,-8.60
619,168029788,0.6016,-0.7324,-0.2036,-4.51,10.49,-8.48
620,168034787,0.6211,-0.7505,-0.2085,-5.12,10.06,-8.23
621,168039788,0.5991,-0.7310,-0.1953,-6.71,10.00,-7.62
622,168044787,0.5874,-0.6929,-0.1992,-8.41,9.88,-7.50
623,168049785,0.5815,-0.6997,-0.2036,-10.00,9.76,-7.68
624,168054906,0.5776,-0.7192,-0.1924,-11.22,9.63,-7.74
625,168059787,0.5850,-0.7275,-0.1968,-11.89,9.39,-7.74
626,168064786,0.5928,-0.7207,-0.1919,-12.44,9.02,-7.62
627,168069787,0.5981,-0.7178,-0.1909,-12.68,8.84,-7.56
628,168074786,0.5977,-0.7109,-0.1909,-12.93,8.54,-7.44
629,168080251,0.5908,-0.7188,-0.1831,-13.17,8.29,-7.26
630,168084787,0.5864,-0.7285,-0.1924,-13.54,8.23,-7.01
631,168089797,0.5918,-0.7080,-0.1885,-14.09,8.05,-6.59
632,168094786,0.5928,-0.7041,-0.1992,-14.57,7.74,-6.28
633,168099787,0.5879,-0.7095,-0.1958,-14.45,7.38,-6.22
634,168104786,0.5938,-0.7129,-0.1851,-13.96,7.20,-6.16
635,168109789,0.6016,-0.7129,-0.1846,-13.23,6.89,-6.10
636,168114786,0.5986,-0.7163,-0.1914,-12.56,6.65,-5.79
637,168119790,0.5918,-0.7080,-0.1899,-11.89,6.40,-5.73
638,168124785,0.5903,-0.7153,-0.1963,-11.34,6.10,-5.43
639,168129785,0.5952,-0.7119,-0.2002,-11.34,5.73,-4.94
640,168134787,0.5840,-0.6826,-0.1958,-11.34,5.43,-4.63
641,168139789,0.5776,-0.6763,-0.1890,-11.04,5.24,-4.76
642,168144786,0.5791,-0.6919,-0.1914,-10.43,5.00,-4.82
643,168149785,0.5811,-0.6973,-0.1968,-9.45,4.82,-4.70
644,168154785,0.5869,-0.6963,-0.1997,-8.41,4.51,-4.57
645,168159789,0.5894,-0.6924,-0.1919,-7.50,4.39,-4.27
646,168164786,0.5854,-0.6875,-0.2031,-6.71,3.96,-4.09
647,168169787,0.5864,-0.6870,-0.2012,-5.85,3.72,-3.78
648,168174818,0.5850,-0.6846,-0.2056,-5.18,3.41,-3.48
649,168179789,0.5820,-0.6826,-0.2065,-4.76,3.35,-3.05
650,168184786,0.5762,-0.6934,-0.1968,-4.70,3.41,-2.50
651,168189858,0.5742,-0.6636,-0.2061,-5.00,3.17,-2.07
652,168194790,0.5630,-0.6592,-0.2163,-5.30,3.05,-1.95
653,168199787,0.5630,-0.6655,-0.2090,-5.73,2.68,-1.89
654,168204787,0.5630,-0.6753,-0.1968,-6.10,2.74,-1.71
655,168209788,0.5664,-0.6719,-0.1997,-6.22,2.38,-1.46
656,168214787,0.5698,-0.6699,-0.2065,-6.28,2.07,-1.34
657,168220152,0.5728,-0.6714,-0.2036,-6.46,1.83,-1.10
658,168224788,0.5713,-0.6675,-0.2051,-6.59,1.46,-0.85
659,168229785,0.5615,-0.6812,-0.2031,-7.07,1.22,-0.61
660,168234787,0.5605,-0.6704,-0.2227,-7.93,0.98,-0.06
661,168239786,0.5635,-0.6636,-0.2285,-9.02,0.43,0.06
662,168244787,0.5552,-0.6694,-0.2305,-9.94,-0.30,0.06
663,168249787,0.5361,-0.6929,-0.2295,-11.10,-0.79,-0.06
664,168254787,0.5430,-0.6982,-0.2183,-12.56,-1.34,-0.06
665,168260313,0.5566,-0.6865,-0.2314,-14.02,-2.07,-0.18
666,168264788,0.5645,-0.6899,-0.2231,-15.30,-2.68,-0.55
667,168269787,0.5576,-0.6909,-0.2319,-17.01,-3.35,-0.73
668,168274787,0.5562,-0.6812,-0.2544,-18.66,-3.96,-1.10
669,168279786,0.5527,-0.7065,-0.2583,-20.79,-4.76,-1.77
670,168284787,0.5352,-0.7139,-0.2676,-22.74,-5.98,-2.50
671,168289787,0.5400,-0.7090,-0.2612,-25.24,-7.07,-3.35
672,168294787,0.5386,-0.6968,-0.2778,-27.38,-8.41,-4.57
673,168299785,0.5298,-0.7026,-0.2803,-30.12,-9.94,-5.85
674,168304788,0.5327,-0.7368,-0.2881,-33.23,-11.59,-7.44
675,168309787,0.5049,-0.7241,-0.2964,-37.44,-13.54,-8.66
676,168314786,0.4341,-0.6660,-0.3105,-42.62,-15.30,-10.37
677,168319787,0.4473,-0.6812,-0.2788,-48.84,-17.20,-12.74
678,168324786,0.5024,-0.7349,-0.2515,-55.06,-18.60,-14.57
679,168329785,0.6162,-0.8218,-0.2573,-61.22,-20.12,-15.85
680,168334785,0.6816,-0.7656,-0.3188,-66.46,-21.77,-16.46
681,168340047,0.7051,-0.6958,-0.2959,-70.98,-22.93,-17.38
682,168344787,0.6816,-0.6831,-0.2798,-74.82,-23.54,-18.54
683,168349883,0.6514,-0.6948,-0.3242,-77.93,-23.96,-19.63
684,168354787,0.6230,-0.6802,-0.3496,-80.24,-24.39,-20.67
685,168359922,0.5972,-0.6694,-0.3525,-81.65,-24.88,-21.77
686,168364787,0.5825,-0.6758,-0.3657,-82.32,-25.30,-22.74
687,168369790,0.5308,-0.5542,-0.3950,-82.44,-25.61,-23.54
688,168374787,0.5000,-0.4644,-0.3066,-83.48,-25.91,-24.76
689,168379785,0.5229,-0.5610,-0.2842,-85.37,-25.61,-25.49
690,168384789,0.5381,-0.6934,-0.3853,-87.26,-25.67,-25.43
691,168389787,0.5483,-0.7861,-0.4175,-88.60,-25.73,-24.88
692,168394787,0.5713,-0.6680,-0.3960,-89.76,-25.24,-24.88
693,168399785,0.5874,-0.5464,-0.4619,-90.30,-25.06,-25.24
694,168404789,0.5913,-0.4912,-0.5068,-90.12,-25.06,-25.67
695,168409787,0.5938,-0.5161,-0.4751,-89.82,-25.00,-26.04
696,168414787,0.5991,-0.5879,-0.4497,-89.09,-24.45,-26.34
697,168419787,0.5942,-0.6548,-0.4741,-88.11,-24.21,-26.52
698,168424787,0.5967,-0.6841,-0.4849,-86.77,-23.72,-26.77
699,168429785,0.6006,-0.6533,-0.4692,-85.37,-23.35,-27.20
700,168434785,0.6045,-0.5923,-0.4731,-83.84,-22.93,-27.68
701,168439787,0.6172,-0.5508,-0.4941,-82.20,-22.56,-28.23
702,168444787,0.6250,-0.5435,-0.4824,-80.61,-22.38,-28.90
703,168449787,0.6294,-0.5728,-0.4678,-78.78,-21.71,-29.57
704,168454787,0.6431,-0.6221,-0.4741,-76.83,-21.16,-29.94
705,168459788,0.6548,-0.6426,-0.4795,-74.94,-20.37,-30.30
706,168464787,0.6548,-0.6284,-0.4849,-72.80,-19.63,-30.79
707,168470025,0.6616,-0.6094,-0.4849,-69.88,-18.54,-31.40
708,168474787,0.6650,-0.5669,-0.4971,-67.80,-17.93,-31.77
709,168479788,0.6714,-0.5605,-0.5005,-65.18,-16.77,-32.32
710,168484787,0.6787,-0.5645,-0.5020,-62.26,-15.49,-32.74
711,168489787,0.6841,-0.5684,-0.5039,-59.09,-14.39,-32.93
712,168494787,0.6919,-0.5747,-0.5044,-55.85,-12.99,-33.17
713,168499785,0.6973,-0.5737,-0.5083,-52.20,-11.77,-33.23
714,168504789,0.7021,-0.5576,-0.5088,-48.48,-10.30,-33.41
715,168509849,0.6890,-0.5312,-0.5156,-44.76,-8.60,-33.48
716,168514786,0.6841,-0.5161,-0.5132,-41.46,-6.71,-33.60
717,168519789,0.6772,-0.5005,-0.5054,-38.66,-4.82,-33.60
718,168524786,0.6777,-0.4922,-0.5078,-36.40,-2.87,-33.72
719,168529785,0.6826,-0.4917,-0.5088,-34.76,-0.61,-33.72
720,168534787,0.6934,-0.4937,-0.4980,-33.35,1.34,-33.66
721,168539785,0.7168,-0.4985,-0.4902,-32.32,3.41,-33.60
722,168544789,0.7178,-0.4917,-0.4990,-31.83,5.12,-33.41
723,168549788,0.7061,-0.4712,-0.5029,-31.71,6.77,-33.54
724,168554787,0.6274,-0.4199,-0.4731,-31.52,8.72,-33.96
725,168559787,0.6987,-0.4453,-0.4565,-31.52,10.55,-34.45
726,168564787,0.6616,-0.4717,-0.5176,-31.89,12.26,-34.63
727,168569787,0.6753,-0.4351,-0.4487,-31.89,14.02,-34.88
728,168574787,0.6851,-0.4365,-0.4316,-32.50,15.98,-35.24
729,168579787,0.6909,-0.4775,-0.4482,-33.29,17.74,-35.55
730,168584825,0.7163,-0.4717,-0.4404,-34.21,19.33,-35.79
731,168589923,0.7329,-0.4639,-0.4082,-35.30,21.22,-36.34
732,168594787,0.7598,-0.4609,-0.4102,-36.40,22.80,-36.77
733,168599786,0.7822,-0.4541,-0.4272,-37.93,24.21,-37.32
734,168604785,0.8022,-0.4541,-0.3984,-39.57,25.61,-37.74
735,168609789,0.8208,-0.4595,-0.3765,-41.28,26.71,-38.23
736,168614786,0.8447,-0.4727,-0.3804,-43.17,28.17,-38.41
737,168619787,0.8633,-0.4805,-0.3711,-45.18,29.27,-38.41
738,168624786,0.8423,-0.4717,-0.3730,-47.50,30.37,-38.54
739,168629789,0.8340,-0.4536,-0.3765,-49.82,31.77,-38.66
740,168634786,0.8218,-0.4189,-0.3804,-52.50,32.99,-38.78
741,168639785,0.8164,-0.3994,-0.3823,-55.18,34.27,-39.02
742,168644787,0.8081,-0.3911,-0.3750,-57.99,35.43,-39.09
743,168649789,0.8018,-0.3901,-0.3809,-60.73,36.65,-39.09
744,168654786,0.8047,-0.3906,-0.3896,-63.54,37.44,-38.90
745,168659787,0.8022,-0.3843,-0.3945,-66.16,38.35,-38.78
746,168664786,0.8052,-0.3794,-0.3911,-68.90,39.02,-38.41
747,168669785,0.8071,-0.3760,-0.4023,-71.59,39.45,-37.87
748,168674789,0.8052,-0.3760,-0.4033,-74.21,39.82,-37.38
749,168679787,0.8091,-0.3691,-0.4048,-76.95,39.94,-36.65
750,168684787,0.8032,-0.3604,-0.4092,-79.45,39.94,-35.79
751,168689788,0.7993,-0.3418,-0.4131,-82.01,39.70,-35.06
752,168694787,0.7915,-0.3267,-0.4233,-84.33,39.15,-34.39
753,168699787,0.7808,-0.3081,-0.4116,-86.89,38.66,-33.54
754,168704787,0.7578,-0.2944,-0.4141,-89.39,38.29,-32.68
755,168709785,0.7319,-0.2769,-0.4243,-91.89,37.38,-32.13
756,168714789,0.7446,-0.2769,-0.4282,-94.27,36.65,-31.34
757,168719786,0.7363,-0.2646,-0.4326,-96.71,35.79,-30.30
758,168724789,0.7231,-0.2471,-0.4312,-99.21,34.94,-29.45
759,168729928,0.6968,-0.2295,-0.4375,-101.77,34.02,-28.48
760,168734787,0.6724,-0.2026,-0.4370,-104.21,32.87,-27.50
761,168739785,0.6455,-0.1777,-0.4146,-106.52,32.07,-26.77
762,168744785,0.6377,-0.1567,-0.4219,-108.66,31.28,-26.04
763,168749788,0.6348,-0.1387,-0.4326,-110.49,30.37,-25.18
764,168754787,0.6377,-0.1265,-0.4395,-112.01,29.39,-24.45
765,168759844,0.6631,-0.1157,-0.4414,-112.93,28.29,-23.48
766,168764785,0.6870,-0.1182,-0.4541,-113.17,27.38,-22.50
767,168769789,0.7246,-0.1240,-0.4800,-112.38,26.10,-21.28
768,168774787,0.7827,-0.1279,-0.4893,-110.49,25.06,-19.94
769,168779789,0.8569,-0.1440,-0.5132,-107.13,23.84,-18.29
770,168784786,0.9653,-0.1743,-0.5347,-101.89,22.68,-16.40
771,168789785,1.0283,-0.2056,-0.5166,-94.70,21.71,-14.21
772,168794787,1.0063,-0.2397,-0.4648,-85.12,20.91,-11.71
773,168799786,1.0249,-0.2642,-0.4424,-75.85,20.61,-9.09
774,168804789,1.0073,-0.2705,-0.4644,-64.88,20.55,-6.52
775,168809786,0.9648,-0.2661,-0.4297,-52.93,20.67,-3.90
776,168814787,0.9199,-0.2593,-0.3926,-40.30,21.46,-1.59
777,168819788,0.8511,-0.2192,-0.4316,-27.26,22.20,0.24
778,168824787,0.7739,-0.1348,-0.4937,-14.45,22.26,1.28
779,168829787,0.7061,-0.0405,-0.4956,-1.77,22.07,1.04
780,168834787,0.6616,-0.0083,-0.4365,10.61,22.32,-0.18
781,168839785,0.6641,-0.0381,-0.3999,22.62,23.41,-1.28
782,168844785,0.6743,-0.0649,-0.4292,33.84,24.76,-2.01
783,168850269,0.6743,-0.0776,-0.4585,44.02,25.79,-2.20
784,168854788,0.6787,-0.0781,-0.4717,52.38,26.28,-1.95
785,168859787,0.6860,-0.0674,-0.4614,58.90,26.40,-1.52
786,168864787,0.6958,-0.0435,-0.4517,63.35,26.52,-1.10
787,168869785,0.6982,-0.0249,-0.4756,65.98,26.34,-0.49
788,168874788,0.6963,-0.0132,-0.4819,66.71,25.49,0.00
789,168879787,0.7026,-0.0117,-0.4844,66.04,24.82,0.55
790,168884787,0.7095,-0.0205,-0.4810,63.96,24.09,1.34
791,168889787,0.7148,-0.0298,-0.4951,60.91,23.17,2.20
792,168894787,0.7144,-0.0269,-0.5190,57.80,22.32,2.93
793,168899787,0.7070,-0.0317,-0.5269,53.11,21.59,3.66
794,168904787,0.6948,-0.0278,-0.5352,47.44,20.91,4.21
795,168909788,0.6836,-0.0171,-0.5288,41.22,20.37,4.57
796,168914787,0.6777,-0.0239,-0.5142,34.27,20.06,4.51
797,168919792,0.6680,-0.0317,-0.4995,26.89,19.88,4.33
798,168924872,0.6460,-0.0596,-0.5098,18.05,19.94,3.66
799,168929788,0.6450,-0.0811,-0.4980,12.13,19.76,3.41
800,168934790,0.6655,-0.1055,-0.4946,5.12,19.63,2.87
801,168940161,0.6855,-0.1304,-0.5054,-2.93,19.76,2.38
802,168944787,0.6743,-0.1440,-0.5322,-8.23,19.88,2.01
803,168949785,0.7002,-0.1523,-0.5449,-15.43,19.94,1.46
804,168954790,0.7217,-0.1523,-0.5264,-19.94,20.00,1.22
805,168959786,0.7349,-0.1455,-0.5493,-25.30,20.37,0.55
806,168964788,0.7393,-0.1465,-0.5596,-30.37,20.61,-0.06
807,168969787,0.7358,-0.1416,-0.5557,-34.88,21.22,-0.85
808,168974787,0.7637,-0.1338,-0.5474,-38.90,21.95,-1.46
809,168979785,0.7671,-0.1313,-0.5547,-43.29,22.87,-2.44
810,168984788,0.7744,-0.1357,-0.5605,-45.85,23.41,-2.99
811,168989787,0.7769,-0.1313,-0.5542,-48.60,24.21,-3.60
812,168994788,0.7876,-0.1191,-0.5488,-51.10,25.30,-4.21
813,168999787,0.7969,-0.1089,-0.5405,-52.99,26.40,-4.70
814,169004787,0.8018,-0.1021,-0.5396,-54.39,27.20,-5.00
815,169009785,0.8052,-0.0859,-0.5366,-55.61,28.29,-5.37
816,169014789,0.8115,-0.0854,-0.5352,-56.40,29.45,-5.61
817,169019787,0.8091,-0.0752,-0.5303,-57.01,30.55,-5.61
818,169024787,0.8154,-0.0688,-0.5322,-57.32,31.65,-5.37
819,169029787,0.8149,-0.0684,-0.5503,-57.32,32.68,-5.24
820,169034787,0.8208,-0.0679,-0.5713,-57.32,33.48,-4.70
821,169039787,0.8188,-0.0537,-0.5317,-57.13,34.27,-4.02
822,169044787,0.8159,-0.0342,-0.5327,-56.95,35.37,-3.35
823,169050283,0.8140,-0.0137,-0.5166,-56.77,36.34,-2.56
824,169054787,0.8154,0.0039,-0.5015,-56.65,37.20,-2.01
825,169059842,0.8096,0.0142,-0.5010,-56.71,38.35,-1.28
826,169064788,0.8154,0.0215,-0.4927,-56.83,39.45,-0.43
827,169069787,0.8047,0.0273,-0.4927,-57.13,40.18,0.37
828,169074787,0.8027,0.0317,-0.4741,-57.56,40.67,1.22
829,169079787,0.8149,0.0435,-0.4609,-58.29,41.28,2.26
830,169084788,0.8218,0.0771,-0.4341,-60.00,41.46,3.23
831,169089787,0.8428,0.1313,-0.3867,-65.30,40.91,4.63
832,169094787,0.8564,0.1772,-0.3496,-74.39,39.88,6.28
833,169099787,0.8687,0.2090,-0.2998,-86.89,38.29,8.54
834,169104787,0.8853,0.2173,-0.2832,-101.10,36.16,11.22
835,169109787,0.8882,0.2192,-0.2749,-115.37,33.96,13.96
836,169114788,0.8838,0.2095,-0.2656,-128.17,31.83,17.20
837,169119788,0.8750,0.1924,-0.2646,-138.35,29.82,20.18
838,169124787,0.8677,0.1665,-0.2803,-145.61,28.17,23.17
839,169129785,0.8579,0.1362,-0.3159,-150.06,26.77,25.67
840,169134788,0.8438,0.1279,-0.3320,-151.83,25.43,27.93
841,169139786,0.8389,0.1133,-0.3462,-151.28,24.09,30.06
842,169144788,0.8311,0.1030,-0.3516,-149.63,23.23,31.10
843,169149787,0.8164,0.0923,-0.3550,-146.89,22.07,32.32
844,169154787,0.8042,0.0918,-0.3457,-143.29,21.10,33.17
845,169159787,0.7998,0.0874,-0.3291,-139.39,20.12,33.72
846,169164787,0.7988,0.0859,-0.3208,-135.30,19.02,34.27
847,169169787,0.7959,0.0752,-0.2998,-131.16,18.11,34.57
848,169174787,0.7939,0.0688,-0.2959,-127.26,17.01,35.00
849,169179787,0.7969,0.0635,-0.2886,-123.35,16.04,35.43
850,169184787,0.8022,0.0659,-0.2964,-119.94,14.76,35.73
851,169189786,0.8076,0.0713,-0.3057,-116.89,13.48,36.22
852,169194791,0.8091,0.0752,-0.3032,-113.72,12.13,36.59
853,169199788,0.8086,0.0781,-0.2959,-110.79,10.67,37.13
854,169204788,0.8018,0.0879,-0.2988,-108.11,9.15,37.44
855,169209785,0.8003,0.0923,-0.3003,-105.43,7.68,37.87
856,169214785,0.7910,0.1021,-0.2959,-102.93,6.16,38.05
857,169219789,0.7905,0.0967,-0.3008,-100.73,4.45,38.29
858,169224789,0.7896,0.0972,-0.3091,-98.54,2.74,38.54
859,169229787,0.7983,0.0869,-0.3086,-96.65,1.04,38.84
860,169234787,0.8086,0.0786,-0.3110,-94.94,-0.73,39.09
861,169239787,0.8208,0.0703,-0.3120,-93.60,-2.38,39.21
862,169244788,0.8394,0.0649,-0.3188,-92.32,-3.96,39.45
863,169249785,0.8516,0.0581,-0.3164,-91.10,-5.18,39.51
864,169254895,0.8696,0.0454,-0.3188,-89.88,-6.52,39.63
865,169259787,0.8848,0.0352,-0.3228,-88.60,-7.50,39.88
866,169264788,0.8989,0.0220,-0.3276,-86.89,-8.48,40.18
867,169269787,0.9136,0.0093,-0.3477,-85.06,-9.15,40.43
868,169274787,0.9180,0.0039,-0.3550,-82.74,-9.76,40.43
869,169279787,0.9238,-0.0103,-0.3618,-80.18,-10.18,40.49
870,169284788,0.9248,-0.0171,-0.3833,-77.50,-10.67,40.61
871,169289787,0.9272,-0.0117,-0.3833,-75.12,-11.10,40.61
872,169294788,0.9219,-0.0273,-0.3716,-73.11,-11.34,40.43
873,169299787,0.9102,-0.0391,-0.3677,-71.16,-11.52,40.18
874,169304787,0.9146,-0.0542,-0.3643,-69.63,-11.77,40.06
875,169309945,0.9302,-0.0640,-0.3608,-68.05,-11.83,39.88
876,169314787,0.9512,-0.0776,-0.3813,-66.34,-11.95,39.70
877,169319785,0.9629,-0.0894,-0.3931,-64.76,-12.13,39.45
878,169324787,0.9800,-0.0942,-0.3892,-62.99,-12.26,39.21
879,169329788,0.9888,-0.1025,-0.3774,-61.34,-11.95,38.78
880,169334787,0.9941,-0.1094,-0.3735,-59.76,-11.83,38.48
881,169339787,0.9839,-0.1108,-0.3750,-58.41,-11.52,38.05
882,169344787,0.9736,-0.1040,-0.3643,-57.32,-10.98,37.62
883,169349789,0.9565,-0.1021,-0.3501,-56.22,-10.30,37.13
884,169354787,0.9473,-0.0981,-0.3516,-55.43,-9.70,36.71
885,169359785,0.9302,-0.0977,-0.3486,-54.82,-8.90,36.10
886,169364789,0.9155,-0.0942,-0.3447,-54.33,-8.05,35.49
887,169369787,0.8984,-0.1040,-0.3418,-53.96,-7.56,34.88
888,169374787,0.8901,-0.1045,-0.3428,-53.72,-7.01,34.39
889,169379785,0.8735,-0.1094,-0.3486,-53.54,-6.28,33.84
890,169384789,0.8618,-0.1138,-0.3491,-53.23,-5.98,33.29
891,169389786,0.8506,-0.1172,-0.3472,-53.05,-5.85,32.99
892,169394785,0.8486,-0.1167,-0.3467,-52.56,-5.85,32.50
893,169399786,0.8457,-0.1177,-0.3608,-52.26,-6.04,32.07
894,169404788,0.8516,-0.1152,-0.3608,-51.52,-6.28,31.83
895,169409787,0.8633,-0.1440,-0.3716,-50.91,-6.83,31.83
896,169414786,0.8481,-0.1084,-0.3652,-50.00,-7.32,31.71
897,169419785,0.8438,-0.0972,-0.3628,-49.09,-7.74,31.59
898,169424788,0.8477,-0.0972,-0.3594,-47.62,-8.17,31.40
899,169429787,0.8560,-0.0879,-0.3525,-45.73,-8.23,31.22
900,169434787,0.8594,-0.0728,-0.3394,-43.48,-8.23,31.04
901,169439786,0.8594,-0.0635,-0.3311,-40.49,-7.80,30.67
902,169444787,0.8687,-0.0640,-0.3369,-36.95,-7.20,30.49
903,169449787,0.8667,-0.0576,-0.3398,-32.93,-6.52,30.12
904,169454787,0.8574,-0.0552,-0.3379,-28.41,-5.79,29.82
905,169459786,0.8457,-0.0557,-0.3467,-23.60,-5.37,29.27
906,169464787,0.8350,-0.0640,-0.3774,-18.17,-5.12,28.72
907,169469787,0.8149,-0.1069,-0.4941,-12.68,-4.88,28.17
908,169474787,0.8198,-0.1235,-0.5039,-7.68,-5.18,27.62
909,169479785,0.8486,-0.1304,-0.4224,-2.93,-4.82,26.83
910,169484787,0.9019,-0.1562,-0.4180,1.28,-4.15,26.22
911,169489787,0.9121,-0.1675,-0.4360,4.57,-3.72,25.67
912,169494788,0.8770,-0.1802,-0.4473,7.32,-3.29,25.30
913,169499786,0.8452,-0.1714,-0.4580,9.02,-2.80,24.63
914,169504787,0.8398,-0.1504,-0.4702,9.82,-2.50,24.02
915,169509787,0.8408,-0.1250,-0.4785,9.57,-2.07,23.35
916,169514787,0.8364,-0.1094,-0.4668,8.17,-1.71,22.56
917,169519786,0.8228,-0.1006,-0.4521,5.55,-1.16,22.01
918,169524788,0.8149,-0.0796,-0.4302,1.04,-1.10,21.34
919,169529787,0.8110,-0.0693,-0.4131,-5.79,-1.10,21.04
920,169534787,0.8057,-0.0586,-0.3911,-14.51,-1.52,20.67
921,169539786,0.8057,-0.0420,-0.3794,-24.45,-2.26,20.67
922,169544787,0.8091,-0.0464,-0.3936,-34.70,-3.17,20.49
923,169550263,0.8198,-0.0581,-0.4053,-46.40,-4.33,20.79
924,169554788,0.8208,-0.0620,-0.4219,-53.05,-5.12,20.98
925,169559786,0.8164,-0.0679,-0.4404,-59.70,-6.16,21.16
926,169564785,0.8242,-0.0879,-0.4453,-64.76,-7.26,21.34
927,169569789,0.8354,-0.1104,-0.4658,-67.50,-7.93,21.59
928,169574786,0.8418,-0.1279,-0.4771,-68.23,-8.60,22.01
929,169579787,0.8369,-0.1260,-0.4951,-67.26,-9.02,22.13
930,169584787,0.8354,-0.1162,-0.5146,-64.63,-9.51,22.44
931,169589785,0.8315,-0.1069,-0.5200,-60.91,-9.70,22.62
932,169594789,0.8267,-0.1030,-0.5068,-56.83,-9.88,23.05
933,169599787,0.8208,-0.0952,-0.4912,-52.26,-9.88,23.35
934,169604787,0.8154,-0.0820,-0.4912,-48.11,-9.88,23.72
935,169609788,0.8110,-0.0698,-0.4814,-44.45,-10.12,24.27
936,169614788,0.8037,-0.0562,-0.4600,-41.59,-10.06,24.88
937,169619786,0.7983,-0.0464,-0.4438,-39.70,-10.55,25.55
938,169624789,0.8018,-0.0391,-0.4331,-38.84,-10.85,26.16
939,169629786,0.7959,-0.0293,-0.4165,-39.09,-11.46,26.95
940,169634789,0.7993,-0.0347,-0.4072,-40.12,-12.32,27.99
941,169639787,0.7954,-0.0312,-0.4023,-41.59,-13.23,29.09
942,169644787,0.7974,-0.0425,-0.4048,-43.23,-13.96,30.49
943,169649786,1.0713,-0.4556,-0.4561,-44.21,-15.37,35.24
944,169654787,0.7891,0.3413,-0.4688,-44.51,-17.38,42.07
945,169659786,0.6587,0.2417,-0.5894,-46.16,-20.12,43.17
946,169664785,0.6890,0.0122,-0.4707,-47.32,-22.56,43.72
947,169669787,0.7612,-0.0815,-0.3730,-46.77,-23.84,44.51
948,169674787,0.7866,-0.0918,-0.4409,-44.45,-24.76,45.00
949,169679787,0.8101,-0.0752,-0.5044,-40.85,-26.04,45.49
950,169684786,0.8193,-0.0254,-0.4766,-36.34,-26.65,45.98
951,169689785,0.8257,0.0049,-0.4648,-31.52,-27.20,46.28
952,169694789,0.8252,0.0205,-0.5005,-26.59,-27.74,46.59
953,169699806,0.8159,0.0396,-0.5454,-22.62,-28.29,46.59
954,169704789,0.7920,-0.0171,-0.4692,-19.88,-28.60,46.34
955,169709787,0.7705,-0.0522,-0.4185,-17.38,-28.60,46.04
956,169714786,0.8013,-0.0425,-0.4482,-15.49,-28.72,45.85
957,169719788,0.8223,-0.0195,-0.4907,-13.84,-29.09,45.24
958,169724786,0.8115,-0.0122,-0.4858,-12.44,-29.57,44.51
959,169729785,0.7939,-0.0044,-0.4600,-11.16,-29.57,43.48
960,169734787,0.7812,-0.0029,-0.4639,-9.88,-29.21,42.26
961,169740451,0.7798,-0.0039,-0.4814,-8.90,-28.48,40.67
962,169744788,0.7803,0.0039,-0.5249,-8.72,-27.87,39.33
963,169749787,0.7705,-0.0229,-0.5225,-9.21,-26.89,37.56
964,169754788,0.7651,-0.0562,-0.4819,-10.00,-25.61,35.73
965,169759787,0.7700,-0.0781,-0.4961,-11.04,-24.02,34.09
966,169764787,0.7871,-0.0825,-0.5273,-12.38,-22.62,32.68
967,169769787,0.7939,-0.0811,-0.5542,-13.78,-21.52,31.34
968,169774787,0.7866,-0.0874,-0.5557,-15.49,-20.91,30.30
969,169779787,0.7822,-0.0874,-0.5576,-17.62,-20.43,29.39
970,169784787,0.7861,-0.0869,-0.5635,-20.00,-20.12,28.66
971,169789787,0.7866,-0.0854,-0.5728,-22.62,-20.06,27.93
972,169794787,0.7930,-0.0845,-0.5708,-25.30,-20.06,27.44
973,169799787,0.8066,-0.0830,-0.5674,-27.87,-20.18,27.01
974,169804838,0.8184,-0.0830,-0.5723,-30.37,-20.00,26.77
975,169809787,0.8179,-0.0854,-0.5728,-32.87,-20.12,26.40
976,169814787,0.8179,-0.0767,-0.5615,-34.94,-19.88,26.46
977,169819787,0.8145,-0.0747,-0.5596,-36.89,-19.51,26.46
978,169824787,0.8081,-0.0669,-0.5562,-38.54,-18.96,26.34
979,169829785,0.8052,-0.0625,-0.5493,-40.06,-18.29,26.40
980,169834787,0.7993,-0.0610,-0.5454,-41.22,-17.56,26.34
981,169839787,0.7944,-0.0547,-0.5342,-42.01,-16.71,26.22
982,169844787,0.7920,-0.0532,-0.5449,-42.50,-15.79,25.79
983,169849787,0.7900,-0.0591,-0.5376,-42.80,-14.94,25.12
984,169854787,0.7886,-0.0718,-0.5332,-42.80,-14.02,24.21
985,169859787,0.7856,-0.0869,-0.5371,-42.68,-13.29,23.35
986,169864787,0.7842,-0.1045,-0.5454,-42.32,-12.38,22.56
987,169869809,0.7817,-0.1128,-0.5503,-42.01,-11.59,21.95
988,169874788,0.7769,-0.1328,-0.5518,-41.83,-11.16,21.65
989,169879787,0.7759,-0.1499,-0.5679,-41.77,-10.61,21.77
990,169884787,0.7661,-0.1445,-0.5698,-41.71,-10.43,22.56
991,169889787,0.7573,-0.1362,-0.5796,-41.95,-10.24,23.48
992,169894843,0.7432,-0.1074,-0.5757,-42.32,-10.61,24.94
993,169899787,0.7295,-0.0942,-0.5664,-42.80,-10.67,25.61
994,169904788,0.7139,-0.1006,-0.5415,-43.48,-10.91,26.59
995,169909787,0.7056,-0.1030,-0.5303,-44.02,-11.28,27.44
996,169914787,0.7124,-0.1055,-0.5278,-44.15,-11.46,28.23
997,169920320,0.7144,-0.1035,-0.5181,-44.21,-11.59,29.15
998,169924787,0.7153,-0.0986,-0.5112,-43.90,-11.77,29.70
999,169929787,0.7280,-0.0967,-0.5034,-43.35,-11.83,30.30
1000,169934788,0.7295,-0.0928,-0.5029,-42.62,-11.77,30.67
1001,169939787,0.7339,-0.0938,-0.5005,-41.59,-11.71,30.98
1002,169944787,0.7373,-0.1001,-0.4971,-40.49,-11.83,31.10
1003,169949787,0.7397,-0.1216,-0.5112,-39.21,-12.20,31.22
1004,169954787,0.7324,-0.1475,-0.5410,-37.80,-12.80,31.77
1005,169959787,0.7300,-0.0923,-0.4756,-35.91,-13.48,32.20
1006,169964787,0.7397,-0.0674,-0.4541,-34.21,-13.41,32.07
1007,169969787,0.7446,-0.0815,-0.4536,-32.13,-13.23,31.28
1008,169974787,0.7500,-0.1001,-0.4639,-30.00,-12.74,30.85
1009,169979787,0.7588,-0.0962,-0.4727,-27.80,-12.74,30.30
1010,169984787,0.7607,-0.0918,-0.4751,-25.43,-12.68,29.76
1011,169989787,0.7646,-0.0918,-0.4614,-23.23,-12.62,29.27
1012,169994787,0.7583,-0.0889,-0.4614,-21.16,-12.62,28.72
1013,169999787,0.7637,-0.0840,-0.4526,-19.33,-12.50,28.17
1014,170004787,0.7622,-0.0850,-0.4526,-17.68,-12.68,27.74
1015,170009787,0.7607,-0.1108,-0.4741,-16.22,-12.93,27.26
1016,170014788,0.7485,-0.1284,-0.5161,-15.18,-13.48,26.95
1017,170019787,0.7490,-0.1167,-0.4907,-14.57,-13.96,26.65
1018,170024787,0.7466,-0.1045,-0.4546,-13.66,-14.33,26.65
1019,170030239,0.7632,-0.0781,-0.4692,-12.26,-14.76,26.65
1020,170034788,0.7583,-0.0728,-0.4839,-11.28,-14.94,26.77
1021,170039787,0.7598,-0.0771,-0.4790,-9.88,-15.43,27.01
1022,170044787,0.7661,-0.0742,-0.4756,-8.17,-15.67,27.26
1023,170049787,0.7803,-0.0664,-0.4756,-5.91,-15.79,27.68
1024,170054787,0.7881,-0.0601,-0.4893,-3.29,-15.98,28.17
1025,170059787,0.7974,-0.0562,-0.4927,-0.30,-16.10,28.54
1026,170064787,0.8003,-0.0566,-0.4995,3.11,-16.34,29.02
1027,170069785,0.8096,-0.0586,-0.4971,6.65,-16.34,29.51
1028,170074787,0.8164,-0.0596,-0.5015,10.37,-16.46,29.88
1029,170079787,0.8110,-0.0596,-0.5039,14.27,-16.52,30.30
1030,170084787,0.8066,-0.0591,-0.5107,17.93,-16.46,30.85
1031,170089787,0.8018,-0.0610,-0.5054,21.40,-16.59,31.40
1032,170094787,0.8037,-0.0674,-0.4966,24.51,-16.40,31.95
1033,170099787,0.7949,-0.0698,-0.5078,27.44,-16.28,32.44
1034,170104787,0.8022,-0.0718,-0.5171,29.88,-16.16,33.11
1035,170109799,0.8027,-0.0708,-0.5181,32.01,-16.16,33.72
1036,170114787,0.8032,-0.0752,-0.5254,33.72,-16.10,34.15
1037,170119789,0.7988,-0.0815,-0.5190,34.70,-15.85,34.94
1038,170124786,0.7954,-0.0947,-0.5234,35.37,-15.61,35.55
1039,170129902,0.7959,-0.0996,-0.5220,35.49,-15.24,36.28
1040,170134786,0.7939,-0.1040,-0.5225,35.37,-15.00,36.65
1041,170139785,0.7944,-0.1177,-0.5308,34.76,-14.70,37.20
1042,170144789,0.7910,-0.1177,-0.5337,34.09,-14.45,37.62
1043,170150155,0.7910,-0.1279,-0.5405,33.17,-14.15,37.93
1044,170154787,0.7891,-0.1357,-0.5449,32.32,-13.78,38.35
1045,170159787,0.7871,-0.1396,-0.5464,31.34,-13.35,38.54
1046,170164787,0.7891,-0.1489,-0.5552,30.43,-13.05,38.90
1047,170169787,0.7759,-0.1465,-0.5522,29.57,-12.26,39.09
1048,170174787,0.7720,-0.1519,-0.5581,28.90,-11.71,39.21
1049,170179975,0.7676,-0.1592,-0.5591,28.23,-10.91,39.09
1050,170184787,0.7617,-0.1636,-0.5610,27.80,-10.12,38.90
1051,170189787,0.7505,-0.1714,-0.5664,27.44,-9.51,38.84
1052,170194790,0.7500,-0.1816,-0.5674,27.20,-8.72,38.48
1053,170199788,0.7485,-0.1943,-0.5669,27.07,-8.05,38.23
1054,170204787,0.7451,-0.2134,-0.5688,27.26,-7.38,37.93
1055,170209809,0.7432,-0.2173,-0.5757,27.44,-6.77,37.44
1056,170214788,0.7388,-0.2261,-0.5728,28.17,-6.04,36.83
1057,170219787,0.7300,-0.2256,-0.5786,29.02,-5.55,36.22
1058,170224787,0.7266,-0.2310,-0.5815,29.94,-4.88,35.55
1059,170229787,0.7168,-0.2339,-0.5747,31.04,-4.33,34.63
1060,170234787,0.7119,-0.2417,-0.5703,32.26,-3.84,33.90
1061,170240091,0.7124,-0.2393,-0.5605,33.72,-3.23,33.05
1062,170244788,0.7070,-0.2363,-0.5586,35.30,-2.62,32.07
1063,170249787,0.7031,-0.2427,-0.5576,37.01,-2.07,31.10
1064,170254787,0.7051,-0.2466,-0.5513,39.02,-1.46,30.00
1065,170259787,0.6992,-0.2461,-0.5410,41.04,-0.73,29.09
1066,170264787,0.6948,-0.2471,-0.5410,43.23,-0.18,27.87
1067,170269787,0.6919,-0.2407,-0.5439,45.06,0.43,26.46
1068,170274788,0.6851,-0.2422,-0.5356,47.01,1.28,25.06
1069,170279785,0.6904,-0.2549,-0.5195,48.48,1.95,23.23
1070,170284787,0.6865,-0.2705,-0.5347,49.88,2.80,21.52
1071,170289787,0.7188,-0.3203,-0.4893,50.61,3.29,19.82
1072,170294788,0.7402,-0.3540,-0.4873,51.16,3.96,18.17
1073,170299785,0.7461,-0.3516,-0.5059,51.04,4.27,16.59
1074,170304787,0.7295,-0.3193,-0.5215,50.98,4.15,14.94
1075,170309847,0.7021,-0.2974,-0.5225,50.85,4.33,13.05
1076,170314787,0.6704,-0.2803,-0.5298,50.61,4.21,11.16
1077,170319787,0.6494,-0.2651,-0.5200,49.94,4.02,9.33
1078,170324785,0.6577,-0.2412,-0.3877,48.35,3.84,7.44
1079,170329788,0.6699,-0.2368,-0.4575,47.01,3.84,5.98
1080,170334786,0.6841,-0.2261,-0.5361,44.02,3.11,4.57
1081,170339789,0.6958,-0.2642,-0.4663,39.94,2.20,3.35
1082,170344786,0.7051,-0.2607,-0.4419,35.43,1.40,2.50
1083,170349786,0.7168,-0.2314,-0.4839,30.61,0.55,1.83
1084,170354787,0.7261,-0.2158,-0.5054,26.10,-0.55,1.10
1085,170359786,0.7363,-0.2144,-0.5117,22.32,-1.28,0.67
1086,170364787,0.7437,-0.2256,-0.5029,19.15,-2.07,0.24
1087,170369786,0.7441,-0.2485,-0.5083,17.07,-2.56,0.12
1088,170374785,0.7422,-0.2607,-0.5244,16.04,-2.99,0.12
1089,170379785,0.7319,-0.2598,-0.5303,15.67,-3.23,-0.06
1090,170384785,0.7207,-0.2681,-0.5322,15.98,-3.60,0.00
1091,170389787,0.6953,-0.2666,-0.5347,17.20,-3.78,0.24
1092,170394787,0.6890,-0.2554,-0.5430,18.23,-3.96,0.37
1093,170399788,0.6880,-0.2700,-0.5352,19.45,-4.02,0.49
1094,170404787,0.6914,-0.2593,-0.5366,20.79,-4.27,0.73
1095,170409787,0.7031,-0.2510,-0.5342,21.89,-4.45,0.85
1096,170414785,0.7114,-0.2485,-0.5376,22.50,-4.88,0.98
1097,170419789,0.7124,-0.2583,-0.5371,22.68,-5.24,0.98
1098,170424787,0.7119,-0.2661,-0.5386,22.38,-5.37,0.91
1099,170429787,0.7080,-0.2827,-0.5352,21.95,-5.91,1.16
1100,170434787,0.7153,-0.2866,-0.5376,21.04,-6.16,1.34
1101,170439787,0.7188,-0.2822,-0.5366,19.94,-5.98,1.52
1102,170445032,0.7192,-0.2915,-0.5420,18.23,-6.16,1.77
1103,170449788,0.7158,-0.2944,-0.5449,17.07,-5.91,1.89
1104,170454787,0.7095,-0.2974,-0.5483,15.55,-5.98,2.07
1105,170459787,0.7046,-0.2974,-0.5498,14.02,-5.73,2.20
1106,170464787,0.7065,-0.3037,-0.5469,12.26,-5.61,2.32
1107,170469787,0.7021,-0.3091,-0.5498,10.61,-5.43,2.38
1108,170474787,0.6987,-0.3071,-0.5498,9.09,-5.18,2.44
1109,170479787,0.7017,-0.3071,-0.5503,7.32,-4.94,2.44
1110,170484785,0.7007,-0.3027,-0.5503,5.91,-4.39,2.32
1111,170489789,0.7031,-0.2964,-0.5522,4.39,-4.15,2.13
1112,170495328,0.7065,-0.2974,-0.5522,2.74,-3.72,1.71
1113,170499788,0.7104,-0.3003,-0.5488,1.59,-3.41,1.59
1114,170504785,0.7109,-0.3062,-0.5571,0.30,-2.99,1.16
1115,170509789,0.7085,-0.3062,-0.5518,-1.04,-2.50,0.73
1116,170514787,0.7095,-0.3003,-0.5518,-2.50,-2.07,0.24
1117,170519788,0.7114,-0.3027,-0.5522,-3.90,-1.52,-0.18
1118,170524788,0.7129,-0.3022,-0.5586,-5.37,-1.16,-0.49
1119,170529788,0.7139,-0.3022,-0.5503,-7.01,-0.79,-0.79
1120,170534787,0.7139,-0.3003,-0.5527,-8.48,-0.43,-1.16
1121,170539787,0.7085,-0.2993,-0.5430,-10.06,-0.30,-1.28
1122,170544787,0.7090,-0.2979,-0.5425,-11.77,0.06,-1.40
1123,170549788,0.7090,-0.2891,-0.5371,-13.35,0.12,-1.46
1124,170554787,0.7065,-0.2837,-0.5371,-14.88,0.24,-1.59
1125,170559787,0.7036,-0.2817,-0.5303,-16.40,0.37,-1.59
1126,170564787,0.7031,-0.2769,-0.5254,-17.93,0.49,-1.46
1127,170569788,0.7080,-0.2725,-0.5278,-18.90,0.73,-1.46
1128,170574787,0.7080,-0.2734,-0.5259,-19.94,0.85,-1.40
1129,170579787,0.7095,-0.2720,-0.5166,-20.61,0.91,-1.16
1130,170584785,0.7139,-0.2739,-0.5107,-20.85,0.98,-1.16
1131,170589789,0.7222,-0.2661,-0.5127,-21.04,1.16,-1.04
1132,170594786,0.7222,-0.2593,-0.5073,-20.85,1.16,-0.91
1133,170599788,0.7241,-0.2544,-0.5010,-20.67,0.91,-0.61
1134,170604787,0.7295,-0.2505,-0.5054,-20.24,0.98,-0.55
1135,170609787,0.7319,-0.2505,-0.4946,-19.70,0.98,-0.37
1136,170615033,0.7393,-0.2397,-0.4966,-19.09,0.79,-0.12
1137,170619787,0.7368,-0.2393,-0.4932,-18.17,0.73,0.12
1138,170624787,0.7402,-0.2383,-0.4932,-17.56,0.61,0.24
1139,170629787,0.7363,-0.2402,-0.4897,-16.77,0.30,0.55
1140,170634787,0.7310,-0.2446,-0.4858,-15.85,0.06,0.67
1141,170639788,0.7285,-0.2520,-0.4858,-14.94,0.00,0.91
1142,170644785,0.7266,-0.2490,-0.4883,-13.90,-0.12,1.04
1143,170649788,0.7236,-0.2495,-0.4883,-12.80,-0.55,1.22
1144,170655030,0.7173,-0.2515,-0.4873,-11.89,-0.91,1.28
1145,170659788,0.7227,-0.2524,-0.4829,-11.10,-1.10,1.40
1146,170664787,0.7261,-0.2554,-0.4800,-10.24,-1.40,1.52
1147,170669787,0.7271,-0.2490,-0.4751,-9.70,-1.83,1.40
1148,170674787,0.7305,-0.2446,-0.4697,-8.96,-2.13,1.46
1149,170679788,0.7314,-0.2437,-0.4775,-8.54,-2.56,1.34
1150,170684785,0.7393,-0.2393,-0.4702,-7.93,-2.80,1.34
1151,170689785,0.7427,-0.2363,-0.4761,-7.32,-3.29,1.16
1152,170694789,0.7402,-0.2339,-0.4731,-6.71,-3.54,1.04
1153,170699787,0.7441,-0.2285,-0.4727,-6.10,-3.84,0.79
1154,170704787,0.7417,-0.2256,-0.4751,-5.18,-4.15,0.43
1155,170709787,0.7373,-0.2236,-0.4849,-4.33,-4.39,-0.06
1156,170714787,0.7339,-0.2310,-0.4839,-3.35,-4.63,-0.37
1157,170719787,0.7217,-0.2378,-0.4883,-2.50,-4.82,-0.79
1158,170724788,0.7144,-0.2437,-0.4839,-1.59,-5.30,-1.28
1159,170729788,0.7041,-0.2505,-0.4946,-0.55,-5.73,-1.65
1160,170734785,0.6973,-0.2583,-0.4971,0.43,-6.04,-2.07
1161,170739789,0.6919,-0.2734,-0.5049,1.59,-6.40,-2.32
1162,170744786,0.6860,-0.2788,-0.5083,2.56,-6.83,-2.62
1163,170749785,0.6831,-0.2759,-0.5127,3.72,-7.44,-2.93
1164,170754899,0.6836,-0.2764,-0.5122,4.57,-7.80,-3.35
1165,170759787,0.6831,-0.2783,-0.5112,5.73,-8.17,-3.96
1166,170764789,0.6768,-0.2744,-0.5225,6.83,-8.41,-4.57
1167,170769786,0.6636,-0.2822,-0.5161,7.62,-8.60,-5.06
1168,170774979,0.6694,-0.2729,-0.5288,8.48,-8.78,-5.43
1169,170779788,0.6802,-0.2852,-0.5215,9.39,-9.09,-5.79
1170,170784786,0.6836,-0.2920,-0.5225,10.30,-9.27,-6.04
1171,170789785,0.6880,-0.2910,-0.5161,11.16,-9.63,-6.28
1172,170794787,0.7104,-0.2773,-0.5161,12.07,-10.06,-6.40
1173,170799787,0.7275,-0.2661,-0.5078,12.93,-10.61,-6.71
1174,170804787,0.7109,-0.2520,-0.5112,13.60,-11.04,-6.83
1175,170809787,0.7046,-0.2690,-0.4932,14.88,-11.52,-7.07
1176,170814787,0.6504,-0.2729,-0.5015,16.52,-11.83,-7.01
1177,170819788,0.6367,-0.2563,-0.5020,18.72,-12.07,-7.01
1178,170824787,0.6475,-0.2510,-0.5010,21.46,-12.44,-7.26
1179,170829787,0.6812,-0.2461,-0.5107,24.70,-12.62,-7.38
1180,170834787,0.7368,-0.2446,-0.5171,28.35,-13.05,-7.44
1181,170839787,0.7866,-0.2510,-0.5166,32.20,-13.54,-7.56
1182,170844843,0.8174,-0.2676,-0.5146,36.16,-13.84,-7.44
1183,170849785,0.8174,-0.2671,-0.5117,39.57,-14.27,-7.07
1184,170854785,0.8052,-0.2568,-0.5161,42.80,-14.63,-6.65
1185,170859789,0.7861,-0.2437,-0.5049,45.49,-15.24,-6.28
1186,170864789,0.7632,-0.2373,-0.4956,47.44,-15.73,-5.98
1187,170869786,0.7495,-0.2310,-0.4946,48.84,-16.04,-5.30
1188,170874787,0.7505,-0.2231,-0.5029,49.88,-16.52,-4.76
1189,170879787,0.7520,-0.2241,-0.5078,50.49,-16.77,-4.02
1190,170884787,0.7539,-0.2334,-0.5039,50.73,-17.26,-3.23
1191,170889785,0.7524,-0.2271,-0.5034,50.79,-17.50,-2.56
1192,170894785,0.7539,-0.2314,-0.5044,50.49,-17.74,-1.71
1193,170899787,0.7578,-0.2354,-0.5059,50.12,-17.99,-0.85
1194,170904787,0.7554,-0.2349,-0.5078,49.76,-18.17,-0.24
1195,170909788,0.7568,-0.2373,-0.5015,49.39,-18.35,0.55
1196,170914786,0.7476,-0.2446,-0.5117,48.90,-18.41,1.28
1197,170919788,0.7529,-0.2500,-0.5132,48.41,-18.41,1.89
1198,170924787,0.7471,-0.2544,-0.5181,48.05,-18.23,2.56
1199,170929787,0.7383,-0.2598,-0.5225,47.56,-18.35,2.87
1200,170934786,0.7310,-0.2671,-0.5322,47.07,-18.17,3.41
1201,170939787,0.7246,-0.2676,-0.5288,46.71,-17.87,3.60
1202,170944787,0.7188,-0.2710,-0.5322,46.34,-17.26,3.96
1203,170949787,0.7212,-0.2773,-0.5376,46.04,-16.95,4.02
1204,170954785,0.7314,-0.2817,-0.5308,45.55,-16.40,4.15
1205,170959787,0.7397,-0.2852,-0.5317,44.88,-15.85,4.33
1206,170964787,0.7451,-0.2837,-0.5278,44.02,-15.43,4.51
1207,170969787,0.7495,-0.2837,-0.5264,42.74,-14.94,4.63
1208,170974786,0.7310,-0.2837,-0.5122,42.01,-22.32,4.76
1209,170979787,0.7573,-0.2744,-0.5088,39.39,-14.94,4.94
1210,170985107,0.7505,-0.2690,-0.5127,36.52,-13.41,5.12
1211,170989788,0.7539,-0.2617,-0.5396,34.45,-12.99,5.24
1212,170994785,0.7427,-0.2622,-0.5347,31.52,-12.68,5.37
1213,170999787,0.7368,-0.2612,-0.5142,28.60,-12.07,5.37
1214,171004787,0.7339,-0.2656,-0.5195,25.55,-11.46,5.43
1215,171009786,0.7305,-0.2720,-0.5312,22.68,-11.16,5.30
1216,171014787,0.7217,-0.2803,-0.5161,19.70,-10.55,5.24
1217,171019786,0.7197,-0.2852,-0.5166,17.13,-10.18,5.30
1218,171024787,0.7207,-0.2847,-0.5195,14.63,-10.00,5.24
1219,171029786,0.7178,-0.2886,-0.5200,12.07,-9.76,5.12
1220,171034787,0.7212,-0.2881,-0.5107,9.88,-9.51,5.12
1221,171039787,0.7305,-0.2842,-0.4995,7.87,-9.27,5.06
1222,171044787,0.7310,-0.2822,-0.5054,6.10,-8.96,5.06
1223,171049786,0.7427,-0.2837,-0.5024,4.51,-8.66,4.88
1224,171054787,0.7515,-0.2788,-0.4849,3.29,-8.66,4.82
1225,171059787,0.7534,-0.2788,-0.4873,2.26,-8.41,4.51
1226,171064787,0.7642,-0.2783,-0.4854,1.28,-8.41,4.39
1227,171069786,0.7651,-0.2856,-0.4849,0.55,-8.41,4.09
1228,171074787,0.7598,-0.2930,-0.4814,-0.18,-8.35,4.02
1229,171079787,0.7549,-0.3032,-0.4780,-0.55,-8.41,3.78
1230,171084785,0.7456,-0.3115,-0.4785,-1.04,-8.60,3.60
1231,171089785,0.7397,-0.3145,-0.4746,-1.59,-8.78,3.35
1232,171094788,0.7358,-0.3198,-0.4634,-2.26,-9.09,3.17
1233,171099785,0.7349,-0.3203,-0.4590,-3.11,-9.51,2.93
1234,171104787,0.7339,-0.3179,-0.4526,-4.15,-9.76,2.68
1235,171109787,0.7363,-0.3276,-0.4487,-5.12,-10.24,2.38
1236,171115289,0.7422,-0.3354,-0.4370,-5.67,-11.04,2.26
1237,171119789,0.7290,-0.3042,-0.4492,-6.22,-11.46,1.83
1238,171124895,0.7104,-0.2925,-0.4463,-6.65,-12.07,1.52
1239,171129788,0.7002,-0.2876,-0.4541,-7.01,-12.87,1.28
1240,171134786,0.6895,-0.2920,-0.4644,-7.07,-13.66,1.16
1241,171139787,0.6812,-0.3057,-0.4912,-6.83,-14.57,1.10
1242,171144844,0.6655,-0.3145,-0.4966,-6.10,-15.18,1.22
1243,171149786,0.6538,-0.3276,-0.4956,-5.00,-16.16,1.10
1244,171154787,0.6392,-0.3301,-0.5103,-2.99,-16.77,1.28
1245,171159787,0.6309,-0.3135,-0.5229,-0.30,-17.62,1.28
1246,171164786,0.6328,-0.3101,-0.5117,3.05,-18.29,1.40
1247,171169789,0.6460,-0.3086,-0.5049,6.46,-18.90,1.65
1248,171174787,0.6519,-0.3086,-0.5093,10.55,-19.70,1.71
1249,171179787,0.6655,-0.3027,-0.5078,14.70,-20.43,1.89
1250,171184786,0.6729,-0.3018,-0.5029,18.90,-21.22,2.13
1251,171189786,0.6768,-0.3022,-0.5063,23.35,-21.95,2.38
1252,171194789,0.6758,-0.3027,-0.5039,27.74,-22.74,2.56
1253,171199785,0.6699,-0.3193,-0.5093,31.83,-23.41,2.80
1254,171204785,0.6523,-0.3364,-0.5190,35.67,-23.96,3.05
1255,171209787,0.6343,-0.3525,-0.5303,39.27,-24.51,3.41
1256,171214787,0.6157,-0.3628,-0.5337,42.74,-25.12,3.66
1257,171219788,0.6006,-0.3750,-0.5439,45.79,-25.61,3.96
1258,171224786,0.5913,-0.3789,-0.5503,48.72,-26.04,4.15
1259,171229787,0.5874,-0.3818,-0.5571,51.40,-26.59,4.39
1260,171234787,0.5879,-0.3950,-0.5503,53.84,-26.95,4.63
1261,171239787,0.5894,-0.4033,-0.5493,56.16,-27.26,4.70
1262,171244786,0.6030,-0.4097,-0.5537,57.68,-27.50,4.88
1263,171249787,0.6069,-0.4102,-0.5522,59.21,-27.87,4.88
1264,171254787,0.5986,-0.4087,-0.5537,60.43,-28.05,4.88
1265,171259787,0.5972,-0.3979,-0.5630,61.46,-28.35,4.82
1266,171264786,0.6060,-0.3896,-0.5693,62.13,-28.48,4.57
1267,171269788,0.6152,-0.3804,-0.5708,61.95,-28.48,4.45
1268,171274787,0.6343,-0.3726,-0.5923,60.79,-28.41,4.27
1269,171279787,0.6421,-0.3701,-0.5986,58.48,-28.11,4.09
1270,171284786,0.6470,-0.3760,-0.5962,54.63,-27.87,3.84
1271,171289787,0.6548,-0.3779,-0.5879,49.45,-27.44,3.60
1272,171294787,0.6533,-0.3804,-0.5728,42.93,-26.71,3.17
1273,171299788,0.6426,-0.3979,-0.5571,35.73,-25.91,2.50
1274,171304785,0.6743,-0.3911,-0.5811,28.23,-25.37,2.01
1275,171309787,0.6694,-0.3906,-0.5898,20.30,-25.12,1.46
1276,171314909,0.6704,-0.4072,-0.5957,12.32,-24.94,0.85
1277,171319788,0.6777,-0.4189,-0.5781,4.45,-24.51,0.24
1278,171324786,0.6787,-0.4224,-0.5850,-3.29,-24.21,-0.30
1279,171329787,0.6743,-0.4277,-0.5967,-10.18,-23.54,-0.98
1280,171334787,0.6772,-0.4287,-0.6040,-16.34,-23.05,-1.52
1281,171339787,0.6797,-0.4268,-0.6011,-21.10,-22.20,-2.07
1282,171344786,0.6919,-0.4312,-0.6074,-24.63,-21.52,-2.68
1283,171349787,0.6929,-0.4326,-0.6196,-26.40,-20.61,-3.29
1284,171354787,0.7012,-0.4336,-0.6367,-26.95,-19.51,-3.78
1285,171359787,0.6992,-0.4302,-0.6406,-25.85,-18.54,-4.45
1286,171364786,0.7012,-0.4307,-0.6504,-23.41,-17.32,-5.00
1287,171369788,0.6973,-0.4243,-0.6548,-19.88,-16.22,-5.37
1288,171374787,0.6958,-0.4185,-0.6733,-15.18,-15.43,-6.04
1289,171379787,0.7065,-0.4155,-0.6533,-10.18,-14.51,-6.46
1290,171384786,0.7134,-0.4150,-0.6543,-4.57,-13.54,-6.89
1291,171389787,0.7041,-0.4097,-0.6455,1.34,-12.56,-7.07
1292,171394787,0.7012,-0.4028,-0.6416,7.38,-11.52,-7.38
1293,171399788,0.6787,-0.3730,-0.6113,13.96,-10.37,-8.05
1294,171404785,0.7158,-0.3965,-0.6533,20.79,-9.39,-8.60
1295,171409787,0.7437,-0.4043,-0.6709,27.68,-8.66,-8.90
1296,171414787,0.7583,-0.4043,-0.6606,33.90,-8.29,-9.21
1297,171419786,0.7656,-0.4116,-0.6650,39.57,-8.17,-9.27
1298,171424787,0.7808,-0.4229,-0.6631,44.45,-8.54,-9.39
1299,171429786,0.7837,-0.4258,-0.6631,48.48,-8.90,-9.27
1300,171434787,0.7900,-0.4146,-0.6611,51.40,-9.63,-9.09
1301,171439786,0.7954,-0.4150,-0.6562,53.11,-10.49,-9.02
1302,171444787,0.7793,-0.4229,-0.6128,54.51,-11.89,-8.96
1303,171449786,0.7705,-0.3945,-0.6162,54.57,-12.74,-8.96
1304,171454787,0.7104,-0.4351,-0.5684,53.90,-13.60,-8.90
1305,171459786,0.6812,-0.3862,-0.5845,52.20,-14.02,-9.33
1306,171464789,0.6587,-0.3936,-0.5830,50.00,-14.63,-10.00
1307,171469787,0.6353,-0.4141,-0.5630,47.50,-14.82,-10.67
1308,171474787,0.5918,-0.4458,-0.5732,44.70,-15.06,-11.52
1309,171479786,0.5620,-0.4751,-0.5840,41.83,-15.24,-12.13
1310,171484787,0.5337,-0.5010,-0.5806,38.78,-15.43,-12.44
1311,171489786,0.5337,-0.5161,-0.5791,35.55,-15.37,-12.87
1312,171494787,0.5249,-0.5396,-0.5776,32.01,-15.30,-13.11
1313,171499786,0.6157,-0.4175,-0.5620,28.54,-15.06,-13.78
1314,171504785,0.6172,-0.5288,-0.5415,25.30,-14.51,-15.30
1315,171509785,0.6460,-0.4961,-0.5137,22.01,-13.84,-16.22
1316,171514789,0.6279,-0.5015,-0.5288,19.39,-13.05,-17.99
1317,171519786,0.5728,-0.5332,-0.5361,17.26,-12.01,-19.21
1318,171524787,0.5420,-0.5527,-0.5513,15.61,-11.34,-19.76
1319,171529786,0.5547,-0.4961,-0.5356,14.82,-10.43,-20.43
1320,171534789,0.5835,-0.4707,-0.5317,14.57,-9.15,-21.71
1321,171539787,0.6387,-0.4160,-0.4902,15.55,-7.74,-23.84
1322,171544787,0.5840,-0.5156,-0.5459,17.20,-6.34,-25.49
1323,171549787,0.5557,-0.5283,-0.5278,19.27,-5.00,-26.89
1324,171554787,0.5684,-0.4756,-0.4956,21.71,-3.72,-28.29
1325,171559787,0.6025,-0.4482,-0.5171,24.57,-2.44,-30.30
1326,171564785,0.5713,-0.4956,-0.4829,27.74,-0.61,-32.74
1327,171569785,0.5146,-0.5444,-0.5195,30.30,0.85,-34.15
1328,171574789,0.5117,-0.4907,-0.5396,31.95,1.71,-35.06
1329,171579787,0.5347,-0.4331,-0.4927,33.05,3.23,-36.65
1330,171584787,0.5063,-0.4644,-0.5522,33.54,4.21,-37.87
1331,171589805,0.5244,-0.4814,-0.5469,33.29,4.51,-39.02
1332,171594786,0.5352,-0.4858,-0.4897,32.20,5.49,-40.12
1333,171599787,0.5435,-0.4761,-0.4976,30.67,6.22,-41.40
1334,171604786,0.5474,-0.4609,-0.5303,29.02,6.71,-42.68
1335,171609785,0.5508,-0.4565,-0.5166,27.26,7.44,-43.84
1336,171614786,0.5400,-0.4517,-0.5122,25.37,8.05,-45.18
1337,171619788,0.5376,-0.4429,-0.5127,23.78,8.78,-46.65
1338,171624787,0.5361,-0.4365,-0.5273,22.13,9.27,-47.80
1339,171629803,0.5347,-0.4316,-0.5161,20.73,9.88,-49.09
1340,171634811,0.5405,-0.4219,-0.5200,19.09,10.49,-50.43
1341,171639789,0.5513,-0.4087,-0.5215,17.68,11.16,-51.77
1342,171644787,0.5562,-0.4009,-0.5200,16.16,11.59,-52.87
1343,171649787,0.5586,-0.3887,-0.5137,14.76,12.20,-54.02
1344,171654785,0.5625,-0.3750,-0.5137,13.41,12.93,-55.24
1345,171659789,0.5620,-0.3701,-0.5137,12.07,13.48,-56.34
1346,171664786,0.5640,-0.3687,-0.5132,10.98,14.09,-57.38
1347,171669787,0.5723,-0.3560,-0.5112,10.00,14.63,-58.54
1348,171674785,0.5771,-0.3516,-0.5068,9.09,15.37,-59.45
1349,171679787,0.5771,-0.3452,-0.5054,8.35,15.91,-60.37
1350,171684789,0.5825,-0.3403,-0.5029,7.68,16.46,-61.10
1351,171689786,0.5884,-0.3384,-0.5063,7.13,17.01,-61.83
1352,171695042,0.5933,-0.3340,-0.5132,6.46,17.80,-62.50
1353,171699788,0.6011,-0.3291,-0.5186,6.16,18.23,-62.99
1354,171704787,0.6094,-0.3252,-0.5146,5.79,18.60,-63.41
1355,171709787,0.6216,-0.3149,-0.5146,5.55,19.27,-63.72
1356,171714786,0.6333,-0.3120,-0.5239,5.24,19.76,-64.02
1357,171719787,0.6489,-0.3042,-0.5264,4.76,20.24,-64.02
1358,171724787,0.6655,-0.2964,-0.5200,4.51,20.79,-64.02
1359,171729787,0.6812,-0.2944,-0.5264,4.15,21.59,-64.02
1360,171734785,0.6992,-0.2856,-0.5234,3.66,22.07,-63.96
1361,171739788,0.7207,-0.2788,-0.5229,3.41,22.74,-63.72
1362,171744787,0.7480,-0.2788,-0.5366,3.17,23.29,-63.41
1363,171749787,0.7725,-0.2778,-0.5405,3.17,23.90,-63.17
1364,171754786,0.7954,-0.2729,-0.5400,3.29,24.39,-62.56
1365,171759787,0.8120,-0.2686,-0.5435,3.35,25.12,-61.95
1366,171764787,0.8286,-0.2603,-0.5435,3.60,25.67,-61.40
1367,171769787,0.8413,-0.2583,-0.5425,3.72,26.34,-60.61
1368,171775323,0.8496,-0.2559,-0.5352,4.02,27.07,-59.82
1369,171779788,0.8462,-0.2515,-0.5386,4.15,27.68,-59.15
1370,171784787,0.8452,-0.2397,-0.5273,4.09,28.29,-58.29
1371,171789787,0.8379,-0.2412,-0.5283,3.90,28.96,-57.50
1372,171794786,0.8257,-0.2368,-0.5239,3.54,29.57,-56.83
1373,171799788,0.8140,-0.2334,-0.5112,3.05,30.30,-56.04
1374,171804787,0.8037,-0.2261,-0.5024,2.50,30.79,-55.18
1375,171809788,0.7905,-0.2236,-0.4946,1.95,31.34,-54.39
1376,171814785,0.7754,-0.2144,-0.4839,1.46,32.01,-53.66
1377,171819787,0.7715,-0.2114,-0.4751,0.98,32.56,-52.99
1378,171824787,0.7559,-0.2061,-0.4688,0.43,33.17,-52.38
1379,171829786,0.7510,-0.2065,-0.4614,0.06,33.66,-51.65
1380,171834787,0.7412,-0.2007,-0.4507,-0.18,34.02,-51.04
1381,171839786,0.7378,-0.1978,-0.4360,-0.24,34.63,-50.30
1382,171844787,0.7314,-0.1987,-0.4414,0.06,35.12,-49.70
1383,171849787,0.7261,-0.1924,-0.4448,0.30,35.67,-48.96
1384,171855333,0.7256,-0.1958,-0.4404,0.67,36.04,-48.48
1385,171859788,0.7197,-0.1963,-0.4385,1.10,36.28,-47.93
1386,171864823,0.7227,-0.1968,-0.4263,1.34,36.65,-47.32
1387,171869789,0.7295,-0.1929,-0.4233,1.59,36.77,-46.83
1388,171874787,0.7319,-0.1929,-0.4121,1.40,37.13,-46.22
1389,171879788,0.7373,-0.1929,-0.4092,1.10,37.20,-45.73
1390,171884786,0.7412,-0.1855,-0.4077,0.73,37.38,-45.18
1391,171889787,0.7354,-0.1831,-0.3960,0.30,37.44,-44.76
1392,171894787,0.7378,-0.1816,-0.3979,-0.37,37.50,-44.21
1393,171899787,0.7393,-0.1812,-0.3921,-0.79,37.50,-43.72
1394,171904881,0.7490,-0.1802,-0.3926,-1.28,37.50,-43.29
1395,171909788,0.7544,-0.1719,-0.3916,-1.52,37.50,-42.74
1396,171914786,0.7568,-0.1685,-0.3906,-1.46,37.44,-42.20
1397,171919785,0.7642,-0.1704,-0.3818,-1.28,37.50,-41.59
1398,171924790,0.7734,-0.1680,-0.3838,-0.85,37.44,-40.98
1399,171929788,0.7778,-0.1646,-0.3843,-0.12,37.26,-40.30
1400,171934787,0.7871,-0.1670,-0.3770,0.67,37.20,-39.76
1401,171939787,0.7979,-0.1680,-0.3735,1.71,37.01,-39.09
1402,171944786,0.8027,-0.1572,-0.3706,2.93,36.83,-38.35
1403,171949787,0.8101,-0.1592,-0.3794,4.15,36.59,-37.68
1404,171954916,0.8228,-0.1582,-0.3716,5.61,36.52,-37.07
1405,171959787,0.8247,-0.1621,-0.3706,7.07,36.16,-36.34
1406,171964867,0.8267,-0.1582,-0.3667,8.84,36.22,-35.61
1407,171969788,0.8286,-0.1592,-0.3604,10.61,35.98,-34.94
1408,171974786,0.8320,-0.1602,-0.3647,12.38,35.37,-34.33
1409,171979785,0.8320,-0.1567,-0.3647,14.27,34.94,-33.66
1410,171984789,0.8315,-0.1572,-0.3628,16.16,34.57,-32.93
1411,171989786,0.8301,-0.1562,-0.3643,17.68,34.21,-32.38
1412,171994787,0.8267,-0.1597,-0.3667,19.70,33.66,-31.59
1413,171999787,0.8374,-0.1597,-0.3716,21.10,33.11,-31.10
1414,172004787,0.8394,-0.1641,-0.3726,22.74,32.44,-30.43
1415,172009785,0.8350,-0.1602,-0.3677,24.15,31.95,-29.82
1416,172014786,0.8330,-0.1587,-0.3711,25.55,30.98,-29.27
1417,172019785,0.8369,-0.1499,-0.3662,26.46,30.43,-28.66
1418,172024787,0.8340,-0.1499,-0.3667,27.20,29.51,-28.23
1419,172029787,0.8335,-0.1499,-0.3672,27.80,28.84,-27.62
1420,172034787,0.8335,-0.1499,-0.3672,28.05,27.99,-27.13
1421,172039786,0.8350,-0.1479,-0.3682,27.93,27.20,-26.71
1422,172044787,0.8340,-0.1460,-0.3613,27.50,26.34,-26.16
1423,172049787,0.8364,-0.1411,-0.3628,27.13,25.43,-25.79
1424,172055259,0.8428,-0.1426,-0.3604,26.16,24.33,-25.24
1425,172059788,0.8398,-0.1401,-0.3633,25.43,23.48,-24.82
1426,172064787,0.8418,-0.1372,-0.3560,24.33,22.68,-24.27
1427,172069787,0.8481,-0.1338,-0.3555,22.93,21.71,-23.72
1428,172074786,0.8521,-0.1294,-0.3462,21.28,20.79,-23.11
1429,172079788,0.8574,-0.1250,-0.3413,19.27,19.63,-22.38
1430,172084786,0.8657,-0.1211,-0.3398,17.07,18.41,-21.59
1431,172089789,0.8618,-0.1206,-0.3457,14.88,17.26,-20.73
1432,172094789,0.8652,-0.1147,-0.3428,12.93,16.10,-19.76
1433,172099786,0.8687,-0.1182,-0.3438,11.16,14.88,-18.72
1434,172104787,0.8667,-0.1167,-0.3521,9.88,13.66,-17.50
1435,172109786,0.8706,-0.1167,-0.3516,9.02,12.26,-16.46
1436,172114787,0.8696,-0.1089,-0.3491,8.60,11.22,-15.18
1437,172119787,0.8701,-0.1099,-0.3379,8.41,9.94,-13.90
1438,172124787,0.8706,-0.1108,-0.3398,8.66,8.84,-12.68
1439,172129787,0.8667,-0.1099,-0.3433,9.02,7.93,-11.52
1440,172134787,0.8604,-0.1089,-0.3418,9.57,6.83,-10.43
1441,172139787,0.8633,-0.1074,-0.3442,10.12,5.98,-9.45
1442,172144786,0.8618,-0.1055,-0.3335,10.61,5.12,-8.60
1443,172149788,0.8613,-0.1094,-0.3384,11.22,4.21,-7.80
1444,172154786,0.8599,-0.1089,-0.3369,11.89,3.35,-7.26
1445,172159789,0.8564,-0.1108,-0.3291,12.68,2.68,-6.83
1446,172164818,0.8535,-0.1118,-0.3335,13.48,1.95,-6.34
1447,172169787,0.8511,-0.1162,-0.3315,14.33,1.28,-5.85
1448,172174787,0.8496,-0.1147,-0.3311,15.18,0.79,-5.49
1449,172179787,0.8516,-0.1152,-0.3252,15.98,0.24,-5.18
1450,172184787,0.8452,-0.1123,-0.3301,16.77,-0.37,-5.00
1451,172189787,0.8477,-0.1162,-0.3291,17.50,-0.85,-4.76
1452,172194789,0.8481,-0.1133,-0.3291,18.23,-1.28,-4.45
1453,172199787,0.8442,-0.1133,-0.3335,18.72,-1.71,-4.27
1454,172204787,0.8472,-0.1099,-0.3296,19.21,-2.13,-4.02
1455,172209786,0.8457,-0.1123,-0.3315,19.33,-2.56,-3.96
1456,172214871,0.8462,-0.1108,-0.3311,19.33,-2.80,-3.78
1457,172219787,0.8423,-0.1104,-0.3345,19.21,-2.93,-3.60
1458,172224785,0.8486,-0.1162,-0.3311,19.15,-3.35,-3.54
1459,172229787,0.8525,-0.1113,-0.3364,18.90,-3.54,-3.23
1460,172234789,0.8535,-0.1162,-0.3398,18.72,-3.78,-3.23
1461,172239786,0.8550,-0.1133,-0.3379,18.54,-3.90,-3.11
1462,172244787,0.8574,-0.1069,-0.3457,17.93,-4.09,-3.11
1463,172249786,0.8569,-0.1060,-0.3481,17.44,-4.21,-2.93
1464,172254787,0.8584,-0.1108,-0.3433,17.20,-4.21,-2.87
1465,172259787,0.8594,-0.1113,-0.3398,16.77,-4.51,-2.93
1466,172264787,0.8638,-0.1079,-0.3394,16.28,-4.39,-2.74
1467,172269786,0.8672,-0.1089,-0.3457,15.91,-4.57,-2.62
1468,172274788,0.8696,-0.1123,-0.3472,15.85,-4.70,-2.62
1469,172279809,0.8730,-0.1118,-0.3496,15.79,-4.70,-2.50
1470,172284787,0.8760,-0.1133,-0.3486,15.79,-4.70,-2.50
1471,172289786,0.8755,-0.1128,-0.3555,15.91,-4.63,-2.44
1472,172294787,0.8813,-0.1094,-0.3564,16.04,-4.70,-2.26
1473,172299785,0.8872,-0.1133,-0.3638,16.28,-4.70,-2.20
1474,172304787,0.8857,-0.1113,-0.3613,16.40,-4.76,-2.13
1475,172309787,0.8838,-0.1089,-0.3550,16.46,-4.70,-2.01
1476,172314786,0.8857,-0.1138,-0.3584,16.65,-4.76,-1.83
1477,172319785,0.8862,-0.1147,-0.3560,16.59,-4.63,-1.83
1478,172324785,0.8833,-0.1104,-0.3545,16.28,-4.70,-1.71
1479,172329789,0.8848,-0.1128,-0.3496,15.91,-4.70,-1.77
1480,172334788,0.8853,-0.1113,-0.3560,15.43,-4.76,-1.59
1481,172339787,0.8833,-0.1177,-0.3574,14.94,-4.76,-1.59
1482,172344787,0.8862,-0.1167,-0.3555,14.27,-4.70,-1.59
1483,172349785,0.8867,-0.1152,-0.3564,13.66,-4.82,-1.40
1484,172354785,0.8877,-0.1167,-0.3589,12.93,-4.94,-1.40
1485,172359825,0.8921,-0.1162,-0.3574,12.20,-4.88,-1.34
1486,172364789,0.8853,-0.1172,-0.3477,11.46,-4.82,-1.34
1487,172369789,0.8823,-0.1157,-0.3477,10.79,-4.82,-1.34
1488,172374786,0.8872,-0.1143,-0.3530,10.12,-4.94,-1.40
1489,172379787,0.8857,-0.1162,-0.3447,9.57,-4.82,-1.40
1490,172384785,0.8789,-0.1206,-0.3516,9.15,-4.88,-1.28
1491,172389785,0.8750,-0.1177,-0.3501,8.90,-4.82,-1.34
