# skilleye imu stream v1
# device=xiao_esp32c6 imu=mpu6050 addr=0x68
# rate_hz=200 accel_range_g=16 gyro_range_dps=2000 dlpf_hz=94
# units: accel in g, gyro in deg/s, t_us in microseconds since boot (monotonic)
# no shared clock with the camera -- tap the racket once before each take
# so both recordings share a spike to align on
seq,t_us,ax,ay,az,gx,gy,gz
0,150110441,0.4258,0.9014,-0.1802,9.02,-21.52,7.74
1,150115444,0.4233,0.8950,-0.1782,8.11,-21.71,8.23
2,150120442,0.4146,0.8994,-0.1807,7.26,-21.52,8.72
3,150125442,0.4121,0.9004,-0.1885,6.22,-21.52,9.39
4,150130440,0.4165,0.8994,-0.1812,5.30,-21.65,10.00
5,150135445,0.4126,0.8984,-0.1860,4.21,-21.59,10.55
6,150140441,0.4121,0.8999,-0.1919,2.99,-21.65,11.10
7,150145442,0.4092,0.8970,-0.1987,1.83,-21.40,11.65
8,150150440,0.4097,0.9033,-0.1934,0.73,-21.40,12.32
9,150155442,0.4087,0.9072,-0.1885,-0.37,-21.34,12.93
10,150160442,0.4058,0.9111,-0.1948,-1.22,-21.16,13.48
11,150165831,0.4072,0.9194,-0.1899,-2.26,-20.91,13.78
12,150170442,0.4072,0.9160,-0.1953,-3.05,-20.73,14.27
13,150175441,0.4067,0.9180,-0.1968,-3.96,-20.61,14.70
14,150180442,0.4009,0.9248,-0.2026,-4.88,-20.43,15.06
15,150185442,0.4033,0.9233,-0.2002,-5.73,-20.24,15.49
16,150190441,0.3989,0.9219,-0.1948,-6.52,-20.18,15.91
17,150195444,0.3896,0.9189,-0.1924,-7.26,-20.18,16.28
18,150200442,0.3848,0.9175,-0.1978,-8.11,-19.70,16.77
19,150205441,0.3804,0.9160,-0.1924,-9.02,-19.63,17.20
20,150210442,0.3760,0.9097,-0.1943,-10.00,-19.21,17.62
21,150215442,0.3735,0.9116,-0.1860,-10.98,-18.84,18.05
22,150220442,0.3711,0.9053,-0.1885,-11.89,-18.66,18.60
23,150225441,0.3696,0.9019,-0.1885,-12.80,-18.35,18.96
24,150230442,0.3711,0.8989,-0.1860,-13.84,-18.17,19.39
25,150235441,0.3667,0.9038,-0.1899,-14.57,-17.93,19.94
26,150240442,0.3735,0.8940,-0.1968,-15.43,-17.68,20.18
27,150245442,0.3701,0.9067,-0.1860,-15.98,-17.56,20.61
28,150250443,0.3687,0.9023,-0.1851,-16.40,-17.20,20.79
29,150255440,0.3701,0.9058,-0.1816,-16.59,-17.01,20.98
30,150260441,0.3726,0.9028,-0.1924,-16.83,-16.71,21.16
31,150265442,0.3682,0.9092,-0.1924,-16.95,-16.52,21.28
32,150270441,0.3682,0.9077,-0.1919,-17.07,-16.28,21.40
33,150275442,0.3716,0.9082,-0.2012,-17.01,-15.91,21.52
34,150280441,0.3677,0.9116,-0.1958,-17.20,-15.79,21.46
35,150285442,0.3696,0.9121,-0.1929,-17.20,-15.61,21.46
36,150290440,0.3667,0.9165,-0.1997,-17.13,-15.67,21.34
37,150295444,0.3633,0.9131,-0.1973,-17.26,-15.43,21.22
38,150300441,0.3569,0.9175,-0.1997,-17.56,-15.30,21.10
39,150305440,0.3608,0.9175,-0.2007,-17.74,-15.24,21.04
40,150310442,0.3584,0.9121,-0.2046,-18.05,-15.18,20.79
41,150315441,0.3584,0.9160,-0.2080,-18.41,-15.18,20.79
42,150320442,0.3525,0.9097,-0.2148,-19.09,-15.12,20.61
43,150325442,0.3501,0.9092,-0.2090,-19.76,-15.06,20.43
44,150330443,0.3496,0.9097,-0.2085,-20.55,-15.00,20.61
45,150335441,0.3438,0.9097,-0.2051,-21.22,-14.70,20.55
46,150340470,0.3457,0.9072,-0.2070,-22.20,-14.82,20.61
47,150345441,0.3394,0.9067,-0.2109,-23.17,-14.45,20.67
48,150350442,0.3457,0.9053,-0.2104,-24.15,-14.33,20.79
49,150355442,0.3398,0.9116,-0.2085,-24.94,-14.33,20.91
50,150360442,0.3467,0.9126,-0.2144,-25.85,-14.02,20.79
51,150365466,0.3472,0.9165,-0.2188,-26.59,-14.02,20.79
52,150370442,0.3486,0.9155,-0.2163,-27.26,-14.02,20.73
53,150375441,0.3530,0.9165,-0.2139,-27.99,-13.90,20.73
54,150380442,0.3491,0.9165,-0.2188,-28.66,-13.78,20.67
55,150385442,0.3540,0.9160,-0.2222,-29.39,-13.78,20.55
56,150390442,0.3530,0.9146,-0.2227,-30.00,-13.72,20.61
57,150395441,0.3525,0.9136,-0.2217,-30.55,-13.72,20.49
58,150400443,0.3564,0.9150,-0.2207,-31.04,-13.41,20.37
59,150405441,0.3540,0.9121,-0.2158,-31.46,-13.41,20.55
60,150410442,0.3550,0.9150,-0.2173,-31.65,-13.11,20.49
61,150415442,0.3521,0.9165,-0.2207,-31.71,-12.93,20.55
62,150420443,0.3589,0.9155,-0.2207,-31.83,-12.68,20.55
63,150425441,0.3594,0.9165,-0.2246,-31.71,-12.50,20.61
64,150430442,0.3599,0.9189,-0.2207,-31.40,-12.20,20.73
65,150435441,0.3638,0.9238,-0.2314,-31.16,-11.95,20.73
66,150440442,0.3652,0.9214,-0.2261,-30.79,-11.65,20.79
67,150445442,0.3711,0.9248,-0.2231,-30.37,-11.34,20.85
68,150450443,0.3701,0.9229,-0.2290,-30.18,-11.10,20.73
69,150455441,0.3701,0.9263,-0.2285,-30.12,-10.85,20.85
70,150460442,0.3755,0.9233,-0.2280,-30.00,-10.67,20.91
71,150465442,0.3789,0.9238,-0.2290,-29.94,-10.37,21.04
72,150470441,0.3760,0.9233,-0.2280,-30.00,-10.24,21.16
73,150475443,0.3804,0.9258,-0.2256,-29.94,-10.18,21.16
74,150480442,0.3813,0.9253,-0.2266,-30.06,-9.82,21.22
75,150485444,0.3877,0.9307,-0.2266,-30.12,-9.76,21.34
76,150490441,0.3892,0.9312,-0.2227,-30.24,-9.76,21.46
77,150495442,0.3970,0.9307,-0.2236,-30.12,-9.51,21.59
78,150500442,0.4004,0.9326,-0.2202,-30.12,-9.51,21.77
79,150505440,0.4023,0.9346,-0.2251,-29.88,-9.33,21.83
80,150510442,0.4053,0.9380,-0.2192,-29.45,-9.33,21.95
81,150515444,0.4092,0.9385,-0.2188,-29.15,-9.21,21.95
82,150520441,0.4106,0.9448,-0.2153,-28.48,-9.15,22.07
83,150525442,0.4136,0.9443,-0.2207,-27.80,-9.09,22.01
84,150530440,0.4150,0.9492,-0.2100,-27.07,-8.96,22.01
85,150535442,0.4224,0.9541,-0.2129,-26.28,-8.90,21.95
86,150540740,0.4185,0.9644,-0.2109,-25.49,-8.96,21.89
87,150545444,0.4243,0.9653,-0.2095,-24.82,-9.09,21.71
88,150550444,0.4214,0.9731,-0.2026,-23.90,-9.02,21.59
89,150555441,0.4272,0.9746,-0.1982,-22.99,-9.21,21.28
90,150560442,0.4233,0.9766,-0.2017,-22.38,-9.39,21.04
91,150565525,0.4253,0.9805,-0.1968,-21.83,-9.51,20.85
92,150570443,0.4263,0.9746,-0.2007,-21.59,-9.45,20.73
93,150575440,0.4297,0.9692,-0.2051,-21.59,-9.76,20.49
94,150580441,0.4238,0.9673,-0.1992,-22.01,-10.12,20.30
95,150585444,0.4214,0.9688,-0.1953,-22.50,-10.37,20.30
96,150590441,0.4194,0.9639,-0.1943,-23.41,-10.67,20.30
97,150595440,0.4155,0.9600,-0.1899,-24.57,-10.79,20.18
98,150600442,0.4111,0.9512,-0.1890,-25.98,-10.98,20.37
99,150605442,0.4072,0.9443,-0.1860,-27.50,-11.22,20.49
100,150610442,0.4067,0.9395,-0.1812,-29.33,-11.40,20.73
101,150615441,0.4033,0.9312,-0.1777,-30.91,-11.59,21.10
102,150620442,0.3965,0.9307,-0.1836,-32.56,-11.59,21.59
103,150625442,0.3921,0.9282,-0.1729,-34.02,-11.59,22.13
104,150630442,0.3862,0.9204,-0.1724,-35.00,-11.46,22.62
105,150635442,0.3848,0.9146,-0.1670,-35.79,-11.52,23.29
106,150640441,0.3867,0.9072,-0.1689,-36.28,-11.22,24.09
107,150645442,0.3921,0.8984,-0.1680,-36.28,-10.98,25.00
108,150650441,0.3940,0.8950,-0.1650,-36.10,-10.61,26.04
109,150655442,0.3979,0.8853,-0.1611,-35.49,-10.18,26.95
110,150660442,0.4019,0.8799,-0.1592,-34.51,-9.88,28.17
111,150665442,0.4102,0.8750,-0.1572,-33.05,-9.33,29.51
112,150670441,0.4141,0.8711,-0.1597,-31.04,-8.78,30.85
113,150675440,0.4238,0.8672,-0.1597,-28.78,-8.11,32.20
114,150680442,0.4253,0.8667,-0.1572,-26.04,-7.50,33.66
115,150685442,0.4414,0.8633,-0.1553,-22.80,-6.46,35.18
116,150690443,0.4536,0.8589,-0.1519,-19.45,-5.73,36.65
117,150695441,0.4629,0.8506,-0.1533,-15.61,-5.00,37.99
118,150700442,0.4761,0.8506,-0.1528,-11.59,-4.02,39.51
119,150705442,0.4902,0.8457,-0.1440,-7.56,-3.05,40.98
120,150710442,0.5024,0.8394,-0.1470,-3.41,-1.95,42.50
121,150715441,0.5142,0.8384,-0.1528,0.73,-1.04,43.90
122,150720442,0.5195,0.8359,-0.1484,4.70,0.12,45.24
123,150725442,0.5381,0.8325,-0.1504,8.66,0.98,46.52
124,150730442,0.5498,0.8267,-0.1543,12.56,2.26,47.80
125,150735441,0.5698,0.8203,-0.1602,16.40,3.54,49.15
126,150740442,0.5859,0.8228,-0.1587,20.12,4.45,50.30
127,150745442,0.6104,0.8218,-0.1675,23.84,5.67,51.65
128,150750443,0.6309,0.8286,-0.1724,27.44,6.83,52.74
129,150755441,0.6489,0.8174,-0.1709,30.79,8.05,53.78
130,150760442,0.6562,0.8174,-0.1763,34.27,9.27,54.88
131,150765442,0.6616,0.8164,-0.1836,37.50,10.61,55.91
132,150770443,0.6729,0.8130,-0.1846,40.67,11.95,56.77
133,150775441,0.6865,0.8130,-0.1885,43.48,13.48,57.74
134,150780442,0.6895,0.8110,-0.1924,45.91,15.06,58.41
135,150785442,0.6880,0.8115,-0.2051,48.17,16.40,59.21
136,150790442,0.6914,0.8052,-0.1997,49.94,17.87,60.06
137,150795441,0.6948,0.8071,-0.1992,51.34,19.57,60.61
138,150800442,0.6997,0.8008,-0.2114,52.32,21.22,61.34
139,150805442,0.7046,0.7969,-0.2134,52.68,22.80,62.01
140,150810442,0.7119,0.7881,-0.2163,52.80,24.51,62.62
141,150815441,0.7173,0.7808,-0.2197,52.80,26.04,63.41
142,150820443,0.7139,0.7793,-0.2212,52.56,27.87,64.15
143,150825442,0.7144,0.7822,-0.2207,52.26,29.57,64.82
144,150830442,0.7119,0.7827,-0.2231,52.07,31.10,65.61
145,150835441,0.7202,0.7832,-0.2222,52.01,32.80,66.22
146,150840442,0.7227,0.7832,-0.2231,52.13,34.51,66.65
147,150845442,0.7212,0.7812,-0.2246,52.26,35.98,67.32
148,150850463,0.7222,0.7822,-0.2246,52.80,37.62,67.74
149,150855441,0.7241,0.7842,-0.2329,53.35,38.90,68.05
150,150860442,0.7202,0.7871,-0.2334,53.96,40.43,68.35
151,150865442,0.7222,0.7886,-0.2339,54.82,41.83,68.48
152,150870442,0.7163,0.7881,-0.2363,55.61,43.23,68.78
153,150875441,0.7222,0.7881,-0.2446,56.28,44.76,68.72
154,150880440,0.7183,0.7798,-0.2397,56.77,46.04,68.84
155,150885442,0.7178,0.7715,-0.2451,57.01,47.50,68.90
156,150890442,0.7153,0.7646,-0.2441,57.13,49.45,69.21
157,150895464,0.7144,0.7617,-0.2422,57.38,50.12,69.45
158,150900442,0.7114,0.7549,-0.2451,57.32,51.71,69.57
159,150905442,0.7139,0.7461,-0.2388,57.26,53.05,69.82
160,150910442,0.7114,0.7412,-0.2412,57.50,54.45,70.00
161,150915441,0.7061,0.7412,-0.2412,57.87,55.85,70.30
162,150920442,0.7002,0.7339,-0.2407,58.60,57.32,70.55
163,150925442,0.6982,0.7285,-0.2451,59.63,58.96,70.85
164,150930442,0.6963,0.7256,-0.2441,60.98,60.37,70.98
165,150935443,0.6953,0.7246,-0.2495,62.13,61.65,71.04
166,150940442,0.6973,0.7158,-0.2485,63.72,63.41,71.16
167,150945442,0.7007,0.7095,-0.2549,65.06,64.57,71.22
168,150950442,0.6938,0.7017,-0.2520,66.28,65.79,71.40
169,150955443,0.6968,0.6870,-0.2505,67.50,67.26,71.46
170,150960442,0.6934,0.6870,-0.2490,68.54,68.29,71.46
171,150965442,0.6968,0.6782,-0.2573,69.63,69.39,71.40
172,150970442,0.6938,0.6699,-0.2568,70.67,70.37,71.28
173,150975440,0.6987,0.6660,-0.2588,71.83,71.34,71.10
174,150980441,0.7007,0.6602,-0.2559,72.99,72.26,70.98
175,150985657,0.6938,0.6538,-0.2510,74.51,73.17,70.61
176,150990442,0.7021,0.6450,-0.2524,76.04,73.84,70.24
177,150995442,0.7031,0.6338,-0.2485,78.23,74.63,69.82
178,151000443,0.7002,0.6270,-0.2417,80.30,75.24,69.27
179,151005441,0.7036,0.6211,-0.2412,82.62,76.04,68.54
180,151010443,0.6997,0.6128,-0.2412,85.24,76.77,67.80
181,151015442,0.6978,0.6069,-0.2402,87.80,77.32,67.07
182,151020442,0.6992,0.6069,-0.2427,90.61,77.74,66.16
183,151025793,0.7061,0.5986,-0.2388,93.29,78.17,65.06
184,151030443,0.7070,0.5854,-0.2461,96.10,78.48,63.90
185,151035442,0.7090,0.5776,-0.2495,98.96,78.72,62.80
186,151040442,0.6650,0.5591,-0.4292,102.38,77.01,61.59
187,151045441,0.7080,0.5664,0.0283,106.52,75.55,60.85
188,151050442,0.7759,0.5020,-0.3608,109.76,74.15,59.94
189,151055442,0.7681,0.4707,-0.4653,112.80,71.95,59.15
190,151060442,0.7148,0.5000,0.0122,115.55,72.07,58.48
191,151065441,0.6880,0.5068,-0.0947,117.74,72.80,57.50
192,151070442,0.7207,0.4902,-0.4697,120.18,70.79,56.71
193,151075441,0.7275,0.4692,-0.3501,122.26,68.72,55.79
194,151080442,0.7139,0.4551,-0.0220,123.72,68.90,55.12
195,151085441,0.7202,0.4375,-0.1421,125.00,69.21,54.33
196,151090444,0.7251,0.4199,-0.4175,126.04,67.74,53.54
197,151095442,0.7178,0.4043,-0.2783,126.83,66.34,52.68
198,151100441,0.7026,0.4199,-0.0439,129.09,66.59,51.89
199,151105442,0.6963,0.4233,-0.1787,129.57,66.40,50.61
200,151110441,0.7075,0.4365,-0.3330,129.45,65.37,49.09
201,151115442,0.6914,0.4336,-0.1841,129.45,65.18,47.01
202,151120444,0.6851,0.4258,-0.0376,129.33,66.22,44.76
203,151125442,0.6841,0.4004,-0.1821,129.15,66.77,42.62
204,151130441,0.6860,0.3779,-0.2773,129.09,66.46,40.49
205,151135442,0.6763,0.3623,-0.1421,128.48,66.95,38.35
206,151140442,0.6836,0.3442,-0.0532,126.40,67.93,36.40
207,151145442,0.7144,0.3286,-0.1660,124.02,68.66,35.37
208,151150442,0.6934,0.3706,-0.2603,122.44,68.66,33.96
209,151155442,0.6709,0.3428,-0.1294,120.91,68.72,32.26
210,151160441,0.7090,0.3457,-0.0884,119.39,69.02,30.55
211,151165442,0.7251,0.3223,-0.1875,118.29,69.02,28.90
212,151170441,0.7441,0.3062,-0.1855,116.95,68.35,27.44
213,151175442,0.7495,0.2979,-0.0796,116.10,68.17,26.16
214,151180440,0.7163,0.3149,-0.0605,115.30,68.23,24.63
215,151185443,0.7251,0.3188,-0.1650,114.21,67.80,23.17
216,151190442,0.7212,0.3062,-0.1440,113.17,67.20,21.52
217,151195444,0.7397,0.3071,-0.0205,111.89,66.71,19.94
218,151200442,0.7734,0.3086,-0.0552,110.55,66.71,18.35
219,151205444,0.7715,0.2832,-0.1323,109.15,65.79,16.95
220,151210441,0.7646,0.2803,-0.0264,107.87,65.49,15.91
221,151215442,0.7642,0.2974,0.0127,105.91,65.18,14.27
222,151220441,0.7559,0.2798,-0.1099,104.21,64.63,13.17
223,151225442,0.7729,0.2886,-0.1035,101.83,64.02,11.59
224,151230441,0.7744,0.2871,0.0034,100.24,63.96,10.73
225,151235444,0.7734,0.2744,-0.0098,97.87,63.41,9.39
226,151240441,0.7969,0.2847,-0.1069,96.22,62.62,8.54
227,151245442,0.7930,0.2861,-0.0620,94.27,62.01,7.38
228,151250442,0.7900,0.2891,-0.0049,92.38,61.77,6.34
229,151255442,0.8062,0.2988,-0.0410,90.55,61.46,5.24
230,151260442,0.8008,0.2974,-0.0889,88.96,60.67,4.02
231,151265442,0.8149,0.3096,-0.0225,87.20,59.94,2.99
232,151270441,0.8096,0.3135,0.0098,85.61,59.82,1.71
233,151275444,0.8320,0.3228,-0.0244,84.21,59.45,0.49
234,151280442,0.8325,0.3267,-0.0547,83.23,58.72,-0.91
235,151285441,0.8184,0.3237,-0.0186,82.20,58.17,-2.01
236,151290440,0.8354,0.3345,-0.0005,81.40,57.68,-3.48
237,151295442,0.8438,0.3418,-0.0571,80.85,56.77,-4.76
238,151300442,0.8599,0.3423,-0.0884,80.24,55.67,-6.16
239,151305442,0.8828,0.3472,-0.0488,79.63,54.39,-7.62
240,151310441,0.8931,0.3481,-0.0693,79.15,52.87,-9.09
241,151315442,0.9209,0.3584,-0.1143,78.48,51.04,-10.49
242,151320441,0.9468,0.3545,-0.1206,77.50,48.96,-11.77
243,151325832,1.0073,0.3535,-0.1177,75.98,46.34,-13.35
244,151330442,1.0562,0.3530,-0.1177,74.76,44.88,-14.15
245,151335442,1.1235,0.3301,-0.1470,73.35,42.01,-15.00
246,151340442,1.1699,0.3057,-0.1235,71.52,39.51,-15.43
247,151345442,1.2173,0.2959,-0.1035,69.63,37.26,-15.37
248,151350442,1.2524,0.2344,-0.1509,67.87,35.24,-14.57
249,151355443,1.2666,0.1987,-0.1909,66.46,32.99,-12.62
250,151360442,1.2925,0.1831,-0.1855,66.16,31.16,-9.94
251,151365441,1.2847,0.1621,-0.2075,67.68,29.94,-7.01
252,151370442,1.1289,0.1719,-0.2896,70.49,28.72,-3.35
253,151375442,1.0015,0.2422,-0.3413,73.72,27.13,-0.49
254,151380442,0.9521,0.2778,-0.3315,77.80,26.10,1.59
255,151385440,0.9551,0.2954,-0.3003,82.56,25.49,3.35
256,151390441,0.9800,0.3184,-0.3066,87.74,25.24,4.94
257,151395442,0.9868,0.3442,-0.3223,93.60,25.37,6.28
258,151400441,0.9604,0.3374,-0.3350,99.39,25.18,7.74
259,151405442,0.9819,0.3843,-0.3271,105.61,25.43,9.27
260,151410441,0.9980,0.4248,-0.3569,111.65,25.55,10.49
261,151415442,0.9893,0.4336,-0.3730,117.07,26.22,11.46
262,151420441,1.0684,0.4136,-0.3877,122.50,26.95,12.93
263,151425442,1.1084,0.4229,-0.3945,128.48,27.74,14.51
264,151430441,1.0942,0.4448,-0.4297,132.38,28.78,16.10
265,151435442,1.0776,0.4575,-0.4702,138.17,30.12,17.68
266,151440441,1.0679,0.4556,-0.4907,143.48,31.52,19.39
267,151445442,1.0742,0.4600,-0.5068,148.90,32.99,21.16
268,151450440,1.0840,0.4692,-0.5312,154.15,34.88,22.87
269,151455442,1.0967,0.4814,-0.5190,159.82,37.01,24.57
270,151460441,1.0762,0.4717,-0.5552,165.85,39.21,26.40
271,151465442,1.0391,0.4634,-0.5889,171.52,41.52,28.35
272,151470442,1.0479,0.4819,-0.5762,176.83,44.15,30.06
273,151475442,1.0469,0.4868,-0.6001,181.71,47.01,31.83
274,151480442,1.0405,0.4746,-0.6182,185.98,49.94,33.60
275,151485442,1.0474,0.4805,-0.6064,189.57,52.87,35.18
276,151490443,1.0342,0.4722,-0.6167,191.95,55.79,36.52
277,151495465,1.0410,0.4883,-0.6040,193.11,59.02,37.74
278,151500442,1.0317,0.4722,-0.6226,193.60,62.20,38.78
279,151505442,1.0356,0.4702,-0.6353,193.72,65.37,39.63
280,151510441,1.0254,0.4531,-0.6353,193.41,68.41,40.79
281,151515442,1.0205,0.4541,-0.6304,192.56,71.52,41.65
282,151520441,0.9600,0.4717,-0.6938,191.46,74.51,42.32
283,151525442,0.9507,0.4604,-0.6514,191.34,77.26,42.62
284,151530441,0.9985,0.4565,-0.6362,190.98,80.24,43.05
285,151535442,1.0195,0.4438,-0.6372,190.06,83.48,43.29
286,151540441,1.0190,0.4360,-0.6113,189.09,84.33,43.29
287,151545442,1.0171,0.4194,-0.5767,188.17,85.98,43.35
288,151550441,1.0195,0.4058,-0.5664,186.89,89.45,43.23
289,151555442,1.0244,0.3960,-0.5483,185.37,91.77,43.05
290,151560442,1.0210,0.3853,-0.5205,183.41,93.78,42.74
291,151565444,1.0044,0.3799,-0.5010,180.79,95.61,42.32
292,151570441,0.9878,0.3608,-0.4663,178.11,97.07,41.77
293,151575442,0.9790,0.3345,-0.4502,175.18,98.72,41.34
294,151580690,0.9600,0.3237,-0.4111,172.13,99.82,40.85
295,151585443,0.9287,0.3472,-0.3774,168.96,101.16,40.24
296,151590759,0.9185,0.3374,-0.3901,165.43,101.95,39.39
297,151595443,0.9263,0.3311,-0.3613,161.89,102.44,38.48
298,151600440,0.9463,0.3359,-0.2949,158.78,102.80,37.50
299,151605440,0.9351,0.3569,-0.3042,156.16,103.11,36.16
300,151610442,0.7988,0.3301,-0.4014,154.21,102.80,34.88
301,151615442,0.8457,0.3223,-0.2983,154.09,102.44,33.23
302,151620441,0.9165,0.3262,-0.2075,153.72,102.50,31.71
303,151625442,0.9590,0.3462,-0.1729,153.17,102.38,30.18
304,151630441,0.9692,0.3545,-0.1709,152.38,101.95,28.66
305,151635444,0.9346,0.3838,-0.1494,151.65,101.46,27.38
306,151640441,0.8872,0.3848,-0.1304,151.52,100.67,25.73
307,151645442,0.8535,0.3872,-0.1372,151.77,99.76,24.09
308,151650441,0.8315,0.3813,-0.1274,152.44,98.35,22.20
309,151655442,0.7964,0.3862,-0.1187,153.48,96.95,20.49
310,151660441,0.7925,0.4219,-0.0933,154.76,95.24,18.23
311,151665442,0.7617,0.4102,-0.0718,155.98,93.72,15.91
312,151670442,0.7314,0.4214,-0.0493,157.20,91.83,13.35
313,151675440,0.7358,0.3911,0.0117,158.23,90.18,10.91
314,151680442,0.6846,0.4062,-0.0410,159.82,87.93,8.60
315,151685442,0.6279,0.4316,0.0591,162.07,86.34,6.16
316,151690441,0.5898,0.4141,0.0435,164.57,85.49,3.48
317,151695440,0.5801,0.4077,0.0474,167.56,85.24,0.91
318,151700440,0.5620,0.4062,0.0747,171.04,84.82,-1.83
319,151705442,0.4805,0.4116,0.0967,175.18,83.41,-4.57
320,151710442,0.4751,0.4146,0.0786,179.63,81.83,-7.13
321,151715442,0.4893,0.4219,0.1055,184.57,81.10,-9.51
322,151720441,0.5093,0.4121,0.1187,189.21,80.49,-11.95
323,151725442,0.5176,0.3853,0.1460,193.72,79.88,-14.21
324,151730442,0.5312,0.4272,0.1724,198.17,79.76,-16.83
325,151735442,0.5483,0.4009,0.1606,201.59,79.27,-19.45
326,151740441,0.5000,0.4365,0.1562,204.76,78.78,-22.07
327,151745442,0.4609,0.4243,0.1738,207.99,78.17,-24.82
328,151750441,0.4209,0.4634,0.1675,211.46,77.62,-27.50
329,151755442,0.4199,0.4194,0.1953,214.33,76.95,-30.49
330,151760442,0.4043,0.3926,0.1938,216.89,76.28,-32.99
331,151765441,0.3501,0.4360,0.1646,219.94,75.24,-35.67
332,151770442,0.3667,0.3984,0.1685,223.60,74.09,-38.72
333,151775445,0.3779,0.3696,0.1885,227.01,72.56,-41.16
334,151780442,0.3745,0.3569,0.2041,230.00,71.28,-43.35
335,151785477,0.3721,0.3389,0.2100,232.38,69.94,-45.30
336,151790442,0.3696,0.3486,0.2139,234.09,68.60,-47.07
337,151795440,0.3535,0.3594,0.2134,235.00,67.20,-48.84
338,151800441,0.3281,0.3848,0.2124,235.12,65.61,-50.79
339,151805442,0.3105,0.3667,0.2119,234.63,63.90,-52.87
340,151810442,0.3008,0.3608,0.2148,233.60,62.01,-54.76
341,151815442,0.2949,0.3511,0.2104,231.89,60.24,-56.52
342,151820441,0.2861,0.3740,0.2271,230.24,58.29,-58.23
343,151825442,0.2798,0.3564,0.2378,227.93,56.59,-60.12
344,151830441,0.2764,0.3647,0.2188,225.06,54.94,-61.71
345,151835442,0.2725,0.3770,0.2007,221.59,52.80,-63.54
346,151840441,0.2666,0.3936,0.1890,217.20,50.67,-65.30
347,151845442,0.2622,0.4077,0.1865,212.26,48.23,-67.20
348,151850441,0.2695,0.4146,0.1826,206.59,45.43,-69.33
349,151855442,0.2783,0.4165,0.1733,200.98,42.38,-71.34
350,151860441,0.2734,0.4277,0.1704,195.43,39.21,-73.35
351,151865444,0.2622,0.4478,0.1777,190.18,35.85,-75.43
352,151870441,0.2461,0.4590,0.1851,185.61,32.32,-77.68
353,151875442,0.2324,0.4673,0.1953,181.95,28.66,-79.94
354,151880441,0.2153,0.4585,0.2363,179.21,25.37,-82.13
355,151885444,0.2109,0.4478,0.2529,177.32,22.44,-84.21
356,151890441,0.1987,0.4595,0.2510,176.22,19.57,-86.22
357,151895440,0.1934,0.4771,0.2461,176.22,16.95,-88.54
358,151900441,0.1943,0.4858,0.2412,176.65,13.90,-91.04
359,151905442,0.1816,0.4858,0.2397,177.74,10.85,-93.72
360,151910444,0.1826,0.4839,0.2407,179.09,7.74,-96.52
361,151915442,0.1870,0.4780,0.2368,180.98,4.70,-99.63
362,151920441,0.1953,0.4902,0.2188,183.17,1.71,-102.56
363,151925444,0.1924,0.4922,0.1895,185.49,-1.40,-105.79
364,151930441,0.1865,0.4961,0.1616,187.74,-4.45,-109.21
365,151935442,0.1685,0.5034,0.1436,189.82,-7.68,-112.74
366,151940441,0.1465,0.5034,0.1157,191.40,-10.98,-116.10
367,151945442,0.1177,0.5068,0.0977,192.44,-14.02,-119.82
368,151950441,0.0903,0.5117,0.0952,192.68,-17.50,-123.72
369,151955445,0.0586,0.5210,0.0903,192.20,-20.49,-127.62
370,151960442,0.0190,0.5288,0.0771,190.85,-23.84,-131.71
371,151965443,-0.0205,0.5415,0.0645,188.29,-27.01,-136.04
372,151970442,-0.0625,0.5601,0.0796,184.94,-30.24,-140.55
373,151975441,-0.1011,0.5791,0.0845,180.49,-33.41,-145.43
374,151980442,-0.1177,0.5947,0.0957,175.18,-36.71,-150.73
375,151985442,-0.1377,0.6172,0.1016,169.09,-39.76,-156.34
376,151990442,-0.1538,0.6416,0.1128,162.80,-42.99,-162.20
377,151995440,-0.1807,0.6631,0.1104,156.22,-46.10,-168.17
378,152000440,-0.2153,0.6890,0.1196,149.51,-49.45,-174.33
379,152005441,-0.2485,0.7085,0.1274,143.23,-52.74,-180.55
380,152010443,-0.2891,0.7319,0.1431,137.13,-56.16,-186.77
381,152015442,-0.3364,0.7480,0.1597,132.20,-59.39,-193.11
382,152020441,-0.3848,0.7661,0.1724,127.56,-62.80,-199.39
383,152025442,-0.4395,0.7817,0.1846,122.26,-66.16,-205.30
384,152030441,-0.4980,0.7954,0.1865,117.50,-69.63,-211.28
385,152035442,-0.5576,0.8071,0.2051,113.11,-73.29,-217.01
386,152040441,-0.6299,0.8188,0.2114,108.54,-77.07,-222.68
387,152045442,-0.6797,0.8301,0.2300,103.96,-81.28,-227.99
388,152050441,-0.7280,0.8477,0.2524,99.33,-85.49,-232.99
389,152055442,-0.7866,0.8696,0.2695,94.94,-90.30,-237.80
390,152060441,-0.8452,0.8965,0.2749,91.59,-94.09,-241.46
391,152065442,-0.9214,0.9277,0.2881,86.95,-100.67,-246.65
392,152070441,-0.9683,0.9458,0.3013,84.02,-105.30,-249.82
393,152075442,-1.0571,0.9819,0.3350,80.12,-112.50,-253.96
394,152080441,-1.1104,1.0024,0.3516,77.80,-117.80,-256.65
395,152085444,-1.1714,1.0273,0.3691,75.24,-124.39,-259.70
396,152090441,-1.2300,1.0669,0.3857,73.11,-131.52,-262.38
397,152095442,-1.2944,1.0977,0.3921,71.65,-138.78,-264.82
398,152100440,-1.3530,1.1426,0.3887,70.91,-146.59,-266.83
399,152105440,-1.4062,1.1875,0.3872,71.10,-154.63,-268.60
400,152110441,-1.4629,1.2271,0.4038,72.26,-162.99,-269.76
401,152115442,-1.5386,1.2754,0.4697,73.72,-171.59,-270.37
402,152120442,-1.6196,1.2773,0.4248,73.96,-180.37,-270.18
403,152125442,-1.6636,1.3340,0.3872,74.94,-189.76,-269.70
404,152130441,-1.7227,1.3633,0.4023,76.95,-199.39,-268.48
405,152135444,-1.7822,1.3623,0.4272,78.96,-209.70,-266.65
406,152140441,-1.8394,1.3916,0.4209,80.73,-220.12,-264.15
407,152145442,-1.8955,1.4438,0.3979,82.13,-231.04,-261.22
408,152150441,-1.9355,1.4478,0.3999,82.80,-242.87,-257.93
409,152155442,-2.0093,1.4614,0.3647,83.96,-254.57,-254.15
410,152160441,-2.0723,1.4980,0.3174,85.91,-267.13,-249.94
411,152165440,-2.1025,1.5474,0.2842,88.66,-279.88,-245.30
412,152170442,-2.0400,1.5957,0.3311,91.10,-292.68,-240.55
413,152175442,-2.2500,1.5864,0.2725,91.16,-305.49,-235.49
414,152180442,-2.3599,1.6113,0.0835,90.30,-318.17,-231.40
415,152185441,-2.3594,1.6211,0.0381,89.27,-331.34,-226.10
416,152190441,-2.3921,1.6777,-0.0894,90.30,-344.70,-220.06
417,152195444,-2.4233,1.6963,-0.0786,93.78,-357.93,-213.41
418,152200443,-2.4521,1.7529,-0.0986,99.09,-370.98,-206.10
419,152205443,-2.5371,1.7617,-0.1812,105.85,-383.78,-198.05
420,152210442,-2.5996,1.7773,-0.2549,113.84,-396.71,-189.15
421,152215442,-2.6592,1.8159,-0.2861,122.26,-409.21,-179.27
422,152220442,-2.6860,1.8130,-0.3218,131.04,-421.16,-168.41
423,152225443,-2.7529,1.8350,-0.3984,140.43,-433.05,-156.65
424,152230442,-2.8403,1.8691,-0.3872,148.78,-444.15,-144.27
425,152235442,-2.9272,1.9043,-0.4482,156.40,-454.27,-130.91
426,152240442,-3.0430,1.9077,-0.5342,161.77,-464.45,-116.77
427,152245640,-3.1450,1.9360,-0.5361,165.24,-473.78,-101.83
428,152250442,-3.2183,1.9512,-0.5493,166.95,-482.01,-86.16
429,152255442,-3.3042,1.9556,-0.5942,166.65,-489.57,-69.82
430,152260442,-3.3794,2.0083,-0.6309,164.70,-496.52,-52.87
431,152265441,-3.4771,2.0493,-0.6660,162.38,-502.44,-35.55
432,152270442,-3.5752,2.0947,-0.7021,160.06,-507.62,-17.80
433,152275443,-3.6406,2.1138,-0.7300,157.32,-512.38,0.18
434,152280442,-3.7090,2.1387,-0.7539,154.82,-516.04,18.66
435,152285441,-3.7749,2.1763,-0.7998,152.44,-519.27,37.13
436,152290442,-3.8564,2.2124,-0.8433,150.18,-522.20,56.04
437,152295440,-3.9302,2.2476,-0.9043,148.23,-524.57,74.94
438,152300440,-4.0020,2.2827,-0.9697,147.13,-526.59,93.96
439,152305440,-4.0845,2.3218,-1.0249,147.38,-527.80,113.29
440,152310440,-4.1650,2.3618,-1.0430,149.51,-528.60,132.74
441,152315440,-4.2319,2.3896,-1.0938,153.11,-528.84,152.13
442,152320440,-4.3008,2.4268,-1.1309,157.80,-528.60,171.59
443,152325440,-4.3628,2.4580,-1.1436,162.87,-527.93,191.10
444,152330440,-4.4365,2.4878,-1.1562,167.80,-526.77,210.49
445,152335440,-4.5049,2.5122,-1.1636,172.13,-524.70,229.70
446,152340440,-4.5571,2.5396,-1.1895,175.18,-521.83,248.84
447,152345440,-4.6133,2.5771,-1.2207,175.79,-518.35,267.44
448,152350440,-4.6489,2.6064,-1.2866,173.60,-513.96,285.30
449,152355441,-4.6543,2.6265,-1.3516,167.93,-509.09,302.50
450,152360508,-4.6650,2.6509,-1.4160,159.70,-503.29,318.60
451,152365444,-4.6689,2.6289,-1.4702,149.39,-496.89,333.84
452,152370442,-4.6572,2.6279,-1.5122,137.87,-489.88,348.11
453,152375440,-4.6313,2.6084,-1.6294,126.10,-482.01,361.28
454,152380442,-4.6055,2.6060,-1.6953,113.72,-473.41,373.48
455,152385443,-4.5669,2.5894,-1.7524,102.20,-464.21,384.88
456,152390442,-4.5112,2.5698,-1.8247,91.34,-454.76,395.49
457,152395441,-4.4395,2.5527,-1.8926,80.55,-444.51,405.30
458,152400442,-4.3667,2.5244,-1.9336,69.76,-434.33,414.57
459,152405442,-4.2964,2.5000,-2.0059,58.17,-423.72,423.05
460,152410442,-4.2197,2.4648,-2.0723,45.06,-413.60,430.91
461,152415441,-4.1606,2.4106,-2.1133,30.73,-403.41,438.17
462,152420443,-4.0737,2.3628,-2.1626,15.73,-393.60,445.24
463,152425442,-4.0396,2.3101,-2.2280,1.40,-383.72,452.01
464,152430442,-4.0254,2.2544,-2.2852,-12.13,-374.33,458.48
465,152435441,-3.9565,2.1860,-2.3521,-25.00,-365.24,464.88
466,152440443,-3.8838,2.1074,-2.3848,-37.07,-356.52,471.28
467,152445442,-3.7925,2.0459,-2.4346,-48.11,-347.93,477.32
468,152450442,-3.7236,1.9893,-2.4688,-57.32,-339.27,483.48
469,152455443,-3.6748,1.9160,-2.4634,-64.39,-330.37,489.51
470,152460442,-3.6270,1.8433,-2.4624,-70.24,-321.46,495.55
471,152465442,-3.5684,1.7856,-2.4751,-74.82,-312.87,501.77
472,152470442,-3.5278,1.7158,-2.4829,-77.32,-303.96,508.29
473,152475441,-3.4927,1.6445,-2.4360,-77.68,-295.06,515.24
474,152480442,-3.4644,1.5845,-2.4175,-77.44,-286.10,522.38
475,152485443,-3.4453,1.5181,-2.3730,-77.44,-276.95,529.63
476,152490442,-3.4292,1.4409,-2.3262,-75.73,-267.62,537.07
477,152495441,-3.3887,1.3662,-2.2827,-72.68,-258.35,544.45
478,152500442,-3.3696,1.2949,-2.2393,-69.88,-248.66,551.77
479,152505442,-3.3745,1.2095,-2.1885,-67.07,-238.78,558.78
480,152510442,-3.3862,1.1235,-2.1387,-63.66,-228.84,565.67
481,152515878,-3.3750,1.0459,-2.0796,-59.27,-218.90,572.26
482,152520442,-3.3447,0.9565,-2.0464,-55.73,-208.90,578.41
483,152525442,-3.3130,0.8550,-1.9956,-53.05,-199.09,583.84
484,152530440,-3.2949,0.7729,-1.9282,-51.40,-189.21,588.78
485,152536360,-3.2715,0.6733,-1.8789,-50.73,-177.80,593.35
486,152540444,-3.2373,0.6104,-1.8535,-50.67,-170.37,596.04
487,152545441,-3.1870,0.5210,-1.7827,-51.10,-161.34,598.66
488,152550442,-3.1416,0.4546,-1.7300,-52.44,-152.26,600.55
489,152555441,-3.1025,0.3926,-1.6685,-54.21,-143.54,601.71
490,152560443,-3.0703,0.3203,-1.6177,-55.98,-134.70,602.07
491,152565441,-3.0273,0.2651,-1.5693,-56.34,-126.04,602.32
492,152570442,-2.9780,0.2412,-1.5181,-55.61,-117.26,602.01
493,152575441,-2.9312,0.2046,-1.4604,-54.02,-108.23,601.22
494,152580443,-2.8770,0.1636,-1.4272,-51.59,-99.21,599.88
495,152585441,-2.8145,0.1221,-1.3970,-47.50,-90.00,598.05
496,152590442,-2.7529,0.0908,-1.3516,-41.59,-80.06,596.10
497,152595441,-2.6934,0.0513,-1.3101,-35.06,-70.12,593.96
498,152600443,-2.6230,0.0122,-1.2798,-28.60,-60.00,591.34
499,152605442,-2.5513,-0.0264,-1.2568,-21.52,-49.70,588.48
500,152610442,-2.4873,-0.0684,-1.2251,-14.09,-38.90,585.37
501,152615441,-2.4233,-0.1084,-1.1851,-5.91,-28.05,581.89
502,152620440,-2.3657,-0.1606,-1.1738,2.68,-17.20,577.87
503,152625444,-2.3174,-0.2046,-1.1436,10.98,-6.22,573.66
504,152630441,-2.2568,-0.2524,-1.1006,18.29,4.63,569.02
505,152635442,-2.2090,-0.2891,-1.0669,24.27,15.18,564.02
506,152640441,-2.1694,-0.3154,-1.0234,28.72,25.55,558.66
507,152645442,-2.1157,-0.3408,-0.9824,31.34,35.49,552.68
508,152650441,-2.0659,-0.3755,-0.9380,32.44,44.82,546.28
509,152655440,-2.0234,-0.4146,-0.9180,31.52,53.41,539.45
510,152660443,-1.9683,-0.4482,-0.8740,27.99,61.28,532.01
511,152665442,-1.9219,-0.4854,-0.8325,22.68,68.41,524.15
512,152670442,-1.8589,-0.5273,-0.8252,15.24,74.57,515.61
513,152675443,-1.7822,-0.5781,-0.7910,6.10,79.94,506.89
514,152680442,-1.7119,-0.6304,-0.7495,-4.33,84.94,497.44
515,152685442,-1.6436,-0.6885,-0.7344,-15.00,86.10,487.99
516,152690442,-1.6079,-0.7202,-0.7212,-25.30,88.54,478.72
517,152695440,-1.5469,-0.7749,-0.6870,-34.82,89.94,469.33
518,152700443,-1.4985,-0.8228,-0.6694,-42.80,91.46,459.94
519,152705442,-1.4458,-0.8647,-0.6484,-48.41,91.16,450.91
520,152710442,-1.4038,-0.9067,-0.6206,-51.46,91.10,442.13
521,152715442,-1.3647,-0.9507,-0.5820,-51.95,90.73,433.78
522,152720441,-1.3267,-0.9834,-0.5493,-49.88,90.18,425.85
523,152725442,-1.2866,-1.0200,-0.5264,-45.73,89.39,418.17
524,152730442,-1.2500,-1.0562,-0.4932,-39.70,88.84,410.37
525,152735442,-1.2134,-1.0908,-0.4434,-32.20,87.93,402.68
526,152740441,-1.1665,-1.1177,-0.4321,-23.96,88.05,394.70
527,152745442,-1.1924,-1.1470,-0.3911,-16.22,87.87,386.59
528,152750441,-1.2070,-1.1938,-0.3618,-9.15,88.29,378.23
529,152755440,-1.1611,-1.2598,-0.3223,-3.48,89.02,369.45
530,152760442,-1.1562,-1.2905,-0.3057,0.98,89.51,360.85
531,152766113,-1.1763,-1.3101,-0.2754,4.76,90.18,351.95
532,152770442,-1.1650,-1.3701,-0.2007,8.05,91.10,342.99
533,152775442,-1.1255,-1.4243,-0.2085,10.67,92.32,333.84
534,152780442,-1.1128,-1.4639,-0.1406,12.32,93.23,324.57
535,152785442,-1.0918,-1.4966,-0.0845,13.48,94.15,315.30
536,152790442,-1.0786,-1.5161,-0.0801,14.09,95.00,307.87
537,152795442,-1.0605,-1.5352,-0.0312,14.45,95.91,298.48
538,152800442,-1.0469,-1.5562,-0.0054,14.76,96.65,289.02
539,152805442,-1.0215,-1.5869,0.0400,14.51,97.26,279.88
540,152810442,-1.0312,-1.5933,0.0508,13.60,98.11,270.79
541,152815442,-1.0391,-1.5898,0.0718,13.05,98.54,261.65
542,152820442,-1.0723,-1.6123,0.0913,13.05,98.72,252.93
543,152825440,-1.0767,-1.6343,0.1084,13.05,99.21,244.45
544,152830442,-1.0830,-1.6504,0.1514,12.68,99.51,235.85
545,152835442,-1.0830,-1.6650,0.1782,11.28,99.57,227.44
546,152840441,-1.0835,-1.6924,0.1987,8.78,99.82,219.21
547,152845442,-1.0840,-1.7139,0.2358,5.67,99.70,211.04
548,152850441,-1.0913,-1.7427,0.2603,2.26,99.63,202.99
549,152855442,-1.0986,-1.7588,0.2627,-1.16,99.33,195.24
550,152860442,-1.1074,-1.7812,0.2900,-4.45,98.78,187.38
551,152865442,-1.1094,-1.8003,0.3164,-7.44,98.05,179.82
552,152870441,-1.1113,-1.8062,0.3145,-9.82,97.26,172.26
553,152875442,-1.0952,-1.8120,0.3408,-11.65,96.16,164.76
554,152880441,-1.0796,-1.8159,0.3599,-12.93,94.76,157.38
555,152885442,-1.0664,-1.8179,0.3652,-13.96,93.29,149.82
556,152890441,-1.0513,-1.8203,0.3809,-14.82,91.28,142.26
557,152895442,-1.0181,-1.8228,0.3945,-15.49,89.21,134.76
558,152900442,-0.9775,-1.8286,0.4170,-15.61,85.49,126.83
559,152905442,-0.9219,-1.8330,0.4272,-15.55,84.94,118.90
560,152910441,-0.8550,-1.8447,0.4326,-15.30,81.89,110.73
561,152915442,-0.7905,-1.8418,0.4419,-14.21,78.60,102.20
562,152920443,-0.7529,-1.8511,0.3950,-12.44,75.49,93.29
563,152925442,-0.7119,-1.8379,0.4019,-10.37,72.13,84.21
564,152930440,-0.6362,-1.8477,0.4102,-7.93,68.35,74.88
565,152935442,-0.5859,-1.8325,0.3872,-4.21,63.84,63.23
566,152940443,-0.5400,-1.8247,0.3701,-1.40,60.85,55.24
567,152945442,-0.4683,-1.8091,0.3662,1.83,56.83,45.18
568,152950442,-0.4595,-1.7842,0.3418,4.76,53.11,35.12
569,152955441,-0.4248,-1.7705,0.3584,7.56,49.02,24.94
570,152960442,-0.4165,-1.7495,0.3413,10.37,44.76,14.94
571,152965442,-0.3950,-1.7246,0.3027,13.72,40.79,5.12
572,152970442,-0.3789,-1.6816,0.3018,17.74,36.83,-4.63
573,152975441,-0.3716,-1.6523,0.2998,21.95,32.56,-14.21
574,152980442,-0.3638,-1.6006,0.2793,26.04,28.54,-23.35
575,152985442,-0.3530,-1.5942,0.2788,29.63,24.57,-32.44
576,152990442,-0.3525,-1.6060,0.2935,32.38,20.49,-40.85
577,152995441,-0.3535,-1.5913,0.2988,34.82,16.83,-49.02
578,153000442,-0.3525,-1.5586,0.2944,37.07,13.23,-56.89
579,153005443,-0.3545,-1.5229,0.3037,39.51,9.82,-64.51
580,153010442,-0.3647,-1.4990,0.2993,41.71,6.46,-71.71
581,153015441,-0.3833,-1.4785,0.3003,43.60,3.48,-78.41
582,153020442,-0.3960,-1.4614,0.2993,45.00,0.43,-84.88
583,153025495,-0.4121,-1.4600,0.2847,45.73,-2.38,-90.61
584,153030440,-0.4248,-1.4165,0.2954,45.12,-5.24,-96.22
585,153035441,-0.4048,-1.3711,0.2974,44.02,-7.56,-101.71
586,153040442,-0.3906,-1.3408,0.3164,43.17,-9.70,-107.07
587,153045442,-0.3818,-1.3188,0.3169,42.13,-11.83,-111.95
588,153050443,-0.3770,-1.2905,0.2812,41.04,-13.90,-116.28
589,153055441,-0.3765,-1.2563,0.2754,40.43,-16.10,-119.94
590,153060442,-0.3774,-1.2261,0.2769,40.12,-18.05,-123.35
591,153065442,-0.3848,-1.2036,0.2646,40.06,-19.45,-126.46
592,153070442,-0.3848,-1.1792,0.2539,40.12,-21.10,-129.15
593,153075441,-0.3799,-1.1528,0.2378,39.76,-22.38,-131.65
594,153080442,-0.3833,-1.1240,0.2192,39.21,-23.78,-133.78
595,153085443,-0.3745,-1.0972,0.2236,38.29,-24.82,-135.85
596,153090442,-0.3735,-1.0786,0.2153,36.77,-25.61,-137.56
597,153095441,-0.3633,-1.0566,0.2178,34.57,-26.46,-139.02
598,153100442,-0.3506,-1.0435,0.2158,31.77,-27.07,-140.24
599,153105442,-0.3311,-1.0200,0.2202,28.48,-27.56,-141.40
600,153110442,-0.3081,-1.0078,0.2251,25.00,-28.11,-142.44
601,153115441,-0.2905,-0.9844,0.2314,21.22,-28.23,-143.54
602,153120443,-0.2700,-0.9678,0.2432,17.56,-28.29,-144.33
603,153125442,-0.2480,-0.9595,0.2363,14.09,-28.11,-145.18
604,153130442,-0.2178,-0.9482,0.2368,10.79,-27.93,-145.79
605,153135441,-0.1973,-0.9399,0.2349,8.54,-27.62,-146.16
606,153140442,-0.1768,-0.9209,0.2334,7.01,-26.95,-146.40
607,153145442,-0.1606,-0.9209,0.2192,6.22,-26.22,-146.22
608,153150442,-0.1523,-0.9141,0.2168,5.85,-25.55,-145.91
609,153155441,-0.1431,-0.9106,0.2017,5.85,-24.88,-145.37
610,153160442,-0.1333,-0.8989,0.1846,6.04,-24.15,-144.94
611,153165443,-0.1235,-0.8823,0.1758,6.16,-23.35,-144.21
612,153170442,-0.1138,-0.8716,0.1631,6.10,-22.56,-143.54
613,153175441,-0.1021,-0.8579,0.1553,5.91,-21.95,-142.87
614,153180442,-0.0903,-0.8530,0.1431,5.37,-21.10,-142.26
615,153185442,-0.0864,-0.8418,0.1445,4.33,-20.55,-141.46
616,153190441,-0.0796,-0.8340,0.1450,2.87,-19.76,-140.85
617,153195443,-0.0693,-0.8247,0.1455,1.04,-18.96,-140.00
618,153200442,-0.0542,-0.8125,0.1416,-1.10,-18.29,-139.33
619,153205444,-0.0410,-0.8076,0.1460,-3.29,-17.56,-138.60
620,153210441,-0.0229,-0.7959,0.1445,-5.67,-16.83,-138.05
621,153215442,-0.0103,-0.7871,0.1304,-8.11,-16.22,-137.38
622,153220441,0.0078,-0.7827,0.1284,-10.30,-15.67,-136.77
623,153225440,0.0215,-0.7764,0.1216,-12.56,-15.12,-136.34
624,153230441,0.0405,-0.7778,0.1294,-14.57,-14.57,-135.98
625,153235442,0.0615,-0.7739,0.1240,-16.34,-14.15,-135.43
626,153240442,0.0815,-0.7729,0.1182,-17.80,-14.02,-135.00
627,153245442,0.0947,-0.7642,0.1206,-19.02,-13.66,-134.51
628,153250441,0.1060,-0.7578,0.1182,-19.94,-13.29,-134.02
629,153255444,0.1201,-0.7524,0.1172,-20.73,-13.29,-133.60
630,153260441,0.1284,-0.7485,0.1206,-21.46,-13.35,-133.29
631,153265442,0.1440,-0.7412,0.1152,-22.32,-13.48,-132.99
632,153270441,0.1553,-0.7363,0.1196,-23.35,-13.66,-132.62
633,153275442,0.1680,-0.7324,0.1143,-24.33,-13.96,-132.26
634,153280441,0.1768,-0.7314,0.1157,-25.55,-14.39,-131.95
635,153285442,0.1958,-0.7295,0.1108,-27.13,-14.82,-131.71
636,153290441,0.2026,-0.7275,0.1191,-28.78,-15.18,-131.71
637,153295442,0.2158,-0.7285,0.1162,-30.79,-15.73,-131.71
638,153300441,0.2300,-0.7227,0.1177,-33.23,-16.16,-131.71
639,153305442,0.2427,-0.7227,0.1216,-35.73,-16.52,-131.77
640,153310441,0.2563,-0.7241,0.1255,-38.29,-16.59,-131.89
641,153315444,0.2637,-0.7300,0.1230,-40.91,-16.95,-132.20
642,153320441,0.2646,-0.7295,0.1270,-42.99,-17.01,-132.32
643,153325442,0.2817,-0.7275,0.1255,-44.63,-16.71,-132.56
644,153330440,0.2969,-0.7246,0.1255,-45.79,-16.59,-132.68
645,153335441,0.3149,-0.7197,0.1338,-46.40,-16.40,-132.87
646,153340529,0.3340,-0.7114,0.1294,-46.34,-16.04,-132.99
647,153345442,0.3486,-0.7080,0.1279,-45.91,-15.79,-133.11
648,153350442,0.3638,-0.7095,0.1143,-45.24,-15.55,-133.17
649,153355442,0.3760,-0.7129,0.1118,-44.63,-15.43,-133.17
650,153360441,0.3730,-0.7134,0.1143,-44.45,-15.43,-133.05
651,153365442,0.3857,-0.7158,0.1172,-44.63,-15.37,-133.05
652,153370441,0.3975,-0.7158,0.1113,-45.18,-15.30,-133.05
653,153375442,0.4062,-0.7202,0.1035,-46.04,-15.18,-133.11
654,153380441,0.4136,-0.7207,0.0942,-46.83,-15.12,-133.17
655,153385442,0.4097,-0.7212,0.0884,-47.62,-15.24,-133.11
656,153390441,0.4189,-0.7217,0.0913,-48.11,-15.18,-133.29
657,153395444,0.4419,-0.7148,0.0801,-48.11,-15.12,-133.29
658,153400441,0.4595,-0.7148,0.0815,-47.56,-15.12,-133.29
659,153405653,0.4673,-0.6802,0.0503,-45.43,-15.12,-132.80
660,153410442,0.4795,-0.6641,0.0752,-42.01,-15.06,-132.01
661,153415443,0.4946,-0.7104,0.0776,-38.54,-15.18,-131.34
662,153420442,0.5132,-0.7246,0.0391,-35.24,-15.30,-131.22
663,153425441,0.5908,-0.7349,0.0254,-32.68,-15.85,-131.16
664,153430442,0.5664,-0.6777,0.0752,-32.01,-16.52,-131.46
665,153435443,0.5635,-0.6514,0.0273,-33.23,-17.13,-132.13
666,153440442,0.5752,-0.6396,-0.0171,-36.10,-17.99,-132.87
667,153445442,0.5713,-0.6245,0.0415,-40.06,-18.66,-134.02
668,153450441,0.6006,-0.6465,0.0381,-44.88,-18.96,-135.18
669,153455442,0.5864,-0.6274,0.0273,-50.37,-19.15,-136.28
670,153460441,0.5908,-0.6123,-0.0034,-56.46,-19.09,-137.56
671,153465442,0.6265,-0.5938,-0.0024,-63.29,-19.27,-138.84
672,153470441,0.7188,-0.5991,-0.0752,-70.00,-20.00,-139.82
673,153475442,0.6558,-0.5527,0.0654,-81.95,-20.79,-141.52
674,153480441,0.6260,-0.5557,-0.0244,-89.09,-20.37,-142.87
675,153485442,0.6455,-0.5737,-0.0991,-97.26,-20.55,-144.15
676,153490441,0.6460,-0.5669,0.0034,-104.51,-20.37,-145.06
677,153495442,0.6738,-0.5352,0.0049,-110.61,-19.63,-145.85
678,153500441,0.6963,-0.5093,-0.1040,-115.30,-19.39,-146.77
679,153505442,0.7114,-0.5029,-0.0913,-118.66,-18.96,-147.50
680,153510441,0.7168,-0.5024,-0.0288,-121.40,-18.05,-148.23
681,153515442,0.7100,-0.4937,-0.0361,-123.23,-16.71,-149.02
682,153520441,0.7676,-0.5020,-0.1211,-124.15,-15.73,-149.70
683,153525442,0.7798,-0.4937,-0.1201,-123.90,-14.94,-150.12
684,153530488,0.7324,-0.4731,-0.0635,-122.99,-13.11,-150.43
685,153535445,0.7344,-0.4385,-0.0752,-121.04,-11.22,-150.79
686,153540441,0.8335,-0.3091,-0.1030,-114.82,-11.52,-152.56
687,153545640,0.8833,-0.5273,-0.1387,-107.01,-12.26,-154.27
688,153550442,0.9897,-0.3843,-0.2466,-99.82,-14.15,-155.55
689,153555442,0.9551,-0.3423,-0.0786,-90.24,-15.79,-157.07
690,153560442,0.9106,-0.3184,-0.1123,-80.85,-17.26,-157.80
691,153565445,0.8936,-0.3467,-0.2607,-71.89,-19.09,-157.80
692,153570442,0.8892,-0.4077,-0.1987,-63.29,-20.91,-157.38
693,153575442,0.9062,-0.4722,-0.1138,-55.06,-21.83,-156.65
694,153580442,0.9282,-0.4971,-0.1831,-47.56,-22.80,-155.30
695,153586585,0.9131,-0.3970,-0.1777,-38.29,-24.63,-153.41
696,153590444,0.8975,-0.3730,-0.2251,-35.00,-25.91,-152.13
697,153595442,0.8716,-0.2969,-0.1504,-30.73,-26.28,-150.30
698,153600441,0.8647,-0.2603,-0.2188,-27.38,-26.89,-148.48
699,153605446,0.8647,-0.2700,-0.2837,-25.18,-27.20,-146.52
700,153610442,0.8545,-0.3071,-0.2109,-24.02,-27.26,-144.39
701,153615442,0.8481,-0.3364,-0.1694,-23.72,-26.77,-142.07
702,153620441,0.8521,-0.3276,-0.2432,-24.21,-26.10,-139.82
703,153625442,0.8481,-0.2793,-0.2788,-25.18,-25.67,-137.68
704,153630441,0.8389,-0.2217,-0.1948,-26.46,-24.88,-135.55
705,153635442,0.8369,-0.1606,-0.1777,-28.05,-23.35,-133.66
706,153640440,0.8438,-0.1284,-0.2549,-29.63,-22.20,-131.71
707,153645440,0.8511,-0.1240,-0.2607,-31.22,-21.04,-129.94
708,153650442,0.8574,-0.1260,-0.1895,-32.93,-19.45,-128.05
709,153655442,0.8677,-0.1328,-0.1870,-34.39,-17.74,-126.16
710,153660441,0.8813,-0.1182,-0.2559,-35.24,-16.46,-124.39
711,153665442,0.8882,-0.0811,-0.2451,-35.61,-15.30,-122.62
712,153670441,0.8838,-0.0327,-0.1924,-35.55,-13.66,-120.79
713,153675442,0.8784,0.0068,-0.1992,-34.94,-12.01,-119.09
714,153680441,0.8735,0.0293,-0.2510,-33.96,-10.61,-117.56
715,153685442,0.8662,0.0425,-0.2334,-32.62,-9.51,-116.04
716,153690441,0.8506,0.0449,-0.1948,-31.10,-7.93,-114.33
717,153695442,0.8413,0.0469,-0.2192,-29.70,-6.52,-112.62
718,153700440,0.8403,0.0596,-0.2563,-28.05,-5.49,-110.98
719,153705444,0.8457,0.0815,-0.2129,-26.46,-4.33,-109.39
720,153710491,0.8662,0.1074,-0.1865,-24.94,-2.99,-107.80
721,153715445,0.8896,0.1318,-0.1997,-23.35,-1.89,-106.28
722,153720441,0.9136,0.1489,-0.2070,-21.95,-0.85,-104.94
723,153725442,0.9312,0.1577,-0.1743,-20.79,0.12,-103.29
724,153730441,0.9487,0.1670,-0.1553,-19.45,1.28,-102.01
725,153735442,0.9629,0.1763,-0.1685,-18.48,2.26,-100.43
726,153740441,0.9683,0.1914,-0.1787,-17.80,3.05,-99.39
727,153745442,0.9634,0.2095,-0.1484,-17.13,4.02,-98.11
728,153750442,0.9546,0.2290,-0.1411,-16.95,5.00,-97.01
729,153755536,0.9443,0.2529,-0.1689,-17.13,5.73,-96.10
730,153760442,0.9390,0.2642,-0.1812,-17.62,6.59,-95.00
731,153765442,0.9307,0.2637,-0.1611,-18.48,7.26,-94.09
732,153770441,0.9272,0.2710,-0.1597,-19.70,7.93,-93.48
733,153775444,0.9209,0.2686,-0.1812,-21.16,8.48,-92.44
734,153780441,0.9219,0.2764,-0.1689,-23.05,9.09,-91.71
735,153785442,0.9277,0.2783,-0.1484,-25.30,9.82,-90.91
736,153790441,0.9404,0.2891,-0.1558,-27.68,10.49,-90.06
737,153795442,0.9565,0.2959,-0.1729,-30.24,11.28,-89.21
738,153800441,0.9629,0.3062,-0.1680,-32.99,11.89,-88.35
739,153805442,0.9678,0.3125,-0.1431,-35.43,12.62,-87.44
740,153810441,0.9663,0.3208,-0.1562,-37.74,13.48,-86.71
741,153815444,0.9653,0.3242,-0.1572,-39.70,14.33,-85.91
742,153820441,0.9590,0.3330,-0.1484,-41.71,15.30,-85.06
743,153825442,0.9497,0.3354,-0.1357,-43.41,16.10,-84.21
744,153830441,0.9438,0.3467,-0.1543,-45.18,17.07,-83.29
745,153835442,0.9399,0.3501,-0.1699,-46.65,17.80,-82.38
746,153840441,0.9341,0.3467,-0.1631,-48.23,18.48,-81.46
747,153845443,0.9346,0.3447,-0.1685,-49.82,19.21,-80.49
748,153850440,0.9302,0.3394,-0.1797,-51.40,19.76,-79.33
749,153855444,0.9360,0.3389,-0.1821,-52.74,20.18,-78.29
750,153860441,0.9282,0.3350,-0.1670,-54.15,20.79,-77.20
751,153865442,0.9302,0.3350,-0.1655,-55.12,21.22,-75.85
752,153870441,0.9346,0.3315,-0.1763,-56.04,21.71,-74.51
753,153875442,0.9360,0.3364,-0.1738,-56.52,22.07,-73.23
754,153880441,0.9380,0.3340,-0.1660,-56.65,22.68,-71.95
755,153885444,0.9370,0.3374,-0.1567,-56.10,22.93,-70.61
756,153890441,0.9360,0.3408,-0.1680,-55.37,23.23,-69.27
757,153895442,0.9346,0.3447,-0.1650,-54.09,23.48,-68.05
758,153900441,0.9424,0.3306,-0.1587,-52.50,23.66,-66.65
759,153905442,0.9585,0.3188,-0.1567,-50.98,23.60,-65.06
760,153910441,0.9600,0.3159,-0.1753,-49.33,23.17,-63.35
761,153915983,0.9624,0.3130,-0.1738,-47.26,22.80,-61.40
762,153920443,0.9683,0.3115,-0.1631,-45.00,22.07,-59.45
763,153925442,0.9751,0.3062,-0.1787,-42.20,21.34,-57.38
764,153930442,0.9819,0.2959,-0.1865,-39.15,20.37,-55.00
765,153935445,0.9854,0.2896,-0.1802,-35.55,19.21,-52.62
766,153940441,0.9888,0.2871,-0.1807,-31.71,17.99,-49.88
767,153945442,1.0000,0.2900,-0.1875,-26.83,16.71,-46.95
768,153950441,1.0098,0.2915,-0.1953,-21.83,15.12,-44.09
769,153955442,1.0190,0.2954,-0.1792,-16.28,13.48,-41.22
770,153960442,1.0215,0.2974,-0.1758,-10.12,12.13,-38.23
771,153965442,1.0210,0.3047,-0.1865,-3.78,10.79,-35.43
772,153970441,1.0166,0.3086,-0.1748,3.23,9.63,-32.68
773,153975442,1.0142,0.3237,-0.1748,10.37,8.54,-30.12
774,153980441,1.0054,0.3281,-0.1646,17.80,7.68,-27.56
775,153985442,1.0044,0.3403,-0.1704,25.37,7.13,-25.30
776,153990441,0.9941,0.3550,-0.1714,32.74,6.59,-22.99
777,153995440,0.9941,0.3633,-0.1553,40.30,6.22,-20.85
778,154000443,0.9819,0.3726,-0.1514,47.20,5.98,-19.02
779,154005442,0.9619,0.3794,-0.1484,53.66,5.98,-17.07
780,154010442,0.9653,0.3838,-0.1528,59.51,5.98,-15.49
781,154015443,0.9478,0.3916,-0.1382,64.33,6.16,-14.09
782,154020442,0.9424,0.4038,-0.1382,68.35,6.59,-12.87
783,154025474,0.9409,0.4131,-0.1289,71.22,6.65,-11.77
784,154030442,0.9331,0.4204,-0.1304,72.87,6.89,-10.91
785,154035443,0.9287,0.4258,-0.1265,73.66,7.13,-10.12
786,154040442,0.9214,0.4282,-0.1260,73.17,7.50,-9.45
787,154045442,0.9224,0.4316,-0.1230,72.07,7.74,-9.02
788,154050442,0.9043,0.4297,-0.1147,69.82,7.87,-8.66
789,154055522,0.8984,0.4385,-0.1133,67.26,8.29,-8.48
790,154060442,0.8994,0.4458,-0.1060,63.96,8.41,-8.41
791,154065962,0.8989,0.4453,-0.0962,60.00,8.84,-8.29
792,154070443,0.9009,0.4482,-0.0972,55.61,8.96,-8.35
793,154075442,0.8960,0.4434,-0.0967,50.98,9.27,-8.35
794,154080442,0.8867,0.4409,-0.0889,46.10,9.51,-8.48
795,154085441,0.8896,0.4404,-0.0859,41.28,9.57,-8.54
796,154090442,0.8848,0.4365,-0.0820,36.34,9.88,-8.72
797,154095442,0.8887,0.4360,-0.0767,31.28,10.12,-8.66
798,154100442,0.8926,0.4375,-0.0708,26.40,10.24,-8.84
799,154105441,0.8813,0.4277,-0.0620,21.89,10.43,-8.84
800,154110442,0.8823,0.4248,-0.0591,17.62,10.61,-8.78
801,154115443,0.8916,0.4180,-0.0552,13.66,10.73,-8.78
802,154120443,0.8931,0.4092,-0.0605,10.00,10.73,-8.60
803,154125441,0.8975,0.4062,-0.0566,6.71,10.67,-8.48
804,154130442,0.8970,0.3979,-0.0488,3.72,10.67,-8.17
805,154135443,0.9033,0.3921,-0.0503,1.28,10.61,-7.87
806,154140442,0.9087,0.3916,-0.0439,-0.85,10.37,-7.56
807,154145440,0.9155,0.3857,-0.0410,-2.50,10.12,-7.26
808,154150441,0.9111,0.3804,-0.0425,-3.78,9.63,-6.77
809,154155511,0.9229,0.3774,-0.0381,-4.76,9.39,-6.40
810,154160444,0.9302,0.3760,-0.0396,-5.37,8.78,-5.98
811,154165442,0.9292,0.3701,-0.0386,-5.67,8.41,-5.55
812,154170441,0.9307,0.3667,-0.0459,-5.55,7.74,-5.24
813,154175444,0.9302,0.3613,-0.0391,-5.30,7.13,-4.82
814,154180441,0.9399,0.3633,-0.0454,-4.94,6.65,-4.33
815,154185443,0.9448,0.3564,-0.0498,-3.90,5.91,-3.72
816,154190440,0.9453,0.3550,-0.0444,-3.05,5.37,-3.29
817,154195446,0.9419,0.3516,-0.0439,-1.77,4.51,-2.74
818,154200441,0.9419,0.3540,-0.0459,-0.67,4.02,-2.32
819,154205443,0.9492,0.3511,-0.0444,0.73,3.41,-1.83
820,154210441,0.9390,0.3467,-0.0430,2.26,2.93,-1.40
821,154215442,0.9399,0.3452,-0.0483,3.84,2.13,-0.91
822,154220442,0.9453,0.3535,-0.0474,5.49,1.65,-0.43
823,154225443,0.9414,0.3481,-0.0449,6.95,0.85,0.00
824,154230442,0.9312,0.3521,-0.0493,8.41,0.43,0.24
825,154235441,0.9341,0.3501,-0.0459,9.82,-0.24,0.67
826,154240442,0.9316,0.3491,-0.0483,11.04,-0.67,0.85
827,154245441,0.9312,0.3491,-0.0562,11.95,-1.22,1.10
828,154250442,0.9375,0.3511,-0.0601,12.80,-1.89,1.52
829,154255489,0.9355,0.3486,-0.0601,13.41,-2.44,1.71
830,154260440,0.9321,0.3496,-0.0635,13.72,-3.11,2.01
831,154265442,0.9312,0.3467,-0.0645,13.90,-3.54,2.13
832,154270441,0.9297,0.3457,-0.0688,13.72,-4.09,2.38
833,154275660,0.9233,0.3433,-0.0674,13.54,-4.70,2.50
834,154280443,0.9233,0.3481,-0.0728,13.05,-5.06,2.68
835,154285441,0.9229,0.3477,-0.0811,12.44,-5.55,2.87
836,154290931,0.9229,0.3442,-0.0791,11.52,-5.91,3.23
837,154295443,0.9150,0.3433,-0.0732,10.98,-6.34,3.35
838,154300441,0.9141,0.3452,-0.0825,10.18,-6.52,3.35
839,154305442,0.9165,0.3438,-0.0840,9.45,-6.83,3.72
840,154310442,0.9150,0.3481,-0.0850,8.54,-7.07,3.72
841,154315440,0.9165,0.3442,-0.0864,7.56,-7.32,3.96
842,154320442,0.9116,0.3457,-0.0889,6.71,-7.62,3.90
843,154325441,0.9214,0.3457,-0.0859,5.79,-7.80,3.96
844,154330440,0.9185,0.3467,-0.0845,4.88,-8.17,4.09
845,154335444,0.9160,0.3467,-0.0908,4.09,-8.48,4.15
846,154340442,0.9136,0.3452,-0.0889,3.17,-8.60,4.27
847,154345441,0.9111,0.3491,-0.0933,2.44,-9.09,4.33
848,154350440,0.9175,0.3442,-0.0947,1.83,-9.21,4.33
849,154355444,0.9224,0.3413,-0.0928,1.22,-9.57,4.39
850,154360442,0.9258,0.3398,-0.0923,0.49,-9.88,4.45
851,154365441,0.9209,0.3433,-0.0928,0.12,-10.12,4.51
852,154370444,0.9189,0.3452,-0.0908,-0.18,-10.43,4.57
853,154375441,0.9150,0.3398,-0.0938,-0.37,-10.67,4.63
854,154380442,0.9180,0.3394,-0.1021,-0.55,-10.73,4.63
855,154385441,0.9248,0.3403,-0.0947,-0.61,-11.04,4.63
856,154390444,0.9263,0.3403,-0.0991,-0.55,-11.34,4.88
857,154395441,0.9209,0.3359,-0.1089,-0.37,-11.71,4.82
858,154400440,0.9150,0.3379,-0.1104,-0.24,-11.83,5.06
859,154405440,0.9126,0.3398,-0.1123,-0.06,-12.13,5.24
860,154410442,0.9165,0.3379,-0.1118,0.24,-12.44,5.30
861,154415441,0.9141,0.3379,-0.1104,0.61,-12.80,5.49
862,154420442,0.9219,0.3320,-0.1167,0.91,-13.05,5.67
863,154425441,0.9229,0.3354,-0.1177,1.04,-13.41,5.91
864,154430442,0.9214,0.3306,-0.1240,1.34,-13.72,6.04
865,154435441,0.9180,0.3389,-0.1289,1.59,-14.15,6.22
866,154440442,0.9111,0.3330,-0.1313,1.95,-14.39,6.52
867,154445441,0.9067,0.3374,-0.1309,2.38,-14.76,6.89
868,154450442,0.9097,0.3384,-0.1250,2.99,-15.06,7.01
869,154455441,0.9072,0.3345,-0.1328,3.48,-15.18,7.26
870,154460441,0.9097,0.3315,-0.1328,3.96,-15.49,7.50
871,154465442,0.9019,0.3301,-0.1387,4.39,-15.61,7.74
