# skilleye imu stream v1
# device=xiao_esp32c6 imu=mpu6050 addr=0x68
# rate_hz=200 accel_range_g=16 gyro_range_dps=2000 dlpf_hz=94
# units: accel in g, gyro in deg/s, t_us in microseconds since boot (monotonic)
# no shared clock with the camera -- tap the racket once before each take
# so both recordings share a spike to align on
seq,t_us,ax,ay,az,gx,gy,gz
0,195719786,0.1646,-0.9805,-0.0264,12.99,1.16,15.06
1,195724789,0.1636,-0.9834,-0.0293,12.56,1.46,15.12
2,195730273,0.1665,-0.9814,-0.0254,12.32,1.52,15.18
3,195734788,0.1602,-0.9814,-0.0210,11.83,1.83,15.06
4,195739787,0.1577,-0.9810,-0.0259,11.65,2.07,14.94
5,195744787,0.1553,-0.9810,-0.0249,11.46,2.32,14.94
6,195749787,0.1514,-0.9844,-0.0220,11.28,2.50,14.88
7,195754787,0.1460,-0.9814,-0.0190,11.28,2.74,14.70
8,195759787,0.1431,-0.9790,-0.0239,11.28,2.87,14.88
9,195764787,0.1440,-0.9771,-0.0156,11.46,3.23,14.70
10,195769786,0.1401,-0.9780,-0.0225,11.59,3.41,14.76
11,195774785,0.1367,-0.9761,-0.0195,11.95,3.60,14.63
12,195779785,0.1357,-0.9795,-0.0181,12.32,3.84,14.63
13,195784787,0.1309,-0.9766,-0.0166,12.62,4.02,14.63
14,195789787,0.1289,-0.9810,-0.0151,12.99,4.09,14.51
15,195794944,0.1284,-0.9761,-0.0059,13.35,4.33,14.63
16,195799788,0.1235,-0.9810,-0.0088,13.72,4.51,14.57
17,195804787,0.1265,-0.9824,-0.0103,14.21,4.63,14.57
18,195809787,0.1221,-0.9814,-0.0049,14.39,4.82,14.57
19,195815294,0.1201,-0.9785,-0.0024,14.70,4.88,14.45
20,195819788,0.1172,-0.9775,-0.0059,14.76,5.18,14.39
21,195824825,0.1147,-0.9775,-0.0005,14.70,5.30,14.27
22,195829788,0.1108,-0.9805,-0.0024,14.70,5.43,14.15
23,195834785,0.1104,-0.9780,-0.0107,14.76,5.85,13.96
24,195839787,0.1118,-0.9800,0.0000,14.76,6.10,13.78
25,195844788,0.1055,-0.9731,0.0015,14.76,6.22,13.60
26,195849787,0.1089,-0.9722,0.0068,14.88,6.28,13.66
27,195854786,0.1113,-0.9707,0.0073,15.06,6.46,13.48
28,195859787,0.1064,-0.9717,0.0063,15.24,6.59,13.41
29,195864826,0.1143,-0.9692,0.0049,15.91,6.95,13.23
30,195869787,0.1050,-0.9692,0.0068,16.34,6.89,13.23
31,195874785,0.1060,-0.9644,0.0098,16.71,7.07,13.17
32,195879785,0.1084,-0.9648,0.0127,17.32,7.13,13.17
33,195884957,0.1040,-0.9683,0.0107,17.87,7.38,13.11
34,195889788,0.1030,-0.9678,0.0122,18.35,7.56,13.23
35,195894787,0.1064,-0.9678,0.0166,18.78,7.56,13.29
36,195899787,0.1035,-0.9702,0.0225,18.90,7.68,13.29
37,195904786,0.1016,-0.9707,0.0137,18.96,8.05,13.41
38,195909788,0.0972,-0.9702,0.0239,18.90,7.80,13.41
39,195914785,0.1001,-0.9766,0.0269,18.48,8.05,13.66
40,195919787,0.0967,-0.9790,0.0234,18.11,8.05,13.66
41,195924786,0.0972,-0.9780,0.0259,17.44,8.23,13.60
42,195929787,0.0918,-0.9790,0.0312,16.89,8.41,13.60
43,195934787,0.0967,-0.9761,0.0337,16.04,8.41,13.60
44,195939787,0.0967,-0.9775,0.0322,15.18,8.84,13.66
45,195944785,0.0908,-0.9814,0.0347,14.39,8.90,13.72
46,195949787,0.0947,-0.9751,0.0391,13.54,9.02,13.72
47,195954787,0.0933,-0.9766,0.0352,12.62,9.27,13.72
48,195959787,0.0928,-0.9761,0.0435,12.01,9.51,13.90
49,195964786,0.0918,-0.9810,0.0420,11.34,9.70,13.72
50,195969787,0.0957,-0.9834,0.0474,10.91,9.94,13.84
51,195974787,0.0952,-0.9819,0.0454,10.43,10.18,13.90
52,195979785,0.0972,-0.9844,0.0483,10.12,10.18,13.96
53,195984785,0.0942,-0.9834,0.0488,9.88,10.49,13.96
54,195989787,0.0938,-0.9810,0.0522,9.82,10.67,13.84
55,195994787,0.0957,-0.9854,0.0503,9.57,10.79,13.90
56,195999787,0.0933,-0.9863,0.0503,9.70,11.04,13.90
57,196004787,0.0894,-0.9839,0.0537,9.63,11.22,13.78
58,196009787,0.0913,-0.9878,0.0610,9.88,11.46,13.78
59,196014788,0.0889,-0.9893,0.0630,10.06,11.77,13.66
60,196019787,0.0864,-0.9888,0.0684,10.55,11.95,13.48
61,196024786,0.0898,-0.9893,0.0635,11.04,12.13,13.48
62,196029787,0.0889,-0.9932,0.0659,11.59,12.50,13.41
63,196034787,0.0933,-0.9912,0.0737,12.26,12.38,13.23
64,196039787,0.0942,-0.9966,0.0713,12.74,12.80,13.29
65,196045181,0.0923,-0.9956,0.0762,13.66,12.93,13.17
66,196049788,0.0947,-0.9976,0.0708,14.27,13.05,13.11
67,196054787,0.0981,-0.9985,0.0679,14.94,13.23,13.11
68,196059787,0.1011,-1.0015,0.0723,15.55,13.54,12.99
69,196064786,0.0981,-1.0054,0.0737,16.10,13.72,13.05
70,196069787,0.1001,-1.0098,0.0703,16.77,13.72,12.99
71,196074787,0.0957,-1.0142,0.0713,17.07,13.84,12.99
72,196079787,0.0913,-1.0190,0.0737,17.44,13.90,12.99
73,196084785,0.0957,-1.0225,0.0791,17.62,14.09,12.99
74,196089787,0.0938,-1.0176,0.0747,17.80,14.15,12.93
75,196094789,0.0889,-1.0249,0.0781,17.80,14.21,12.68
76,196099786,0.0894,-1.0254,0.0801,17.80,14.09,12.74
77,196104787,0.0923,-1.0249,0.0806,17.74,14.27,12.56
78,196109785,0.0947,-1.0312,0.0801,17.56,14.33,12.38
79,196114789,0.0923,-1.0342,0.0879,17.26,14.27,12.20
80,196119787,0.0942,-1.0361,0.0879,17.07,14.39,11.95
81,196124787,0.0913,-1.0386,0.0835,16.77,14.39,11.59
82,196129786,0.0884,-1.0410,0.0889,16.46,14.21,11.16
83,196134788,0.0874,-1.0459,0.0879,16.16,14.09,10.79
84,196139786,0.0864,-1.0483,0.0967,16.04,13.96,10.37
85,196144785,0.0894,-1.0518,0.0903,15.98,13.90,9.94
86,196149789,0.0894,-1.0576,0.0908,15.67,13.78,9.51
87,196154789,0.0942,-1.0615,0.0967,15.49,13.60,8.96
88,196159786,0.0918,-1.0664,0.0938,15.30,13.48,8.54
89,196164787,0.0942,-1.0684,0.0952,15.18,13.48,7.99
90,196169786,0.0942,-1.0737,0.0962,14.76,13.05,7.56
91,196174785,0.0972,-1.0791,0.1011,14.39,12.93,6.95
92,196179787,0.0972,-1.0854,0.1011,14.21,12.87,6.46
93,196184787,0.1045,-1.0913,0.1099,13.84,12.62,6.10
94,196189887,0.1074,-1.1011,0.1089,13.41,12.44,5.43
95,196194789,0.1069,-1.0991,0.1094,13.05,12.07,4.88
96,196199786,0.1050,-1.1064,0.1108,12.44,11.83,4.15
97,196204787,0.1045,-1.1104,0.1157,12.01,11.46,3.35
98,196209786,0.1011,-1.1133,0.1162,11.59,11.10,2.62
99,196214787,0.0991,-1.1201,0.1201,11.04,10.67,1.59
100,196219787,0.0938,-1.1226,0.1255,10.49,10.37,0.61
101,196224787,0.0986,-1.1245,0.1230,10.12,9.94,-0.37
102,196229786,0.0977,-1.1372,0.1211,9.27,9.57,-1.46
103,196234785,0.0938,-1.1401,0.1250,8.60,9.21,-2.68
104,196239787,0.0972,-1.1421,0.1289,7.68,8.78,-3.84
105,196244786,0.0996,-1.1499,0.1323,6.95,8.48,-5.12
106,196249785,0.0957,-1.1533,0.1274,5.91,8.11,-6.52
107,196254918,0.0977,-1.1611,0.1348,5.06,7.80,-7.68
108,196259788,0.0986,-1.1670,0.1309,4.33,7.50,-8.90
109,196264787,0.0986,-1.1782,0.1338,3.72,7.07,-10.24
110,196269786,0.0996,-1.1841,0.1377,3.29,6.59,-11.46
111,196274785,0.1050,-1.1914,0.1333,2.99,6.04,-12.87
112,196279789,0.1050,-1.1968,0.1367,2.68,5.55,-14.09
113,196284787,0.1079,-1.2026,0.1421,2.56,4.94,-15.49
114,196289785,0.1035,-1.2036,0.1382,2.44,4.39,-16.77
115,196294787,0.1001,-1.2114,0.1436,2.44,3.66,-18.23
116,196299786,0.1011,-1.2134,0.1465,2.44,3.11,-19.63
117,196304787,0.0942,-1.2148,0.1421,2.20,2.44,-21.10
118,196309786,0.0918,-1.2114,0.1465,1.77,1.89,-22.68
119,196314785,0.0928,-1.2124,0.1460,1.16,1.34,-24.21
120,196319787,0.0894,-1.2119,0.1426,0.12,0.67,-25.73
121,196324786,0.0854,-1.2148,0.1504,-0.91,0.12,-27.50
122,196329785,0.0898,-1.2144,0.1528,-2.50,-0.37,-29.09
123,196334787,0.0864,-1.2173,0.1475,-4.51,-0.98,-30.85
124,196339785,0.0835,-1.2144,0.1499,-6.65,-1.65,-32.50
125,196344786,0.0796,-1.2192,0.1494,-9.09,-2.26,-34.27
126,196349785,0.0801,-1.2139,0.1465,-11.77,-3.05,-36.10
127,196354785,0.0767,-1.2104,0.1450,-14.57,-3.60,-37.93
128,196359787,0.0791,-1.2109,0.1353,-17.44,-4.45,-39.70
129,196364787,0.0718,-1.2041,0.1299,-20.91,-5.18,-41.65
130,196369787,0.0718,-1.2002,0.1284,-24.94,-6.04,-43.60
131,196374787,0.0737,-1.1929,0.1270,-29.70,-6.77,-45.37
132,196379785,0.0718,-1.1870,0.1265,-35.43,-7.62,-47.44
133,196384787,0.0747,-1.1729,0.1250,-42.20,-8.35,-49.33
134,196389785,0.0791,-1.1675,0.1094,-49.45,-8.96,-51.34
135,196395109,0.0688,-1.1572,0.1406,-57.32,-9.33,-53.23
136,196399787,0.1011,-1.1377,0.0615,-64.94,-9.88,-55.24
137,196404786,0.0957,-1.1426,0.1270,-72.99,-10.30,-57.01
138,196409787,0.0942,-1.1201,0.1162,-80.85,-10.37,-58.84
139,196414786,0.1011,-1.1162,0.0806,-88.41,-10.55,-60.49
140,196419785,0.1055,-1.0942,0.0913,-95.37,-10.67,-62.20
141,196424787,0.1123,-1.0850,0.0791,-101.34,-10.67,-63.60
142,196429801,0.1147,-1.0747,0.0586,-106.16,-10.67,-65.00
143,196434787,0.1240,-1.0620,0.0469,-110.49,-10.79,-66.22
144,196439787,0.1299,-1.0498,0.0469,-113.96,-10.79,-67.32
145,196444787,0.1348,-1.0356,0.0410,-117.13,-10.61,-68.35
146,196449787,0.1411,-1.0215,0.0156,-120.06,-10.67,-69.27
147,196454788,0.1479,-1.0137,-0.0059,-123.11,-10.55,-70.00
148,196459785,0.1396,-0.9976,-0.0176,-126.83,-10.55,-70.98
149,196464788,0.1455,-0.9839,-0.0449,-131.71,-10.73,-71.83
150,196469787,0.1416,-0.9844,-0.0420,-138.41,-10.79,-72.74
151,196474787,0.1411,-0.9673,-0.0459,-146.83,-10.61,-73.78
152,196479789,0.1489,-0.9541,-0.0391,-156.65,-9.94,-74.82
153,196484788,0.1460,-0.9268,-0.0273,-167.26,-9.02,-75.73
154,196489787,0.1167,-0.8740,-0.0464,-177.07,-7.93,-76.89
155,196494788,0.2129,-0.8926,-0.0850,-186.16,-7.01,-77.44
156,196499787,0.2041,-0.8691,-0.0601,-194.21,-6.04,-77.68
157,196504787,0.2109,-0.8291,-0.1011,-200.73,-4.88,-77.93
158,196509787,0.2471,-0.7466,-0.1206,-205.43,-3.90,-77.93
159,196514787,0.2861,-0.6318,-0.1885,-207.99,-2.99,-77.56
160,196519787,0.3413,-0.3350,-0.3940,-207.74,-2.50,-76.59
161,196524788,0.4087,-0.2056,-0.6226,-201.83,-1.65,-74.76
162,196529785,0.2983,-0.2988,-0.6753,-193.48,-0.30,-69.76
163,196534787,0.1455,-0.4556,-0.6431,-188.54,2.26,-63.78
164,196539787,0.0610,-0.3779,-0.8071,-184.09,5.49,-58.17
165,196544789,0.1016,-0.2969,-1.0410,-178.48,8.23,-53.66
166,196549787,0.1968,-0.3589,-0.8892,-172.68,11.46,-49.33
167,196554787,0.2705,-0.5117,-0.5610,-169.45,14.70,-44.45
168,196559785,0.2510,-0.5649,-0.2910,-169.39,17.74,-40.06
169,196564787,0.2441,-0.5713,-0.2656,-171.59,20.00,-37.01
170,196569788,0.2339,-0.5425,-0.2900,-174.51,20.73,-35.37
171,196574787,0.1895,-0.7803,-0.3135,-177.32,20.67,-34.02
172,196579787,0.1440,-0.6572,-0.2021,-179.82,21.34,-32.93
173,196584788,0.2031,-0.8477,-0.2876,-179.88,22.26,-32.50
174,196589785,0.2954,-0.6704,-0.2275,-178.17,23.29,-31.10
175,196594785,0.3086,-0.6821,-0.3413,-173.60,24.15,-32.07
176,196599822,0.4595,-0.8276,-0.4102,-167.07,24.09,-31.59
177,196604787,0.5166,-0.9419,-0.3701,-158.90,24.63,-30.73
178,196609791,0.4775,-0.9897,-0.3560,-145.79,27.01,-30.49
179,196614787,0.4487,-1.0703,-0.3613,-135.73,29.33,-31.04
180,196619787,0.4521,-1.0386,-0.3765,-122.38,31.59,-32.13
181,196624788,0.4795,-1.0059,-0.3672,-109.45,33.72,-33.29
182,196629785,0.5083,-0.9346,-0.3105,-97.87,35.98,-34.57
183,196634882,0.5083,-0.8540,-0.4531,-86.34,38.17,-35.91
184,196639788,0.4531,-0.7925,-0.5107,-79.39,39.02,-36.89
185,196644787,0.4453,-0.7666,-0.5034,-70.37,40.18,-38.11
186,196649843,0.4321,-0.7700,-0.4751,-65.49,41.34,-38.54
187,196654806,0.4146,-0.7754,-0.4961,-60.91,42.74,-38.66
188,196659787,0.3960,-0.7627,-0.4863,-57.62,44.02,-38.60
189,196664787,0.3813,-0.7397,-0.4644,-55.79,45.37,-38.23
190,196669787,0.3745,-0.7041,-0.4609,-55.43,46.65,-37.87
191,196674786,0.3804,-0.6465,-0.4746,-56.22,47.62,-37.68
192,196679789,0.3936,-0.5801,-0.4541,-58.11,48.54,-37.56
193,196684787,0.4121,-0.5132,-0.4712,-60.49,49.45,-37.50
194,196689787,0.4170,-0.4590,-0.5273,-63.48,50.06,-37.50
195,196694786,0.4053,-0.4932,-0.5464,-66.95,50.79,-37.32
196,196699785,0.3984,-0.5483,-0.5234,-70.73,51.52,-36.59
197,196704787,0.4019,-0.5835,-0.4814,-74.70,52.74,-35.67
198,196709787,0.4019,-0.6040,-0.4644,-79.15,54.02,-34.76
199,196714788,0.4009,-0.6006,-0.4717,-83.72,55.18,-34.21
200,196719907,0.4141,-0.5928,-0.4800,-88.29,56.16,-34.15
201,196724788,0.4297,-0.5840,-0.4893,-92.93,56.89,-34.51
202,196729787,0.4380,-0.5967,-0.4805,-97.44,57.44,-35.18
203,196734787,0.4424,-0.6074,-0.4849,-101.89,57.80,-36.16
204,196739787,0.4473,-0.6235,-0.4746,-106.22,58.60,-37.26
205,196744788,0.4473,-0.6333,-0.4775,-110.67,59.15,-38.35
206,196749787,0.4453,-0.6367,-0.4849,-115.12,60.00,-39.51
207,196754787,0.4521,-0.6294,-0.4961,-119.39,60.79,-40.73
208,196759787,0.4624,-0.6274,-0.4995,-123.41,61.71,-41.77
209,196764787,0.4727,-0.6187,-0.5181,-127.50,62.68,-42.74
210,196769785,0.4712,-0.6108,-0.5249,-131.34,63.90,-43.60
211,196774785,0.4673,-0.5913,-0.5254,-134.94,65.18,-44.39
212,196779787,0.4438,-0.5659,-0.5361,-138.84,66.46,-45.00
213,196784787,0.4492,-0.5674,-0.5366,-142.80,67.99,-45.49
214,196789785,0.4497,-0.5542,-0.5391,-146.65,69.57,-45.73
215,196794787,0.4443,-0.5190,-0.5381,-150.24,70.91,-45.98
216,196799787,0.4370,-0.4937,-0.5381,-153.48,72.56,-45.91
217,196804787,0.4419,-0.4766,-0.5435,-156.16,74.15,-45.98
218,196809787,0.4106,-0.4785,-0.5479,-158.66,75.61,-45.98
219,196814786,0.3911,-0.4810,-0.5679,-160.67,76.95,-45.85
220,196819787,0.4067,-0.4922,-0.5688,-161.95,78.29,-45.85
221,196824786,0.4585,-0.4951,-0.5635,-162.13,79.82,-45.55
222,196829785,0.4961,-0.4849,-0.5942,-161.10,81.34,-45.49
223,196834787,0.5273,-0.4595,-0.6221,-158.90,82.32,-45.37
224,196839789,0.5649,-0.4375,-0.6162,-155.61,83.41,-45.18
225,196844786,0.5674,-0.2686,-0.5869,-151.95,85.61,-45.06
226,196849787,0.5938,-0.2344,-0.5303,-148.66,86.10,-45.49
227,196854786,0.6250,-0.3652,-0.5991,-145.00,86.04,-45.12
228,196859787,0.6924,-0.4531,-0.6235,-140.73,85.73,-44.02
229,196864787,0.6753,-0.4434,-0.5342,-135.91,85.49,-42.80
230,196869787,0.6504,-0.3564,-0.5122,-131.10,85.73,-42.13
231,196874786,0.6001,-0.1870,-0.5269,-126.16,85.98,-42.01
232,196879787,0.5884,-0.1543,-0.4800,-121.95,86.89,-42.44
233,196884786,0.6060,-0.2798,-0.4727,-117.44,88.05,-42.13
234,196889785,0.6255,-0.3521,-0.5112,-112.50,89.02,-41.22
235,196894787,0.6470,-0.3564,-0.4922,-107.13,89.21,-40.24
236,196899787,0.6543,-0.3086,-0.5044,-101.04,89.33,-39.39
237,196904785,0.6479,-0.2295,-0.5322,-94.70,89.94,-38.84
238,196909787,0.5884,-0.1060,-0.5591,-88.66,90.06,-38.72
239,196914787,0.6309,-0.1016,-0.4897,-83.72,90.18,-38.96
240,196919787,0.6484,-0.1304,-0.4888,-78.17,91.22,-38.84
241,196924786,0.6040,-0.1255,-0.5991,-71.89,91.46,-38.29
242,196929787,0.5928,-0.0151,-0.5605,-65.24,90.98,-38.23
243,196934786,0.5610,-0.0278,-0.5161,-59.76,91.28,-38.60
244,196940193,0.5747,-0.1523,-0.5381,-54.27,91.10,-38.17
245,196944788,0.5439,-0.1997,-0.6187,-49.33,90.43,-37.99
246,196949786,0.5381,-0.2148,-0.5811,-45.43,89.70,-37.44
247,196954787,0.5537,-0.1191,-0.5063,-42.01,88.90,-37.13
248,196959786,0.5645,0.0024,-0.5293,-39.27,88.11,-36.89
249,196964787,0.5835,0.0767,-0.5742,-37.26,85.85,-36.65
250,196969787,0.5981,0.0771,-0.5391,-35.61,85.30,-36.22
251,196974787,0.6079,0.0278,-0.4888,-34.51,85.18,-35.73
252,196979787,0.6069,-0.0288,-0.4976,-33.84,83.11,-34.82
253,196984786,0.6045,-0.0522,-0.5273,-33.48,81.59,-34.21
254,196989785,0.5986,-0.0303,-0.4971,-33.23,79.57,-33.48
255,196994885,0.5889,0.0166,-0.4629,-33.11,78.05,-32.93
256,196999787,0.5938,0.0596,-0.4761,-32.99,76.22,-32.38
257,197004785,0.6270,0.0605,-0.4980,-32.74,74.33,-32.13
258,197009787,0.6748,0.0171,-0.4956,-32.62,72.32,-31.34
259,197014786,0.6992,-0.0029,-0.4604,-32.32,70.49,-30.43
260,197019787,0.6987,-0.0088,-0.4492,-31.65,68.66,-29.45
261,197024786,0.7622,-0.0269,-0.4512,-30.67,66.77,-28.66
262,197029785,0.8838,-0.0444,-0.4336,-29.39,65.18,-27.62
263,197034787,1.0337,-0.0581,-0.4160,-27.07,63.78,-26.28
264,197039789,1.1543,-0.0942,-0.4014,-23.23,62.93,-24.51
265,197044786,1.2397,-0.1582,-0.3374,-17.93,61.65,-22.50
266,197049787,1.2759,-0.2261,-0.2676,-12.32,61.28,-20.12
267,197054787,1.2651,-0.2739,-0.2412,-6.16,60.98,-17.38
268,197059788,1.1792,-0.2725,-0.2495,-0.79,60.67,-14.63
269,197064786,1.0791,-0.2295,-0.2539,3.48,60.18,-12.26
270,197069785,0.9971,-0.1631,-0.2754,6.10,59.39,-10.18
271,197074787,0.9248,-0.0654,-0.3477,7.68,57.80,-8.96
272,197079789,0.8735,0.0293,-0.4214,8.23,55.43,-8.72
273,197084786,0.8442,0.0747,-0.4229,8.54,52.26,-9.02
274,197089787,0.8223,0.0854,-0.4155,8.29,48.90,-9.63
275,197094787,0.8159,0.0889,-0.4077,7.20,45.49,-10.30
276,197099787,0.8003,0.0991,-0.4067,5.18,42.26,-11.22
277,197104786,0.7886,0.0879,-0.3574,2.56,39.39,-12.01
278,197109785,0.7798,0.0835,-0.3247,-1.04,36.71,-12.74
279,197114787,0.7764,0.0854,-0.3408,-5.18,34.15,-13.41
280,197119788,0.7739,0.0933,-0.3218,-10.06,31.95,-13.96
281,197124788,0.7783,0.0962,-0.2939,-15.30,29.70,-14.33
282,197129787,0.7822,0.0894,-0.2983,-20.91,27.74,-14.45
283,197134787,0.8101,0.0801,-0.3140,-26.65,25.67,-14.45
284,197139787,0.8340,0.0713,-0.3062,-32.56,23.54,-14.39
285,197144788,0.8662,0.0566,-0.2949,-38.54,21.65,-14.15
286,197149787,0.8965,0.0435,-0.2852,-44.09,19.82,-13.78
287,197154787,0.9150,0.0396,-0.2949,-49.63,18.05,-13.41
288,197159787,0.9253,0.0337,-0.2876,-54.70,16.22,-12.68
289,197164851,0.9199,0.0278,-0.2803,-59.33,14.82,-12.26
290,197169785,0.9136,0.0308,-0.2817,-63.35,13.05,-11.65
291,197174785,0.9062,0.0308,-0.2910,-67.01,11.46,-11.04
292,197180287,0.8984,0.0337,-0.2866,-69.94,10.00,-10.43
293,197184788,0.8779,0.0391,-0.2866,-72.44,8.35,-9.94
294,197189786,0.8750,0.0381,-0.2935,-74.63,6.71,-9.39
295,197194788,0.8779,0.0381,-0.2856,-76.16,5.43,-8.84
296,197199788,0.8760,0.0391,-0.2603,-77.13,4.02,-8.29
297,197204787,0.8608,0.0078,-0.2212,-77.50,2.93,-7.44
298,197209785,0.8379,-0.0332,-0.1558,-77.13,3.05,-6.04
299,197214787,0.8110,-0.0508,-0.0859,-76.10,4.27,-3.96
300,197219787,0.8037,-0.0498,-0.1274,-73.60,6.34,-1.77
301,197224786,0.8198,-0.0176,-0.1963,-69.82,7.93,0.61
302,197229787,0.8354,0.0425,-0.2280,-64.88,9.15,2.87
303,197234786,0.8857,0.1021,-0.2451,-59.15,9.82,4.63
304,197239787,0.9019,0.0864,-0.2744,-53.05,10.12,6.04
305,197244786,0.8955,0.0449,-0.2842,-46.89,10.00,7.44
306,197249787,0.8794,0.0142,-0.2290,-41.46,10.00,8.90
307,197254786,0.8706,0.0005,-0.1978,-37.62,10.00,10.12
308,197259787,0.8848,-0.0210,-0.1680,-33.05,9.94,11.77
309,197264786,0.8955,-0.0308,-0.1577,-30.24,9.82,13.23
310,197269787,0.9087,-0.0337,-0.1494,-28.11,9.45,14.63
311,197274787,0.9258,-0.0308,-0.1450,-26.59,9.15,15.67
312,197279789,0.9482,-0.0273,-0.1465,-24.88,8.29,17.26
313,197284787,0.9609,-0.0190,-0.1602,-23.72,7.62,18.11
314,197289787,0.9751,-0.0137,-0.1636,-21.89,6.65,19.02
315,197294786,0.9722,-0.0137,-0.1797,-19.63,5.37,19.94
316,197299787,0.9805,-0.0215,-0.1865,-16.65,4.15,20.55
317,197304786,0.9771,-0.0327,-0.1621,-13.60,2.80,20.98
318,197309785,0.9814,-0.0430,-0.1489,-9.94,1.77,21.28
319,197314785,0.9829,-0.0503,-0.1445,-6.10,0.85,21.52
320,197319787,0.9878,-0.0474,-0.1475,-1.83,0.12,21.77
321,197324787,0.9878,-0.0527,-0.1475,3.05,-0.67,21.83
322,197329787,0.9897,-0.0508,-0.1489,8.54,-1.34,21.83
323,197334883,0.9883,-0.0527,-0.1572,14.82,-1.95,21.89
324,197339785,0.9844,-0.0703,-0.1646,21.52,-2.44,21.89
325,197344787,0.9854,-0.0747,-0.1509,28.29,-2.80,21.89
326,197349892,0.9868,-0.0825,-0.1514,34.70,-3.29,21.89
327,197354787,0.9858,-0.0869,-0.1509,41.10,-3.66,21.77
328,197359923,0.9814,-0.0884,-0.1553,48.41,-4.33,21.83
329,197364788,0.9736,-0.0933,-0.1450,52.74,-4.82,21.71
330,197369786,0.9692,-0.0947,-0.1533,58.35,-5.30,21.77
331,197374787,0.9556,-0.0928,-0.1616,63.96,-5.85,22.01
332,197379787,0.9414,-0.0903,-0.1626,69.70,-6.52,22.26
333,197384787,0.9258,-0.0879,-0.1582,75.24,-7.13,22.56
334,197389787,0.9102,-0.0864,-0.1572,80.73,-7.68,22.87
335,197394787,0.8911,-0.0835,-0.1626,85.91,-8.29,23.23
336,197399786,0.8877,-0.0713,-0.1646,91.34,-8.90,23.54
337,197404787,0.8774,-0.0566,-0.1636,96.77,-9.51,23.84
338,197410095,0.8633,-0.0552,-0.1738,103.48,-10.30,24.39
339,197414786,0.8481,-0.0615,-0.1758,108.23,-10.43,24.63
340,197419789,0.8384,-0.0664,-0.1792,114.09,-11.10,25.00
341,197424786,0.8276,-0.0674,-0.1694,119.88,-11.52,25.43
342,197429787,0.8164,-0.0737,-0.1699,125.67,-12.01,25.73
343,197434786,0.8086,-0.0776,-0.1694,129.76,-12.62,25.98
344,197439787,0.8022,-0.0845,-0.1772,135.91,-12.99,26.22
345,197444786,0.7944,-0.0933,-0.1748,141.52,-13.84,26.40
346,197449787,0.7905,-0.1069,-0.1729,146.89,-14.57,26.77
347,197454786,0.7847,-0.1128,-0.1733,152.38,-15.37,27.01
348,197459787,0.7920,-0.1201,-0.1655,157.56,-15.91,27.32
349,197464786,0.8037,-0.1294,-0.1621,162.20,-16.71,27.62
350,197469819,0.8091,-0.1440,-0.1538,166.28,-17.44,27.74
351,197474787,0.8198,-0.1572,-0.1509,170.00,-18.11,28.05
352,197479789,0.8262,-0.1689,-0.1362,173.29,-19.02,28.41
353,197484786,0.8359,-0.1777,-0.1304,175.85,-19.82,28.60
354,197489787,0.8457,-0.1909,-0.1299,177.93,-20.61,29.15
355,197494786,0.8555,-0.1992,-0.1460,179.39,-21.59,29.57
356,197499787,0.8540,-0.2168,-0.1558,179.94,-22.74,30.06
357,197504785,0.8540,-0.2402,-0.1626,179.70,-23.78,30.67
358,197509787,0.8550,-0.2510,-0.1562,178.72,-25.24,31.34
359,197514786,0.8672,-0.2666,-0.1616,177.01,-26.34,32.01
360,197519785,0.8672,-0.2896,-0.1626,174.94,-27.68,32.87
361,197524787,0.8779,-0.2949,-0.1504,172.50,-28.90,33.48
362,197529786,0.8813,-0.2983,-0.1431,169.70,-30.24,34.27
363,197534785,0.8984,-0.3052,-0.1489,167.13,-31.34,35.06
364,197539787,0.9082,-0.3145,-0.1470,164.33,-32.62,35.91
365,197544785,0.9199,-0.3247,-0.1470,161.28,-33.72,36.83
366,197549786,0.9336,-0.3452,-0.1470,157.44,-34.88,37.87
367,197554865,0.9370,-0.3765,-0.1631,154.76,-35.79,38.72
368,197559787,0.9370,-0.4106,-0.1675,151.22,-36.77,39.70
369,197564788,0.9380,-0.4448,-0.1484,147.26,-37.56,40.91
370,197570206,0.9360,-0.4863,-0.1543,142.80,-38.48,42.07
371,197574787,0.9087,-0.5308,-0.1460,138.41,-39.39,43.48
372,197579786,0.8149,-0.6094,-0.1323,134.02,-40.30,45.12
373,197585353,0.8823,-0.6592,-0.1377,129.15,-41.04,47.26
374,197589789,0.9277,-0.6621,-0.1382,127.44,-41.59,48.48
375,197594786,0.9897,-0.5913,-0.2095,122.99,-42.44,49.94
376,197599787,1.0483,-0.4658,-0.3140,119.02,-43.66,51.04
377,197604787,1.1064,-0.3159,-0.4189,115.30,-45.24,51.52
378,197609787,1.0884,-0.2480,-0.5059,112.56,-47.01,52.01
379,197614787,1.0210,-0.3271,-0.5215,110.30,-48.66,52.62
380,197619785,0.9478,-0.4268,-0.4512,107.50,-49.82,53.90
381,197624847,0.8945,-0.4678,-0.3286,103.84,-50.12,55.49
382,197630152,0.8545,-0.4482,-0.1997,99.94,-49.09,57.01
383,197634787,0.8174,-0.3892,-0.1748,95.73,-47.13,57.99
384,197639835,0.7778,-0.3350,-0.2261,91.34,-44.33,57.93
385,197644787,0.7417,-0.3062,-0.2734,86.22,-41.59,57.07
386,197649788,0.7188,-0.3188,-0.2754,80.24,-39.02,55.61
387,197654787,0.7085,-0.3540,-0.2734,73.41,-36.71,54.21
388,197659786,0.7148,-0.3843,-0.2837,66.40,-34.15,53.05
389,197664788,0.7417,-0.4121,-0.3193,59.45,-32.13,52.20
390,197669787,0.7344,-0.4429,-0.3330,52.93,-30.30,51.83
391,197674903,0.7246,-0.4683,-0.3452,46.10,-28.72,51.89
392,197679785,0.7114,-0.4819,-0.3501,38.90,-26.95,52.50
393,197684788,0.6968,-0.4927,-0.3613,31.59,-25.30,52.87
394,197689787,0.6807,-0.5093,-0.3535,24.09,-23.60,53.41
395,197694787,0.6660,-0.5205,-0.3428,16.52,-22.07,54.39
396,197699789,0.6587,-0.5205,-0.3291,9.39,-20.12,54.94
397,197704786,0.6484,-0.5166,-0.3311,2.80,-18.17,55.61
398,197709787,0.6479,-0.5151,-0.3271,-3.05,-15.85,56.10
399,197714786,0.6455,-0.5078,-0.3389,-7.56,-13.72,56.22
400,197719787,0.6528,-0.5161,-0.3271,-10.98,-11.77,56.16
401,197724787,0.6602,-0.5303,-0.3262,-12.93,-10.12,55.73
402,197729788,0.6626,-0.5454,-0.3179,-13.72,-8.41,55.24
403,197734787,0.6660,-0.5552,-0.3062,-13.54,-7.01,54.51
404,197739787,0.6675,-0.5645,-0.3179,-12.62,-5.43,53.66
405,197744786,0.6626,-0.5728,-0.3086,-10.85,-3.66,52.74
406,197749787,0.6631,-0.5767,-0.3140,-8.90,-2.01,51.65
407,197754787,0.6587,-0.5825,-0.3066,-6.71,0.00,50.49
408,197759787,0.6562,-0.5952,-0.3027,-4.45,1.65,48.90
409,197764786,0.6514,-0.6011,-0.2915,-2.20,3.29,47.68
410,197769787,0.6514,-0.6152,-0.2842,-0.12,5.30,46.10
411,197774787,0.6543,-0.6201,-0.2778,1.52,6.71,44.39
412,197779785,0.6523,-0.6274,-0.2695,2.80,8.60,42.68
413,197784785,0.6548,-0.6367,-0.2847,3.78,10.12,40.85
414,197789787,0.6470,-0.6377,-0.2690,4.51,11.52,38.84
415,197794788,0.6489,-0.6455,-0.2773,5.06,13.11,36.71
416,197799787,0.6426,-0.6602,-0.2812,5.49,14.45,34.45
417,197804787,0.6406,-0.6548,-0.2744,5.98,15.67,32.32
418,197809842,0.6401,-0.6626,-0.2812,6.28,17.01,30.12
419,197814787,0.6431,-0.6714,-0.2886,6.28,18.23,27.74
420,197819787,0.7012,-0.6592,-0.2466,5.55,19.33,25.55
421,197824785,0.6450,-0.6572,-0.2417,3.90,20.49,23.23
422,197829786,0.6333,-0.6626,-0.3130,2.68,21.34,21.10
423,197834789,0.6440,-0.6548,-0.3438,1.83,21.95,19.02
424,197839787,0.6509,-0.6533,-0.3145,1.46,22.80,17.01
425,197844787,0.6440,-0.6787,-0.2954,1.59,23.41,15.30
426,197849786,0.6929,-0.6646,-0.3008,0.67,23.72,13.60
427,197854788,0.6660,-0.6465,-0.2368,-1.52,23.96,11.65
428,197860166,0.6519,-0.6406,-0.2490,-4.21,24.39,9.76
429,197864788,0.6333,-0.6274,-0.3130,-6.77,24.27,7.87
430,197869786,0.6245,-0.6265,-0.3267,-8.72,24.27,6.04
431,197874788,0.6597,-0.6455,-0.2842,-10.24,24.15,4.33
432,197879787,0.6606,-0.6533,-0.2925,-12.13,23.96,2.87
433,197884787,0.6528,-0.6440,-0.3228,-14.02,23.29,1.46
434,197889785,0.6396,-0.6235,-0.3013,-15.85,22.93,0.12
435,197894786,0.6265,-0.6064,-0.2974,-17.38,22.32,-1.34
436,197899789,0.6235,-0.5933,-0.3154,-18.66,21.89,-2.62
437,197904786,0.6260,-0.5923,-0.3193,-19.39,21.04,-3.84
438,197909787,0.6265,-0.6030,-0.3105,-19.45,20.43,-4.70
439,197914787,0.6313,-0.6016,-0.3223,-19.09,19.82,-5.43
440,197919787,0.6421,-0.6060,-0.3213,-18.17,18.90,-6.10
441,197924785,0.6455,-0.6123,-0.3164,-16.83,17.99,-6.59
442,197929786,0.6450,-0.6157,-0.3242,-15.12,16.95,-6.95
443,197934787,0.6382,-0.6235,-0.3394,-13.05,16.04,-7.38
444,197939787,0.6445,-0.6211,-0.3589,-10.55,14.88,-7.68
445,197944787,0.6460,-0.6216,-0.3701,-7.50,14.02,-7.87
446,197949786,0.6514,-0.6235,-0.3589,-3.84,12.99,-8.17
447,197954787,0.6577,-0.6348,-0.3652,0.43,12.13,-8.23
448,197959787,0.6753,-0.6396,-0.3960,4.70,11.10,-8.41
449,197964787,0.7002,-0.6411,-0.4199,9.76,9.88,-8.48
450,197969786,0.7051,-0.6421,-0.4009,13.11,9.33,-8.60
451,197974788,0.7100,-0.6348,-0.4014,17.07,8.66,-8.84
452,197979830,0.7188,-0.6357,-0.4204,20.73,7.74,-8.96
453,197984787,0.7334,-0.6338,-0.4272,24.15,7.07,-8.96
454,197989785,0.7349,-0.6240,-0.4048,26.83,6.28,-9.02
455,197994787,0.7251,-0.6147,-0.4019,28.90,5.37,-9.15
456,197999788,0.7251,-0.6074,-0.4189,30.00,4.39,-9.15
457,198004787,0.7354,-0.6045,-0.3970,30.00,3.05,-9.27
458,198009786,0.7544,-0.6182,-0.3730,29.02,1.89,-9.27
459,198014787,0.7896,-0.6411,-0.3560,27.56,0.85,-9.09
460,198019787,0.7915,-0.6226,-0.3794,25.37,-0.24,-8.78
461,198024788,0.7661,-0.5962,-0.3730,22.87,-1.59,-8.90
462,198029805,0.7637,-0.5742,-0.3530,19.76,-2.50,-8.96
463,198034788,0.7554,-0.5625,-0.3506,15.91,-3.35,-8.96
464,198039787,0.7227,-0.5581,-0.3516,11.59,-4.21,-8.84
465,198044787,0.6968,-0.5361,-0.3535,7.13,-4.94,-8.54
466,198049862,0.6929,-0.5229,-0.3540,2.56,-5.79,-8.23
467,198054787,0.6753,-0.5063,-0.3711,-2.13,-6.34,-7.68
468,198059789,0.6636,-0.4863,-0.3975,-6.89,-7.01,-6.95
469,198064786,0.6387,-0.4736,-0.4004,-11.65,-7.62,-5.91
470,198069787,0.6172,-0.4668,-0.3921,-15.79,-7.93,-4.76
471,198074787,0.5938,-0.4604,-0.4277,-19.02,-8.05,-3.48
472,198079786,0.5845,-0.4438,-0.4453,-22.01,-8.41,-2.26
473,198084787,0.5801,-0.4360,-0.4287,-24.51,-8.66,-0.85
474,198089787,0.5791,-0.4316,-0.4258,-26.83,-8.84,0.43
475,198094788,0.5879,-0.4336,-0.4219,-28.41,-8.78,1.83
476,198099786,0.5938,-0.4355,-0.4224,-29.94,-8.90,3.23
477,198104787,0.5981,-0.4297,-0.4180,-31.65,-8.66,4.76
478,198109787,0.6069,-0.4185,-0.4062,-33.41,-8.66,6.16
479,198114787,0.6191,-0.4155,-0.4072,-35.43,-8.23,7.44
480,198119788,0.6265,-0.4141,-0.4106,-37.50,-7.93,8.72
481,198124787,0.6309,-0.4082,-0.4092,-39.76,-7.74,10.00
482,198129787,0.6313,-0.4033,-0.4146,-41.89,-7.62,11.10
483,198134787,0.6309,-0.3999,-0.4155,-44.09,-7.56,12.07
484,198139786,0.6255,-0.3911,-0.4277,-46.40,-7.26,12.99
485,198144787,0.6250,-0.3804,-0.4365,-48.66,-7.50,13.72
486,198149787,0.6318,-0.3784,-0.4346,-50.79,-7.68,14.33
487,198154788,0.6348,-0.3809,-0.4438,-52.62,-8.05,14.88
488,198159787,0.6445,-0.3799,-0.4458,-54.45,-8.48,15.49
489,198164787,0.6470,-0.3745,-0.4414,-56.10,-8.96,15.91
490,198169787,0.6479,-0.3799,-0.4492,-57.38,-9.45,16.34
491,198174788,0.6519,-0.3823,-0.4561,-58.66,-10.18,16.83
492,198179785,0.6621,-0.3960,-0.4424,-59.70,-10.67,17.50
493,198184787,0.6895,-0.3926,-0.4536,-60.12,-10.98,18.23
494,198189785,0.6982,-0.4019,-0.4634,-60.85,-11.59,19.09
495,198194789,0.6851,-0.4038,-0.4722,-61.65,-12.01,19.94
496,198200004,0.6587,-0.4048,-0.4692,-62.87,-12.56,20.85
497,198204787,0.6284,-0.3921,-0.4604,-64.09,-13.23,21.83
498,198209787,0.6489,-0.3999,-0.4741,-65.43,-13.23,22.62
499,198214788,0.6821,-0.4023,-0.4858,-67.50,-14.02,23.48
500,198219787,0.7061,-0.4033,-0.4829,-69.70,-14.57,24.33
501,198224787,0.7021,-0.4199,-0.4805,-71.89,-14.88,25.18
502,198229785,0.6821,-0.4224,-0.4795,-73.84,-15.24,26.22
503,198234785,0.6758,-0.4253,-0.4795,-75.18,-15.55,27.44
504,198239787,0.6875,-0.4238,-0.4932,-76.89,-16.04,28.54
505,198244788,0.7026,-0.4214,-0.5176,-77.62,-16.59,29.70
506,198249787,0.7104,-0.4307,-0.5298,-78.35,-17.32,30.73
507,198254787,0.7139,-0.4399,-0.5186,-78.60,-17.74,31.77
508,198259787,0.7183,-0.4419,-0.5166,-78.35,-18.23,32.93
509,198264787,0.7251,-0.4395,-0.5181,-77.62,-18.66,34.09
510,198270222,0.7627,-0.4609,-0.5293,-76.52,-18.84,35.18
511,198274787,0.7476,-0.4644,-0.5283,-75.06,-19.02,36.28
512,198279787,0.7070,-0.4434,-0.5098,-73.11,-19.21,37.20
513,198284787,0.6929,-0.4185,-0.5122,-70.49,-19.02,37.87
514,198289785,0.7026,-0.4106,-0.5293,-67.26,-18.72,38.48
515,198294787,0.7173,-0.4214,-0.5459,-63.60,-18.35,39.09
516,198299788,0.7173,-0.4321,-0.5449,-59.57,-17.93,39.76
517,198304787,0.7217,-0.4385,-0.5488,-55.49,-17.32,40.55
518,198309787,0.7524,-0.4536,-0.5918,-51.22,-16.65,41.46
519,198314786,0.7339,-0.4702,-0.6040,-47.20,-16.04,42.26
520,198319787,0.6948,-0.4653,-0.5835,-43.29,-15.06,43.23
521,198324787,0.6587,-0.4404,-0.5410,-39.88,-13.84,43.96
522,198329787,0.6401,-0.4312,-0.5371,-36.77,-12.62,44.51
523,198334785,0.6489,-0.4351,-0.5571,-34.21,-11.40,45.12
524,198339787,0.6719,-0.4375,-0.5747,-31.95,-9.82,45.85
525,198344788,0.7007,-0.4380,-0.5845,-29.94,-8.41,46.59
526,198349786,0.7119,-0.4541,-0.5854,-28.54,-6.83,47.32
527,198354787,0.7061,-0.4746,-0.5747,-27.68,-5.00,48.05
528,198359787,0.6875,-0.4800,-0.5723,-26.89,-3.23,48.78
529,198364787,0.6748,-0.4819,-0.5713,-26.46,-1.40,49.39
530,198369787,0.6602,-0.4805,-0.5776,-26.22,0.61,49.94
531,198374787,0.6562,-0.4800,-0.5757,-26.22,2.62,50.18
532,198379787,0.6533,-0.4829,-0.5752,-26.28,4.76,50.24
533,198384788,0.6533,-0.4829,-0.5708,-26.89,6.71,50.24
534,198389788,0.6592,-0.4834,-0.5669,-27.80,8.60,50.12
535,198394785,0.6587,-0.4883,-0.5630,-29.15,10.55,49.94
536,198399787,0.6562,-0.4883,-0.5688,-30.85,12.68,49.51
537,198404844,0.6504,-0.4902,-0.5684,-32.80,14.45,49.33
538,198409787,0.6387,-0.4893,-0.5693,-35.12,16.10,48.96
539,198414787,0.6362,-0.4932,-0.5693,-37.74,17.87,48.60
540,198419787,0.6313,-0.4902,-0.5620,-40.55,19.33,48.23
541,198424787,0.6313,-0.4917,-0.5659,-43.41,20.98,47.87
542,198429787,0.6250,-0.4912,-0.5552,-46.40,22.38,47.26
543,198434785,0.6226,-0.4917,-0.5674,-48.90,23.84,46.77
544,198439787,0.6206,-0.4995,-0.5586,-51.59,25.12,46.46
545,198444787,0.6172,-0.5034,-0.5591,-54.09,26.59,45.98
546,198449787,0.6118,-0.5039,-0.5542,-56.22,27.80,45.61
547,198454787,0.6045,-0.5156,-0.5576,-57.99,28.96,45.30
548,198459806,0.6050,-0.5171,-0.5562,-59.70,30.06,45.00
549,198464787,0.6094,-0.5195,-0.5454,-61.16,31.40,44.70
550,198469786,0.6157,-0.5132,-0.5376,-62.26,32.32,44.51
551,198474787,0.6226,-0.5225,-0.5474,-63.05,33.29,44.21
552,198479786,0.6250,-0.5259,-0.5352,-63.66,34.27,43.90
553,198484843,0.6226,-0.5273,-0.5322,-63.96,35.12,43.66
554,198489787,0.6201,-0.5322,-0.5308,-64.21,35.85,43.35
555,198494786,0.6245,-0.5327,-0.5337,-63.96,36.59,43.17
556,198499927,0.6211,-0.5371,-0.5220,-63.41,37.26,42.74
557,198504787,0.6250,-0.5361,-0.5220,-62.74,37.93,42.44
558,198509787,0.6304,-0.5371,-0.5161,-61.83,38.48,41.95
559,198514785,0.6274,-0.5405,-0.5078,-61.04,38.90,41.59
560,198519787,0.6230,-0.5356,-0.5088,-59.76,39.57,40.91
561,198524789,0.6270,-0.5337,-0.4941,-58.66,39.88,40.24
562,198529786,0.6206,-0.5356,-0.4917,-57.80,40.43,39.76
563,198534785,0.6270,-0.5381,-0.4834,-57.01,40.67,39.02
564,198539785,0.6255,-0.5381,-0.4785,-56.22,40.98,38.23
565,198544785,0.6221,-0.5356,-0.4663,-55.73,41.16,37.32
566,198549787,0.6284,-0.5308,-0.4702,-55.67,41.34,36.71
567,198554788,0.6294,-0.5190,-0.4736,-55.55,41.46,35.85
568,198559787,0.6250,-0.5161,-0.4824,-55.43,41.52,35.18
569,198564787,0.6265,-0.5151,-0.4727,-55.30,41.40,34.33
570,198569787,0.6206,-0.5195,-0.4639,-55.18,41.28,33.60
571,198574787,0.6172,-0.5225,-0.4629,-54.82,41.16,32.99
572,198579787,0.6147,-0.5229,-0.4604,-54.57,40.98,32.32
573,198584787,0.6108,-0.5220,-0.4556,-54.33,40.61,31.71
574,198589787,0.6113,-0.5181,-0.4600,-53.84,40.49,31.22
575,198594787,0.6094,-0.5195,-0.4463,-53.29,39.94,30.61
576,198599787,0.6118,-0.5142,-0.4478,-52.62,39.70,30.12
577,198605216,0.6099,-0.5103,-0.4429,-51.83,39.21,29.51
578,198609788,0.6089,-0.5063,-0.4487,-51.10,38.96,29.15
579,198614878,0.6138,-0.5093,-0.4375,-50.18,38.41,28.48
580,198619787,0.6089,-0.5063,-0.4414,-49.09,37.80,28.11
581,198624787,0.6104,-0.5063,-0.4351,-47.93,37.38,27.62
582,198629787,0.6064,-0.5044,-0.4434,-46.52,36.65,27.26
583,198634787,0.6147,-0.5029,-0.4365,-45.06,36.16,26.83
584,198639787,0.6152,-0.5054,-0.4375,-43.48,35.43,26.40
585,198644785,0.6172,-0.5000,-0.4287,-41.59,34.70,26.10
586,198649787,0.6177,-0.5020,-0.4316,-39.70,34.15,25.79
587,198654789,0.6255,-0.4971,-0.4297,-37.80,33.35,25.49
588,198659786,0.6250,-0.4971,-0.4287,-35.98,32.44,25.24
589,198664785,0.6260,-0.5005,-0.4277,-34.09,31.59,24.88
590,198669787,0.6279,-0.4941,-0.4248,-32.01,30.61,24.57
591,198674788,0.6372,-0.4951,-0.4307,-29.94,30.00,24.39
592,198679787,0.6353,-0.4961,-0.4321,-28.11,29.02,24.09
593,198685301,0.6416,-0.4868,-0.4214,-26.28,27.99,23.66
594,198689787,0.6479,-0.4854,-0.4199,-25.06,27.38,23.41
595,198694787,0.6460,-0.4829,-0.4272,-23.78,26.52,23.11
596,198699787,0.6509,-0.4844,-0.4199,-22.74,25.49,22.74
597,198704785,0.6553,-0.4800,-0.4180,-22.13,24.63,22.44
598,198709785,0.6553,-0.4805,-0.4165,-21.40,23.72,21.95
599,198714787,0.6597,-0.4849,-0.4209,-20.98,22.74,21.34
600,198719788,0.6631,-0.4829,-0.4146,-20.43,21.95,20.85
601,198724787,0.6602,-0.4834,-0.4131,-20.18,20.98,20.30
602,198729787,0.6626,-0.4785,-0.4238,-19.94,20.30,19.76
603,198734787,0.6655,-0.4771,-0.4131,-19.88,19.39,19.27
604,198739787,0.6660,-0.4736,-0.4131,-20.12,18.60,18.66
605,198744785,0.6738,-0.4707,-0.4199,-20.24,17.74,18.23
606,198749787,0.6724,-0.4697,-0.4155,-20.61,17.20,17.62
607,198754787,0.6724,-0.4717,-0.4146,-21.22,16.52,17.07
608,198759786,0.6694,-0.4639,-0.4106,-22.13,15.91,16.46
609,198764785,0.6738,-0.4653,-0.4062,-23.11,15.30,16.04
610,198769785,0.6753,-0.4673,-0.4141,-24.21,14.82,15.49
611,198774787,0.6787,-0.4717,-0.4136,-25.37,14.39,15.06
612,198779787,0.6777,-0.4653,-0.4141,-26.52,13.96,14.70
613,198784787,0.6836,-0.4648,-0.4141,-27.68,13.48,14.27
614,198789786,0.6899,-0.4639,-0.4175,-28.54,13.35,13.96
615,198794787,0.6904,-0.4634,-0.4204,-29.39,12.99,13.54
616,198799786,0.6997,-0.4648,-0.4204,-29.94,12.87,13.23
617,198804785,0.7051,-0.4604,-0.4238,-30.79,12.74,12.80
618,198809785,0.7065,-0.4663,-0.4180,-31.59,12.93,12.68
619,198814979,0.7109,-0.4658,-0.4248,-32.44,13.11,12.26
620,198819787,0.7153,-0.4629,-0.4248,-33.11,13.23,11.89
621,198824936,0.7188,-0.4629,-0.4189,-33.72,13.41,11.46
622,198829788,0.7227,-0.4668,-0.4209,-34.39,13.60,11.10
623,198834787,0.7231,-0.4644,-0.4160,-34.82,13.84,10.73
624,198839787,0.7231,-0.4624,-0.4229,-35.06,14.02,10.37
625,198844785,0.7261,-0.4648,-0.4268,-35.06,14.27,10.06
626,198849785,0.7358,-0.4600,-0.4229,-35.18,14.57,9.57
627,198854787,0.7295,-0.4561,-0.4287,-35.00,14.82,9.21
628,198859787,0.7266,-0.4497,-0.4316,-34.63,14.94,8.72
629,198865317,0.7383,-0.4492,-0.4141,-34.39,15.24,8.17
630,198869788,0.7544,-0.4673,-0.4341,-34.15,15.37,7.93
631,198874786,0.7554,-0.4351,-0.4141,-33.96,15.49,7.50
632,198879787,0.7505,-0.4204,-0.4204,-33.72,15.79,7.20
633,198884787,0.7441,-0.4155,-0.4316,-33.05,16.04,6.46
634,198889786,0.7368,-0.4233,-0.3984,-32.62,16.22,5.73
635,198894785,0.7329,-0.4180,-0.4019,-31.71,16.52,5.18
636,198899788,0.7241,-0.4077,-0.4209,-30.55,16.77,4.63
637,198904787,0.7251,-0.4014,-0.4175,-29.27,16.77,4.09
638,198909787,0.7334,-0.3989,-0.4199,-27.68,17.13,3.66
639,198914785,0.7480,-0.3833,-0.4136,-26.40,17.01,3.17
640,198919787,0.7295,-0.3896,-0.4238,-25.43,17.13,2.68
641,198924787,0.7363,-0.3989,-0.4160,-24.45,16.95,2.50
642,198929787,0.7349,-0.3970,-0.4053,-23.66,16.89,2.07
643,198934787,0.7412,-0.3940,-0.4111,-22.99,16.65,1.77
644,198939788,0.7388,-0.3892,-0.4189,-22.32,16.34,1.52
645,198944785,0.7373,-0.3735,-0.4141,-21.46,16.10,1.10
646,198949785,0.7422,-0.3784,-0.4233,-21.04,15.79,0.91
647,198954977,0.7437,-0.3569,-0.4106,-20.79,15.61,0.67
648,198959787,0.7354,-0.3433,-0.4116,-20.43,15.24,0.43
649,198964787,0.7300,-0.3418,-0.3979,-20.18,15.00,-0.06
650,198969788,0.7383,-0.3472,-0.3960,-20.43,14.51,-0.37
651,198974787,0.7422,-0.3579,-0.4072,-20.24,13.96,-0.73
652,198979787,0.7456,-0.3457,-0.4141,-20.24,13.48,-0.73
653,198984785,0.7480,-0.3267,-0.4160,-20.12,12.80,-0.91
654,198989787,0.7373,-0.3198,-0.4136,-19.88,12.32,-1.16
655,198994788,0.7480,-0.3291,-0.4170,-19.57,11.77,-1.28
656,198999787,0.7451,-0.3408,-0.4097,-19.21,10.91,-1.52
657,199004787,0.7476,-0.3560,-0.4014,-18.72,10.18,-1.40
658,199009787,0.7490,-0.3442,-0.4082,-18.11,9.33,-1.46
659,199015009,0.7549,-0.3301,-0.4136,-16.89,8.60,-1.40
660,199019788,0.7661,-0.3140,-0.4170,-15.43,7.99,-1.46
661,199024787,0.8042,-0.2891,-0.4199,-14.02,7.01,-1.71
662,199029786,0.7539,-0.3193,-0.4209,-12.99,6.40,-1.77
663,199034787,0.7427,-0.3457,-0.4087,-11.95,5.55,-1.77
664,199039786,0.7637,-0.3540,-0.3833,-10.61,4.82,-1.77
665,199045070,0.7603,-0.3516,-0.3999,-8.23,3.96,-1.77
666,199049787,0.7520,-0.3525,-0.4111,-5.79,3.17,-1.71
667,199054785,0.7646,-0.2925,-0.3530,-2.68,2.20,-1.83
668,199059787,0.8105,-0.2578,-0.4229,0.61,1.71,-2.01
669,199064789,0.8403,-0.2681,-0.4854,4.15,0.43,-2.13
670,199069786,0.8022,-0.3389,-0.4551,7.01,-0.18,-2.20
671,199074787,0.7437,-0.3745,-0.3657,8.54,-0.79,-2.01
672,199079786,0.7310,-0.3633,-0.3706,9.63,-1.34,-1.59
673,199084787,0.7754,-0.3394,-0.4214,10.73,-2.38,-1.28
674,199089786,0.7783,-0.3154,-0.4062,12.07,-3.41,-1.10
675,199094787,0.7759,-0.3232,-0.3857,13.41,-4.02,-0.79
676,199099786,0.7725,-0.3130,-0.4263,14.09,-4.70,-0.49
677,199104787,0.7837,-0.3003,-0.4482,14.70,-5.55,-0.12
678,199109786,0.7769,-0.3047,-0.4131,15.98,-6.22,0.18
679,199114785,0.7578,-0.3066,-0.4189,17.56,-6.71,0.73
680,199119789,0.7471,-0.3154,-0.4346,19.21,-7.50,1.10
681,199124787,0.7432,-0.3174,-0.4282,20.67,-8.17,1.65
682,199129787,0.7539,-0.3223,-0.4160,22.13,-8.48,2.26
683,199134786,0.7505,-0.3052,-0.4277,23.48,-9.15,2.99
684,199139787,0.7441,-0.3076,-0.4346,24.70,-9.51,3.48
685,199144786,0.7407,-0.3159,-0.4326,25.85,-9.88,3.96
686,199149789,0.7319,-0.3237,-0.4204,26.83,-10.24,4.57
687,199154785,0.7319,-0.3223,-0.4272,27.56,-10.49,5.06
688,199159787,0.7334,-0.3252,-0.4229,27.93,-10.85,5.67
689,199164787,0.7251,-0.3350,-0.4199,28.23,-11.04,6.16
690,199169787,0.7275,-0.3384,-0.4189,28.48,-11.52,6.89
691,199174786,0.7295,-0.3320,-0.4243,28.41,-11.71,7.26
692,199179787,0.7246,-0.3379,-0.4287,28.29,-11.77,7.87
693,199185270,0.7222,-0.3462,-0.4268,28.05,-12.01,8.35
694,199189787,0.7202,-0.3555,-0.4351,27.93,-12.26,8.90
695,199194788,0.7163,-0.3555,-0.4312,27.74,-12.32,9.39
696,199199789,0.7173,-0.3599,-0.4316,27.68,-12.56,9.76
697,199204786,0.7144,-0.3643,-0.4375,27.56,-12.62,10.06
698,199209788,0.7104,-0.3740,-0.4390,27.38,-12.80,10.55
699,199214786,0.7061,-0.3784,-0.4355,27.32,-13.11,10.98
700,199219789,0.7031,-0.3862,-0.4404,27.13,-13.05,11.28
701,199224786,0.7012,-0.3892,-0.4473,26.83,-13.11,11.59
702,199229787,0.6997,-0.3975,-0.4424,26.83,-13.05,11.83
703,199234786,0.6958,-0.3965,-0.4429,26.46,-12.93,12.07
704,199239787,0.6934,-0.4004,-0.4458,26.22,-12.87,12.20
705,199244786,0.6904,-0.4053,-0.4429,25.67,-12.74,12.26
706,199249787,0.6860,-0.4077,-0.4482,25.24,-12.74,12.38
707,199254787,0.6812,-0.4131,-0.4526,24.51,-12.44,12.68
708,199259788,0.6836,-0.4180,-0.4541,23.96,-12.26,12.74
709,199264785,0.6748,-0.4199,-0.4521,23.05,-12.01,12.80
710,199269789,0.6733,-0.4209,-0.4604,22.50,-11.95,12.87
711,199274786,0.6724,-0.4253,-0.4590,21.59,-11.83,12.80
712,199279787,0.6689,-0.4307,-0.4614,20.73,-11.52,12.93
713,199284788,0.6665,-0.4316,-0.4668,20.00,-11.34,12.93
714,199289787,0.6641,-0.4390,-0.4707,19.15,-11.10,12.80
715,199294787,0.6641,-0.4399,-0.4683,18.54,-10.79,12.87
716,199299787,0.6650,-0.4443,-0.4697,17.93,-10.43,12.68
717,199304786,0.6577,-0.4478,-0.4722,17.56,-10.24,12.56
718,199309787,0.6582,-0.4521,-0.4722,17.07,-9.88,12.56
719,199314787,0.6611,-0.4546,-0.4731,16.65,-9.39,12.32
720,199319785,0.6577,-0.4580,-0.4805,16.40,-9.27,12.07
721,199324785,0.6582,-0.4634,-0.4858,16.22,-8.72,11.95
722,199329785,0.6562,-0.4678,-0.4790,16.04,-8.29,11.77
723,199334789,0.6548,-0.4722,-0.4775,15.73,-8.17,11.59
724,199339786,0.6562,-0.4741,-0.4761,15.73,-7.68,11.40
725,199344785,0.6558,-0.4756,-0.4878,15.49,-7.44,11.10
726,199349787,0.6523,-0.4775,-0.4854,15.30,-6.89,10.79
727,199354786,0.6504,-0.4780,-0.4819,15.18,-6.46,10.43
728,199359785,0.6499,-0.4819,-0.4834,15.12,-6.16,10.06
729,199364785,0.6460,-0.4839,-0.4810,14.82,-5.85,9.70
730,199369789,0.6465,-0.4873,-0.4854,14.70,-5.30,9.39
731,199374788,0.6479,-0.4907,-0.4829,14.45,-4.94,8.96
732,199379786,0.6445,-0.4863,-0.4829,14.21,-4.45,8.60
733,199385247,0.6470,-0.4897,-0.4849,13.66,-4.02,8.05
734,199389788,0.6450,-0.4912,-0.4902,13.17,-3.78,7.68
735,199394786,0.6445,-0.4927,-0.4854,12.62,-3.48,7.20
736,199399787,0.6436,-0.4873,-0.4873,12.13,-2.99,6.83
737,199404999,0.6396,-0.4897,-0.4858,11.59,-2.74,6.40
738,199409787,0.6431,-0.4902,-0.4873,10.91,-2.32,5.85
739,199414789,0.6406,-0.4937,-0.4912,10.49,-1.89,5.49
740,199419787,0.6392,-0.4946,-0.4873,9.82,-1.65,5.00
741,199424788,0.6426,-0.4971,-0.4839,9.27,-1.34,4.57
742,199429787,0.6426,-0.4956,-0.4878,8.60,-0.98,4.09
743,199434939,0.6426,-0.4937,-0.4854,7.93,-0.67,3.78
744,199439787,0.6440,-0.4917,-0.4844,7.26,-0.49,3.29
745,199445028,0.6436,-0.4961,-0.4849,6.65,0.06,2.80
746,199449787,0.6440,-0.4888,-0.4824,5.98,0.30,2.44
747,199454787,0.6484,-0.4907,-0.4912,5.43,0.55,2.01
748,199459787,0.6504,-0.4854,-0.4839,4.82,0.79,1.65
749,199464785,0.6494,-0.4922,-0.4790,4.15,1.04,1.28
750,199469789,0.6558,-0.4912,-0.4873,3.90,1.40,0.85
751,199474787,0.6587,-0.4956,-0.4810,3.35,1.71,0.67
752,199479787,0.6650,-0.4893,-0.4766,2.87,2.07,0.30
753,199484787,0.6631,-0.4888,-0.4795,2.44,2.13,0.06
754,199489787,0.6670,-0.4907,-0.4819,1.95,2.50,-0.24
755,199494787,0.6616,-0.4834,-0.4736,1.71,2.80,-0.55
756,199499787,0.6655,-0.4824,-0.4761,1.34,2.99,-0.98
757,199504787,0.6680,-0.4810,-0.4775,1.04,3.17,-1.22
758,199509787,0.6685,-0.4805,-0.4751,0.79,3.41,-1.40
759,199514788,0.6694,-0.4790,-0.4736,0.49,3.72,-1.71
760,199519787,0.6729,-0.4780,-0.4771,0.30,3.84,-1.89
761,199524785,0.6743,-0.4746,-0.4688,0.00,4.21,-2.07
762,199529789,0.6768,-0.4702,-0.4707,-0.30,4.33,-2.26
763,199534786,0.6733,-0.4731,-0.4658,-0.67,4.57,-2.44
764,199539787,0.6782,-0.4692,-0.4619,-1.10,4.70,-2.68
765,199544785,0.6792,-0.4663,-0.4639,-1.40,5.00,-2.74
766,199549787,0.6763,-0.4639,-0.4580,-1.83,5.18,-2.99
767,199554787,0.6763,-0.4619,-0.4585,-2.32,5.30,-3.17
768,199559787,0.6772,-0.4619,-0.4561,-2.80,5.37,-3.29
769,199564785,0.6777,-0.4551,-0.4600,-2.99,5.61,-3.35
770,199569787,0.6807,-0.4556,-0.4580,-3.35,5.79,-3.48
771,199574787,0.6792,-0.4531,-0.4590,-3.66,5.98,-3.54
772,199579787,0.6851,-0.4478,-0.4590,-3.90,6.04,-3.54
773,199584829,0.6860,-0.4448,-0.4512,-4.33,6.10,-3.66
774,199589787,0.6836,-0.4434,-0.4502,-4.51,6.10,-3.60
775,199594786,0.6875,-0.4424,-0.4575,-4.70,6.22,-3.66
776,199599787,0.6880,-0.4390,-0.4536,-4.76,6.28,-3.66
777,199604785,0.6870,-0.4351,-0.4507,-4.88,6.28,-3.60
778,199609787,0.6860,-0.4365,-0.4556,-4.76,6.28,-3.60
779,199614786,0.6865,-0.4355,-0.4507,-4.76,6.28,-3.48
780,199619787,0.6885,-0.4316,-0.4512,-4.51,6.52,-3.54
781,199624785,0.6904,-0.4282,-0.4468,-4.45,6.46,-3.48
782,199629785,0.6924,-0.4277,-0.4517,-4.33,6.46,-3.35
783,199634789,0.6938,-0.4282,-0.4502,-4.33,6.52,-3.35
784,199639787,0.6968,-0.4199,-0.4521,-4.15,6.40,-3.17
785,199644787,0.6982,-0.4199,-0.4487,-4.27,6.65,-3.05
786,199649786,0.6968,-0.4268,-0.4438,-4.39,6.52,-3.11
787,199654787,0.7007,-0.4277,-0.4512,-4.45,6.65,-2.99
788,199659785,0.6992,-0.4263,-0.4468,-4.57,6.46,-2.93
789,199664785,0.7012,-0.4258,-0.4458,-4.57,6.46,-2.80
790,199669785,0.6997,-0.4268,-0.4541,-4.63,6.34,-2.93
791,199674789,0.7075,-0.4248,-0.4492,-4.76,6.40,-2.99
792,199679786,0.7085,-0.4229,-0.4448,-4.88,6.40,-2.99
793,199684852,0.7090,-0.4214,-0.4492,-4.88,6.34,-3.05
794,199689789,0.7090,-0.4219,-0.4414,-5.24,6.34,-3.05
795,199694787,0.7090,-0.4238,-0.4380,-5.30,6.10,-3.17
796,199699787,0.7119,-0.4229,-0.4355,-5.55,5.91,-3.11
797,199704785,0.7153,-0.4229,-0.4370,-5.67,5.79,-3.11
798,199709787,0.7129,-0.4224,-0.4424,-5.79,5.49,-3.23
799,199714815,0.7134,-0.4194,-0.4404,-5.85,5.49,-3.23
800,199719788,0.7173,-0.4189,-0.4365,-5.79,5.18,-3.29
801,199724787,0.7197,-0.4199,-0.4395,-5.61,4.94,-3.35
802,199729789,0.7148,-0.4194,-0.4375,-5.49,4.51,-3.35
803,199734786,0.7173,-0.4189,-0.4355,-5.24,4.39,-3.41
804,199739787,0.7168,-0.4199,-0.4370,-5.00,4.33,-3.54
805,199744786,0.7188,-0.4180,-0.4390,-4.63,3.84,-3.48
806,199749787,0.7178,-0.4165,-0.4351,-4.33,3.78,-3.66
807,199754787,0.7148,-0.4165,-0.4370,-4.21,3.35,-3.66
808,199759787,0.7163,-0.4150,-0.4419,-3.84,3.23,-3.72
809,199764787,0.7129,-0.4131,-0.4346,-3.54,2.99,-3.78
810,199769789,0.7100,-0.4131,-0.4360,-3.29,2.93,-3.84
811,199774786,0.7114,-0.4111,-0.4346,-2.87,2.74,-3.78
812,199779787,0.7075,-0.4116,-0.4404,-2.50,2.38,-3.78
813,199784785,0.7114,-0.4067,-0.4404,-2.38,2.07,-3.78
814,199789787,0.7139,-0.4067,-0.4312,-2.20,1.89,-3.66
815,199794786,0.7158,-0.4058,-0.4390,-2.01,1.77,-3.66
816,199799787,0.7163,-0.4019,-0.4336,-1.71,1.40,-3.60
817,199805117,0.7207,-0.4014,-0.4355,-1.59,1.28,-3.41
818,199809787,0.7163,-0.4028,-0.4287,-1.28,0.98,-3.41
819,199814786,0.7188,-0.4023,-0.4331,-1.10,0.91,-3.29
820,199819787,0.7173,-0.4028,-0.4316,-0.85,0.79,-3.23
821,199824786,0.7139,-0.4023,-0.4351,-0.61,0.49,-3.11
822,199829787,0.7153,-0.4043,-0.4370,-0.18,0.37,-2.99
823,199834787,0.7109,-0.4014,-0.4390,0.30,0.12,-2.80
824,199839787,0.7100,-0.4009,-0.4380,0.85,-0.24,-2.74
825,199844785,0.7119,-0.4014,-0.4297,1.34,-0.49,-2.62
826,199849787,0.7095,-0.4053,-0.4390,1.83,-0.55,-2.56
827,199854786,0.7095,-0.4028,-0.4399,2.13,-0.79,-2.38
828,199859787,0.7109,-0.4038,-0.4360,2.62,-0.79,-2.26
829,199864785,0.7104,-0.4019,-0.4370,2.87,-0.98,-2.07
830,199869787,0.7114,-0.4072,-0.4443,2.99,-1.28,-1.83
831,199874788,0.7095,-0.4082,-0.4390,2.93,-1.22,-1.77
832,199879787,0.7100,-0.4067,-0.4448,3.11,-1.40,-1.65
833,199884989,0.7075,-0.4067,-0.4399,2.93,-1.71,-1.46
834,199889787,0.7124,-0.4058,-0.4321,2.93,-1.83,-1.52
835,199894786,0.7129,-0.4072,-0.4463,2.74,-1.95,-1.34
836,199899787,0.7139,-0.4092,-0.4487,2.50,-2.20,-1.22
837,199904785,0.7158,-0.4043,-0.4438,2.32,-2.32,-1.10
838,199909787,0.7178,-0.4048,-0.4497,2.01,-2.50,-1.10
839,199914786,0.7188,-0.4067,-0.4473,1.77,-2.74,-1.10
840,199919787,0.7163,-0.4023,-0.4478,1.46,-2.87,-0.98
841,199924798,0.7183,-0.4077,-0.4468,1.28,-2.93,-0.91
842,199929796,0.7197,-0.4048,-0.4526,1.10,-3.17,-0.91
843,199934786,0.7217,-0.4053,-0.4487,1.04,-3.11,-0.79
844,199939789,0.7168,-0.4038,-0.4453,0.98,-3.48,-0.67
845,199944786,0.7168,-0.4043,-0.4473,0.85,-3.66,-0.73
846,199949787,0.7168,-0.4058,-0.4536,0.79,-3.72,-0.61
847,199954787,0.7104,-0.4019,-0.4507,0.98,-3.66,-0.67
848,199959787,0.7104,-0.4014,-0.4507,1.04,-3.90,-0.55
849,199964786,0.7061,-0.4019,-0.4507,1.10,-3.84,-0.49
850,199969787,0.7046,-0.3979,-0.4473,1.34,-4.02,-0.43
851,199974785,0.7026,-0.4009,-0.4497,1.46,-3.90,-0.24
852,199979789,0.6968,-0.4019,-0.4438,1.65,-4.15,-0.18
853,199984793,0.6958,-0.4004,-0.4531,1.95,-4.02,0.00
854,199989789,0.6929,-0.4014,-0.4502,2.13,-4.09,0.06
855,199994785,0.6924,-0.3989,-0.4502,2.44,-4.09,0.12
856,199999787,0.6948,-0.3999,-0.4443,2.62,-4.21,0.30
857,200004787,0.6919,-0.4023,-0.4487,2.99,-4.15,0.37
858,200009787,0.6938,-0.3999,-0.4502,3.05,-4.15,0.61
859,200014787,0.6914,-0.4028,-0.4517,3.35,-4.21,0.67
860,200019787,0.6924,-0.4043,-0.4497,3.41,-4.02,0.67
861,200024787,0.6885,-0.4058,-0.4531,3.60,-4.15,0.79
862,200029946,0.6890,-0.4023,-0.4541,3.66,-4.15,0.79
863,200034787,0.6904,-0.4014,-0.4570,3.72,-3.96,0.91
864,200039787,0.6895,-0.4038,-0.4521,3.78,-4.02,0.98
865,200044787,0.6909,-0.4028,-0.4517,3.78,-4.02,1.04
866,200049787,0.6885,-0.4043,-0.4580,3.72,-3.90,1.10
867,200054786,0.6909,-0.4058,-0.4556,3.72,-3.90,1.10
868,200059787,0.6904,-0.4067,-0.4570,3.72,-3.84,1.22
869,200064785,0.6895,-0.4072,-0.4546,3.66,-3.84,1.28
870,200069787,0.6924,-0.4097,-0.4580,3.60,-3.66,1.22
871,200075078,0.6948,-0.4072,-0.4546,3.41,-3.48,1.34
872,200079787,0.6948,-0.4146,-0.4565,3.23,-3.23,1.59
873,200084786,0.6924,-0.4126,-0.4580,3.17,-3.17,1.46
874,200089787,0.6929,-0.4150,-0.4624,2.74,-2.99,1.52
875,200094876,0.6899,-0.4170,-0.4614,2.38,-2.93,1.52
876,200099789,0.6909,-0.4150,-0.4565,2.07,-2.74,1.59
877,200104787,0.6865,-0.4165,-0.4585,1.52,-2.50,1.59
878,200109787,0.6919,-0.4160,-0.4561,1.16,-2.38,1.65
879,200114787,0.6899,-0.4150,-0.4546,0.61,-2.20,1.71
880,200119787,0.6938,-0.4136,-0.4629,0.18,-2.01,1.59
881,200124980,0.6895,-0.4116,-0.4644,-0.37,-2.01,1.59
882,200129787,0.6938,-0.4116,-0.4644,-0.91,-1.77,1.71
883,200134786,0.6973,-0.4092,-0.4541,-1.28,-1.52,1.71
884,200139785,0.6982,-0.4087,-0.4585,-1.77,-1.46,1.77
885,200144787,0.6948,-0.4150,-0.4604,-1.95,-1.34,1.71
886,200149789,0.6958,-0.4111,-0.4551,-2.13,-1.22,1.89
887,200154787,0.6953,-0.4111,-0.4580,-2.38,-1.22,1.89
888,200159787,0.6963,-0.4126,-0.4580,-2.44,-1.16,1.89
889,200164787,0.6963,-0.4087,-0.4585,-2.50,-0.91,1.95
890,200169787,0.6948,-0.4048,-0.4609,-2.62,-0.98,1.95
891,200174787,0.6919,-0.4058,-0.4634,-2.68,-0.91,2.07
892,200179788,0.6890,-0.4033,-0.4639,-2.87,-0.91,2.13
893,200184787,0.6885,-0.4019,-0.4653,-2.87,-0.73,2.13
894,200189786,0.6826,-0.4048,-0.4570,-2.87,-0.85,2.32
895,200194788,0.6890,-0.4033,-0.4570,-2.87,-0.85,2.50
896,200199905,0.6865,-0.4004,-0.4590,-2.87,-0.85,2.50
897,200204788,0.6904,-0.4019,-0.4653,-2.87,-0.79,2.74
898,200209787,0.6914,-0.4004,-0.4600,-2.93,-0.73,2.87
899,200214787,0.6943,-0.3999,-0.4658,-2.93,-0.73,2.99
900,200219787,0.6934,-0.4004,-0.4604,-2.99,-0.61,3.11
901,200224787,0.6982,-0.4004,-0.4678,-3.05,-0.73,3.35
902,200229787,0.6958,-0.3950,-0.4648,-3.05,-0.79,3.41
903,200234787,0.6948,-0.3955,-0.4683,-3.23,-0.79,3.48
904,200239787,0.6958,-0.3931,-0.4658,-3.23,-0.61,3.60
905,200244785,0.6992,-0.3911,-0.4624,-3.35,-0.73,3.72
906,200249787,0.6973,-0.3955,-0.4629,-3.48,-0.67,3.96
907,200254787,0.6934,-0.3940,-0.4688,-3.54,-0.61,4.02
908,200259787,0.6968,-0.3926,-0.4692,-3.60,-0.67,4.27
909,200264787,0.6934,-0.3882,-0.4673,-3.66,-0.61,4.39
910,200269787,0.6958,-0.3862,-0.4639,-3.66,-0.43,4.63
911,200274787,0.6958,-0.3926,-0.4609,-3.66,-0.55,4.82
912,200279787,0.6963,-0.3892,-0.4673,-3.60,-0.30,5.00
913,200284787,0.6919,-0.3911,-0.4663,-3.54,-0.30,5.24
914,200289787,0.6968,-0.3916,-0.4712,-3.41,-0.24,5.37
915,200294787,0.6997,-0.3872,-0.4648,-3.35,-0.24,5.73
916,200299787,0.6968,-0.3896,-0.4600,-3.11,-0.12,5.79
917,200304787,0.6973,-0.3975,-0.4634,-3.11,0.12,5.91
918,200309787,0.6958,-0.3989,-0.4624,-2.93,0.30,6.28
919,200314787,0.6978,-0.3979,-0.4692,-2.74,0.43,6.46
920,200319787,0.6992,-0.4009,-0.4648,-2.44,0.73,6.59
921,200324787,0.7031,-0.4004,-0.4707,-2.38,1.04,6.71
922,200329787,0.6997,-0.3984,-0.4663,-2.26,1.34,6.95
923,200334787,0.7007,-0.3936,-0.4707,-2.13,1.52,7.01
924,200339814,0.7012,-0.3931,-0.4717,-2.07,1.89,7.07
925,200344785,0.7036,-0.3857,-0.4712,-2.07,2.07,7.26
926,200349787,0.7012,-0.3887,-0.4683,-2.01,2.38,7.32
927,200354787,0.7100,-0.3911,-0.4722,-2.20,2.50,7.44
928,200359787,0.7031,-0.3979,-0.4702,-2.26,2.87,7.68
929,200364787,0.7036,-0.3911,-0.4673,-2.38,3.11,7.80
930,200369787,0.7026,-0.3936,-0.4702,-2.32,3.29,8.05
931,200374787,0.7051,-0.3926,-0.4727,-2.38,3.66,8.29
932,200379787,0.7012,-0.3950,-0.4702,-2.38,3.78,8.41
933,200384790,0.7061,-0.3979,-0.4702,-2.38,3.90,8.48
934,200389786,0.7070,-0.3965,-0.4692,-2.20,4.45,8.60
935,200394787,0.7041,-0.3945,-0.4756,-1.95,4.57,8.84
936,200399786,0.7017,-0.3955,-0.4648,-1.59,4.76,8.90
937,200404839,0.7012,-0.3936,-0.4731,-1.28,5.18,8.96
938,200409787,0.7021,-0.3960,-0.4717,-1.10,5.49,9.02
939,200414787,0.7026,-0.3916,-0.4663,-0.85,5.61,9.21
940,200419786,0.7051,-0.3877,-0.4717,-0.79,5.91,9.27
941,200424785,0.7007,-0.3877,-0.4668,-0.67,6.22,9.45
942,200429787,0.7031,-0.3940,-0.4658,-0.55,6.34,9.45
943,200434787,0.7017,-0.3896,-0.4658,-0.61,6.46,9.63
944,200439787,0.7012,-0.3936,-0.4707,-0.79,6.83,9.70
945,200444786,0.7007,-0.3936,-0.4678,-0.85,6.95,9.82
946,200449787,0.7002,-0.3896,-0.4683,-0.79,7.20,10.00
947,200454787,0.7002,-0.3955,-0.4639,-0.98,7.32,10.18
948,200459787,0.6982,-0.4014,-0.4634,-0.85,7.44,10.12
949,200464786,0.6958,-0.4009,-0.4609,-0.98,7.50,10.24
950,200469787,0.7041,-0.3999,-0.4614,-0.85,7.74,10.24
951,200474787,0.7017,-0.4087,-0.4629,-0.98,7.93,10.24
952,200479787,0.7012,-0.4077,-0.4619,-0.85,8.05,10.30
953,200484786,0.7085,-0.4028,-0.4614,-1.10,8.17,10.24
954,200489787,0.7051,-0.4058,-0.4624,-1.16,8.11,10.06
955,200494787,0.7085,-0.4038,-0.4526,-1.40,8.41,10.06
956,200499787,0.7085,-0.4028,-0.4512,-1.59,8.35,10.00
957,200504786,0.7134,-0.4067,-0.4526,-2.01,8.54,9.63
958,200509787,0.7100,-0.4072,-0.4536,-2.26,8.60,9.63
959,200514787,0.7080,-0.4048,-0.4546,-2.87,8.48,9.39
960,200519787,0.7080,-0.4053,-0.4556,-3.23,8.54,9.21
961,200524786,0.7119,-0.4121,-0.4556,-3.96,8.66,9.21
962,200529787,0.7134,-0.4111,-0.4575,-4.45,8.48,9.02
963,200534788,0.7065,-0.4116,-0.4438,-5.37,8.60,8.90
964,200539787,0.7085,-0.4092,-0.4399,-6.28,8.54,8.60
965,200544831,0.7061,-0.4141,-0.4531,-7.50,8.78,8.41
966,200549788,0.7036,-0.4111,-0.4507,-8.17,8.48,8.29
967,200554786,0.7041,-0.4097,-0.4526,-8.96,8.41,7.99
968,200559787,0.7021,-0.4146,-0.4434,-9.94,8.29,7.80
969,200564787,0.7031,-0.4097,-0.4482,-10.85,8.17,7.56
970,200569787,0.7041,-0.4087,-0.4395,-11.52,7.99,7.32
971,200574786,0.7090,-0.4141,-0.4429,-12.13,7.74,7.20
972,200579787,0.7065,-0.4136,-0.4478,-12.68,7.62,7.01
973,200584787,0.7109,-0.4121,-0.4458,-13.17,7.44,6.59
974,200589788,0.7090,-0.4146,-0.4385,-13.66,7.20,6.40
975,200594786,0.7114,-0.4121,-0.4443,-13.90,7.01,6.16
976,200599787,0.7109,-0.4092,-0.4424,-13.96,6.71,5.91
977,200604787,0.7095,-0.4121,-0.4395,-14.21,6.40,5.61
978,200609788,0.7070,-0.4097,-0.4395,-14.09,6.22,5.37
979,200614786,0.7051,-0.4082,-0.4434,-13.96,5.98,5.18
980,200619787,0.7075,-0.4082,-0.4443,-13.54,5.55,4.94
981,200624787,0.7056,-0.4102,-0.4453,-13.11,5.43,4.70
982,200629787,0.7061,-0.4053,-0.4487,-12.74,5.18,4.51
983,200634786,0.7061,-0.3994,-0.4404,-12.01,4.82,4.39
984,200639787,0.7051,-0.3999,-0.4448,-11.65,4.51,4.21
985,200644787,0.7046,-0.3975,-0.4414,-10.98,4.21,4.15
986,200649787,0.7036,-0.3979,-0.4385,-10.61,4.09,4.02
987,200654786,0.7070,-0.3955,-0.4404,-10.24,3.72,3.84
988,200659787,0.7109,-0.3960,-0.4365,-9.76,3.48,3.78
989,200664787,0.7056,-0.3921,-0.4463,-9.39,3.29,3.72
990,200669787,0.7100,-0.3901,-0.4390,-9.09,3.05,3.60
991,200674785,0.7100,-0.3906,-0.4385,-8.84,2.87,3.54
992,200679787,0.7095,-0.3911,-0.4434,-8.60,2.50,3.35
993,200684787,0.7109,-0.3848,-0.4453,-8.48,2.38,3.41
994,200689788,0.7070,-0.3882,-0.4380,-8.23,2.01,3.29
995,200695078,0.7090,-0.3906,-0.4404,-7.93,1.77,3.17
996,200699787,0.7090,-0.3911,-0.4409,-7.80,1.59,3.23
997,200704787,0.7085,-0.3931,-0.4360,-7.80,1.46,3.17
998,200709787,0.7129,-0.3906,-0.4380,-7.50,1.22,3.11
999,200714788,0.7119,-0.3862,-0.4399,-7.32,1.10,3.05
1000,200719787,0.7144,-0.3862,-0.4360,-7.01,0.91,2.93
1001,200724787,0.7104,-0.3843,-0.4414,-6.77,0.67,2.87
1002,200729787,0.7163,-0.3862,-0.4424,-6.46,0.30,2.87
1003,200734786,0.7129,-0.3823,-0.4453,-6.16,0.30,2.80
1004,200739788,0.7188,-0.3818,-0.4409,-5.85,0.00,2.80
1005,200744787,0.7168,-0.3809,-0.4429,-5.43,-0.06,2.93
1006,200749787,0.7144,-0.3823,-0.4463,-5.18,-0.12,2.87
1007,200754785,0.7173,-0.3750,-0.4448,-4.76,-0.30,2.93
1008,200759787,0.7148,-0.3755,-0.4414,-4.15,-0.43,3.05
1009,200764787,0.7188,-0.3765,-0.4473,-3.66,-0.61,3.05
1010,200769787,0.7188,-0.3809,-0.4419,-2.99,-0.73,3.17
1011,200775204,0.7197,-0.3843,-0.4507,-2.38,-0.73,3.11
1012,200779787,0.7202,-0.3833,-0.4497,-1.83,-0.91,3.17
1013,200784786,0.7222,-0.3813,-0.4468,-1.28,-0.79,3.17
1014,200789787,0.7217,-0.3804,-0.4497,-0.55,-0.79,3.17
1015,200794786,0.7256,-0.3828,-0.4473,0.00,-0.79,3.17
1016,200799787,0.7236,-0.3784,-0.4473,0.55,-0.85,3.11
1017,200804787,0.7217,-0.3813,-0.4512,0.91,-0.85,2.99
1018,200809786,0.7251,-0.3799,-0.4517,1.28,-0.85,3.17
1019,200814787,0.7241,-0.3813,-0.4502,1.59,-0.79,3.11
1020,200819787,0.7188,-0.3799,-0.4492,1.65,-0.79,3.05
1021,200824785,0.7192,-0.3828,-0.4546,1.77,-0.55,3.11
1022,200829788,0.7183,-0.3804,-0.4546,1.77,-0.73,3.11
1023,200834787,0.7153,-0.3765,-0.4526,1.77,-0.67,3.05
1024,200839788,0.7158,-0.3809,-0.4502,1.89,-0.61,3.11
1025,200844786,0.7188,-0.3760,-0.4531,1.89,-0.61,3.05
1026,200849787,0.7222,-0.3818,-0.4536,1.95,-0.55,3.05
1027,200854787,0.7192,-0.3809,-0.4487,1.83,-0.55,3.05
1028,200859787,0.7197,-0.3833,-0.4575,1.77,-0.55,2.99
1029,200864787,0.7168,-0.3867,-0.4531,1.89,-0.49,2.93
1030,200869787,0.7212,-0.3867,-0.4521,1.83,-0.37,2.99
1031,200874787,0.7202,-0.3867,-0.4541,1.95,-0.49,2.99
1032,200879787,0.7183,-0.3833,-0.4526,1.95,-0.30,2.99
1033,200884786,0.7246,-0.3848,-0.4468,1.77,-0.30,2.87
1034,200889787,0.7246,-0.3853,-0.4556,1.59,-0.24,2.87
1035,200894785,0.7256,-0.3838,-0.4546,1.40,-0.37,2.68
1036,200899785,0.7285,-0.3857,-0.4546,1.16,-0.49,2.87
1037,200904785,0.7261,-0.3896,-0.4604,0.98,-0.30,2.80
1038,200909789,0.7217,-0.3843,-0.4546,0.67,-0.37,2.80
1039,200914786,0.7197,-0.3813,-0.4526,0.49,-0.30,2.62
1040,200919787,0.7207,-0.3843,-0.4521,0.43,-0.37,2.62
1041,200924787,0.7153,-0.3828,-0.4531,0.12,-0.30,2.62
1042,200929787,0.7207,-0.3848,-0.4551,0.06,-0.18,2.62
1043,200934786,0.7188,-0.3857,-0.4609,0.00,-0.24,2.62
1044,200939787,0.7192,-0.3843,-0.4575,0.00,-0.18,2.56
1045,200944788,0.7192,-0.3843,-0.4482,0.00,-0.30,2.56
1046,200949787,0.7217,-0.3867,-0.4561,-0.06,-0.24,2.50
1047,200954785,0.7227,-0.3828,-0.4556,0.06,-0.30,2.50
1048,200959785,0.7202,-0.3848,-0.4551,0.06,-0.30,2.44
1049,200964787,0.7217,-0.3833,-0.4526,0.12,-0.43,2.38
1050,200969786,0.7197,-0.3843,-0.4531,0.18,-0.43,2.26
1051,200974787,0.7148,-0.3813,-0.4565,0.18,-0.30,2.13
1052,200979786,0.7173,-0.3794,-0.4546,0.12,-0.55,2.26
1053,200984787,0.7173,-0.3774,-0.4517,0.12,-0.49,2.01
1054,200989786,0.7178,-0.3809,-0.4517,0.06,-0.55,2.01
1055,200994785,0.7227,-0.3760,-0.4507,-0.18,-0.61,1.89
1056,200999787,0.7212,-0.3794,-0.4541,-0.18,-0.73,1.77
1057,201004790,0.7173,-0.3779,-0.4512,-0.55,-0.61,1.77
1058,201009787,0.7202,-0.3711,-0.4487,-0.61,-0.85,1.65
1059,201014787,0.7241,-0.3765,-0.4521,-0.67,-0.85,1.52
1060,201019786,0.7212,-0.3750,-0.4507,-0.79,-0.73,1.40
1061,201024787,0.7227,-0.3740,-0.4517,-0.79,-0.85,1.34
1062,201029786,0.7178,-0.3750,-0.4521,-0.91,-1.04,1.34
1063,201034806,0.7168,-0.3730,-0.4512,-0.85,-0.98,1.28
1064,201039786,0.7178,-0.3755,-0.4438,-0.73,-1.16,1.22
1065,201044785,0.7158,-0.3706,-0.4463,-0.67,-1.22,1.22
1066,201049787,0.7163,-0.3745,-0.4507,-0.61,-1.10,1.22
1067,201054787,0.7163,-0.3760,-0.4482,-0.30,-1.04,1.10
1068,201059786,0.7173,-0.3779,-0.4482,-0.24,-1.22,1.16
1069,201064785,0.7153,-0.3750,-0.4478,-0.12,-1.22,1.16
1070,201069787,0.7178,-0.3760,-0.4507,0.06,-1.10,1.10
1071,201074787,0.7168,-0.3774,-0.4512,0.06,-1.22,1.10
1072,201079787,0.7212,-0.3760,-0.4521,-0.06,-1.10,1.16
1073,201084785,0.7212,-0.3740,-0.4517,-0.12,-1.16,1.10
1074,201089785,0.7188,-0.3735,-0.4521,-0.12,-1.16,1.10
1075,201094787,0.7183,-0.3716,-0.4517,-0.18,-1.04,1.28
1076,201099785,0.7227,-0.3687,-0.4521,-0.18,-1.22,1.16
1077,201104786,0.7266,-0.3740,-0.4551,0.06,-1.46,1.34
1078,201109789,0.7290,-0.3716,-0.4536,0.18,-1.28,1.34
1079,201114788,0.7285,-0.3716,-0.4507,0.30,-1.46,1.40
1080,201119787,0.7305,-0.3696,-0.4585,0.67,-1.40,1.46
1081,201124786,0.7319,-0.3691,-0.4536,0.91,-1.46,1.59
1082,201129787,0.7310,-0.3647,-0.4526,1.28,-1.59,1.59
1083,201134787,0.7295,-0.3711,-0.4570,1.71,-1.65,1.71
1084,201139787,0.7300,-0.3667,-0.4585,1.89,-1.52,1.71
1085,201144786,0.7310,-0.3691,-0.4609,2.32,-1.65,1.83
1086,201149788,0.7271,-0.3706,-0.4517,2.62,-1.71,1.89
1087,201154787,0.7285,-0.3701,-0.4561,2.87,-1.77,1.95
1088,201159787,0.7251,-0.3691,-0.4521,3.11,-1.77,2.13
1089,201166087,0.7222,-0.3706,-0.4497,3.17,-1.71,2.20
1090,201169788,0.7212,-0.3740,-0.4526,3.41,-1.77,2.13
1091,201174786,0.7212,-0.3701,-0.4531,3.35,-1.83,2.20
1092,201179787,0.7192,-0.3735,-0.4512,3.54,-1.89,2.20
1093,201184787,0.7192,-0.3726,-0.4575,3.54,-1.95,2.32
1094,201189788,0.7144,-0.3760,-0.4561,3.60,-1.95,2.38
1095,201194788,0.7129,-0.3706,-0.4546,3.54,-1.95,2.38
1096,201199787,0.7158,-0.3765,-0.4517,3.60,-2.07,2.44
1097,201204785,0.7163,-0.3745,-0.4517,3.54,-2.01,2.50
1098,201209789,0.7134,-0.3755,-0.4556,3.48,-1.89,2.50
1099,201214928,0.7139,-0.3774,-0.4526,3.35,-2.01,2.56
1100,201219787,0.7168,-0.3770,-0.4487,3.29,-2.07,2.50
1101,201224787,0.7104,-0.3794,-0.4531,3.17,-2.01,2.38
1102,201229788,0.7124,-0.3794,-0.4546,3.11,-2.07,2.50
1103,201234787,0.7129,-0.3774,-0.4580,2.99,-2.07,2.38
1104,201239787,0.7124,-0.3823,-0.4575,2.99,-1.89,2.26
1105,201244787,0.7075,-0.3818,-0.4585,2.93,-1.89,2.38
1106,201249787,0.7090,-0.3818,-0.4600,2.87,-1.83,2.32
1107,201254787,0.7119,-0.3799,-0.4580,2.74,-1.83,2.26
1108,201259787,0.7158,-0.3823,-0.4590,2.93,-1.71,2.26
1109,201264787,0.7158,-0.3843,-0.4536,2.87,-1.59,2.32
1110,201269787,0.7153,-0.3853,-0.4648,2.93,-1.52,2.26
1111,201274815,0.7109,-0.3862,-0.4609,2.93,-1.46,2.13
1112,201279787,0.7085,-0.3872,-0.4624,2.80,-1.40,2.13
1113,201284860,0.7153,-0.3857,-0.4644,2.87,-1.40,2.07
1114,201289787,0.7139,-0.3862,-0.4644,2.80,-1.46,2.07
1115,201294787,0.7119,-0.3877,-0.4658,2.80,-1.34,2.07
1116,201299787,0.7134,-0.3901,-0.4624,2.74,-1.40,1.95
1117,201304785,0.7158,-0.3911,-0.4609,2.62,-1.28,1.95
1118,201309932,0.7158,-0.3872,-0.4619,2.62,-1.40,1.95
1119,201314787,0.7139,-0.3877,-0.4609,2.56,-1.22,1.77
1120,201319786,0.7139,-0.3833,-0.4673,2.44,-1.22,1.71
1121,201324787,0.7168,-0.3838,-0.4590,2.38,-1.22,1.71
1122,201329787,0.7109,-0.3867,-0.4590,2.38,-1.16,1.71
1123,201334787,0.7129,-0.3877,-0.4600,2.38,-1.10,1.77
1124,201339786,0.7139,-0.3857,-0.4595,2.26,-1.04,1.59
1125,201344787,0.7124,-0.3872,-0.4683,2.32,-1.16,1.65
1126,201349786,0.7090,-0.3853,-0.4639,2.07,-1.10,1.59
1127,201354789,0.7085,-0.3838,-0.4688,2.13,-1.04,1.52
1128,201359786,0.7134,-0.3833,-0.4624,1.89,-0.91,1.46
1129,201364785,0.7080,-0.3789,-0.4658,1.77,-0.79,1.46
1130,201369787,0.7070,-0.3804,-0.4580,1.59,-0.85,1.40
1131,201374788,0.7124,-0.3804,-0.4551,1.34,-0.85,1.46
1132,201379787,0.7095,-0.3809,-0.4609,1.28,-0.85,1.34
1133,201384790,0.7090,-0.3809,-0.4619,1.10,-0.79,1.46
1134,201389786,0.7031,-0.3818,-0.4595,0.98,-0.67,1.40
1135,201394787,0.7080,-0.3784,-0.4561,0.85,-0.55,1.28
1136,201399786,0.7065,-0.3770,-0.4561,0.79,-0.61,1.40
1137,201404785,0.7109,-0.3789,-0.4575,0.67,-0.43,1.52
1138,201409785,0.7080,-0.3770,-0.4556,0.67,-0.43,1.52
1139,201414787,0.7119,-0.3745,-0.4551,0.79,-0.24,1.46
1140,201419786,0.7148,-0.3765,-0.4575,0.91,-0.30,1.52
1141,201424787,0.7192,-0.3755,-0.4595,1.16,-0.18,1.52
1142,201429789,0.7202,-0.3755,-0.4575,1.04,-0.30,1.59
1143,201435168,0.7192,-0.3755,-0.4580,1.28,-0.37,1.71
1144,201439787,0.7217,-0.3735,-0.4614,1.16,-0.30,1.77
1145,201444787,0.7212,-0.3726,-0.4644,1.28,-0.06,1.83
1146,201449787,0.7217,-0.3716,-0.4541,1.34,-0.12,1.83
1147,201454787,0.7197,-0.3760,-0.4565,1.16,-0.12,1.83
1148,201459788,0.7183,-0.3765,-0.4541,1.16,-0.12,1.95
1149,201464786,0.7222,-0.3770,-0.4609,1.22,-0.18,1.95
1150,201469787,0.7183,-0.3696,-0.4590,1.22,-0.06,2.01
1151,201474786,0.7231,-0.3760,-0.4590,1.22,-0.12,2.20
1152,201479789,0.7222,-0.3750,-0.4561,1.16,-0.12,2.13
1153,201484787,0.7241,-0.3716,-0.4585,1.22,-0.12,2.20
1154,201489786,0.7236,-0.3750,-0.4595,1.10,-0.06,2.26
1155,201494787,0.7222,-0.3760,-0.4590,1.16,-0.12,2.26
1156,201499786,0.7192,-0.3735,-0.4580,1.16,0.00,2.32
1157,201504787,0.7197,-0.3730,-0.4600,1.22,0.00,2.44
1158,201509785,0.7207,-0.3730,-0.4580,1.22,0.12,2.32
1159,201514787,0.7222,-0.3740,-0.4541,1.16,-0.06,2.38
1160,201519786,0.7202,-0.3726,-0.4619,1.34,0.06,2.50
1161,201524787,0.7227,-0.3745,-0.4609,1.52,0.06,2.62
1162,201529785,0.7207,-0.3730,-0.4517,1.59,0.12,2.56
1163,201534787,0.7202,-0.3740,-0.4619,1.77,0.12,2.62
1164,201539786,0.7153,-0.3755,-0.4609,1.95,0.12,2.62
1165,201544787,0.7144,-0.3726,-0.4487,2.13,0.30,2.62
1166,201549786,0.7129,-0.3735,-0.4556,2.26,0.18,2.74
1167,201554845,0.7134,-0.3706,-0.4575,2.44,0.18,2.80
1168,201559787,0.7134,-0.3740,-0.4556,2.62,0.24,2.74
1169,201564788,0.7114,-0.3735,-0.4565,2.68,0.24,2.74
1170,201569786,0.7090,-0.3760,-0.4551,2.68,0.24,2.80
1171,201574951,0.7129,-0.3745,-0.4531,2.74,0.30,2.80
1172,201579787,0.7119,-0.3721,-0.4565,2.80,0.30,2.87
1173,201584787,0.7158,-0.3706,-0.4507,2.56,0.49,2.99
1174,201589787,0.7119,-0.3730,-0.4521,2.62,0.37,2.99
1175,201594786,0.7144,-0.3696,-0.4556,2.50,0.37,2.93
1176,201599787,0.7163,-0.3755,-0.4502,2.50,0.49,3.05
1177,201604787,0.7153,-0.3701,-0.4541,2.56,0.55,2.99
1178,201609787,0.7158,-0.3735,-0.4551,2.62,0.37,3.05
1179,201614785,0.7173,-0.3760,-0.4575,2.80,0.61,3.11
1180,201619789,0.7158,-0.3730,-0.4556,2.93,0.37,3.17
1181,201624787,0.7139,-0.3774,-0.4556,3.17,0.55,3.23
1182,201629787,0.7153,-0.3784,-0.4531,3.29,0.55,3.23
1183,201634786,0.7153,-0.3818,-0.4556,3.54,0.55,3.23
1184,201639787,0.7144,-0.3799,-0.4507,3.41,0.67,3.23
1185,201644787,0.7148,-0.3833,-0.4468,3.54,0.43,3.29
1186,201649787,0.7148,-0.3828,-0.4487,3.35,0.55,3.35
1187,201654786,0.7188,-0.3833,-0.4526,3.29,0.49,3.29
1188,201659846,0.7212,-0.3813,-0.4502,3.11,0.37,3.35
1189,201664787,0.7183,-0.3848,-0.4526,2.99,0.49,3.35
1190,201669787,0.7168,-0.3838,-0.4497,2.87,0.30,3.41
1191,201674786,0.7192,-0.3818,-0.4478,2.74,0.24,3.35
1192,201679787,0.7168,-0.3799,-0.4536,2.56,0.24,3.41
1193,201684787,0.7153,-0.3809,-0.4565,2.44,0.18,3.35
1194,201689787,0.7178,-0.3784,-0.4502,2.32,0.30,3.41
1195,201694786,0.7173,-0.3779,-0.4570,2.20,0.37,3.41
1196,201699787,0.7188,-0.3789,-0.4590,2.20,0.18,3.29
1197,201704787,0.7197,-0.3755,-0.4624,2.20,0.18,3.41
1198,201709787,0.7188,-0.3779,-0.4575,2.26,0.30,3.41
1199,201714785,0.7197,-0.3770,-0.4575,2.44,0.30,3.35
1200,201719788,0.7188,-0.3750,-0.4609,2.44,0.37,3.41
1201,201724787,0.7207,-0.3740,-0.4536,2.62,0.30,3.35
1202,201729786,0.7227,-0.3755,-0.4575,2.56,0.49,3.41
1203,201734785,0.7217,-0.3794,-0.4595,2.68,0.43,3.29
1204,201739789,0.7236,-0.3789,-0.4565,2.62,0.37,3.35
1205,201744786,0.7251,-0.3774,-0.4521,2.50,0.49,3.29
1206,201749787,0.7246,-0.3794,-0.4526,2.44,0.61,3.23
1207,201754787,0.7246,-0.3765,-0.4487,2.20,0.61,3.17
1208,201759787,0.7261,-0.3774,-0.4536,2.07,0.67,3.11
1209,201764785,0.7285,-0.3755,-0.4512,1.77,0.55,2.87
1210,201769786,0.7241,-0.3789,-0.4482,1.52,0.55,2.93
1211,201774787,0.7266,-0.3765,-0.4482,1.22,0.67,2.80
1212,201779787,0.7271,-0.3760,-0.4453,1.16,0.55,2.74
1213,201784789,0.7256,-0.3784,-0.4541,0.98,0.61,2.56
1214,201789786,0.7231,-0.3794,-0.4507,0.79,0.55,2.50
1215,201795079,0.7222,-0.3779,-0.4526,0.55,0.37,2.38
1216,201799788,0.7231,-0.3799,-0.4487,0.49,0.49,2.32
1217,201804787,0.7261,-0.3789,-0.4521,0.49,0.55,2.20
1218,201809787,0.7280,-0.3770,-0.4575,0.30,0.43,2.07
1219,201814785,0.7236,-0.3721,-0.4443,0.24,0.37,2.01
1220,201819785,0.7251,-0.3765,-0.4507,0.12,0.37,1.95
1221,201824789,0.7266,-0.3730,-0.4556,0.06,0.30,1.77
1222,201829786,0.7261,-0.3735,-0.4482,0.18,0.30,1.77
1223,201834787,0.7246,-0.3755,-0.4526,0.30,0.30,1.71
1224,201839787,0.7261,-0.3750,-0.4482,0.43,0.30,1.71
1225,201844787,0.7275,-0.3745,-0.4468,0.49,0.24,1.71
1226,201849786,0.7275,-0.3730,-0.4502,0.73,0.24,1.65
1227,201854787,0.7285,-0.3760,-0.4551,0.98,0.18,1.65
1228,201859786,0.7271,-0.3779,-0.4438,1.22,0.30,1.59
1229,201864787,0.7290,-0.3750,-0.4502,1.40,0.18,1.59
1230,201869789,0.7300,-0.3760,-0.4531,1.71,0.24,1.52
1231,201874785,0.7271,-0.3774,-0.4536,1.95,0.24,1.40
1232,201879785,0.7261,-0.3770,-0.4512,1.83,0.24,1.40
1233,201884786,0.7256,-0.3721,-0.4521,1.83,0.18,1.34
1234,201889787,0.7256,-0.3730,-0.4536,1.77,0.30,1.34
1235,201894787,0.7251,-0.3740,-0.4521,1.59,0.24,1.22
1236,201899787,0.7266,-0.3745,-0.4546,1.46,0.24,1.22
1237,201904788,0.7271,-0.3755,-0.4541,1.22,0.18,1.16
1238,201909787,0.7246,-0.3740,-0.4541,1.10,0.12,1.10
1239,201914786,0.7227,-0.3770,-0.4521,0.91,0.12,1.10
1240,201919785,0.7300,-0.3721,-0.4541,0.73,0.24,0.91
1241,201924785,0.7212,-0.3765,-0.4570,0.67,0.30,0.98
1242,201929787,0.7261,-0.3779,-0.4502,0.73,0.30,0.85
1243,201934787,0.7271,-0.3750,-0.4546,0.67,0.37,0.85
1244,201939787,0.7271,-0.3745,-0.4497,0.61,0.37,0.79
1245,201944787,0.7231,-0.3740,-0.4536,0.73,0.55,0.79
1246,201949786,0.7236,-0.3765,-0.4526,0.67,0.49,0.67
1247,201954787,0.7246,-0.3735,-0.4487,0.49,0.61,0.73
1248,201959786,0.7236,-0.3760,-0.4502,0.30,0.67,0.61
1249,201964787,0.7266,-0.3721,-0.4507,0.06,0.55,0.55
1250,201969786,0.7266,-0.3735,-0.4463,-0.12,0.61,0.49
1251,201974788,0.7227,-0.3740,-0.4482,-0.37,0.67,0.55
1252,201979786,0.7246,-0.3726,-0.4443,-0.55,0.61,0.49
1253,201984787,0.7251,-0.3740,-0.4512,-0.73,0.55,0.49
1254,201989786,0.7246,-0.3721,-0.4551,-0.85,0.61,0.55
1255,201994785,0.7236,-0.3745,-0.4512,-1.28,0.61,0.49
1256,201999789,0.7266,-0.3726,-0.4502,-1.28,0.73,0.49
1257,202004786,0.7300,-0.3711,-0.4517,-1.34,0.55,0.55
1258,202009787,0.7246,-0.3716,-0.4463,-1.28,0.73,0.49
1259,202014787,0.7271,-0.3721,-0.4463,-1.10,0.67,0.49
1260,202019787,0.7266,-0.3672,-0.4546,-1.04,0.61,0.49
1261,202024785,0.7256,-0.3721,-0.4565,-0.79,0.55,0.49
1262,202029790,0.7227,-0.3696,-0.4502,-0.55,0.61,0.61
1263,202034786,0.7285,-0.3687,-0.4561,-0.18,0.73,0.49
1264,202039787,0.7227,-0.3691,-0.4517,0.06,0.73,0.49
1265,202044787,0.7251,-0.3662,-0.4468,0.24,0.67,0.55
1266,202049787,0.7231,-0.3696,-0.4492,0.49,0.91,0.49
1267,202054786,0.7227,-0.3687,-0.4502,0.61,0.79,0.61
1268,202059787,0.7266,-0.3706,-0.4507,0.73,0.91,0.49
1269,202064787,0.7266,-0.3657,-0.4463,0.98,0.79,0.67
1270,202069859,0.7295,-0.3682,-0.4458,1.04,0.79,0.61
1271,202074786,0.7256,-0.3647,-0.4492,1.04,0.85,0.67
1272,202079787,0.7290,-0.3662,-0.4473,1.34,0.85,0.85
1273,202084787,0.7261,-0.3696,-0.4390,1.34,0.79,0.85
1274,202089788,0.7290,-0.3647,-0.4482,1.40,0.85,0.91
1275,202095033,0.7275,-0.3672,-0.4502,1.40,0.79,0.79
1276,202099788,0.7241,-0.3667,-0.4468,1.46,0.79,0.79
1277,202104787,0.7290,-0.3652,-0.4438,1.52,0.73,0.73
1278,202109787,0.7275,-0.3677,-0.4497,1.59,0.73,0.91
1279,202114786,0.7290,-0.3667,-0.4487,1.40,0.85,0.85
1280,202119787,0.7285,-0.3687,-0.4463,1.40,0.79,0.85
1281,202124785,0.7271,-0.3672,-0.4438,1.40,0.55,0.85
1282,202129792,0.7271,-0.3594,-0.4478,1.22,0.67,0.85
1283,202134787,0.7290,-0.3618,-0.4448,1.28,0.67,0.91
1284,202139786,0.7231,-0.3662,-0.4448,1.10,0.55,0.98
1285,202144787,0.7231,-0.3652,-0.4434,1.10,0.67,0.91
1286,202149790,0.7295,-0.3657,-0.4424,1.04,0.55,0.98
1287,202154876,0.7295,-0.3667,-0.4458,1.16,0.61,1.10
1288,202159787,0.7310,-0.3657,-0.4443,1.28,0.67,1.04
1289,202164787,0.7310,-0.3633,-0.4434,1.28,0.55,1.16
1290,202169787,0.7290,-0.3608,-0.4438,1.40,0.61,1.28
1291,202174787,0.7251,-0.3638,-0.4409,1.65,0.67,1.10
1292,202179787,0.7285,-0.3667,-0.4419,1.83,0.73,1.28
1293,202184787,0.7290,-0.3657,-0.4419,2.07,0.55,1.22
1294,202189788,0.7285,-0.3638,-0.4424,2.20,0.61,1.34
1295,202194788,0.7261,-0.3662,-0.4419,2.56,0.61,1.40
1296,202199787,0.7251,-0.3682,-0.4429,2.68,0.61,1.34
1297,202204787,0.7227,-0.3696,-0.4443,2.99,0.79,1.40
1298,202209787,0.7222,-0.3657,-0.4492,2.93,0.73,1.52
1299,202214787,0.7227,-0.3677,-0.4414,2.93,0.73,1.65
1300,202219787,0.7246,-0.3643,-0.4380,2.87,0.73,1.65
1301,202224786,0.7256,-0.3633,-0.4360,2.74,0.79,1.65
1302,202229785,0.7295,-0.3657,-0.4370,2.68,0.79,1.77
1303,202235152,0.7305,-0.3687,-0.4438,2.56,0.67,1.83
1304,202239787,0.7324,-0.3652,-0.4404,2.44,0.73,1.89
1305,202244786,0.7305,-0.3633,-0.4409,2.32,0.55,1.89
1306,202249787,0.7363,-0.3623,-0.4468,2.20,0.67,2.01
1307,202254787,0.7368,-0.3677,-0.4429,2.26,0.67,2.01
1308,202259786,0.7368,-0.3647,-0.4404,2.13,0.61,2.07
1309,202264787,0.7329,-0.3677,-0.4468,2.26,0.67,2.13
1310,202269789,0.7329,-0.3618,-0.4453,2.26,0.61,2.13
1311,202274787,0.7319,-0.3643,-0.4395,2.50,0.61,2.01
1312,202279786,0.7358,-0.3608,-0.4434,2.44,0.67,2.13
1313,202284785,0.7373,-0.3647,-0.4380,2.56,0.61,2.13
1314,202289786,0.7285,-0.3638,-0.4434,2.50,0.49,2.20
1315,202294786,0.7290,-0.3623,-0.4438,2.56,0.55,2.20
1316,202299788,0.7285,-0.3643,-0.4365,2.74,0.49,2.07
1317,202304787,0.7280,-0.3638,-0.4375,2.80,0.49,2.26
1318,202309786,0.7280,-0.3647,-0.4429,2.74,0.49,2.20
1319,202314787,0.7261,-0.3638,-0.4390,2.93,0.30,2.26
1320,202319786,0.7305,-0.3613,-0.4380,2.99,0.43,2.26
1321,202324785,0.7305,-0.3638,-0.4395,2.99,0.30,2.32
1322,202329785,0.7275,-0.3623,-0.4390,3.05,0.37,2.20
1323,202334787,0.7251,-0.3623,-0.4355,3.29,0.37,2.20
1324,202339787,0.7266,-0.3628,-0.4355,3.35,0.12,2.20
1325,202344787,0.7266,-0.3643,-0.4409,3.54,0.00,2.26
1326,202349787,0.7310,-0.3643,-0.4380,3.66,0.12,2.20
1327,202354785,0.7305,-0.3652,-0.4380,3.96,-0.12,2.26
1328,202359787,0.7246,-0.3696,-0.4409,4.15,-0.12,2.26
1329,202364849,0.7285,-0.3652,-0.4458,4.27,-0.30,2.26
1330,202369787,0.7295,-0.3662,-0.4419,4.27,-0.30,2.26
1331,202374787,0.7310,-0.3672,-0.4390,4.45,-0.37,2.20
1332,202379787,0.7310,-0.3633,-0.4448,4.45,-0.55,2.26
1333,202384787,0.7339,-0.3682,-0.4404,4.45,-0.55,2.13
1334,202389787,0.7314,-0.3677,-0.4429,4.51,-0.79,2.26
1335,202394785,0.7324,-0.3657,-0.4404,4.51,-0.73,2.20
1336,202400446,0.7388,-0.3662,-0.4443,4.45,-0.91,2.26
1337,202404787,0.7334,-0.3711,-0.4390,4.33,-0.91,2.20
1338,202409786,0.7378,-0.3750,-0.4482,4.57,-0.91,2.20
1339,202414787,0.7368,-0.3672,-0.4419,4.57,-1.04,2.26
1340,202419786,0.7393,-0.3691,-0.4409,4.57,-1.16,2.26
1341,202424787,0.7329,-0.3696,-0.4468,4.76,-1.16,2.20
1342,202429786,0.7354,-0.3672,-0.4443,4.88,-1.10,2.26
1343,202434785,0.7300,-0.3740,-0.4409,4.94,-1.28,2.32
1344,202439789,0.7305,-0.3721,-0.4453,5.00,-1.10,2.20
1345,202444787,0.7310,-0.3701,-0.4468,5.18,-1.28,2.20
1346,202449787,0.7339,-0.3726,-0.4409,5.12,-1.40,2.20
1347,202454787,0.7314,-0.3730,-0.4409,5.06,-1.40,2.07
1348,202459787,0.7329,-0.3701,-0.4404,4.88,-1.34,2.07
1349,202464787,0.7314,-0.3716,-0.4443,4.76,-1.40,2.07
1350,202469787,0.7314,-0.3730,-0.4404,4.45,-1.40,2.07
1351,202474787,0.7310,-0.3735,-0.4414,4.33,-1.40,2.01
1352,202479788,0.7319,-0.3706,-0.4365,3.96,-1.46,1.89
1353,202484787,0.7329,-0.3701,-0.4429,3.72,-1.59,1.89
1354,202489815,0.7319,-0.3691,-0.4497,3.48,-1.34,1.89
1355,202494785,0.7319,-0.3701,-0.4443,3.35,-1.65,1.77
1356,202499787,0.7300,-0.3662,-0.4453,3.17,-1.52,1.83
1357,202504787,0.7285,-0.3677,-0.4419,2.99,-1.65,1.71
1358,202509787,0.7261,-0.3687,-0.4399,2.68,-1.52,1.65
1359,202514787,0.7290,-0.3696,-0.4448,2.56,-1.65,1.71
1360,202519787,0.7295,-0.3657,-0.4438,2.44,-1.59,1.77
1361,202524787,0.7310,-0.3711,-0.4468,2.20,-1.59,1.77
1362,202529787,0.7310,-0.3662,-0.4399,2.20,-1.52,1.77
1363,202534785,0.7334,-0.3647,-0.4482,2.07,-1.71,1.83
1364,202539787,0.7314,-0.3667,-0.4434,2.01,-1.65,1.71
1365,202544787,0.7314,-0.3682,-0.4448,2.07,-1.59,1.77
1366,202549787,0.7358,-0.3652,-0.4424,2.01,-1.59,1.71
1367,202554787,0.7378,-0.3687,-0.4399,2.07,-1.71,1.77
1368,202559787,0.7344,-0.3677,-0.4487,2.01,-1.52,1.95
1369,202564787,0.7329,-0.3662,-0.4448,2.07,-1.59,1.89
1370,202569787,0.7378,-0.3647,-0.4414,2.13,-1.46,1.83
1371,202574787,0.7358,-0.3647,-0.4468,2.13,-1.59,1.89
1372,202579786,0.7407,-0.3638,-0.4478,2.07,-1.52,2.01
1373,202584787,0.7383,-0.3652,-0.4395,1.95,-1.46,1.89
1374,202589943,0.7373,-0.3589,-0.4482,1.52,-1.59,2.07
1375,202594786,0.7363,-0.3604,-0.4434,1.28,-1.52,1.95
1376,202599787,0.7402,-0.3628,-0.4443,0.91,-1.77,1.95
1377,202604787,0.7354,-0.3594,-0.4434,0.67,-1.65,2.07
1378,202609786,0.7373,-0.3633,-0.4478,0.37,-1.59,2.01
1379,202614787,0.7314,-0.3623,-0.4507,0.18,-1.52,2.01
1380,202619786,0.7339,-0.3618,-0.4404,0.00,-1.52,2.01
1381,202624787,0.7358,-0.3628,-0.4478,-0.06,-1.59,2.07
1382,202629786,0.7300,-0.3618,-0.4424,0.00,-1.59,2.07
1383,202634785,0.7334,-0.3682,-0.4429,0.12,-1.52,2.07
1384,202639785,0.7334,-0.3633,-0.4419,0.49,-1.52,2.13
1385,202644789,0.7363,-0.3652,-0.4438,0.49,-1.52,2.13
1386,202649786,0.7349,-0.3623,-0.4463,0.61,-1.40,2.01
1387,202654785,0.7368,-0.3662,-0.4409,0.67,-1.52,2.07
1388,202659787,0.7358,-0.3638,-0.4443,0.73,-1.46,2.20
1389,202665007,0.7314,-0.3652,-0.4443,0.67,-1.34,2.20
1390,202669787,0.7334,-0.3652,-0.4497,0.43,-1.52,2.13
1391,202674787,0.7319,-0.3672,-0.4463,0.43,-1.34,2.13
1392,202679787,0.7305,-0.3706,-0.4438,0.37,-1.40,2.20
1393,202684846,0.7305,-0.3740,-0.4512,0.37,-1.40,2.26
1394,202689787,0.7344,-0.3735,-0.4482,0.49,-1.52,2.20
1395,202694786,0.7314,-0.3706,-0.4507,0.55,-1.28,2.32
1396,202699787,0.7305,-0.3677,-0.4453,0.67,-1.46,2.32
1397,202704785,0.7324,-0.3682,-0.4448,0.49,-1.34,2.26
1398,202709787,0.7319,-0.3691,-0.4482,0.67,-1.40,2.44
1399,202714786,0.7358,-0.3662,-0.4468,0.67,-1.34,2.32
1400,202719787,0.7329,-0.3691,-0.4507,0.55,-1.28,2.44
1401,202724787,0.7378,-0.3662,-0.4473,0.24,-1.16,2.50
1402,202729787,0.7358,-0.3696,-0.4453,0.24,-1.28,2.44
1403,202734785,0.7349,-0.3696,-0.4497,0.18,-1.16,2.50
1404,202739785,0.7339,-0.3672,-0.4463,0.18,-1.04,2.50
1405,202744787,0.7349,-0.3745,-0.4580,0.18,-1.16,2.50
1406,202749787,0.7300,-0.3755,-0.4517,0.18,-1.04,2.50
1407,202754787,0.7314,-0.3711,-0.4463,0.37,-1.04,2.50
1408,202759787,0.7305,-0.3711,-0.4458,0.43,-0.91,2.62
1409,202764787,0.7310,-0.3711,-0.4541,0.73,-0.79,2.50
1410,202769787,0.7290,-0.3711,-0.4521,0.61,-0.79,2.56
1411,202774787,0.7314,-0.3730,-0.4492,0.43,-0.79,2.68
1412,202779787,0.7319,-0.3784,-0.4546,0.12,-0.55,2.68
1413,202784787,0.7310,-0.3813,-0.4521,-0.61,-0.55,2.74
1414,202789788,0.7402,-0.3804,-0.4478,-1.46,-0.30,2.68
1415,202794787,0.7334,-0.3789,-0.4526,-2.74,-0.12,2.62
1416,202799786,0.7334,-0.3730,-0.4541,-4.33,0.12,2.44
1417,202804785,0.7310,-0.3716,-0.4619,-6.22,0.43,2.38
1418,202809787,0.7295,-0.3647,-0.4565,-8.17,0.49,2.13
1419,202814787,0.7290,-0.3672,-0.4634,-10.18,0.73,2.01
1420,202819786,0.7334,-0.3677,-0.4551,-12.32,0.85,1.95
1421,202824787,0.7339,-0.3667,-0.4600,-14.39,1.04,1.83
1422,202829786,0.7358,-0.3652,-0.4570,-16.16,1.46,1.77
1423,202834785,0.7407,-0.3662,-0.4619,-17.62,1.65,1.52
1424,202839787,0.7373,-0.3677,-0.4585,-18.72,1.83,1.46
1425,202844969,0.7427,-0.3696,-0.4541,-19.45,2.13,1.46
1426,202849787,0.7466,-0.3682,-0.4595,-19.82,2.26,1.28
1427,202854787,0.7456,-0.3711,-0.4585,-19.82,2.50,1.16
1428,202859787,0.7412,-0.3740,-0.4565,-19.15,2.68,1.16
1429,202864787,0.7363,-0.3740,-0.4565,-18.41,2.87,1.04
1430,202869787,0.7402,-0.3687,-0.4604,-17.32,3.05,0.91
1431,202874787,0.7427,-0.3691,-0.4590,-16.10,3.23,0.79
1432,202879787,0.7388,-0.3696,-0.4561,-14.82,3.41,0.61
1433,202884995,0.7368,-0.3667,-0.4634,-13.66,3.54,0.49
1434,202889787,0.7354,-0.3540,-0.4585,-12.68,3.78,0.30
1435,202894786,0.7334,-0.3569,-0.4609,-11.59,4.09,0.18
1436,202899787,0.7344,-0.3540,-0.4585,-10.85,4.09,0.06
1437,202904786,0.7383,-0.3516,-0.4585,-10.12,4.21,-0.06
1438,202909787,0.7422,-0.3496,-0.4600,-9.57,4.39,-0.06
1439,202914787,0.7437,-0.3491,-0.4561,-9.02,4.57,-0.18
1440,202919788,0.7451,-0.3442,-0.4521,-8.54,4.51,-0.18
1441,202924787,0.7437,-0.3442,-0.4580,-8.17,4.70,-0.24
1442,202929787,0.7446,-0.3423,-0.4565,-7.80,4.76,-0.30
1443,202935024,0.7427,-0.3403,-0.4551,-7.44,4.70,-0.24
1444,202939787,0.7456,-0.3354,-0.4590,-7.01,4.76,-0.24
1445,202944785,0.7441,-0.3359,-0.4546,-6.52,4.82,-0.18
1446,202949785,0.7417,-0.3306,-0.4492,-6.16,4.82,-0.30
1447,202954787,0.7451,-0.3296,-0.4541,-5.67,4.82,-0.30
1448,202959786,0.7383,-0.3296,-0.4546,-5.06,4.70,-0.24
1449,202964799,0.7446,-0.3257,-0.4546,-4.63,4.57,-0.24
1450,202969787,0.7432,-0.3232,-0.4492,-4.27,4.51,-0.18
1451,202974787,0.7446,-0.3237,-0.4473,-4.09,4.39,-0.24
1452,202979787,0.7505,-0.3169,-0.4443,-3.84,4.21,-0.18
1453,202984787,0.7505,-0.3237,-0.4448,-3.54,4.15,-0.12
1454,202989788,0.7500,-0.3213,-0.4473,-3.54,4.21,-0.06
1455,202994787,0.7480,-0.3208,-0.4458,-3.48,3.96,0.00
1456,202999786,0.7510,-0.3218,-0.4419,-3.23,3.66,0.18
1457,203004785,0.7456,-0.3159,-0.4463,-2.99,3.48,0.37
1458,203009785,0.7466,-0.3198,-0.4380,-2.87,3.35,0.49
1459,203014966,0.7485,-0.3198,-0.4365,-2.56,3.23,0.55
1460,203019786,0.7510,-0.3198,-0.4365,-2.32,3.05,0.61
1461,203024787,0.7476,-0.3188,-0.4385,-2.13,2.74,0.85
1462,203029786,0.7471,-0.3198,-0.4331,-1.95,2.56,0.91
1463,203034787,0.7476,-0.3145,-0.4385,-1.59,2.32,1.04
1464,203039786,0.7451,-0.3140,-0.4346,-1.40,2.13,1.10
1465,203044785,0.7451,-0.3179,-0.4360,-1.28,1.95,1.28
1466,203049815,0.7466,-0.3188,-0.4351,-1.10,1.89,1.40
1467,203054787,0.7437,-0.3154,-0.4302,-0.98,1.59,1.65
1468,203059786,0.7446,-0.3184,-0.4277,-0.79,1.34,1.71
1469,203064787,0.7417,-0.3179,-0.4277,-0.30,1.10,1.83
1470,203069787,0.7461,-0.3223,-0.4272,0.06,0.91,1.89
1471,203074785,0.7466,-0.3218,-0.4326,0.24,0.73,2.13
1472,203079787,0.7471,-0.3213,-0.4287,0.55,0.67,2.26
1473,203084787,0.7437,-0.3252,-0.4312,1.04,0.24,2.32
1474,203089787,0.7490,-0.3262,-0.4297,1.40,0.12,2.44
1475,203094787,0.7495,-0.3267,-0.4292,1.83,0.00,2.50
1476,203099786,0.7471,-0.3267,-0.4277,2.32,-0.12,2.62
1477,203104785,0.7432,-0.3311,-0.4263,2.68,-0.37,2.62
1478,203109785,0.7417,-0.3345,-0.4243,3.17,-0.49,2.62
1479,203115000,0.7427,-0.3325,-0.4150,3.54,-0.79,2.80
1480,203119788,0.7378,-0.3325,-0.4204,3.84,-1.04,2.74
1481,203124787,0.7407,-0.3296,-0.4204,3.90,-1.28,2.87
1482,203129787,0.7349,-0.3315,-0.4170,4.09,-1.40,2.87
1483,203134788,0.7334,-0.3301,-0.4194,4.15,-1.59,2.99
1484,203139787,0.7300,-0.3320,-0.4155,4.15,-1.77,2.99
1485,203144785,0.7256,-0.3311,-0.4194,4.21,-2.01,3.11
1486,203149785,0.7217,-0.3340,-0.4204,4.27,-2.13,3.29
1487,203154787,0.7227,-0.3320,-0.4185,4.27,-2.38,3.48
1488,203159787,0.7256,-0.3296,-0.4204,4.45,-2.56,3.66
1489,203164787,0.7227,-0.3315,-0.4224,4.39,-2.74,3.90
1490,203169788,0.7217,-0.3320,-0.4189,4.45,-3.17,4.09
1491,203174884,0.7212,-0.3315,-0.4204,4.51,-3.35,4.39
1492,203179787,0.7261,-0.3315,-0.4194,4.63,-3.54,4.51
1493,203184787,0.7300,-0.3301,-0.4194,4.63,-3.90,4.70
1494,203189787,0.7314,-0.3315,-0.4258,5.06,-4.21,5.06
1495,203194787,0.7354,-0.3281,-0.4253,5.43,-4.51,5.37
1496,203199789,0.7441,-0.3320,-0.4282,5.85,-4.76,5.67
1497,203204882,0.7549,-0.3315,-0.4282,6.40,-5.30,5.91
1498,203209787,0.7544,-0.3315,-0.4346,7.13,-5.73,6.16
1499,203214787,0.7554,-0.3340,-0.4351,7.87,-5.79,6.34
1500,203219786,0.7549,-0.3389,-0.4390,8.48,-6.16,6.52
1501,203224787,0.7520,-0.3438,-0.4399,9.09,-6.52,6.71
1502,203229786,0.7520,-0.3398,-0.4375,9.70,-6.83,6.71
1503,203234787,0.7539,-0.3467,-0.4424,10.24,-7.01,6.77
1504,203239786,0.7554,-0.3516,-0.4473,10.49,-7.32,6.83
1505,203244787,0.7573,-0.3545,-0.4438,10.61,-7.68,6.89
1506,203249786,0.7593,-0.3511,-0.4395,10.37,-7.99,6.77
1507,203254785,0.7661,-0.3569,-0.4414,9.88,-8.54,6.46
1508,203259787,0.7690,-0.3623,-0.4365,9.27,-8.90,6.22
1509,203264787,0.7681,-0.3633,-0.4277,8.29,-9.39,5.67
1510,203269788,0.7686,-0.3677,-0.4219,6.95,-9.82,5.24
1511,203274787,0.7676,-0.3696,-0.4214,5.43,-10.49,4.57
1512,203279786,0.7627,-0.3687,-0.4146,3.84,-11.16,3.78
1513,203284789,0.7544,-0.3608,-0.4077,2.20,-11.77,2.99
1514,203289790,0.7437,-0.3599,-0.4043,0.73,-12.32,2.20
1515,203294787,0.7334,-0.3604,-0.4067,-0.61,-12.93,1.40
1516,203299787,0.7197,-0.3574,-0.3979,-1.52,-13.41,0.67
1517,203304788,0.7026,-0.3521,-0.4014,-2.07,-14.09,0.24
1518,203309786,0.6987,-0.3506,-0.4043,-2.07,-14.39,-0.37
1519,203314793,0.6875,-0.3496,-0.4028,-1.46,-14.76,-0.73
1520,203319785,0.6802,-0.3486,-0.4146,-0.55,-14.88,-0.79
1521,203324786,0.6738,-0.3506,-0.4097,0.98,-15.00,-0.91
1522,203329877,0.6660,-0.3491,-0.4131,2.80,-15.06,-0.85
1523,203334789,0.6597,-0.3486,-0.4141,5.06,-14.82,-0.67
1524,203339789,0.6572,-0.3447,-0.4126,7.56,-14.51,-0.43
1525,203344787,0.6567,-0.3481,-0.4238,10.18,-14.09,-0.06
1526,203349787,0.6597,-0.3560,-0.4263,12.93,-13.66,0.43
1527,203354785,0.6616,-0.3599,-0.4360,15.12,-13.23,0.91
1528,203359789,0.6733,-0.3569,-0.4395,18.29,-12.32,1.71
1529,203364787,0.6875,-0.3608,-0.4473,20.73,-11.52,2.26
1530,203369786,0.6997,-0.3672,-0.4482,22.32,-10.91,2.74
1531,203374787,0.7178,-0.3706,-0.4463,24.45,-9.94,3.41
1532,203379786,0.7236,-0.3730,-0.4531,25.43,-9.39,3.90
1533,203384790,0.7285,-0.3682,-0.4600,26.71,-8.41,4.70
1534,203389786,0.7339,-0.3672,-0.4692,27.26,-7.74,5.06
1535,203394787,0.7388,-0.3643,-0.4805,27.44,-7.26,5.55
1536,203399786,0.7485,-0.3589,-0.4932,27.68,-6.46,6.10
1537,203404789,0.7539,-0.3574,-0.5020,27.56,-5.73,6.65
1538,203409786,0.7573,-0.3545,-0.5132,27.20,-5.24,7.07
1539,203414785,0.7690,-0.3486,-0.5088,26.65,-4.63,7.56
1540,203419789,0.7715,-0.3442,-0.5190,25.73,-4.15,8.05
1541,203424787,0.7773,-0.3457,-0.5176,24.57,-3.60,8.60
1542,203429786,0.7808,-0.3462,-0.5220,23.23,-3.11,9.02
1543,203434787,0.7822,-0.3442,-0.5171,21.65,-2.80,9.70
1544,203439786,0.7822,-0.3457,-0.5244,19.94,-2.38,10.12
1545,203444787,0.7817,-0.3438,-0.5195,18.17,-2.13,10.61
1546,203449786,0.7812,-0.3486,-0.5190,16.22,-1.77,10.91
1547,203454787,0.7764,-0.3442,-0.5151,14.39,-1.59,11.22
1548,203459786,0.7710,-0.3442,-0.5059,12.56,-1.52,11.52
1549,203464787,0.7715,-0.3467,-0.5098,10.79,-1.28,11.65
1550,203469786,0.7666,-0.3467,-0.5044,9.15,-1.22,11.89
1551,203474787,0.7627,-0.3442,-0.5044,7.68,-0.85,11.89
1552,203479786,0.7593,-0.3467,-0.5112,6.46,-0.79,11.83
1553,203484785,0.7554,-0.3442,-0.5044,5.67,-0.55,11.89
1554,203489787,0.7480,-0.3457,-0.4961,4.88,-0.37,11.77
1555,203494787,0.7515,-0.3477,-0.4995,4.33,-0.12,11.65
1556,203499786,0.7476,-0.3506,-0.4897,3.96,-0.18,11.46
1557,203505100,0.7422,-0.3481,-0.4902,3.72,0.24,11.16
1558,203509787,0.7422,-0.3535,-0.4868,3.54,0.37,10.85
1559,203514786,0.7363,-0.3560,-0.4868,3.41,0.55,10.67
1560,203519787,0.7397,-0.3584,-0.4819,3.35,0.85,10.43
1561,203524787,0.7383,-0.3638,-0.4771,3.54,1.10,10.18
1562,203529787,0.7397,-0.3633,-0.4868,3.54,1.34,9.94
1563,203534786,0.7334,-0.3682,-0.4790,3.96,1.59,9.45
1564,203539788,0.7393,-0.3667,-0.4771,4.27,1.89,9.21
1565,203544787,0.7407,-0.3726,-0.4785,4.57,2.20,8.96
1566,203549787,0.7383,-0.3765,-0.4795,5.12,2.62,8.60
1567,203554786,0.7407,-0.3779,-0.4766,5.73,2.80,8.29
1568,203559787,0.7422,-0.3833,-0.4697,6.40,3.11,7.93
1569,203564992,0.7393,-0.3896,-0.4819,7.01,3.23,7.68
1570,203569787,0.7363,-0.3945,-0.4795,7.56,3.23,7.32
1571,203574786,0.7417,-0.3926,-0.4761,8.17,3.54,7.01
1572,203579787,0.7451,-0.3940,-0.4795,8.41,3.66,6.59
1573,203584787,0.7451,-0.4028,-0.4780,8.66,3.72,6.34
1574,203589787,0.7432,-0.3989,-0.4766,8.66,3.72,6.04
1575,203594788,0.7441,-0.4077,-0.4780,8.60,3.54,5.73
1576,203599787,0.7432,-0.4053,-0.4736,8.54,3.48,5.37
1577,203604787,0.7427,-0.4097,-0.4800,8.17,3.54,5.06
1578,203609787,0.7397,-0.4072,-0.4702,7.74,3.35,4.82
1579,203614786,0.7407,-0.4082,-0.4741,7.38,3.29,4.45
1580,203619787,0.7349,-0.4092,-0.4678,6.83,3.11,4.21
1581,203624786,0.7314,-0.4097,-0.4639,6.04,2.99,3.84
1582,203629787,0.7344,-0.4062,-0.4697,5.24,2.80,3.66
1583,203634787,0.7290,-0.4087,-0.4668,4.21,2.56,3.48
1584,203639787,0.7202,-0.4102,-0.4629,3.35,2.38,3.35
1585,203644786,0.7119,-0.4028,-0.4551,2.01,2.07,2.99
1586,203649787,0.7124,-0.4087,-0.4580,1.04,1.95,2.80
1587,203654787,0.7051,-0.4067,-0.4600,0.12,1.71,2.74
1588,203659788,0.7017,-0.4077,-0.4604,-0.73,1.59,2.50
1589,203664785,0.6968,-0.4062,-0.4546,-1.59,1.34,2.32
1590,203669787,0.6948,-0.4072,-0.4546,-2.32,1.16,2.26
1591,203674786,0.6963,-0.4033,-0.4585,-3.11,0.98,2.07
1592,203679787,0.6953,-0.4058,-0.4502,-3.90,0.91,2.01
1593,203684787,0.6929,-0.4043,-0.4531,-4.57,0.91,2.01
1594,203689790,0.6938,-0.4033,-0.4478,-5.06,0.79,1.89
1595,203694787,0.6934,-0.4028,-0.4492,-5.49,0.73,1.71
1596,203699787,0.6909,-0.4023,-0.4438,-5.73,0.73,1.71
1597,203704786,0.6890,-0.4014,-0.4429,-5.85,0.67,1.71
1598,203709788,0.6870,-0.4062,-0.4370,-5.79,0.67,1.71
1599,203714787,0.6875,-0.4028,-0.4453,-5.91,0.79,1.59
1600,203719787,0.6899,-0.3984,-0.4458,-5.79,0.67,1.65
1601,203724786,0.6885,-0.3989,-0.4453,-5.49,0.79,1.65
1602,203729787,0.6870,-0.4033,-0.4375,-5.06,0.73,1.52
1603,203734787,0.6865,-0.3999,-0.4385,-4.57,0.85,1.46
1604,203739787,0.6904,-0.3975,-0.4458,-3.96,0.98,1.46
1605,203744787,0.6919,-0.3994,-0.4370,-3.35,0.98,1.52
1606,203749787,0.6895,-0.3984,-0.4380,-2.62,1.16,1.52
1607,203754788,0.6904,-0.3970,-0.4355,-2.20,1.34,1.52
1608,203759787,0.6914,-0.3970,-0.4404,-1.65,1.40,1.46
1609,203764787,0.6953,-0.4014,-0.4370,-1.16,1.59,1.40
1610,203769787,0.6924,-0.3975,-0.4365,-0.79,1.59,1.46
1611,203774786,0.6885,-0.3994,-0.4390,-0.49,1.46,1.40
1612,203779787,0.6914,-0.3989,-0.4282,-0.12,1.77,1.46
1613,203784787,0.6929,-0.3999,-0.4302,0.18,1.77,1.59
1614,203789787,0.6953,-0.4004,-0.4268,0.43,1.95,1.52
1615,203794786,0.6963,-0.4014,-0.4326,0.61,2.01,1.52
1616,203799787,0.7012,-0.4009,-0.4243,0.79,2.01,1.52
1617,203804787,0.7046,-0.4019,-0.4355,0.91,2.01,1.46
1618,203809787,0.7012,-0.4053,-0.4341,1.10,2.07,1.65
1619,203814786,0.7100,-0.4028,-0.4297,1.16,2.13,1.65
1620,203819787,0.7104,-0.4043,-0.4316,1.34,2.20,1.65
1621,203824786,0.7051,-0.4082,-0.4219,1.28,2.20,1.59
1622,203829787,0.7129,-0.4023,-0.4282,0.91,2.38,1.52
1623,203834787,0.7192,-0.3999,-0.4268,0.43,2.26,1.40
1624,203839786,0.7144,-0.3975,-0.4243,-0.30,2.32,1.46
1625,203844787,0.7168,-0.3970,-0.4307,-1.04,2.20,1.40
1626,203849786,0.7119,-0.3979,-0.4258,-1.89,2.26,1.40
1627,203854787,0.7065,-0.4023,-0.4248,-2.74,2.32,1.22
1628,203859786,0.7085,-0.4004,-0.4248,-3.66,2.32,1.40
1629,203864787,0.7148,-0.3975,-0.4399,-4.15,2.13,1.22
1630,203869787,0.7139,-0.3960,-0.4370,-4.57,2.07,1.10
1631,203874787,0.7051,-0.3940,-0.4326,-4.70,2.13,1.10
1632,203879786,0.7012,-0.3931,-0.4312,-4.57,1.95,0.98
1633,203884787,0.7021,-0.3887,-0.4316,-4.02,1.89,0.85
1634,203889785,0.7017,-0.3926,-0.4277,-3.29,1.59,0.79
1635,203894787,0.7061,-0.3960,-0.4316,-2.56,1.46,0.73
1636,203899789,0.7065,-0.3906,-0.4346,-1.77,1.34,0.79
1637,203905164,0.7124,-0.3853,-0.4321,-0.98,1.16,0.73
1638,203909788,0.7139,-0.3862,-0.4341,-0.24,0.85,0.67
1639,203914787,0.7163,-0.3848,-0.4351,0.37,0.91,0.73
1640,203919787,0.7163,-0.3833,-0.4346,0.98,0.61,0.67
1641,203924863,0.7197,-0.3828,-0.4395,1.40,0.37,0.67
1642,203929785,0.7178,-0.3804,-0.4375,1.65,0.18,0.67
1643,203934786,0.7207,-0.3794,-0.4307,1.77,-0.06,0.61
1644,203939787,0.7246,-0.3813,-0.4346,1.59,-0.12,0.73
1645,203944788,0.7231,-0.3804,-0.4385,1.40,-0.24,0.55
1646,203949787,0.7329,-0.3730,-0.4326,0.91,-0.49,0.43
1647,203954787,0.7314,-0.3774,-0.4341,0.43,-0.61,0.61
1648,203959786,0.7275,-0.3774,-0.4326,-0.18,-0.79,0.49
1649,203964787,0.7246,-0.3813,-0.4219,-0.98,-0.79,0.49
1650,203969786,0.7183,-0.3833,-0.4092,-2.01,-0.85,0.37
1651,203974787,0.7329,-0.3750,-0.4316,-3.48,-0.85,0.30
1652,203979786,0.7407,-0.3682,-0.4409,-4.33,-1.04,0.18
1653,203984787,0.7251,-0.3730,-0.4453,-5.06,-1.10,0.24
1654,203989786,0.7207,-0.3682,-0.4409,-5.18,-1.04,0.18
1655,203994787,0.7266,-0.3745,-0.4497,-5.06,-0.85,0.24
1656,203999786,0.7275,-0.3765,-0.4434,-4.45,-0.73,0.24
1657,204004787,0.7300,-0.3701,-0.4463,-3.66,-0.79,0.24
1658,204009786,0.7314,-0.3735,-0.4531,-3.11,-0.61,0.24
1659,204014787,0.7285,-0.3682,-0.4458,-2.50,-0.30,0.18
1660,204019788,0.7295,-0.3711,-0.4482,-2.01,-0.37,0.12
1661,204024786,0.7310,-0.3682,-0.4487,-1.83,-0.12,0.12
1662,204029789,0.7373,-0.3647,-0.4517,-1.59,-0.12,0.30
1663,204034786,0.7324,-0.3628,-0.4512,-1.89,0.12,0.43
1664,204039787,0.7271,-0.3643,-0.4482,-2.32,0.37,0.43
1665,204044787,0.7300,-0.3667,-0.4399,-2.87,0.43,0.37
1666,204049787,0.7363,-0.3657,-0.4473,-3.60,0.55,0.43
1667,204054788,0.7368,-0.3696,-0.4434,-4.33,0.73,0.49
1668,204059909,0.7373,-0.3711,-0.4473,-5.00,0.85,0.61
1669,204064787,0.7432,-0.3706,-0.4453,-5.61,0.91,0.55
1670,204069788,0.7441,-0.3706,-0.4575,-5.98,1.22,0.61
1671,204074787,0.7476,-0.3687,-0.4561,-6.40,1.40,0.61
1672,204079787,0.7495,-0.3682,-0.4546,-6.59,1.46,0.61
1673,204084787,0.7466,-0.3672,-0.4443,-6.95,1.59,0.61
1674,204089788,0.7485,-0.3682,-0.4487,-7.26,1.77,0.55
1675,204094787,0.7534,-0.3633,-0.4531,-7.62,1.77,0.61
1676,204099786,0.7485,-0.3579,-0.4575,-8.23,2.07,0.67
1677,204104787,0.7480,-0.3584,-0.4600,-8.48,2.26,0.85
1678,204109786,0.7471,-0.3569,-0.4663,-8.72,2.32,0.79
1679,204114787,0.7461,-0.3579,-0.4580,-8.90,2.50,0.98
1680,204119787,0.7437,-0.3525,-0.4629,-9.09,2.62,1.04
1681,204124786,0.7417,-0.3574,-0.4570,-9.21,2.87,0.98
1682,204129787,0.7485,-0.3506,-0.4556,-9.51,2.93,1.16
1683,204134903,0.7466,-0.3521,-0.4556,-9.57,3.11,1.16
1684,204139787,0.7441,-0.3545,-0.4507,-9.70,3.23,1.16
1685,204144787,0.7412,-0.3579,-0.4546,-9.88,3.41,1.34
1686,204149787,0.7422,-0.3569,-0.4575,-10.18,3.60,1.46
1687,204154787,0.7432,-0.3569,-0.4507,-10.43,3.54,1.46
1688,204159787,0.7441,-0.3530,-0.4619,-10.79,3.72,1.46
1689,204164787,0.7500,-0.3525,-0.4619,-11.46,3.90,1.46
1690,204169787,0.7495,-0.3457,-0.4565,-11.95,4.09,1.40
1691,204174787,0.7480,-0.3472,-0.4619,-12.68,4.21,1.34
1692,204179787,0.7471,-0.3516,-0.4590,-13.29,4.21,1.40
1693,204184787,0.7441,-0.3486,-0.4614,-13.84,4.27,1.34
1694,204189786,0.7466,-0.3491,-0.4556,-14.51,4.51,1.28
1695,204194788,0.7422,-0.3496,-0.4624,-15.24,4.57,1.34
1696,204200036,0.7451,-0.3403,-0.4600,-16.16,4.57,1.16
1697,204204788,0.7393,-0.3398,-0.4658,-16.71,4.63,1.16
1698,204209787,0.7397,-0.3359,-0.4619,-17.38,4.70,1.04
1699,204214787,0.7373,-0.3379,-0.4585,-17.68,4.82,1.04
1700,204219788,0.7393,-0.3350,-0.4639,-18.05,4.88,0.98
1701,204224786,0.7378,-0.3369,-0.4683,-18.11,4.82,0.98
1702,204229787,0.7363,-0.3340,-0.4644,-18.17,4.76,0.85
1703,204234786,0.7368,-0.3286,-0.4644,-18.29,4.88,0.85
1704,204239787,0.7363,-0.3281,-0.4658,-18.48,4.76,0.79
1705,204244787,0.7407,-0.3364,-0.4756,-18.90,4.76,0.73
1706,204249786,0.7373,-0.3311,-0.4663,-19.63,4.57,0.91
1707,204254787,0.7358,-0.3105,-0.4697,-20.49,4.51,1.04
1708,204259786,0.7285,-0.3018,-0.4595,-21.77,4.51,0.85
1709,204264787,0.7310,-0.3032,-0.4531,-22.80,4.63,0.79
1710,204269787,0.7295,-0.3140,-0.4565,-23.72,4.51,0.55
1711,204274786,0.7290,-0.3228,-0.4502,-24.82,4.57,0.55
1712,204279785,0.7319,-0.3359,-0.4614,-25.73,4.57,0.43
1713,204284787,0.7485,-0.3701,-0.4746,-27.01,4.02,0.79
1714,204289786,0.7354,-0.3286,-0.4395,-28.54,3.60,1.22
1715,204294787,0.7300,-0.2944,-0.4624,-29.82,3.29,1.28
1716,204299789,0.7246,-0.2896,-0.4565,-30.98,3.11,1.10
1717,204304790,0.7197,-0.2842,-0.4609,-31.46,3.17,0.79
1718,204309788,0.7212,-0.2915,-0.4546,-31.52,3.29,0.37
1719,204314787,0.7217,-0.2983,-0.4600,-31.22,3.41,0.06
1720,204319791,0.7236,-0.3027,-0.4658,-30.79,3.23,-0.24
1721,204324840,0.7246,-0.3130,-0.4609,-30.12,3.05,-0.24
1722,204329786,0.7271,-0.3179,-0.4644,-29.39,2.80,-0.37
1723,204334787,0.7305,-0.3130,-0.4648,-28.29,2.56,-0.30
1724,204339786,0.7349,-0.3135,-0.4624,-27.20,2.32,-0.24
1725,204345174,0.7363,-0.3027,-0.4624,-25.67,1.95,-0.30
1726,204349786,0.7290,-0.3018,-0.4624,-24.45,1.71,-0.24
1727,204354787,0.7319,-0.3071,-0.4624,-22.74,1.52,-0.30
1728,204359787,0.7300,-0.3052,-0.4692,-20.85,1.46,-0.18
1729,204364786,0.7324,-0.3057,-0.4624,-18.96,1.04,-0.18
1730,204369787,0.7300,-0.3018,-0.4644,-16.95,0.85,-0.12
1731,204374812,0.7256,-0.3037,-0.4546,-14.88,0.49,-0.06
1732,204379787,0.7266,-0.3018,-0.4561,-12.56,0.37,0.06
1733,204385209,0.7275,-0.3003,-0.4614,-9.88,-0.24,0.06
1734,204389787,0.7275,-0.2988,-0.4551,-7.99,-0.37,0.18
1735,204394787,0.7290,-0.2944,-0.4546,-5.79,-0.61,0.24
1736,204399787,0.7295,-0.2964,-0.4531,-3.48,-0.98,0.30
1737,204404786,0.7271,-0.2915,-0.4487,-1.59,-1.16,0.43
1738,204409787,0.7275,-0.2915,-0.4478,0.30,-1.46,0.43
1739,204414787,0.7236,-0.2935,-0.4395,1.95,-1.83,0.55
1740,204419787,0.7236,-0.2949,-0.4438,3.54,-1.83,0.79
1741,204424845,0.7241,-0.2900,-0.4360,5.12,-2.38,1.04
1742,204429787,0.7241,-0.2925,-0.4443,6.71,-2.68,1.16
1743,204434787,0.7295,-0.2896,-0.4443,8.17,-2.87,1.46
1744,204439787,0.7344,-0.2896,-0.4443,9.76,-3.11,1.59
1745,204444791,0.7510,-0.2881,-0.4429,10.79,-3.35,1.83
1746,204449786,0.7554,-0.2905,-0.4478,11.71,-3.54,2.01
1747,204454787,0.7646,-0.2930,-0.4463,12.38,-3.78,2.13
1748,204459786,0.7690,-0.2988,-0.4458,12.74,-3.90,2.20
1749,204464787,0.7656,-0.3018,-0.4414,12.68,-4.15,2.56
1750,204469786,0.7505,-0.2939,-0.4668,12.20,-4.33,2.56
1751,204474787,0.7236,-0.3003,-0.4629,11.04,-4.45,2.56
1752,204479807,0.7368,-0.3081,-0.4365,9.57,-4.51,2.44
1753,204484787,0.7642,-0.3145,-0.4180,8.29,-4.57,2.38
1754,204489786,0.7739,-0.3154,-0.4146,7.20,-4.63,2.13
1755,204494794,0.7710,-0.3223,-0.4258,6.10,-4.82,2.07
1756,204499786,0.7637,-0.3296,-0.4365,5.24,-5.06,2.01
1757,204504787,0.7593,-0.3291,-0.4380,4.15,-5.30,2.07
1758,204509786,0.7568,-0.3237,-0.4385,3.23,-5.37,1.89
1759,204514787,0.7505,-0.3184,-0.4312,2.38,-5.43,1.77
1760,204519786,0.7524,-0.3145,-0.4390,1.77,-5.49,1.65
1761,204524787,0.7490,-0.3198,-0.4390,1.46,-5.55,1.59
1762,204529786,0.7510,-0.3203,-0.4434,1.40,-5.55,1.34
1763,204534788,0.7510,-0.3164,-0.4443,1.46,-5.61,1.34
1764,204539786,0.7515,-0.3145,-0.4424,1.83,-5.55,1.22
1765,204544787,0.7456,-0.3115,-0.4473,2.20,-5.67,1.16
1766,204549786,0.7456,-0.3091,-0.4453,2.26,-5.67,1.10
1767,204554787,0.7471,-0.3091,-0.4487,2.56,-5.61,1.10
1768,204559786,0.7451,-0.3066,-0.4497,2.93,-5.55,0.98
1769,204564787,0.7456,-0.3115,-0.4561,3.23,-5.67,0.98
1770,204569786,0.7466,-0.3076,-0.4546,3.72,-5.79,0.98
1771,204574785,0.7480,-0.3057,-0.4512,4.21,-5.73,1.04
1772,204579787,0.7476,-0.3066,-0.4565,4.70,-5.67,0.85
1773,204585101,0.7207,-0.3042,-0.4868,4.94,-5.98,0.91
1774,204589787,0.7231,-0.3057,-0.4775,4.70,-6.10,0.73
1775,204594787,0.7446,-0.3013,-0.4634,4.51,-6.04,0.55
1776,204599787,0.7671,-0.3003,-0.4556,4.57,-5.98,0.30
1777,204604786,0.7827,-0.3096,-0.4502,4.45,-5.91,-0.06
1778,204609787,0.7827,-0.3135,-0.4565,4.21,-6.04,-0.30
1779,204614787,0.7778,-0.3096,-0.4507,3.96,-5.98,-0.43
1780,204619787,0.7788,-0.3057,-0.4458,3.54,-6.10,-0.85
1781,204624786,0.7759,-0.3013,-0.4512,3.11,-6.16,-1.04
1782,204629788,0.7739,-0.3037,-0.4507,2.74,-6.22,-1.46
1783,204634787,0.7739,-0.3071,-0.4473,2.32,-6.34,-1.65
1784,204639787,0.7710,-0.3135,-0.4512,2.68,-6.40,-1.95
1785,204644785,0.7734,-0.3218,-0.4570,3.29,-6.40,-2.13
1786,204649787,0.7759,-0.3262,-0.4639,4.70,-6.52,-2.50
1787,204654787,0.7676,-0.3320,-0.4678,6.71,-6.46,-2.80
1788,204659787,0.7656,-0.3330,-0.4697,9.15,-6.40,-3.23
1789,204664786,0.7651,-0.3325,-0.4751,12.07,-6.16,-3.60
1790,204669787,0.7622,-0.3213,-0.4780,15.06,-6.04,-4.27
1791,204674787,0.7646,-0.3110,-0.4893,17.80,-5.67,-5.00
1792,204679787,0.7598,-0.3169,-0.4927,19.94,-5.55,-5.49
1793,204684785,0.7583,-0.2930,-0.4912,21.71,-5.49,-6.16
1794,204689786,0.7578,-0.3066,-0.4863,22.74,-5.12,-6.89
1795,204694787,0.7515,-0.3472,-0.4883,23.66,-4.82,-7.56
1796,204699786,0.7529,-0.3535,-0.4922,24.57,-4.63,-8.17
1797,204704785,0.7617,-0.3481,-0.4917,25.61,-4.63,-9.09
1798,204709787,0.7725,-0.3452,-0.4868,26.52,-4.57,-10.06
1799,204714928,0.7729,-0.3428,-0.4985,27.38,-4.21,-10.91
1800,204719787,0.7759,-0.3462,-0.5005,28.17,-3.90,-11.77
1801,204724786,0.7773,-0.3467,-0.4971,28.66,-3.41,-12.62
1802,204729787,0.7759,-0.3516,-0.5059,29.09,-2.87,-13.48
1803,204734787,0.7729,-0.3525,-0.5068,29.09,-2.50,-14.33
1804,204739787,0.7695,-0.3530,-0.5073,28.90,-2.13,-15.12
1805,204744786,0.7686,-0.3516,-0.5054,28.72,-1.65,-16.04
1806,204749787,0.7661,-0.3525,-0.4971,27.93,-1.28,-16.89
1807,204754787,0.7676,-0.3477,-0.5034,27.26,-0.79,-17.68
1808,204759787,0.7690,-0.3496,-0.5005,26.46,-0.30,-18.66
1809,204764785,0.7715,-0.3486,-0.5015,25.55,0.18,-19.57
1810,204769786,0.7690,-0.3491,-0.5000,24.63,0.43,-20.49
1811,204774787,0.7710,-0.3496,-0.5059,23.78,0.91,-21.52
1812,204779786,0.7690,-0.3521,-0.5034,23.05,1.40,-22.68
1813,204784785,0.7700,-0.3511,-0.4971,22.01,1.65,-23.72
1814,204789785,0.7681,-0.3535,-0.4995,21.28,2.01,-24.76
1815,204794789,0.7622,-0.3496,-0.4976,19.88,2.62,-26.16
1816,204799786,0.7524,-0.3516,-0.4971,18.60,2.99,-27.07
1817,204804790,0.7627,-0.3418,-0.4873,16.95,4.15,-28.35
1818,204809787,0.7686,-0.3379,-0.4761,15.43,5.00,-29.45
1819,204814787,0.7622,-0.3442,-0.5020,13.84,5.67,-30.37
1820,204819786,0.7612,-0.3506,-0.5005,12.44,5.91,-30.98
1821,204824787,0.7715,-0.3472,-0.4771,10.73,6.46,-31.65
1822,204829786,0.7886,-0.3447,-0.4829,8.96,6.89,-32.07
1823,204834787,0.7954,-0.3369,-0.4932,7.62,7.38,-32.50
1824,204839787,0.8013,-0.3354,-0.4766,6.46,7.68,-32.99
1825,204844785,0.8042,-0.3276,-0.4673,5.73,8.05,-33.35
1826,204849786,0.8027,-0.3296,-0.4561,5.37,8.41,-33.72
1827,204854785,0.8013,-0.3257,-0.4487,5.67,8.78,-34.21
1828,204859787,0.7998,-0.3232,-0.4336,6.46,9.15,-34.57
1829,204864787,0.7988,-0.3198,-0.4380,7.74,9.57,-34.82
1830,204869787,0.7910,-0.3184,-0.4243,9.57,10.06,-35.49
1831,204874786,0.7900,-0.3145,-0.4214,11.89,10.24,-35.79
1832,204879787,0.7847,-0.3066,-0.4131,14.76,10.79,-36.22
1833,204884786,0.7808,-0.3003,-0.4077,17.80,11.22,-36.59
1834,204889785,0.7827,-0.2866,-0.3979,21.22,11.52,-37.01
1835,204894786,0.7754,-0.2832,-0.4058,24.82,11.71,-37.20
1836,204899787,0.7798,-0.2773,-0.3945,28.60,11.95,-37.26
1837,204904787,0.7808,-0.2744,-0.3848,32.44,11.95,-37.26
1838,204909787,0.7803,-0.2646,-0.3862,36.22,12.07,-37.26
1839,204914787,0.7861,-0.2568,-0.3730,40.00,12.01,-37.07
1840,204919786,0.7822,-0.2456,-0.3652,43.72,12.20,-36.83
1841,204925150,0.7817,-0.2329,-0.3569,47.99,12.20,-36.59
1842,204929787,0.7881,-0.2266,-0.3555,50.43,12.07,-36.34
1843,204934787,0.7876,-0.2236,-0.3462,53.48,12.07,-35.98
1844,204939787,0.7886,-0.2178,-0.3398,56.16,11.89,-35.43
1845,204944786,0.7915,-0.2075,-0.3389,58.41,11.89,-34.94
1846,204949787,0.7930,-0.2134,-0.3330,60.30,11.46,-34.51
1847,204954787,0.7925,-0.2163,-0.3423,61.65,11.28,-33.96
1848,204959787,0.8037,-0.2163,-0.3354,62.20,10.91,-33.29
1849,204964786,0.8047,-0.2095,-0.3179,61.89,10.30,-32.93
1850,204969787,0.8052,-0.1958,-0.3003,61.04,9.88,-32.56
1851,204974787,0.8105,-0.1899,-0.2959,59.63,9.27,-32.20
1852,204979788,0.8174,-0.1919,-0.2891,57.80,8.72,-31.83
1853,204984785,0.8135,-0.1958,-0.2817,55.85,7.87,-31.59
1854,204989785,0.8213,-0.1953,-0.2729,53.84,7.32,-31.22
1855,204994785,0.8335,-0.1880,-0.2744,51.52,6.52,-30.73
1856,204999787,0.8398,-0.1831,-0.2910,49.33,5.91,-30.37
1857,205004787,0.8472,-0.1802,-0.2808,47.20,5.00,-30.06
1858,205009786,0.8472,-0.1802,-0.2700,45.18,4.39,-29.45
1859,205014792,0.8540,-0.1768,-0.2676,43.23,3.78,-28.96
1860,205019786,0.8613,-0.1699,-0.2676,41.52,2.99,-28.29
1861,205024787,0.8608,-0.1724,-0.2754,40.06,2.56,-27.87
1862,205029786,0.8667,-0.1743,-0.2744,38.66,1.83,-27.07
1863,205034787,0.8672,-0.1763,-0.2676,37.80,1.22,-26.46
1864,205039787,0.8726,-0.1797,-0.2715,37.07,0.61,-25.67
1865,205044788,0.8735,-0.1870,-0.2710,36.65,0.18,-24.94
1866,205049859,0.8813,-0.1890,-0.2690,36.52,-0.37,-24.15
1867,205054786,0.8853,-0.1943,-0.2773,36.71,-0.85,-23.35
1868,205059785,0.8921,-0.2031,-0.2827,37.38,-1.59,-22.50
1869,205064789,0.8979,-0.2046,-0.2778,38.29,-2.07,-21.77
1870,205069789,0.8960,-0.2036,-0.2847,39.45,-2.50,-21.04
1871,205074787,0.9014,-0.1987,-0.2876,41.10,-2.93,-20.43
1872,205079787,0.9028,-0.2036,-0.2896,42.87,-3.35,-19.70
1873,205085616,0.9038,-0.2012,-0.2910,45.00,-3.90,-19.02
1874,205089786,0.8994,-0.1963,-0.2925,46.52,-4.15,-18.66
1875,205094785,0.8936,-0.1968,-0.2935,48.41,-4.45,-18.17
1876,205099787,0.8896,-0.1929,-0.2920,50.06,-4.82,-17.80
1877,205104787,0.8901,-0.1914,-0.2910,51.59,-5.00,-17.56
1878,205109787,0.8823,-0.1924,-0.2910,52.99,-5.24,-17.32
1879,205114787,0.8804,-0.1953,-0.2935,54.21,-5.43,-16.95
1880,205119787,0.8755,-0.2007,-0.2964,55.37,-5.61,-16.59
1881,205124787,0.8730,-0.1992,-0.2944,56.16,-5.79,-16.28
1882,205129786,0.8657,-0.2046,-0.2920,56.77,-6.22,-15.85
1883,205134787,0.8682,-0.2095,-0.2949,57.07,-6.40,-15.49
1884,205139787,0.8628,-0.2129,-0.2979,57.38,-6.59,-15.06
1885,205144787,0.8721,-0.2207,-0.3027,57.68,-6.77,-14.70
1886,205149786,0.8730,-0.2266,-0.3018,58.05,-7.20,-14.27
1887,205154785,0.8643,-0.2290,-0.3096,58.35,-7.38,-13.90
1888,205159787,0.8643,-0.2334,-0.3037,58.60,-7.50,-13.48
1889,205164787,0.8721,-0.2358,-0.3110,59.09,-7.74,-13.11
1890,205169786,0.8721,-0.2393,-0.3140,59.57,-8.05,-12.74
1891,205174787,0.8696,-0.2451,-0.3154,60.12,-8.29,-12.56
1892,205179786,0.8706,-0.2466,-0.3140,60.79,-8.48,-12.26
1893,205184788,0.8750,-0.2500,-0.3179,61.34,-8.60,-12.07
1894,205189785,0.8784,-0.2500,-0.3145,61.95,-8.60,-11.89
1895,205194904,0.8872,-0.2559,-0.3120,62.62,-8.72,-11.59
1896,205200186,0.8828,-0.2656,-0.3071,63.11,-8.84,-11.22
1897,205205285,0.8687,-0.2500,-0.2764,63.41,-8.72,-10.98
1898,205209787,0.8657,-0.2559,-0.3022,63.54,-7.93,-10.91
1899,205214786,0.8726,-0.2637,-0.3081,63.72,-7.20,-10.85
1900,205219786,0.8677,-0.2798,-0.3188,63.90,-6.28,-10.91
1901,205225177,0.8643,-0.2886,-0.3286,64.21,-5.55,-10.79
1902,205229787,0.8594,-0.2920,-0.3423,64.51,-4.88,-10.91
1903,205234786,0.8354,-0.2891,-0.3447,64.76,-3.96,-10.98
1904,205239787,0.8296,-0.2900,-0.3350,64.88,-3.05,-11.40
1905,205245156,0.8232,-0.2905,-0.3315,65.06,-2.20,-11.71
1906,205249787,0.8267,-0.2925,-0.3252,64.76,-1.04,-12.20
1907,205254870,0.8271,-0.2954,-0.3115,64.27,-0.12,-12.99
1908,205259789,0.8320,-0.3062,-0.3071,63.78,0.91,-13.72
1909,205264786,0.8330,-0.3154,-0.3013,63.17,2.32,-14.51
1910,205269789,0.8340,-0.3198,-0.2969,62.44,3.54,-15.24
1911,205274787,0.8394,-0.3291,-0.2876,61.89,4.94,-16.22
1912,205279787,0.8447,-0.3389,-0.2900,61.65,6.34,-17.01
1913,205285321,0.8447,-0.3496,-0.2935,61.65,7.74,-17.87
1914,205289787,0.8398,-0.3564,-0.2896,61.65,9.27,-18.72
1915,205294787,0.8447,-0.3594,-0.2856,61.95,10.79,-19.70
1916,205299787,0.8467,-0.3628,-0.2837,62.32,12.26,-20.61
1917,205304786,0.8477,-0.3677,-0.2803,62.74,13.90,-21.59
1918,205309787,0.8477,-0.3726,-0.2793,63.17,15.24,-22.62
1919,205314787,0.8442,-0.3701,-0.2754,63.48,16.95,-23.72
1920,205319788,0.8403,-0.3682,-0.2705,63.66,18.41,-24.82
1921,205324787,0.8345,-0.3638,-0.2603,63.72,19.94,-25.91
1922,205329786,0.8267,-0.3633,-0.2720,63.84,21.34,-27.13
1923,205334787,0.8228,-0.3555,-0.2627,63.72,22.87,-28.48
1924,205339787,0.8179,-0.3633,-0.2607,63.54,24.09,-29.82
1925,205344787,0.8164,-0.3604,-0.2612,63.66,25.37,-31.10
1926,205349786,0.8110,-0.3579,-0.2583,63.96,26.65,-32.32
1927,205355095,0.8057,-0.3569,-0.2534,64.27,27.74,-33.72
1928,205359786,0.8076,-0.3525,-0.2544,64.51,28.84,-35.12
1929,205364786,0.8027,-0.3486,-0.2544,65.12,29.94,-36.46
1930,205369789,0.7988,-0.3477,-0.2554,65.85,30.85,-37.87
1931,205374787,0.7998,-0.3438,-0.2500,66.65,31.77,-39.09
1932,205379786,0.8027,-0.3486,-0.2515,67.50,32.32,-40.37
1933,205384789,0.8057,-0.3457,-0.2539,68.66,33.05,-41.71
1934,205389786,0.8096,-0.3491,-0.2510,69.76,33.60,-42.80
1935,205394787,0.8169,-0.3447,-0.2505,70.98,34.27,-43.96
1936,205399786,0.8193,-0.3496,-0.2544,72.13,34.63,-45.00
1937,205404785,0.8296,-0.3516,-0.2524,73.41,35.00,-46.04
1938,205409789,0.8364,-0.3491,-0.2461,74.63,35.24,-46.95
1939,205414905,0.8438,-0.3535,-0.2461,75.67,35.49,-47.87
1940,205419787,0.8530,-0.3516,-0.2534,76.89,35.61,-48.78
1941,205424787,0.8564,-0.3545,-0.2583,77.99,35.49,-49.45
1942,205429787,0.8628,-0.3550,-0.2554,78.90,35.37,-50.06
1943,205434787,0.8730,-0.3599,-0.2573,79.82,35.24,-50.67
1944,205439786,0.8794,-0.3657,-0.2583,80.43,35.18,-51.16
1945,205444870,0.8896,-0.3628,-0.2588,81.16,34.82,-51.65
1946,205449787,0.8989,-0.3662,-0.2646,81.59,34.45,-52.07
1947,205454788,0.9067,-0.3662,-0.2598,82.01,33.96,-52.26
1948,205459786,0.9150,-0.3677,-0.2603,82.13,33.72,-52.68
1949,205464785,0.9150,-0.3657,-0.2603,81.95,33.41,-52.68
1950,205469787,0.9243,-0.3657,-0.2598,81.77,32.74,-52.80
1951,205474787,0.9292,-0.3628,-0.2588,81.40,32.13,-52.93
1952,205479787,0.9346,-0.3657,-0.2549,80.73,31.77,-52.93
1953,205484787,0.9404,-0.3667,-0.2480,80.12,31.10,-52.99
1954,205489787,0.9395,-0.3608,-0.2495,79.33,30.49,-52.87
1955,205494787,0.9458,-0.3623,-0.2461,78.35,29.82,-52.62
1956,205499787,0.9458,-0.3584,-0.2397,77.20,29.15,-52.56
1957,205504786,0.9482,-0.3584,-0.2451,75.98,28.48,-52.07
1958,205509785,0.9409,-0.3530,-0.2412,74.57,27.93,-51.83
1959,205514789,0.9409,-0.3481,-0.2422,73.29,27.20,-51.46
1960,205519786,0.9399,-0.3506,-0.2363,71.83,26.52,-51.10
1961,205524787,0.9365,-0.3477,-0.2266,70.06,25.79,-50.61
1962,205529786,0.9375,-0.3408,-0.2271,68.41,25.30,-50.12
1963,205534787,0.9375,-0.3394,-0.2217,66.65,24.51,-49.63
1964,205539786,0.9326,-0.3306,-0.2231,64.76,23.96,-49.09
1965,205544787,0.9307,-0.3218,-0.2148,62.93,23.54,-48.66
1966,205549817,0.9282,-0.3174,-0.2100,61.10,22.87,-48.05
1967,205554968,0.9297,-0.3076,-0.2046,58.96,22.26,-47.44
1968,205559787,0.9297,-0.3042,-0.2031,57.38,21.77,-47.01
1969,205564786,0.9248,-0.2983,-0.1953,55.85,21.28,-46.46
1970,205569787,0.9238,-0.2939,-0.1943,54.33,20.79,-45.73
1971,205575028,0.9175,-0.2954,-0.1860,52.74,20.24,-45.12
1972,205579787,0.9229,-0.2881,-0.1885,51.77,20.00,-44.57
1973,205584787,0.9209,-0.2871,-0.1855,50.79,19.45,-43.84
1974,205589787,0.9253,-0.2881,-0.1875,49.94,19.21,-43.23
1975,205594787,0.9204,-0.2847,-0.1802,49.33,18.66,-42.50
1976,205599787,0.9214,-0.2827,-0.1777,48.84,18.41,-41.83
1977,205604787,0.9214,-0.2817,-0.1694,48.35,18.11,-41.04
1978,205609847,0.9170,-0.2744,-0.1655,48.11,17.87,-40.24
1979,205614785,0.9165,-0.2744,-0.1597,47.74,17.68,-39.45
1980,205619789,0.9121,-0.2681,-0.1597,47.44,17.32,-38.66
1981,205624787,0.9082,-0.2637,-0.1479,47.07,17.07,-37.87
1982,205629786,0.9106,-0.2554,-0.1538,46.77,16.89,-37.01
1983,205634787,0.9048,-0.2539,-0.1416,46.34,16.95,-36.22
1984,205639786,0.9033,-0.2471,-0.1357,45.91,16.83,-35.49
1985,205644871,0.9043,-0.2432,-0.1367,45.49,16.65,-34.51
1986,205649787,0.9038,-0.2358,-0.1338,45.18,16.46,-33.66
1987,205654788,0.9028,-0.2295,-0.1284,44.76,16.52,-32.87
1988,205659787,0.9033,-0.2290,-0.1245,44.51,16.59,-31.89
1989,205664787,0.9043,-0.2231,-0.1230,44.27,16.52,-31.04
1990,205669787,0.9023,-0.2183,-0.1157,44.09,16.52,-30.18
1991,205674958,0.9009,-0.2192,-0.1138,44.21,16.59,-29.33
1992,205679787,0.9019,-0.2173,-0.1094,44.33,16.59,-28.29
1993,205684787,0.9004,-0.2202,-0.1133,44.51,16.59,-27.32
1994,205689787,0.8999,-0.2173,-0.1162,44.88,16.65,-26.52
1995,205694787,0.9062,-0.2095,-0.1138,45.55,16.77,-25.55
1996,205699787,0.9077,-0.2114,-0.1099,46.10,16.77,-24.63
1997,205704787,0.9106,-0.2075,-0.1108,46.83,16.95,-23.66
1998,205709789,0.9106,-0.2026,-0.1089,47.74,17.07,-22.74
1999,205714787,0.9121,-0.1963,-0.1108,48.41,17.01,-21.83
2000,205719786,0.9116,-0.1997,-0.1006,49.15,17.20,-20.85
2001,205724787,0.9165,-0.1973,-0.0962,50.00,17.32,-20.12
2002,205729839,0.9219,-0.1968,-0.0928,50.55,17.44,-19.09
2003,205734787,0.9346,-0.2002,-0.0962,51.16,17.50,-18.17
2004,205739786,0.9438,-0.2021,-0.0840,51.89,17.68,-17.20
2005,205744787,0.9561,-0.2065,-0.0845,52.44,17.87,-16.34
2006,205749786,0.9619,-0.2036,-0.0811,53.11,18.11,-15.30
2007,205754787,0.9668,-0.2051,-0.0825,53.72,18.23,-14.51
2008,205759786,0.9570,-0.1973,-0.0854,54.33,18.23,-13.54
2009,205764787,0.9531,-0.1978,-0.0928,55.12,18.41,-12.87
2010,205769786,0.9512,-0.1934,-0.0991,55.98,18.41,-12.13
2011,205774785,0.9404,-0.1831,-0.1069,56.65,18.41,-11.34
2012,205779787,0.9346,-0.1812,-0.1021,57.56,18.41,-10.61
2013,205784787,0.9302,-0.1719,-0.1162,58.54,18.35,-9.94
2014,205789786,0.9312,-0.1733,-0.1240,59.51,18.35,-9.33
2015,205794787,0.9307,-0.1714,-0.1191,60.43,18.11,-8.78
2016,205799787,0.9312,-0.1685,-0.1216,61.46,17.87,-8.17
2017,205804787,0.9365,-0.1719,-0.1216,62.26,17.74,-7.56
2018,205809786,0.9443,-0.1714,-0.1240,63.17,17.56,-6.95
2019,205814841,0.9463,-0.1729,-0.1245,64.09,17.44,-6.28
2020,205819792,0.9551,-0.1724,-0.1265,64.82,17.20,-5.67
2021,205824789,0.9595,-0.1831,-0.1240,65.24,17.01,-5.06
2022,205829786,0.9653,-0.1841,-0.1187,65.79,16.83,-4.45
2023,205834890,0.9707,-0.1885,-0.1206,66.16,16.59,-3.72
2024,205839786,0.9751,-0.1890,-0.1177,66.28,16.46,-3.11
2025,205844966,0.9785,-0.1890,-0.1118,66.22,16.40,-2.50
2026,205849786,0.9775,-0.1909,-0.1143,66.04,15.98,-1.71
2027,205854798,0.9751,-0.1924,-0.1069,65.55,15.79,-0.98
2028,205859786,0.9590,-0.1919,-0.1084,64.76,15.61,-0.43
2029,205864787,0.9697,-0.1895,-0.1001,63.60,15.43,0.24
2030,205869786,0.9717,-0.1924,-0.0952,62.38,15.24,0.91
2031,205874785,0.9697,-0.1865,-0.0977,61.10,14.82,1.52
2032,205879790,0.9639,-0.1885,-0.1001,59.33,14.70,2.13
2033,205884787,0.9609,-0.1899,-0.1021,57.68,14.39,2.74
2034,205889787,0.9561,-0.1885,-0.0874,55.55,14.09,3.35
2035,205894787,0.9521,-0.1885,-0.0981,53.54,13.90,4.09
2036,205899785,0.9546,-0.1875,-0.0928,51.16,13.60,4.57
2037,205904789,0.9585,-0.1890,-0.0752,48.72,13.23,5.06
2038,205909785,0.9551,-0.1885,-0.0732,46.28,13.11,5.61
2039,205914785,0.9580,-0.1812,-0.0737,43.60,12.74,6.22
2040,205919793,0.9565,-0.1836,-0.0640,40.73,12.56,6.71
2041,205924785,0.9634,-0.1831,-0.0532,37.99,12.32,7.13
2042,205929787,0.9639,-0.1821,-0.0488,35.00,12.20,7.56
2043,205934787,0.9702,-0.1831,-0.0479,32.07,11.89,7.99
2044,205939789,0.9746,-0.1851,-0.0405,28.90,11.83,8.29
2045,205944786,0.9854,-0.1865,-0.0317,26.10,11.71,8.72
2046,205950263,0.9927,-0.1880,-0.0210,23.17,11.59,9.15
2047,205954787,0.9927,-0.1875,-0.0132,20.43,11.46,9.51
2048,205959786,0.9961,-0.1890,-0.0117,17.87,11.40,9.82
2049,205964788,0.9946,-0.1875,-0.0088,15.37,11.34,10.12
2050,205969863,1.0000,-0.1821,-0.0005,13.11,11.16,10.49
2051,205974827,1.0015,-0.1831,0.0000,11.10,11.28,10.85
2052,205979789,1.0073,-0.1851,0.0127,9.09,11.22,11.10
2053,205984787,1.0156,-0.1890,0.0229,7.32,11.10,11.40
2054,205989786,1.0254,-0.1914,0.0259,5.49,11.04,11.59
2055,205994787,1.0322,-0.1875,0.0366,3.96,11.10,11.77
2056,205999786,1.0356,-0.1914,0.0376,2.68,11.10,12.07
2057,206004787,1.0381,-0.1909,0.0449,1.16,11.22,12.20
2058,206009787,1.0381,-0.1895,0.0518,0.00,11.22,12.44
2059,206014785,1.0386,-0.1836,0.0566,-1.10,11.22,12.62
2060,206019785,1.0337,-0.1841,0.0630,-2.20,11.16,12.74
2061,206024789,1.0288,-0.1777,0.0732,-2.87,11.22,12.87
2062,206029787,1.0200,-0.1768,0.0757,-3.29,11.22,12.99
2063,206034787,1.0088,-0.1704,0.0825,-3.54,11.22,13.11
2064,206039787,1.0015,-0.1699,0.0908,-3.66,11.10,13.17
2065,206044785,0.9907,-0.1699,0.0928,-3.48,11.16,13.29
2066,206049905,0.9771,-0.1797,0.0962,-2.93,10.91,13.54
2067,206054787,0.9702,-0.1870,0.1060,-2.01,10.79,13.72
2068,206059789,0.9673,-0.2002,0.1050,-0.91,10.67,13.96
2069,206064787,0.9604,-0.2085,0.1030,0.67,10.43,14.27
2070,206069786,0.9609,-0.2104,0.1055,2.32,10.37,14.57
2071,206074785,0.9634,-0.2163,0.1064,4.15,10.18,14.88
2072,206079785,0.9614,-0.2148,0.1016,5.61,10.00,15.12
2073,206084785,0.9624,-0.2129,0.1152,7.32,9.63,15.18
2074,206089785,0.9595,-0.2119,0.1250,8.66,9.57,15.49
2075,206094789,0.9648,-0.2070,0.1348,9.70,9.39,15.61
2076,206099785,0.9624,-0.2080,0.1528,10.37,9.15,15.67
2077,206105224,0.9634,-0.2056,0.1626,10.37,8.90,15.73
2078,206109788,0.9580,-0.2017,0.1699,10.06,8.84,15.79
2079,206114786,0.9580,-0.2002,0.1748,9.51,8.72,15.61
2080,206119785,0.9561,-0.2007,0.1846,8.66,8.54,15.55
2081,206124785,0.9497,-0.2002,0.1870,7.62,8.35,15.37
2082,206130264,0.9478,-0.2026,0.1865,6.10,8.11,15.30
2083,206134787,0.9424,-0.2046,0.1846,5.30,8.17,15.06
2084,206139785,0.9419,-0.2036,0.1865,4.33,8.05,14.94
2085,206144787,0.9302,-0.1938,0.1719,3.29,7.74,14.82
2086,206149787,0.9370,-0.1963,0.1733,2.50,7.62,14.63
2087,206154785,0.9404,-0.2021,0.1777,1.89,7.50,14.39
2088,206159788,0.9390,-0.2061,0.1782,1.22,7.44,14.27
2089,206164788,0.9355,-0.2075,0.1787,0.73,7.07,13.96
2090,206169787,0.9370,-0.2109,0.1787,0.55,6.95,13.84
2091,206174786,0.9404,-0.2080,0.1880,0.24,6.89,13.66
2092,206179785,0.9424,-0.2129,0.1890,-0.06,6.52,13.60
2093,206184786,0.9478,-0.2119,0.1938,-0.18,6.46,13.41
2094,206189787,0.9453,-0.2134,0.1909,-0.30,6.28,13.17
2095,206194845,0.9517,-0.2158,0.1943,-0.43,6.22,13.17
2096,206199790,0.9526,-0.2168,0.1895,-0.37,6.04,12.87
2097,206204990,0.9517,-0.2183,0.1855,-0.43,5.98,12.74
2098,206209787,0.9521,-0.2217,0.1870,-0.24,5.91,12.74
2099,206214787,0.9521,-0.2241,0.1880,0.00,5.91,12.68
2100,206219785,0.9482,-0.2178,0.1826,0.18,5.73,12.50
2101,206224785,0.9458,-0.2227,0.1743,0.61,5.49,12.38
2102,206229785,0.9438,-0.2217,0.1724,0.67,5.24,12.20
2103,206234787,0.9419,-0.2212,0.1675,0.85,5.06,12.07
2104,206239787,0.9409,-0.2178,0.1606,0.85,4.94,12.01
2105,206244787,0.9395,-0.2183,0.1641,0.61,4.63,11.83
2106,206249787,0.9404,-0.2168,0.1567,0.06,4.57,11.71
2107,206254788,0.9385,-0.2153,0.1562,-0.73,4.39,11.40
2108,206259787,0.9399,-0.2217,0.1646,-1.46,4.21,11.34
2109,206264787,0.9395,-0.2173,0.1553,-2.32,3.96,11.16
2110,206269788,0.9463,-0.2197,0.1470,-3.41,3.60,10.91
2111,206274871,0.9497,-0.2236,0.1411,-4.39,3.41,10.79
2112,206279786,0.9507,-0.2246,0.1387,-5.61,3.11,10.73
2113,206284785,0.9561,-0.2246,0.1367,-7.13,2.93,10.49
2114,206289789,0.9595,-0.2251,0.1426,-8.35,2.68,10.49
2115,206294786,0.9639,-0.2300,0.1382,-9.70,2.38,10.37
2116,206299789,0.9712,-0.2402,0.1372,-11.04,2.13,10.18
2117,206304787,0.9805,-0.2441,0.1392,-12.38,1.77,10.30
2118,206309787,0.9834,-0.2437,0.1323,-13.72,1.65,10.12
2119,206314787,0.9873,-0.2554,0.1299,-14.82,1.40,10.24
2120,206319785,0.9888,-0.2563,0.1235,-15.85,1.16,10.18
2121,206324788,0.9922,-0.2637,0.1245,-16.65,0.79,10.12
2122,206329785,0.9966,-0.2656,0.1265,-17.20,0.55,10.12
2123,206334789,0.9961,-0.2690,0.1201,-17.62,0.30,10.24
2124,206339786,0.9985,-0.2700,0.1206,-17.68,0.06,10.24
2125,206344786,1.0005,-0.2744,0.1162,-17.56,-0.12,10.30
2126,206349871,0.9980,-0.2695,0.1104,-17.26,-0.24,10.30
2127,206354786,0.9946,-0.2759,0.1099,-16.59,-0.61,10.49
2128,206359787,0.9956,-0.2749,0.1138,-15.73,-0.85,10.43
2129,206364787,0.9927,-0.2744,0.1104,-14.88,-0.98,10.49
2130,206369785,0.9927,-0.2783,0.1099,-13.90,-1.04,10.55
2131,206374789,0.9897,-0.2769,0.1113,-12.80,-1.28,10.61
2132,206379786,0.9873,-0.2744,0.1060,-11.77,-1.52,10.55
2133,206384785,0.9893,-0.2690,0.1113,-10.73,-1.65,10.55
2134,206389787,0.9800,-0.2656,0.1128,-9.63,-1.65,10.43
2135,206394787,0.9824,-0.2661,0.1157,-8.90,-1.95,10.24
2136,206399787,0.9761,-0.2656,0.1177,-8.29,-2.01,10.12
2137,206404787,0.9717,-0.2676,0.1206,-7.80,-2.20,9.76
2138,206409787,0.9658,-0.2637,0.1230,-7.32,-2.32,9.70
2139,206414785,0.9653,-0.2656,0.1265,-7.13,-2.26,9.45
2140,206419787,0.9565,-0.2573,0.1265,-7.01,-2.44,9.15
2141,206424789,0.9517,-0.2515,0.1221,-7.07,-2.44,8.72
2142,206430308,0.9448,-0.2539,0.1294,-7.26,-2.38,8.35
2143,206434787,0.9385,-0.2539,0.1318,-7.44,-2.50,7.87
2144,206439786,0.9307,-0.2505,0.1401,-7.68,-2.56,7.44
2145,206444787,0.9297,-0.2510,0.1426,-7.87,-2.50,6.77
2146,206449787,0.9258,-0.2534,0.1382,-7.87,-2.44,6.46
2147,206454787,0.9253,-0.2500,0.1348,-7.93,-2.38,5.79
2148,206459788,0.9297,-0.2500,0.1367,-7.87,-2.20,5.24
2149,206464787,0.9326,-0.2476,0.1362,-7.80,-2.20,4.70
2150,206469785,0.9331,-0.2480,0.1328,-7.56,-2.26,4.15
2151,206474787,0.9331,-0.2471,0.1289,-7.07,-2.07,3.72
2152,206479786,0.9419,-0.2524,0.1309,-6.83,-1.83,3.17
2153,206484787,0.9473,-0.2529,0.1294,-6.40,-1.65,2.56
2154,206490094,0.9497,-0.2549,0.1313,-5.73,-1.52,2.13
2155,206494787,0.9590,-0.2559,0.1348,-5.30,-1.52,1.65
2156,206499786,0.9712,-0.2554,0.1372,-4.70,-1.34,1.28
2157,206504787,0.9756,-0.2603,0.1328,-4.21,-1.28,0.73
2158,206509785,0.9878,-0.2607,0.1328,-3.72,-1.04,0.43
2159,206514787,0.9888,-0.2603,0.1396,-3.29,-0.79,-0.06
2160,206519786,0.9980,-0.2622,0.1348,-2.87,-0.55,-0.43
2161,206524787,0.9976,-0.2603,0.1396,-2.56,-0.37,-0.85
2162,206529785,0.9985,-0.2563,0.1411,-2.44,-0.30,-1.22
2163,206534789,1.0020,-0.2568,0.1421,-2.01,0.12,-1.46
2164,206539786,1.0034,-0.2563,0.1377,-1.83,0.37,-1.89
2165,206544787,1.0005,-0.2524,0.1445,-1.59,0.49,-2.20
2166,206549850,1.0005,-0.2539,0.1460,-1.34,0.73,-2.44
2167,206554785,0.9985,-0.2559,0.1431,-1.28,1.04,-2.74
2168,206559787,1.0005,-0.2539,0.1431,-0.98,1.40,-3.05
2169,206564787,0.9971,-0.2524,0.1465,-0.67,1.71,-3.41
2170,206569806,0.9946,-0.2471,0.1436,-0.49,1.77,-3.66
2171,206574787,0.9937,-0.2495,0.1362,-0.18,2.01,-3.96
2172,206579786,0.9878,-0.2456,0.1523,0.12,2.20,-4.33
2173,206584787,0.9800,-0.2422,0.1470,0.61,2.38,-4.51
2174,206589786,0.9800,-0.2422,0.1489,0.98,2.62,-4.70
2175,206594785,0.9800,-0.2388,0.1416,1.34,2.80,-5.00
2176,206599789,0.9746,-0.2368,0.1445,1.77,2.87,-5.24
2177,206604786,0.9683,-0.2358,0.1489,2.07,3.23,-5.49
2178,206609787,0.9702,-0.2314,0.1479,2.38,3.23,-5.61
2179,206614787,0.9692,-0.2300,0.1494,2.56,3.48,-5.91
2180,206619787,0.9673,-0.2305,0.1543,2.87,3.54,-6.16
2181,206624785,0.9663,-0.2280,0.1548,3.29,3.60,-6.34
2182,206629785,0.9663,-0.2231,0.1484,3.48,3.72,-6.59
2183,206634788,0.9604,-0.2231,0.1504,3.78,3.72,-6.71
2184,206639789,0.9658,-0.2173,0.1523,3.96,3.90,-6.83
