# skilleye imu stream v1
# device=xiao_esp32c6 imu=mpu6050 addr=0x68
# rate_hz=200 accel_range_g=16 gyro_range_dps=2000 dlpf_hz=94
# units: accel in g, gyro in deg/s, t_us in microseconds since boot (monotonic)
# no shared clock with the camera -- tap the racket once before each take
# so both recordings share a spike to align on
seq,t_us,ax,ay,az,gx,gy,gz
0,646373847,0.4370,-0.7520,-0.4521,-38.11,31.65,45.61
1,646378849,0.4355,-0.7515,-0.4478,-37.74,31.34,45.55
2,646383846,0.4434,-0.7412,-0.4531,-37.38,31.04,45.61
3,646388847,0.4326,-0.7427,-0.4590,-37.07,30.79,45.67
4,646393846,0.4443,-0.7485,-0.4668,-36.89,30.30,45.85
5,646398847,0.4595,-0.7490,-0.4722,-36.71,29.76,46.22
6,646403849,0.4663,-0.7554,-0.4897,-36.59,29.21,46.59
7,646409216,0.4702,-0.7573,-0.5034,-36.65,28.17,47.20
8,646413847,0.4810,-0.7461,-0.5034,-36.77,27.56,47.62
9,646418847,0.4668,-0.7441,-0.5020,-37.26,26.89,47.99
10,646423847,0.4531,-0.7471,-0.5020,-38.29,26.10,48.41
11,646428847,0.4414,-0.7495,-0.4990,-39.51,25.37,48.60
12,646434261,0.4600,-0.7417,-0.5078,-41.40,24.88,48.78
13,646438847,0.4478,-0.7373,-0.5078,-42.80,24.27,48.90
14,646443847,0.4175,-0.7422,-0.5063,-44.70,23.72,49.02
15,646448847,0.4028,-0.7437,-0.5142,-46.59,23.05,49.09
16,646453847,0.3921,-0.7456,-0.5112,-48.35,22.50,49.02
17,646458847,0.3926,-0.7393,-0.5088,-50.00,22.13,48.96
18,646464241,0.3813,-0.7358,-0.5005,-51.77,21.59,48.90
19,646468847,0.3677,-0.7441,-0.5132,-52.74,21.34,48.78
20,646475676,0.3403,-0.7593,-0.5312,-54.09,20.67,48.60
21,646478848,0.3462,-0.7622,-0.5361,-54.21,20.61,48.54
22,646483847,0.3511,-0.7690,-0.5518,-54.39,20.37,48.35
23,646488847,0.3276,-0.7861,-0.5659,-54.09,19.94,48.60
24,646493848,0.3438,-0.7871,-0.5771,-53.29,19.33,48.72
25,646498847,0.3354,-0.7920,-0.5957,-52.20,18.78,48.78
26,646503849,0.3325,-0.7969,-0.5996,-50.67,18.17,48.90
27,646508847,0.3252,-0.8052,-0.6089,-48.90,17.56,48.96
28,646513847,0.3389,-0.8076,-0.6035,-46.77,16.83,49.21
29,646518847,0.3408,-0.8076,-0.6113,-44.82,16.65,49.27
30,646524042,0.3467,-0.8003,-0.6064,-42.87,16.22,49.45
31,646528847,0.3320,-0.7944,-0.5981,-40.79,16.28,49.45
32,646534299,0.3267,-0.7871,-0.5962,-38.54,16.46,49.45
33,646538847,0.3472,-0.7759,-0.5952,-36.28,16.65,49.39
34,646544252,0.3257,-0.7651,-0.5928,-33.66,16.83,49.27
35,646548847,0.3223,-0.7612,-0.5859,-30.98,17.20,49.09
36,646553849,0.3145,-0.7563,-0.5864,-28.35,17.93,48.90
37,646558849,0.3384,-0.7417,-0.5830,-25.37,18.54,48.60
38,646563847,0.3242,-0.7446,-0.5796,-22.44,19.15,48.29
39,646568847,0.3452,-0.7324,-0.5771,-19.33,19.76,47.93
40,646573914,0.3569,-0.7212,-0.5757,-16.10,20.49,47.38
41,646578847,0.3442,-0.7168,-0.5747,-12.62,21.16,46.89
42,646583847,0.3623,-0.7031,-0.5762,-9.15,21.95,46.22
43,646588846,0.3472,-0.7026,-0.5732,-5.49,22.74,45.49
44,646594097,0.3750,-0.6978,-0.5752,-1.65,23.41,44.70
45,646598848,0.3657,-0.6890,-0.5811,2.13,23.96,43.84
46,646603848,0.3550,-0.6880,-0.5811,6.28,24.45,42.99
47,646608847,0.3711,-0.6782,-0.5771,10.37,24.76,42.13
48,646613845,0.3589,-0.6816,-0.5791,14.70,25.00,41.28
49,646618848,0.3784,-0.6724,-0.5840,19.15,25.00,40.49
50,646623847,0.3613,-0.6772,-0.5806,23.35,24.94,39.70
51,646628847,0.3848,-0.6636,-0.5771,27.74,24.94,38.96
52,646633847,0.3623,-0.6660,-0.5903,31.95,24.57,38.23
53,646639146,0.3794,-0.6650,-0.5972,35.91,24.33,37.50
54,646643847,0.3740,-0.6641,-0.5923,39.27,23.78,36.83
55,646648847,0.3745,-0.6704,-0.5967,42.13,23.05,36.10
56,646653847,0.3960,-0.6587,-0.5938,44.45,22.50,35.18
57,646658847,0.3833,-0.6655,-0.5923,46.22,21.83,34.27
58,646663847,0.4004,-0.6733,-0.6035,47.07,20.79,33.66
59,646668847,0.3989,-0.6768,-0.6030,47.32,20.00,32.80
60,646673847,0.3975,-0.6924,-0.6030,46.77,19.09,31.95
61,646678847,0.4189,-0.6904,-0.6118,45.55,17.93,31.28
62,646683845,0.3979,-0.7104,-0.6099,43.72,16.83,30.61
63,646688845,0.4233,-0.7104,-0.6074,41.28,15.73,30.00
64,646693845,0.3955,-0.7241,-0.6040,38.29,14.63,29.21
65,646698849,0.4150,-0.7236,-0.6113,35.00,13.78,28.60
66,646703846,0.3867,-0.7383,-0.6084,31.59,12.80,27.87
67,646708849,0.3931,-0.7339,-0.6187,27.87,11.95,27.13
68,646713847,0.3662,-0.7432,-0.6191,24.15,11.16,26.34
69,646718847,0.3682,-0.7437,-0.6216,20.37,10.43,25.55
70,646723847,0.3389,-0.7500,-0.6221,16.65,9.82,24.45
71,646729196,0.3486,-0.7515,-0.6196,13.05,9.39,23.35
72,646733847,0.3179,-0.7666,-0.6187,9.51,9.15,22.13
73,646739109,0.3320,-0.7651,-0.6235,6.40,8.90,20.85
74,646743847,0.3105,-0.7710,-0.6255,3.54,8.96,19.57
75,646749082,0.3008,-0.7837,-0.6289,1.10,8.96,18.23
76,646754323,0.3135,-0.7822,-0.6294,-1.16,9.27,16.65
77,646758847,0.2876,-0.7871,-0.6357,-2.38,9.39,15.49
78,646764223,0.2856,-0.7959,-0.6333,-3.48,9.76,13.60
79,646768847,0.2773,-0.7983,-0.6333,-3.78,10.12,12.38
80,646773847,0.2705,-0.8032,-0.6333,-3.90,10.61,10.73
81,646778845,0.2666,-0.8037,-0.6318,-3.41,11.10,9.09
82,646783849,0.2715,-0.7983,-0.6304,-2.44,11.46,7.50
83,646788847,0.2559,-0.8018,-0.6353,-0.91,12.07,5.67
84,646793847,0.2471,-0.8115,-0.6357,0.91,12.38,4.02
85,646798847,0.2661,-0.8145,-0.6328,3.23,12.99,2.32
86,646804256,0.2671,-0.8262,-0.6289,6.59,13.35,0.61
87,646808847,0.2554,-0.8340,-0.6250,8.90,13.48,-0.55
88,646813849,0.2612,-0.8389,-0.6201,12.01,13.96,-2.07
89,646818847,0.2637,-0.8530,-0.6069,15.49,14.02,-3.41
90,646823847,0.2905,-0.8516,-0.6040,19.09,14.15,-4.76
91,646828847,0.2817,-0.8574,-0.6006,22.74,14.09,-6.16
92,646833847,0.2949,-0.8691,-0.5957,26.46,13.90,-7.38
93,646838847,0.3091,-0.8599,-0.5825,30.00,13.96,-8.54
94,646843847,0.2900,-0.8726,-0.5791,33.54,13.41,-9.76
95,646848847,0.3105,-0.8657,-0.5718,36.89,12.99,-10.85
96,646853847,0.2954,-0.8735,-0.5659,39.94,12.50,-12.01
97,646858847,0.3154,-0.8740,-0.5542,42.62,11.83,-13.17
98,646863847,0.3105,-0.8735,-0.5493,44.82,11.04,-14.15
99,646868847,0.3032,-0.8823,-0.5332,46.77,10.43,-15.12
100,646873847,0.3276,-0.8799,-0.5244,48.29,9.76,-15.91
101,646878847,0.3232,-0.8882,-0.5181,49.70,9.02,-16.65
102,646883847,0.3018,-0.8965,-0.5161,50.55,8.29,-17.32
103,646888847,0.3330,-0.8931,-0.4990,51.28,7.80,-18.05
104,646893847,0.3262,-0.8965,-0.4834,51.83,7.20,-18.60
105,646899224,0.3374,-0.9038,-0.4746,52.38,6.34,-19.39
106,646903847,0.3574,-0.9058,-0.4653,52.87,6.16,-19.70
107,646908847,0.3657,-0.9082,-0.4683,53.35,5.61,-20.24
108,646913849,0.3730,-0.9092,-0.4497,54.39,5.00,-20.79
109,646918847,0.3647,-0.9072,-0.4395,55.43,4.33,-21.34
110,646923847,0.3584,-0.9175,-0.4316,56.89,3.72,-21.77
111,646928847,0.3730,-0.9102,-0.4277,58.48,3.05,-22.26
112,646934028,0.3691,-0.9141,-0.4146,60.55,2.38,-22.74
113,646938847,0.3760,-0.9111,-0.4102,62.93,1.77,-23.29
114,646943847,0.3584,-0.9126,-0.4048,65.79,0.91,-23.78
115,646948846,0.3584,-0.9170,-0.4038,68.96,0.24,-24.21
116,646953847,0.3623,-0.9062,-0.3970,72.68,-0.49,-24.57
117,646958847,0.3647,-0.9102,-0.3940,76.52,-1.34,-25.06
118,646963847,0.3540,-0.9092,-0.3906,80.55,-2.01,-25.61
119,646969251,0.3618,-0.9116,-0.3862,84.63,-3.05,-26.16
120,646973847,0.3457,-0.9170,-0.3774,88.72,-3.48,-26.65
121,646978847,0.3623,-0.9072,-0.3711,92.80,-4.27,-27.13
122,646983846,0.3398,-0.9067,-0.3706,96.77,-5.00,-27.74
123,646988849,0.3613,-0.9072,-0.3706,100.67,-5.73,-28.35
124,646993845,0.3584,-0.8970,-0.3667,103.96,-6.40,-29.02
125,646998845,0.3467,-0.9141,-0.3613,107.13,-7.20,-29.63
126,647003845,0.3682,-0.9136,-0.3647,110.00,-8.23,-30.06
127,647008846,0.3911,-0.9048,-0.3530,112.38,-9.27,-30.49
128,647014084,0.3945,-0.9092,-0.3555,114.21,-10.30,-30.91
129,647018847,0.4014,-0.9141,-0.3428,115.43,-11.83,-31.22
130,647023845,0.3779,-0.9253,-0.3452,116.16,-13.23,-31.59
131,647029177,0.3828,-0.9126,-0.3604,116.40,-14.88,-32.07
132,647034316,0.3989,-0.8989,-0.3682,115.91,-17.07,-32.99
133,647038847,0.3877,-0.8896,-0.3521,114.70,-19.39,-34.51
134,647046323,0.3691,-0.9180,-0.3384,111.28,-22.80,-36.95
135,647048849,0.3765,-0.9116,-0.3354,109.45,-24.15,-38.17
136,647053847,0.3770,-0.9355,-0.3188,105.61,-26.16,-40.06
137,647058847,0.3696,-0.9487,-0.3193,101.34,-27.56,-41.59
138,647064224,0.3604,-0.9414,-0.3174,96.89,-28.96,-42.99
139,647068847,0.3608,-0.9561,-0.3164,92.38,-30.06,-44.63
140,647074134,0.3682,-0.9526,-0.3145,88.05,-30.73,-45.91
141,647078847,0.3623,-0.9717,-0.3135,84.15,-30.98,-46.95
142,647083847,0.3481,-0.9951,-0.3081,80.85,-30.79,-47.38
143,647088847,0.3394,-0.9658,-0.3379,77.74,-30.24,-47.93
144,647093847,0.3560,-0.9336,-0.3301,75.91,-30.06,-48.66
145,647098847,0.3770,-0.9185,-0.3306,74.70,-29.57,-49.57
146,647103847,0.3604,-0.9087,-0.3438,74.39,-28.84,-50.67
147,647109074,0.3726,-0.9014,-0.3379,74.51,-28.23,-51.89
148,647113847,0.3569,-0.9165,-0.3335,75.79,-27.80,-53.17
149,647118849,0.3701,-0.9131,-0.3374,77.44,-27.50,-54.27
150,647123847,0.3828,-0.9082,-0.3462,80.49,-27.26,-55.61
151,647128847,0.3740,-0.9102,-0.3438,83.05,-27.38,-56.34
152,647133847,0.3901,-0.9072,-0.3408,86.46,-27.20,-57.26
153,647138847,0.3833,-0.9131,-0.3491,90.18,-27.44,-57.99
154,647143847,0.4009,-0.9150,-0.3555,93.78,-27.62,-58.60
155,647149325,0.3828,-0.9248,-0.3491,97.87,-27.87,-59.39
156,647153847,0.3940,-0.9204,-0.3315,100.30,-27.99,-59.94
157,647158847,0.3740,-0.9170,-0.3438,102.80,-27.99,-60.61
158,647164141,0.3833,-0.9058,-0.3398,104.57,-27.80,-61.46
159,647168847,0.3579,-0.9082,-0.3232,105.43,-27.44,-62.44
160,647173847,0.3774,-0.8975,-0.3125,105.49,-26.83,-63.41
161,647178847,0.3472,-0.9009,-0.3159,104.63,-26.10,-64.45
162,647183847,0.3564,-0.8896,-0.3164,102.87,-25.24,-65.30
163,647188847,0.3442,-0.8789,-0.3062,100.55,-24.27,-66.40
164,647193847,0.3042,-0.8745,-0.2969,97.44,-23.23,-67.50
165,647199289,0.3125,-0.8560,-0.3032,93.05,-21.89,-68.84
166,647203847,0.2969,-0.8477,-0.2939,89.88,-20.85,-69.63
167,647209107,0.2695,-0.8408,-0.2861,84.82,-19.33,-70.85
168,647213847,0.2812,-0.8301,-0.2832,81.34,-18.48,-71.52
169,647218847,0.2588,-0.8369,-0.2812,76.71,-17.13,-72.44
170,647223849,0.2759,-0.8232,-0.2690,72.13,-15.91,-72.99
171,647228847,0.2515,-0.8145,-0.2627,67.44,-14.94,-73.41
172,647233847,0.2754,-0.8003,-0.2676,63.17,-13.84,-73.78
173,647238847,0.2534,-0.7988,-0.2666,59.02,-13.05,-74.02
174,647244094,0.2715,-0.7964,-0.2632,54.15,-12.01,-74.09
175,647248847,0.2725,-0.7837,-0.2622,50.12,-11.65,-73.84
176,647253847,0.2710,-0.7812,-0.2559,46.89,-11.16,-73.48
177,647259139,0.3022,-0.7593,-0.2437,42.32,-10.67,-72.87
178,647263847,0.2930,-0.7529,-0.2368,39.45,-10.43,-72.50
179,647268847,0.3047,-0.7402,-0.2432,35.73,-10.06,-71.83
180,647273847,0.2852,-0.7412,-0.2412,32.56,-9.82,-71.16
181,647278847,0.3062,-0.7271,-0.2422,29.33,-9.63,-70.37
182,647284250,0.2915,-0.7266,-0.2471,25.43,-9.57,-69.15
183,647288847,0.3022,-0.7231,-0.2612,22.87,-9.51,-68.41
184,647293845,0.2871,-0.7275,-0.2666,19.94,-9.45,-67.26
185,647298845,0.3091,-0.7202,-0.2778,16.83,-9.70,-66.16
186,647303845,0.3218,-0.7075,-0.2866,13.96,-10.06,-65.00
187,647308845,0.3247,-0.6997,-0.2969,11.40,-10.61,-63.96
188,647313846,0.3452,-0.6792,-0.2954,8.84,-10.91,-62.80
189,647318845,0.3530,-0.6606,-0.3013,6.83,-11.40,-61.95
190,647323979,0.3481,-0.6465,-0.3008,4.51,-11.83,-61.04
191,647328846,0.3364,-0.6411,-0.3140,2.68,-12.26,-60.18
192,647333847,0.3613,-0.6230,-0.3130,0.91,-12.62,-59.39
193,647339206,0.3550,-0.5991,-0.3320,-1.04,-13.11,-58.78
194,647343847,0.3784,-0.5967,-0.3613,-3.60,-13.84,-58.35
195,647348847,0.3574,-0.5908,-0.3135,-6.83,-14.15,-57.87
196,647353847,0.3740,-0.5913,-0.3076,-10.24,-14.15,-57.56
197,647358847,0.3604,-0.5898,-0.3086,-14.15,-14.21,-57.01
198,647364080,0.3721,-0.5850,-0.3091,-18.35,-14.15,-56.40
199,647368847,0.3540,-0.5864,-0.3042,-22.68,-13.90,-55.85
200,647374286,0.3672,-0.5874,-0.2881,-26.83,-13.48,-55.24
201,647378847,0.3560,-0.6016,-0.2852,-30.67,-13.05,-54.33
202,647384094,0.3735,-0.5933,-0.2998,-34.02,-12.74,-53.48
203,647388847,0.3906,-0.5815,-0.3115,-36.89,-12.50,-52.50
204,647393848,0.3887,-0.5703,-0.3042,-39.27,-12.20,-51.59
205,647398975,0.3804,-0.5591,-0.2969,-41.16,-11.95,-50.85
206,647403846,0.3862,-0.5547,-0.3071,-42.62,-11.59,-50.24
207,647408847,0.3730,-0.5576,-0.3062,-43.66,-11.34,-49.70
208,647413845,0.3999,-0.5444,-0.3057,-44.33,-11.16,-49.33
209,647418847,0.4053,-0.5396,-0.3218,-44.70,-11.34,-49.09
210,647424074,0.4199,-0.5220,-0.3213,-44.88,-11.10,-48.96
211,647428847,0.4258,-0.5127,-0.3276,-44.76,-10.98,-48.78
212,647433847,0.4409,-0.4932,-0.3228,-44.57,-10.79,-48.84
213,647438847,0.4541,-0.4663,-0.3550,-44.45,-10.67,-49.02
214,647444232,0.4673,-0.4351,-0.3945,-44.76,-10.79,-49.15
215,647448847,0.5024,-0.4033,-0.4321,-45.18,-10.91,-49.45
216,647453847,0.5391,-0.3818,-0.4360,-45.98,-11.28,-49.57
217,647458846,0.5503,-0.3911,-0.4468,-46.95,-11.46,-49.70
218,647464047,0.5698,-0.3921,-0.4419,-48.23,-11.46,-49.45
219,647468847,0.5527,-0.4194,-0.4434,-49.94,-11.46,-49.09
220,647473847,0.5708,-0.4204,-0.4404,-52.07,-11.40,-48.41
221,647478847,0.5605,-0.4321,-0.4287,-54.33,-11.28,-47.74
222,647483989,0.5786,-0.4351,-0.4336,-56.65,-11.16,-47.07
223,647488847,0.5771,-0.4380,-0.4204,-58.96,-10.91,-46.28
224,647493847,0.5518,-0.4536,-0.3931,-61.04,-10.55,-45.55
225,647498849,0.5488,-0.4873,-0.3823,-62.74,-10.18,-44.88
226,647503847,0.5522,-0.5225,-0.3735,-63.96,-9.82,-43.84
227,647508846,0.5654,-0.5107,-0.3403,-64.51,-9.33,-42.74
228,647513964,0.5186,-0.4819,-0.2949,-64.02,-8.96,-41.95
229,647518847,0.5127,-0.4902,-0.3008,-62.50,-8.66,-41.22
230,647523846,0.5215,-0.5161,-0.2993,-60.24,-8.41,-40.18
231,647529201,0.5435,-0.5376,-0.2734,-57.32,-8.41,-39.09
232,647534186,0.5190,-0.5195,-0.2500,-53.84,-8.29,-37.87
233,647538847,0.5317,-0.4751,-0.2349,-50.00,-8.23,-37.01
234,647544142,0.5522,-0.4092,-0.1641,-45.73,-8.54,-36.16
235,647548847,0.5840,-0.3936,-0.1763,-42.13,-8.66,-35.55
236,647554074,0.5557,-0.4346,-0.2036,-38.96,-9.27,-34.33
237,647558847,0.5708,-0.4375,-0.1987,-36.59,-10.30,-33.23
238,647563847,0.6201,-0.4658,-0.2471,-35.06,-11.46,-31.89
239,647568848,0.6978,-0.5352,-0.3223,-34.88,-12.93,-30.37
240,647573847,0.7788,-0.4766,-0.3857,-36.59,-14.63,-29.09
241,647578847,0.9424,-0.3843,-0.4180,-40.12,-16.28,-28.41
242,647583847,1.1182,-0.2959,-0.5249,-45.73,-17.93,-28.23
243,647588847,1.3018,-0.1616,-0.6006,-53.84,-20.06,-28.66
244,647593847,1.4033,-0.0605,-0.6196,-64.63,-21.59,-29.82
245,647598846,1.6333,-0.0166,-0.6729,-78.17,-22.93,-31.34
246,647603845,1.6763,-0.1880,-0.6426,-92.93,-23.84,-32.56
247,647608845,1.3350,-0.4556,-0.4722,-105.73,-24.02,-32.20
248,647613883,0.9648,-0.6460,-0.3027,-114.94,-23.41,-30.55
249,647618847,0.7959,-0.7124,-0.2378,-121.16,-21.65,-28.41
250,647623848,0.8120,-0.6597,-0.2451,-124.94,-20.55,-26.34
251,647628848,0.7783,-0.6802,-0.2559,-126.89,-20.00,-24.76
252,647633847,0.8574,-0.6724,-0.2925,-127.38,-20.00,-23.35
253,647638847,0.9087,-0.6631,-0.3770,-126.16,-20.43,-22.26
254,647643849,1.0776,-0.6343,-0.4204,-122.50,-20.85,-20.85
255,647648847,1.0117,-0.5811,-0.4482,-116.59,-22.13,-19.33
256,647654204,0.9932,-0.5659,-0.4888,-106.77,-23.60,-17.80
257,647658847,0.9185,-0.5884,-0.5312,-98.72,-24.76,-17.07
258,647663847,0.8296,-0.6602,-0.5449,-86.65,-26.52,-15.55
259,647668847,0.7349,-0.6777,-0.5552,-73.90,-28.29,-13.66
260,647673847,0.7251,-0.6323,-0.6064,-56.52,-30.06,-11.77
261,647678847,0.6934,-0.5596,-0.5737,-43.78,-31.22,-10.61
262,647683847,0.5825,-0.5464,-0.4619,-27.50,-31.89,-9.21
263,647689267,0.3794,-0.3730,-0.3833,-8.78,-29.63,-8.66
264,647694461,0.2520,-0.3154,-0.3696,6.77,-25.91,-9.70
265,647698847,0.2886,-0.2588,-0.3979,18.29,-21.83,-11.04
266,647703849,0.4072,-0.1875,-0.5732,32.32,-17.07,-13.17
267,647708988,0.5474,-0.1641,-0.7339,48.23,-13.60,-15.55
268,647714795,0.5674,-0.1919,-0.7354,60.79,-11.95,-17.07
269,647718847,0.4219,-0.3042,-0.6699,71.77,-10.61,-17.68
270,647723847,0.3198,-0.4146,-0.6846,78.90,-9.57,-17.01
271,647728847,0.2593,-0.4727,-0.7695,86.16,-9.09,-14.88
272,647733848,0.2075,-0.5122,-0.8809,89.02,-10.24,-11.28
273,647738847,0.1753,-0.5298,-1.0449,88.05,-12.93,-6.34
274,647744240,0.1245,-0.3608,-1.2837,84.15,-18.90,-0.85
275,647748847,0.2461,-0.1333,-0.9297,75.55,-24.09,2.13
276,647753847,0.4062,-0.2310,-0.8076,63.72,-25.91,4.33
277,647759067,0.6250,-0.2954,-0.8555,50.55,-27.07,7.56
278,647763847,0.8101,-0.2324,-0.7246,37.38,-26.89,10.43
279,647768991,0.8965,-0.2114,-0.6045,24.51,-24.76,12.32
280,647773847,0.9458,-0.2334,-0.5781,13.60,-20.91,13.41
281,647778847,0.9292,-0.2695,-0.6289,4.76,-16.52,14.02
282,647783847,0.8804,-0.2998,-0.6357,-1.65,-12.01,14.09
283,647788847,0.8154,-0.3530,-0.6592,-5.37,-7.01,13.54
284,647793847,0.7622,-0.3804,-0.7114,-6.34,-1.71,12.93
285,647798850,0.7153,-0.3872,-0.7441,-4.82,3.90,11.71
286,647803846,0.6763,-0.4082,-0.7671,-1.40,9.76,10.30
287,647808847,0.6592,-0.4282,-0.7964,2.93,16.16,8.84
288,647813847,0.6357,-0.4463,-0.8340,7.74,22.32,7.26
289,647818847,0.6201,-0.4517,-0.8604,12.32,28.41,5.98
290,647824069,0.6270,-0.4453,-0.8652,16.16,34.21,4.70
291,647829334,0.6338,-0.4424,-0.8833,18.60,39.57,3.54
292,647833847,0.6226,-0.4404,-0.8823,19.57,44.39,2.32
293,647838849,0.6465,-0.4292,-0.8672,19.02,48.60,1.40
294,647843847,0.6333,-0.4272,-0.8516,17.07,52.44,0.37
295,647848847,0.6450,-0.4478,-0.8315,14.15,55.73,-0.37
296,647853945,0.6699,-0.4531,-0.8120,10.00,58.41,-1.16
297,647859282,0.6846,-0.4663,-0.7896,5.18,60.73,-1.77
298,647863847,0.6865,-0.4731,-0.7788,-0.12,62.68,-2.50
299,647868847,0.7080,-0.4683,-0.7432,-5.73,64.15,-3.23
300,647874091,0.6953,-0.4756,-0.7026,-11.59,65.30,-3.90
301,647879344,0.6841,-0.4961,-0.6704,-17.20,66.04,-4.45
302,647883847,0.6777,-0.4854,-0.6567,-22.99,66.83,-4.82
303,647888847,0.6953,-0.4722,-0.6255,-28.84,67.44,-5.30
304,647893847,0.6807,-0.4863,-0.5664,-34.15,67.20,-5.73
305,647898847,0.6768,-0.4995,-0.5278,-38.78,66.52,-5.91
306,647903847,0.6621,-0.5073,-0.5317,-42.93,66.16,-6.04
307,647908845,0.6689,-0.5093,-0.5073,-46.10,65.61,-6.40
308,647913849,0.6577,-0.4927,-0.4556,-48.23,64.63,-6.59
309,647918846,0.6597,-0.4800,-0.4443,-48.90,63.48,-6.65
310,647923847,0.6606,-0.4556,-0.4600,-48.05,62.38,-6.40
311,647928846,0.6792,-0.4243,-0.4258,-46.46,61.16,-6.22
312,647933847,0.6787,-0.4116,-0.3940,-44.63,59.57,-6.04
313,647938848,0.6831,-0.3970,-0.3887,-42.20,57.68,-5.49
314,647943847,0.6636,-0.3970,-0.3828,-39.70,56.16,-5.06
315,647948849,0.6577,-0.3999,-0.3540,-37.07,54.27,-4.51
316,647953845,0.6719,-0.3877,-0.3286,-34.63,52.38,-4.09
317,647958847,0.6523,-0.3857,-0.3364,-32.32,50.79,-3.60
318,647963849,0.6611,-0.3618,-0.3242,-30.61,49.15,-3.11
319,647968847,0.6367,-0.3599,-0.2944,-29.27,47.32,-2.68
320,647973847,0.6396,-0.3530,-0.2847,-28.48,45.79,-2.13
321,647978847,0.6494,-0.3535,-0.2852,-28.29,44.27,-1.59
322,647983847,0.6387,-0.3613,-0.2734,-28.48,42.93,-1.16
323,647988847,0.6406,-0.3594,-0.2476,-29.27,41.22,-0.79
324,647993847,0.6494,-0.3545,-0.2373,-30.30,39.94,-0.37
325,647998847,0.6304,-0.3584,-0.2456,-31.65,38.66,0.00
326,648003847,0.6309,-0.3574,-0.2329,-33.17,37.50,0.49
327,648008847,0.6367,-0.3550,-0.2212,-35.12,36.22,0.85
328,648013847,0.6494,-0.3594,-0.2241,-37.01,35.18,1.22
329,648018847,0.6240,-0.3716,-0.2202,-38.72,34.15,1.52
330,648023845,0.6235,-0.3799,-0.2085,-40.37,33.29,1.77
331,648028848,0.6250,-0.3750,-0.2046,-41.71,32.62,2.20
332,648033952,0.6367,-0.3716,-0.2100,-42.80,31.77,2.38
333,648038848,0.6206,-0.3760,-0.2061,-43.72,31.10,2.62
334,648043847,0.6489,-0.3755,-0.1968,-44.45,30.18,2.87
335,648049104,0.6431,-0.3833,-0.1953,-45.79,29.57,3.23
336,648053847,0.6479,-0.3882,-0.1929,-46.83,28.96,3.54
337,648059169,0.6533,-0.3931,-0.1836,-48.60,28.17,3.96
338,648063847,0.6514,-0.4004,-0.1763,-49.63,27.56,4.39
339,648069200,0.6694,-0.3975,-0.1655,-51.04,26.77,5.12
340,648073847,0.6719,-0.4048,-0.1660,-51.65,26.40,5.55
341,648079170,0.6777,-0.3975,-0.1582,-52.26,25.79,6.16
342,648084336,0.6753,-0.4048,-0.1587,-52.44,25.18,6.77
343,648088847,0.6919,-0.3989,-0.1538,-52.50,24.76,7.26
344,648094077,0.7007,-0.4077,-0.1465,-51.89,24.09,7.99
345,648098847,0.6851,-0.4165,-0.1460,-51.52,23.60,8.54
346,648103847,0.7104,-0.4102,-0.1353,-50.79,23.11,9.15
347,648108847,0.6968,-0.4209,-0.1406,-49.70,22.44,10.00
348,648113846,0.7246,-0.4165,-0.1372,-48.48,21.65,10.79
349,648118850,0.7236,-0.4189,-0.1260,-46.95,21.22,11.59
350,648123846,0.7197,-0.4224,-0.1250,-45.18,20.43,12.44
351,648128847,0.7275,-0.4248,-0.1245,-43.05,20.00,13.17
352,648134222,0.7402,-0.4243,-0.1250,-40.18,19.27,14.21
353,648138848,0.7393,-0.4277,-0.1201,-37.38,18.41,15.00
354,648143849,0.7520,-0.4282,-0.1216,-34.33,17.99,15.79
355,648148847,0.7412,-0.4341,-0.1201,-31.28,17.44,16.40
356,648153847,0.7495,-0.4351,-0.1167,-28.11,16.95,17.13
357,648159059,0.7373,-0.4414,-0.1191,-24.94,16.52,17.80
358,648163847,0.7534,-0.4346,-0.1177,-21.71,16.10,18.48
359,648169108,0.7524,-0.4443,-0.1294,-18.54,15.85,19.09
360,648173847,0.7451,-0.4497,-0.1270,-15.55,15.37,19.70
361,648178847,0.7573,-0.4453,-0.1401,-12.74,15.00,20.06
362,648183847,0.7734,-0.4404,-0.1426,-10.49,14.70,20.61
363,648188846,0.7627,-0.4458,-0.1431,-8.78,14.39,20.85
364,648194086,0.7632,-0.4438,-0.1504,-7.80,14.21,21.22
365,648198849,0.7734,-0.4482,-0.1470,-7.68,13.78,21.40
366,648203845,0.7720,-0.4526,-0.1582,-8.29,13.48,21.65
367,648208849,0.7954,-0.4546,-0.1558,-9.63,13.29,22.13
368,648213846,0.8042,-0.4531,-0.1577,-11.65,12.99,22.44
369,648218845,0.8008,-0.4609,-0.1646,-14.15,12.62,22.93
370,648223847,0.8242,-0.4536,-0.1592,-17.07,12.26,23.29
371,648228847,0.8247,-0.4570,-0.1655,-20.06,11.83,23.66
372,648233850,0.8223,-0.4526,-0.1733,-23.48,11.46,24.09
373,648238847,0.8296,-0.4590,-0.1846,-26.95,11.16,24.51
374,648243849,0.8408,-0.4590,-0.1772,-30.30,10.85,25.00
375,648248847,0.8364,-0.4697,-0.1860,-33.72,10.37,25.61
376,648253847,0.8237,-0.4658,-0.1875,-36.77,10.00,26.22
377,648258847,0.8418,-0.4600,-0.1929,-39.33,9.82,26.77
378,648263846,0.8418,-0.4707,-0.1997,-41.59,9.15,27.44
379,648268847,0.8281,-0.4771,-0.2104,-43.11,8.66,28.05
380,648273847,0.8325,-0.4746,-0.2124,-44.15,8.23,28.54
381,648278847,0.8325,-0.4839,-0.2173,-44.70,7.80,29.21
382,648283847,0.8179,-0.4873,-0.2212,-44.45,7.50,29.88
383,648288847,0.8335,-0.4839,-0.2212,-43.60,7.13,30.61
384,648293847,0.8257,-0.4917,-0.2256,-42.38,6.83,31.10
385,648298849,0.8311,-0.4922,-0.2275,-40.61,6.40,31.71
386,648303847,0.8447,-0.4937,-0.2334,-38.54,6.16,32.38
387,648308847,0.8203,-0.5000,-0.2324,-35.85,6.16,32.80
388,648313846,0.8301,-0.4980,-0.2373,-32.87,5.98,33.35
389,648318849,0.8442,-0.4937,-0.2412,-29.70,5.98,33.96
390,648323847,0.8389,-0.5010,-0.2446,-26.34,5.67,34.51
391,648328847,0.8228,-0.5049,-0.2446,-22.62,5.73,34.82
392,648333847,0.8389,-0.4927,-0.2480,-18.84,5.73,35.18
393,648338848,0.8364,-0.4902,-0.2446,-14.94,5.73,35.43
394,648344188,0.8340,-0.4868,-0.2471,-11.16,5.73,35.61
395,648348848,0.8110,-0.4941,-0.2466,-7.50,5.79,35.73
396,648353853,0.8164,-0.4805,-0.2451,-4.15,6.04,35.73
397,648358847,0.8213,-0.4834,-0.2471,-1.10,6.10,35.91
398,648363847,0.8179,-0.4785,-0.2466,1.77,6.46,35.79
399,648368847,0.8379,-0.4688,-0.2446,3.96,6.22,35.79
400,648374039,0.8232,-0.4756,-0.2456,5.55,6.46,35.67
401,648378846,0.8423,-0.4678,-0.2529,6.95,6.59,35.61
402,648383847,0.8511,-0.4688,-0.2485,7.26,6.65,35.67
403,648388845,0.8340,-0.4731,-0.2485,7.32,6.59,35.49
404,648393847,0.8550,-0.4653,-0.2476,6.83,6.46,35.49
405,648398846,0.8525,-0.4634,-0.2515,5.85,6.65,35.18
406,648403847,0.8384,-0.4644,-0.2559,4.82,6.71,34.94
407,648408847,0.8447,-0.4609,-0.2485,3.72,6.65,34.63
408,648413847,0.8467,-0.4580,-0.2480,2.38,6.59,34.15
409,648418847,0.8696,-0.4531,-0.2559,1.16,6.46,33.78
410,648423846,0.8604,-0.4517,-0.2529,-0.24,6.28,33.23
411,648428847,0.8608,-0.4487,-0.2505,-1.71,5.85,32.56
412,648434184,0.8662,-0.4419,-0.2505,-2.87,5.67,32.07
413,648439346,0.8618,-0.4458,-0.2466,-3.96,5.18,31.40
414,648443847,0.8447,-0.4458,-0.2432,-4.82,4.88,31.10
415,648448849,0.8560,-0.4473,-0.2520,-5.79,4.45,30.37
416,648453847,0.8516,-0.4478,-0.2461,-6.77,3.96,29.70
417,648458847,0.8394,-0.4507,-0.2549,-7.80,3.35,29.02
418,648463847,0.8564,-0.4443,-0.2505,-8.96,2.93,28.41
419,648468849,0.8496,-0.4487,-0.2476,-10.37,2.26,27.62
420,648473847,0.8271,-0.4590,-0.2466,-11.95,1.65,27.01
421,648478847,0.8433,-0.4575,-0.2549,-13.35,1.16,26.22
422,648483847,0.8242,-0.4629,-0.2578,-14.76,0.55,25.18
423,648488847,0.8374,-0.4556,-0.2554,-15.91,-0.06,24.39
424,648493847,0.8359,-0.4634,-0.2637,-17.07,-0.49,23.35
425,648498847,0.8242,-0.4683,-0.2700,-17.87,-0.91,22.32
426,648504446,0.8364,-0.4595,-0.2764,-18.78,-1.46,20.73
427,648508847,0.8062,-0.4722,-0.2764,-19.33,-1.71,19.88
428,648513847,0.8203,-0.4678,-0.2808,-19.88,-1.89,18.48
429,648518847,0.8066,-0.4702,-0.2778,-20.49,-2.01,17.13
430,648524223,0.8032,-0.4761,-0.2876,-21.40,-2.32,15.61
431,648528848,0.8184,-0.4712,-0.2861,-22.07,-2.50,14.70
432,648533847,0.8022,-0.4795,-0.2837,-23.11,-2.50,13.35
433,648538847,0.8081,-0.4805,-0.2891,-24.51,-2.56,12.07
434,648543847,0.8179,-0.4819,-0.2837,-26.22,-2.87,10.85
435,648548995,0.8096,-0.4839,-0.2827,-28.72,-3.05,9.51
436,648553847,0.8267,-0.4834,-0.2866,-30.30,-3.17,8.66
437,648558847,0.8252,-0.4844,-0.2847,-33.05,-3.48,7.56
438,648563847,0.8369,-0.4741,-0.2808,-34.94,-3.48,6.77
439,648568847,0.8257,-0.4858,-0.2783,-37.44,-3.72,5.98
440,648573847,0.8198,-0.4858,-0.2759,-39.57,-3.90,5.12
441,648579053,0.8223,-0.4834,-0.2856,-42.07,-4.33,4.15
442,648583847,0.8384,-0.4824,-0.2769,-43.54,-4.51,3.72
443,648588847,0.8271,-0.4902,-0.2847,-45.37,-4.88,2.62
444,648593847,0.8403,-0.4878,-0.2866,-46.34,-5.18,2.07
445,648598847,0.8130,-0.4907,-0.2837,-47.13,-5.24,1.52
446,648603847,0.8340,-0.4873,-0.2842,-47.38,-5.18,0.85
447,648608847,0.8110,-0.4922,-0.2881,-47.13,-5.37,0.18
448,648613847,0.8237,-0.4844,-0.2817,-46.52,-5.30,-0.37
449,648618847,0.8315,-0.4844,-0.2798,-45.73,-5.18,-0.91
450,648623847,0.8228,-0.4858,-0.2832,-44.45,-5.12,-1.40
451,648628846,0.8345,-0.4878,-0.2847,-43.17,-4.88,-1.95
452,648633969,0.8379,-0.4814,-0.2808,-41.59,-4.63,-2.26
453,648638847,0.8384,-0.4849,-0.2803,-40.00,-4.45,-2.50
454,648643848,0.8521,-0.4717,-0.2710,-38.05,-4.39,-2.87
455,648649057,0.8491,-0.4771,-0.2817,-36.16,-4.15,-2.80
456,648653848,0.8652,-0.4648,-0.2808,-34.15,-3.96,-3.05
457,648658847,0.8477,-0.4673,-0.2783,-32.13,-3.90,-3.05
458,648663849,0.8521,-0.4683,-0.2812,-30.00,-3.84,-3.11
459,648668847,0.8716,-0.4517,-0.2759,-27.99,-3.66,-2.99
460,648673847,0.8467,-0.4517,-0.2793,-25.79,-3.48,-3.17
461,648678847,0.8657,-0.4424,-0.2710,-23.72,-3.35,-3.23
462,648683847,0.8525,-0.4438,-0.2803,-21.89,-3.23,-3.35
463,648688847,0.8618,-0.4321,-0.2690,-20.18,-2.93,-3.41
464,648693847,0.8472,-0.4355,-0.2705,-18.84,-2.62,-3.35
465,648698878,0.8467,-0.4297,-0.2656,-17.87,-2.26,-3.17
466,648703846,0.8584,-0.4214,-0.2568,-17.07,-2.01,-3.17
467,648709202,0.8506,-0.4268,-0.2578,-16.65,-1.71,-2.99
468,648713847,0.8672,-0.4165,-0.2671,-16.71,-1.40,-2.80
469,648718847,0.8447,-0.4136,-0.2598,-16.95,-1.22,-2.56
470,648723847,0.8574,-0.4087,-0.2646,-17.44,-0.73,-2.50
471,648728847,0.8359,-0.4121,-0.2651,-18.29,-0.49,-2.26
472,648733846,0.8496,-0.4019,-0.2651,-19.15,-0.24,-2.07
473,648739072,0.8325,-0.4058,-0.2705,-20.00,-0.24,-2.01
474,648743849,0.8252,-0.3999,-0.2788,-20.79,-0.06,-1.83
475,648749069,0.8315,-0.3994,-0.2798,-21.46,-0.12,-1.71
476,648754263,0.8389,-0.3965,-0.2861,-22.32,-0.24,-1.52
477,648758848,0.8345,-0.3931,-0.2915,-22.80,-0.37,-1.46
478,648764175,0.8223,-0.3911,-0.2935,-23.11,-0.49,-1.46
479,648768847,0.7939,-0.3921,-0.3027,-22.87,-0.79,-1.52
480,648773847,0.7974,-0.3862,-0.3013,-22.38,-1.10,-1.83
481,648779047,0.7876,-0.3799,-0.3071,-21.40,-1.16,-2.20
482,648783847,0.7632,-0.3828,-0.3130,-19.88,-1.71,-2.56
483,648788847,0.7607,-0.3877,-0.3301,-18.90,-1.89,-2.93
484,648793847,0.7778,-0.3828,-0.3408,-17.74,-2.38,-3.54
485,648798847,0.7861,-0.3809,-0.3501,-17.07,-3.17,-4.09
486,648803847,0.7759,-0.3970,-0.3560,-17.01,-3.96,-4.39
487,648808845,0.7891,-0.4092,-0.3589,-17.68,-5.06,-4.57
488,648813845,0.7896,-0.4219,-0.3716,-19.09,-6.04,-4.82
489,648818849,0.8271,-0.4219,-0.3799,-21.22,-7.13,-4.82
490,648823847,0.8232,-0.4272,-0.3799,-23.78,-8.29,-4.76
491,648828847,0.8022,-0.4429,-0.3931,-26.83,-9.57,-4.70
492,648833847,0.8198,-0.4404,-0.3965,-30.00,-10.55,-4.63
493,648838847,0.8047,-0.4385,-0.4150,-33.17,-11.77,-4.45
494,648843847,0.8105,-0.4307,-0.4258,-36.22,-12.74,-4.39
495,648849232,0.7725,-0.4380,-0.4424,-39.45,-14.21,-4.39
496,648853847,0.7812,-0.4321,-0.4478,-41.40,-15.18,-4.45
497,648858849,0.7617,-0.4307,-0.4668,-43.66,-16.28,-4.51
498,648863847,0.7510,-0.4404,-0.4790,-45.55,-17.32,-4.57
499,648868847,0.7490,-0.4365,-0.4868,-47.07,-18.41,-4.63
500,648873847,0.7183,-0.4414,-0.4932,-48.29,-19.45,-4.82
501,648878847,0.7026,-0.4453,-0.5044,-48.90,-20.18,-4.76
502,648883847,0.7217,-0.4365,-0.4990,-49.02,-21.28,-4.88
503,648888847,0.6890,-0.4385,-0.5083,-48.41,-21.77,-4.70
504,648893847,0.6821,-0.4419,-0.5156,-47.20,-22.68,-4.76
505,648898847,0.6846,-0.4375,-0.5210,-45.67,-23.11,-4.82
506,648903847,0.6753,-0.4346,-0.5137,-43.90,-23.60,-4.82
507,648908846,0.6675,-0.4272,-0.5190,-41.71,-23.96,-4.76
508,648913847,0.6489,-0.4170,-0.5073,-39.51,-24.09,-4.76
509,648918847,0.6230,-0.4141,-0.5078,-37.01,-24.21,-4.70
510,648923847,0.6094,-0.4155,-0.5098,-34.63,-24.21,-4.63
511,648928845,0.6235,-0.4004,-0.5054,-32.20,-24.15,-4.51
512,648933849,0.5957,-0.3955,-0.5068,-29.57,-23.96,-4.39
513,648938846,0.5928,-0.3906,-0.5010,-26.83,-23.78,-4.39
514,648943847,0.5972,-0.3687,-0.4985,-23.84,-23.84,-4.21
515,648948847,0.5649,-0.3672,-0.5005,-21.04,-23.60,-4.15
516,648953848,0.5703,-0.3550,-0.4976,-18.17,-23.54,-4.02
517,648958847,0.5664,-0.3481,-0.4907,-14.94,-23.35,-3.96
518,648963846,0.5513,-0.3462,-0.4849,-12.93,-23.11,-3.96
519,648968849,0.5601,-0.3369,-0.4844,-10.55,-22.99,-3.96
520,648973846,0.5664,-0.3286,-0.4873,-8.41,-22.68,-3.84
521,648978847,0.5601,-0.3340,-0.4907,-5.98,-22.26,-3.90
522,648983847,0.5654,-0.3281,-0.4897,-4.21,-22.01,-3.84
523,648988847,0.5820,-0.3252,-0.4927,-2.68,-21.95,-3.66
524,648993847,0.5786,-0.3271,-0.4951,-1.59,-21.77,-3.60
525,648998847,0.5986,-0.3276,-0.5029,-0.79,-21.77,-3.23
526,649003847,0.5908,-0.3271,-0.5049,-0.61,-21.59,-2.99
527,649008846,0.5957,-0.3296,-0.5024,-0.49,-21.59,-2.68
528,649013946,0.6089,-0.3198,-0.5078,-0.67,-21.65,-2.32
529,649018847,0.6182,-0.3154,-0.5112,-0.85,-21.59,-2.07
530,649024038,0.6191,-0.3101,-0.5137,-1.04,-21.95,-1.65
531,649028847,0.6128,-0.3101,-0.5142,-1.59,-22.32,-1.28
532,649033847,0.6172,-0.3022,-0.5098,-2.13,-22.44,-0.85
533,649038847,0.6235,-0.2935,-0.5078,-2.56,-22.87,-0.43
534,649043847,0.6309,-0.2866,-0.5103,-3.23,-23.29,0.18
535,649048847,0.6323,-0.2832,-0.5063,-3.90,-23.78,0.85
536,649054141,0.6475,-0.2764,-0.5127,-4.82,-24.27,1.52
537,649058847,0.6333,-0.2773,-0.5054,-5.79,-25.00,2.26
538,649063849,0.6514,-0.2681,-0.5068,-6.71,-25.37,2.87
539,649068847,0.6460,-0.2661,-0.5034,-7.93,-26.04,3.54
540,649073847,0.6387,-0.2676,-0.5068,-9.27,-26.59,4.45
541,649079185,0.6553,-0.2559,-0.4976,-10.55,-26.95,5.24
542,649083847,0.6475,-0.2588,-0.4961,-11.83,-27.44,6.10
543,649088847,0.6504,-0.2583,-0.4980,-13.23,-27.74,7.07
544,649093847,0.6484,-0.2534,-0.4961,-14.27,-27.93,7.99
545,649098846,0.6597,-0.2476,-0.5034,-15.37,-28.17,8.84
546,649103845,0.6562,-0.2510,-0.5015,-16.04,-28.29,9.82
547,649108845,0.6558,-0.2476,-0.4976,-16.46,-28.35,10.73
548,649113849,0.6802,-0.2446,-0.5098,-16.22,-28.41,11.71
549,649118847,0.6792,-0.2441,-0.5142,-15.18,-28.60,12.62
550,649123847,0.6943,-0.2339,-0.5200,-13.54,-28.78,13.35
551,649128847,0.6841,-0.2373,-0.5332,-11.46,-29.27,14.09
552,649133847,0.7100,-0.2222,-0.5303,-8.72,-29.51,14.76
553,649138847,0.7080,-0.2266,-0.5376,-5.55,-29.82,15.24
554,649143847,0.7275,-0.2192,-0.5435,-2.20,-30.30,15.73
555,649148847,0.7026,-0.2266,-0.5552,1.10,-30.85,16.16
556,649154171,0.7085,-0.2261,-0.5610,4.21,-31.22,16.46
557,649158847,0.7129,-0.2266,-0.5601,6.77,-31.77,16.71
558,649163853,0.7104,-0.2241,-0.5630,8.78,-32.07,16.89
559,649168846,0.7061,-0.2310,-0.5732,10.06,-32.38,17.01
560,649173845,0.7031,-0.2319,-0.5791,10.73,-32.87,17.01
561,649178849,0.7095,-0.2305,-0.5840,10.37,-32.93,16.95
562,649183846,0.6938,-0.2358,-0.5918,9.51,-33.11,16.83
563,649188848,0.6929,-0.2437,-0.5967,7.99,-33.17,16.71
564,649193845,0.7021,-0.2417,-0.5986,6.10,-33.17,16.65
565,649198849,0.6851,-0.2456,-0.6069,3.48,-32.99,16.28
566,649203847,0.6699,-0.2573,-0.6133,1.46,-32.87,16.22
567,649209137,0.6812,-0.2578,-0.6235,-0.91,-32.56,15.91
568,649213847,0.6914,-0.2622,-0.6309,-3.29,-32.38,15.55
569,649218847,0.6646,-0.2690,-0.6353,-5.37,-32.20,15.30
570,649223847,0.6543,-0.2827,-0.6479,-7.13,-31.71,15.12
571,649228847,0.6797,-0.2832,-0.6606,-8.66,-31.59,14.76
572,649233847,0.6655,-0.2876,-0.6738,-9.94,-31.22,14.45
573,649238847,0.6680,-0.3032,-0.6807,-10.91,-30.91,14.27
574,649243847,0.6621,-0.3140,-0.6938,-11.40,-30.55,14.02
575,649248847,0.6816,-0.3169,-0.7031,-11.71,-30.49,13.90
576,649254106,0.6616,-0.3374,-0.7163,-11.59,-30.24,13.84
577,649258847,0.6689,-0.3477,-0.7197,-11.10,-30.00,13.90
578,649263847,0.6807,-0.3442,-0.7217,-10.67,-29.88,13.84
579,649268849,0.6650,-0.3569,-0.7358,-9.94,-29.51,13.84
580,649273847,0.6855,-0.3604,-0.7324,-9.21,-29.15,13.72
581,649278847,0.6821,-0.3657,-0.7314,-8.41,-28.48,13.90
582,649283847,0.6543,-0.3755,-0.7354,-7.50,-27.93,13.84
583,649289094,0.6699,-0.3774,-0.7368,-6.40,-27.13,13.78
584,649293847,0.6626,-0.3779,-0.7412,-5.73,-26.34,13.72
585,649299073,0.6353,-0.3828,-0.7368,-4.45,-25.24,13.48
586,649303847,0.6436,-0.3843,-0.7300,-3.66,-24.33,13.35
587,649309022,0.6392,-0.3823,-0.7290,-2.56,-23.17,13.17
588,649313847,0.6392,-0.3799,-0.7285,-1.52,-21.89,12.93
589,649318848,0.6050,-0.3843,-0.7212,0.06,-20.37,12.44
590,649323847,0.5898,-0.3872,-0.7173,1.10,-19.21,12.13
591,649328849,0.5991,-0.3784,-0.7168,2.56,-17.68,11.65
592,649333846,0.5703,-0.3774,-0.7061,3.96,-16.22,11.22
593,649338847,0.5703,-0.3779,-0.7046,5.67,-14.57,10.49
594,649343847,0.5806,-0.3701,-0.6934,7.32,-12.99,9.94
595,649348846,0.5747,-0.3613,-0.6909,9.02,-11.52,9.27
596,649353847,0.5771,-0.3579,-0.6802,10.73,-10.12,8.35
597,649359140,0.5688,-0.3560,-0.6709,12.80,-8.48,7.62
598,649363847,0.5669,-0.3574,-0.6685,14.15,-7.32,6.95
599,649368849,0.5757,-0.3486,-0.6543,15.61,-5.91,6.40
600,649373846,0.5718,-0.3413,-0.6475,17.13,-4.76,5.73
601,649379347,0.5620,-0.3496,-0.6440,18.72,-3.17,5.06
602,649383847,0.5869,-0.3364,-0.6318,19.88,-2.32,4.51
603,649389167,0.5894,-0.3315,-0.6196,21.22,-1.16,4.09
604,649393847,0.5742,-0.3364,-0.6187,22.13,-0.30,3.66
605,649398847,0.6064,-0.3276,-0.6104,22.56,0.49,3.23
606,649403847,0.6143,-0.3198,-0.6030,22.99,1.04,2.93
607,649409497,0.6011,-0.3296,-0.5996,23.05,1.52,2.74
608,649413847,0.6333,-0.3281,-0.5884,22.80,2.07,2.56
609,649418845,0.6343,-0.3213,-0.5889,22.32,2.44,2.38
610,649423878,0.6294,-0.3257,-0.5815,21.71,2.68,2.32
611,649428847,0.6602,-0.3198,-0.5796,21.28,2.87,2.20
612,649434207,0.6455,-0.3281,-0.5737,20.67,2.80,2.26
613,649438847,0.6729,-0.3267,-0.5708,20.24,2.62,2.26
614,649443847,0.6626,-0.3267,-0.5737,19.82,2.38,2.38
615,649448846,0.6714,-0.3320,-0.5757,19.94,2.13,2.44
616,649453847,0.6704,-0.3311,-0.5806,20.24,1.65,2.44
617,649458846,0.6738,-0.3306,-0.5815,20.85,1.34,2.50
618,649463848,0.6777,-0.3320,-0.5889,21.77,0.73,2.44
619,649468846,0.6714,-0.3452,-0.5977,22.68,0.06,2.56
620,649473849,0.6929,-0.3408,-0.5996,23.54,-0.49,2.56
621,649478847,0.6748,-0.3545,-0.6060,24.09,-1.16,2.44
622,649484004,0.6807,-0.3662,-0.6133,24.51,-1.77,2.56
623,649488847,0.6968,-0.3652,-0.6172,24.51,-2.44,2.38
624,649494054,0.6943,-0.3687,-0.6240,24.15,-2.93,2.13
625,649498847,0.6646,-0.3862,-0.6274,23.41,-3.48,1.83
626,649503849,0.6543,-0.3979,-0.6377,22.13,-3.78,1.52
627,649508847,0.6553,-0.3989,-0.6411,20.73,-3.90,1.16
628,649514131,0.6616,-0.3989,-0.6519,18.54,-4.15,0.67
629,649518847,0.6328,-0.4160,-0.6519,16.10,-4.27,0.12
630,649524059,0.6382,-0.4136,-0.6489,13.29,-4.21,-0.43
631,649528847,0.6064,-0.4302,-0.6519,10.24,-3.90,-0.91
632,649534133,0.6089,-0.4258,-0.6494,7.13,-3.48,-1.59
633,649538847,0.5708,-0.4336,-0.6587,4.09,-2.93,-2.20
634,649543998,0.5762,-0.4331,-0.6616,1.10,-2.26,-2.80
635,649548847,0.5630,-0.4385,-0.6685,-1.83,-1.34,-3.54
636,649553846,0.5483,-0.4434,-0.6577,-4.21,-0.55,-4.21
637,649559128,0.5513,-0.4434,-0.6665,-6.28,0.73,-4.82
638,649563847,0.5371,-0.4517,-0.6733,-7.80,1.83,-5.43
639,649569140,0.5415,-0.4458,-0.6719,-8.90,2.80,-6.10
640,649573847,0.5347,-0.4453,-0.6724,-9.27,4.09,-6.83
641,649578849,0.5244,-0.4360,-0.6738,-8.90,5.43,-7.44
642,649583846,0.5220,-0.4375,-0.6768,-7.93,6.83,-8.11
643,649588847,0.5005,-0.4351,-0.6758,-6.22,8.35,-8.84
644,649593847,0.5200,-0.4321,-0.6768,-3.90,9.57,-9.51
645,649598847,0.5068,-0.4380,-0.6685,-0.73,10.91,-10.12
646,649603847,0.5044,-0.4282,-0.6631,2.93,12.38,-10.73
647,649608845,0.5127,-0.4302,-0.6641,6.77,13.78,-11.22
648,649613845,0.5039,-0.4287,-0.6523,10.91,14.88,-11.65
649,649618845,0.5229,-0.4229,-0.6377,15.06,16.34,-12.07
650,649623845,0.5308,-0.4268,-0.6318,19.09,17.38,-12.38
651,649628845,0.5498,-0.4141,-0.6226,22.68,18.29,-12.56
652,649633845,0.5620,-0.4170,-0.6147,26.16,19.09,-12.74
653,649638845,0.5688,-0.4224,-0.5981,29.15,19.70,-12.74
654,649643845,0.5952,-0.4136,-0.5869,31.52,20.24,-12.62
655,649648845,0.6060,-0.4160,-0.5674,33.60,20.30,-12.44
656,649653845,0.6387,-0.4092,-0.5684,35.37,20.37,-12.01
657,649658845,0.6377,-0.4155,-0.5571,36.59,20.12,-11.52
658,649663845,0.6738,-0.4072,-0.5503,37.74,19.94,-10.91
659,649668845,0.6689,-0.4160,-0.5444,38.54,19.27,-10.18
660,649673845,0.6978,-0.4185,-0.5479,39.33,18.54,-9.51
661,649678845,0.7075,-0.4170,-0.5327,39.82,17.50,-8.48
662,649683845,0.7124,-0.4214,-0.5391,40.37,16.40,-7.44
663,649688845,0.7393,-0.4248,-0.5371,40.91,15.18,-6.59
664,649693845,0.7368,-0.4263,-0.5322,41.40,13.78,-5.49
665,649698845,0.7510,-0.4272,-0.5303,42.13,12.44,-4.33
666,649703845,0.7368,-0.4341,-0.5332,42.68,10.85,-3.17
667,649708845,0.7612,-0.4316,-0.5269,43.23,9.15,-2.13
668,649713845,0.7524,-0.4302,-0.5327,43.66,7.44,-1.16
669,649718845,0.7568,-0.4360,-0.5322,44.02,5.91,-0.12
670,649723845,0.7373,-0.4399,-0.5298,43.90,4.39,0.67
671,649728850,0.7480,-0.4375,-0.5269,43.84,2.68,1.28
672,649733845,0.7139,-0.4434,-0.5288,43.84,1.22,1.83
673,649738845,0.7163,-0.4321,-0.5322,43.60,-0.18,2.07
674,649743845,0.6895,-0.4404,-0.5303,43.54,-1.65,2.38
675,649748845,0.6851,-0.4272,-0.5273,43.66,-3.05,2.32
676,649754160,0.6509,-0.4380,-0.5293,43.54,-4.57,2.13
677,649758845,0.6621,-0.4302,-0.5366,43.23,-5.49,1.77
678,649763845,0.6240,-0.4355,-0.5396,42.68,-6.65,1.46
679,649768847,0.6289,-0.4380,-0.5400,41.52,-7.74,0.91
680,649773846,0.5894,-0.4438,-0.5435,39.57,-8.84,0.24
681,649779274,0.5967,-0.4448,-0.5469,37.38,-9.63,-0.49
682,649783849,0.5737,-0.4424,-0.5425,35.24,-10.24,-1.16
683,649788874,0.5488,-0.4531,-0.5479,32.13,-10.61,-2.07
684,649793845,0.5464,-0.4546,-0.5571,28.84,-11.10,-3.11
685,649798845,0.5391,-0.4502,-0.5566,25.18,-11.16,-4.27
686,649803845,0.5112,-0.4644,-0.5659,21.52,-11.28,-5.30
687,649808845,0.5278,-0.4629,-0.5781,16.77,-11.10,-6.77
688,649813845,0.4976,-0.4678,-0.5776,12.87,-11.10,-7.99
689,649818845,0.5044,-0.4717,-0.5864,9.82,-10.79,-8.96
690,649823845,0.5015,-0.4702,-0.5913,6.22,-10.49,-10.30
691,649828845,0.4883,-0.4863,-0.5898,2.87,-10.06,-11.46
692,649833845,0.5005,-0.4771,-0.5967,0.00,-9.76,-12.62
693,649838845,0.4858,-0.4854,-0.5928,-2.80,-9.02,-14.15
694,649843845,0.4800,-0.4888,-0.5923,-4.63,-8.48,-15.37
695,649848845,0.4946,-0.4819,-0.5928,-5.79,-8.05,-16.59
696,649853845,0.4907,-0.4849,-0.5918,-6.71,-7.38,-17.87
697,649858845,0.4912,-0.4893,-0.5957,-6.83,-6.89,-19.02
698,649863845,0.5049,-0.4810,-0.5933,-6.71,-6.34,-20.24
699,649868845,0.4956,-0.4863,-0.5889,-6.10,-5.98,-21.34
700,649873845,0.4937,-0.4810,-0.5884,-5.24,-5.67,-22.62
701,649878845,0.5088,-0.4722,-0.5791,-4.09,-5.18,-23.66
702,649883845,0.5010,-0.4727,-0.5781,-2.74,-5.00,-24.76
703,649888845,0.5176,-0.4692,-0.5732,-1.28,-4.70,-25.79
704,649893845,0.5151,-0.4653,-0.5625,0.12,-4.63,-26.83
705,649898845,0.5439,-0.4619,-0.5493,1.40,-4.45,-27.74
706,649903898,0.5449,-0.4624,-0.5435,2.50,-4.39,-28.72
707,649908850,0.5654,-0.4595,-0.5352,3.17,-4.39,-29.45
708,649913847,0.5820,-0.4507,-0.5249,3.72,-4.51,-30.30
709,649918845,0.5811,-0.4595,-0.5142,3.96,-4.70,-30.91
710,649923845,0.6201,-0.4463,-0.5000,3.96,-5.00,-31.59
711,649928845,0.6284,-0.4517,-0.4971,3.60,-5.43,-32.13
712,649933845,0.6382,-0.4521,-0.4902,2.99,-5.79,-32.62
713,649938845,0.6650,-0.4517,-0.4756,2.50,-6.22,-33.05
714,649943964,0.6660,-0.4561,-0.4766,1.89,-6.71,-33.35
715,649948845,0.6904,-0.4517,-0.4678,1.46,-7.32,-33.72
716,649953845,0.7031,-0.4521,-0.4668,1.28,-8.17,-33.90
717,649958845,0.7144,-0.4468,-0.4575,1.40,-8.66,-34.09
718,649963845,0.7207,-0.4487,-0.4531,1.95,-9.57,-34.15
719,649968845,0.7148,-0.4492,-0.4473,3.05,-10.30,-34.21
720,649973845,0.7319,-0.4399,-0.4492,4.57,-11.10,-34.27
721,649978845,0.7349,-0.4395,-0.4497,6.40,-11.95,-34.15
722,649983931,0.7280,-0.4395,-0.4434,8.66,-12.74,-34.15
723,649988845,0.7178,-0.4395,-0.4429,11.16,-13.54,-34.15
724,649993845,0.7310,-0.4399,-0.4414,14.27,-14.21,-33.96
725,649998845,0.7246,-0.4399,-0.4404,17.68,-14.82,-33.84
726,650003845,0.7075,-0.4395,-0.4360,21.46,-15.55,-33.78
727,650008845,0.7246,-0.4336,-0.4380,25.43,-15.91,-33.78
728,650013845,0.7231,-0.4233,-0.4360,29.51,-16.46,-33.84
729,650018845,0.7046,-0.4282,-0.4351,33.78,-16.95,-33.84
730,650023845,0.6948,-0.4292,-0.4312,37.74,-17.20,-33.96
731,650028845,0.7056,-0.4214,-0.4302,41.59,-17.50,-34.15
732,650033845,0.6943,-0.4277,-0.4312,45.06,-17.50,-34.39
733,650038845,0.6958,-0.4238,-0.4316,47.99,-17.80,-34.57
734,650043845,0.6919,-0.4219,-0.4395,50.43,-17.80,-34.88
735,650048845,0.6924,-0.4189,-0.4370,52.01,-17.93,-35.37
736,650053845,0.6621,-0.4233,-0.4463,53.17,-17.74,-35.91
737,650058845,0.6797,-0.4170,-0.4438,53.72,-17.68,-36.40
738,650063845,0.6548,-0.4165,-0.4438,53.84,-17.62,-37.07
739,650068850,0.6440,-0.4224,-0.4541,53.41,-17.62,-37.68
740,650073845,0.6636,-0.4126,-0.4580,52.87,-17.38,-38.35
741,650078848,0.6553,-0.4155,-0.4595,51.83,-17.38,-39.15
742,650083846,0.6689,-0.4097,-0.4658,50.24,-17.32,-40.06
743,650088849,0.6670,-0.4048,-0.4683,48.72,-17.32,-40.49
744,650094275,0.6519,-0.4146,-0.4746,46.65,-17.38,-41.40
745,650098847,0.6733,-0.4038,-0.4766,45.06,-17.50,-42.01
746,650103847,0.6392,-0.4150,-0.4819,43.29,-17.32,-42.74
747,650108847,0.6587,-0.4062,-0.4888,41.65,-17.56,-43.41
748,650113851,0.6411,-0.4082,-0.4966,40.18,-17.44,-44.21
749,650118849,0.6553,-0.4043,-0.4932,39.27,-17.62,-44.94
750,650123847,0.6494,-0.4033,-0.5020,38.60,-17.44,-45.55
751,650128846,0.6421,-0.3989,-0.5107,38.17,-17.38,-46.22
752,650133845,0.6294,-0.4082,-0.5068,37.93,-17.44,-47.01
753,650138845,0.6353,-0.4097,-0.5127,37.50,-17.68,-47.50
754,650143845,0.6479,-0.4033,-0.5073,37.32,-17.62,-48.17
755,650148845,0.6465,-0.3994,-0.5073,37.20,-17.80,-48.90
756,650153845,0.6260,-0.4121,-0.5200,37.20,-17.93,-49.63
757,650158845,0.6470,-0.3984,-0.5229,37.38,-17.93,-50.24
758,650163850,0.6309,-0.4014,-0.5234,37.74,-17.93,-50.91
759,650168847,0.6216,-0.4038,-0.5371,38.17,-18.17,-51.71
760,650173846,0.6313,-0.4033,-0.5381,38.60,-18.29,-52.62
761,650178847,0.6118,-0.4087,-0.5396,38.84,-18.35,-53.60
762,650185473,0.6279,-0.4067,-0.5415,39.45,-18.17,-54.76
763,650188850,0.6255,-0.4121,-0.5415,39.45,-18.17,-55.06
764,650193846,0.6162,-0.4160,-0.5493,39.76,-18.05,-55.85
765,650198850,0.6084,-0.4268,-0.5498,40.06,-18.11,-56.77
766,650203847,0.6250,-0.4258,-0.5469,40.00,-18.05,-57.44
767,650208846,0.6147,-0.4355,-0.5464,40.06,-17.99,-57.99
768,650214119,0.6123,-0.4409,-0.5483,40.00,-17.99,-58.78
769,650218847,0.6270,-0.4316,-0.5425,40.00,-17.80,-59.45
770,650223847,0.6089,-0.4458,-0.5376,40.12,-17.99,-59.88
771,650228847,0.6250,-0.4370,-0.5405,40.55,-17.80,-60.37
772,650233846,0.6221,-0.4434,-0.5342,41.10,-17.68,-60.79
773,650238847,0.6387,-0.4375,-0.5293,42.13,-17.74,-61.22
774,650243847,0.6177,-0.4429,-0.5259,43.60,-17.68,-61.65
775,650248846,0.6177,-0.4443,-0.5254,45.24,-17.62,-61.95
776,650253986,0.6333,-0.4395,-0.5234,47.38,-17.62,-62.13
777,650258849,0.6206,-0.4399,-0.5205,49.57,-17.62,-62.44
778,650263870,0.6118,-0.4414,-0.5249,52.07,-17.50,-62.62
779,650268847,0.6055,-0.4468,-0.5181,54.70,-17.44,-62.74
780,650273845,0.6157,-0.4424,-0.5146,57.56,-17.44,-62.99
781,650278848,0.6108,-0.4463,-0.5132,60.37,-17.50,-63.05
782,650283846,0.6172,-0.4458,-0.5142,63.23,-17.38,-63.05
783,650288847,0.6328,-0.4404,-0.5161,66.16,-17.44,-63.05
784,650293847,0.6216,-0.4478,-0.5103,68.90,-17.50,-63.05
785,650298845,0.6318,-0.4438,-0.5127,71.71,-17.74,-62.93
786,650304238,0.6445,-0.4336,-0.5112,74.27,-17.87,-62.80
787,650308847,0.6318,-0.4312,-0.5103,76.71,-18.05,-62.68
788,650313846,0.6304,-0.4302,-0.5127,78.84,-18.48,-62.50
789,650318845,0.6431,-0.4248,-0.5059,80.91,-18.60,-62.26
790,650323847,0.6333,-0.4253,-0.5098,82.50,-19.02,-62.13
791,650328847,0.6367,-0.4209,-0.5059,83.96,-19.45,-61.83
792,650333846,0.6328,-0.4238,-0.5059,84.76,-19.88,-61.65
793,650338846,0.6230,-0.4170,-0.5005,85.18,-20.12,-61.40
794,650343847,0.6128,-0.4219,-0.5059,85.06,-20.49,-61.04
795,650348847,0.6099,-0.4180,-0.5083,84.94,-20.55,-60.85
796,650353846,0.6079,-0.4160,-0.5166,84.21,-20.79,-60.61
797,650358845,0.6211,-0.4077,-0.5166,83.29,-20.91,-60.30
798,650363847,0.6035,-0.4126,-0.5273,82.01,-20.91,-60.37
799,650368847,0.6064,-0.4062,-0.5259,81.10,-20.79,-60.37
800,650374055,0.5996,-0.4072,-0.5312,80.06,-20.79,-60.61
801,650378847,0.5825,-0.4121,-0.5410,79.21,-20.49,-60.79
802,650383846,0.5908,-0.4072,-0.5522,78.72,-20.18,-61.10
803,650389173,0.5947,-0.4121,-0.5537,77.99,-19.82,-61.34
804,650393847,0.6035,-0.4126,-0.5566,77.56,-19.39,-61.71
805,650398847,0.5850,-0.4141,-0.5664,77.13,-18.72,-62.32
806,650404144,0.5850,-0.5767,-0.4756,78.35,-20.85,-62.68
807,650408847,0.6128,-0.5239,-0.7930,79.70,-19.63,-62.38
808,650414011,0.6128,-0.3682,-0.8208,79.76,-16.95,-62.68
809,650419071,0.6055,-0.2280,-0.5771,79.33,-16.28,-62.93
810,650424130,0.6274,-0.1904,-0.6899,78.41,-15.49,-63.41
811,650428847,0.6353,-0.2275,-0.7363,74.57,-14.33,-64.09
812,650433986,0.6831,-0.2925,-0.7568,70.43,-11.10,-64.88
813,650439184,0.6401,-0.3896,-0.7437,66.71,-9.39,-65.24
814,650444191,0.6479,-0.4019,-0.6958,62.62,-8.29,-65.49
815,650448847,0.6709,-0.3359,-0.7148,57.56,-6.95,-65.73
816,650453846,0.6865,-0.3052,-0.7070,52.13,-5.85,-65.98
817,650458846,0.6797,-0.3042,-0.6602,46.10,-5.24,-66.22
818,650463847,0.6694,-0.2930,-0.6533,40.12,-4.82,-66.59
819,650468845,0.6870,-0.3369,-0.6919,35.00,-3.72,-67.32
820,650473847,0.6929,-0.4414,-0.6802,31.16,-2.99,-67.68
821,650479208,0.6733,-0.4048,-0.6641,27.74,-2.20,-68.35
822,650483989,0.6836,-0.5059,-0.6685,26.04,-1.83,-68.41
823,650489147,0.6689,-0.4971,-0.6821,25.18,-0.55,-68.84
824,650493847,0.6587,-0.3745,-0.6689,25.67,0.37,-68.90
825,650498846,0.6465,-0.3369,-0.6450,27.44,0.98,-69.09
826,650504294,0.6675,-0.3350,-0.6553,30.79,1.89,-69.27
827,650508996,0.6597,-0.3623,-0.6641,33.66,2.68,-69.27
828,650514217,0.6323,-0.3521,-0.6548,38.11,3.29,-69.21
829,650519151,0.6445,-0.3784,-0.6353,41.71,3.66,-68.90
830,650524086,0.6494,-0.3862,-0.6426,44.82,4.02,-68.60
831,650529129,0.6211,-0.3789,-0.6548,47.20,4.57,-68.35
832,650534096,0.6284,-0.3467,-0.6392,48.90,4.82,-68.05
833,650539128,0.6367,-0.3047,-0.6313,49.39,4.88,-67.87
834,650544192,0.6343,-0.2817,-0.6328,48.90,5.18,-67.68
835,650549217,0.6216,-0.2852,-0.6284,47.50,5.12,-67.20
836,650553847,0.6157,-0.3047,-0.6108,45.24,5.18,-66.89
837,650559240,0.6396,-0.3110,-0.6030,42.20,5.18,-66.22
838,650563850,0.6572,-0.2993,-0.6040,39.21,5.00,-65.79
839,650568845,0.6611,-0.2803,-0.5889,34.76,5.00,-65.06
840,650573846,0.6558,-0.2671,-0.5767,30.00,4.82,-64.45
841,650578847,0.6367,-0.2656,-0.5728,24.76,5.06,-63.72
842,650583847,0.6182,-0.2729,-0.5649,19.39,4.88,-62.68
843,650588846,0.6226,-0.2832,-0.5532,14.21,5.06,-61.77
844,650593847,0.6392,-0.2764,-0.5435,9.82,5.24,-60.85
845,650598847,0.6245,-0.2715,-0.5303,5.85,5.49,-59.76
846,650603847,0.6118,-0.2720,-0.5288,2.38,5.79,-58.54
847,650608847,0.6362,-0.2515,-0.5273,0.79,6.04,-57.32
848,650613846,0.6221,-0.2300,-0.5146,0.24,6.34,-56.10
849,650618845,0.6162,-0.2168,-0.5151,0.73,6.65,-54.88
850,650624045,0.6172,-0.2124,-0.5078,2.20,6.83,-53.72
851,650629096,0.6426,-0.1899,-0.5010,4.57,7.07,-52.38
852,650634072,0.6279,-0.1919,-0.5054,7.56,7.44,-50.98
853,650638847,0.6562,-0.1733,-0.5103,11.22,7.56,-49.70
854,650643847,0.6738,-0.1548,-0.5034,15.37,7.80,-48.17
855,650648846,0.6602,-0.1509,-0.5073,19.82,7.93,-46.46
856,650653849,0.6982,-0.1270,-0.5259,24.39,8.11,-44.82
857,650658845,0.7188,-0.1123,-0.5376,29.09,8.35,-42.99
858,650663845,0.7021,-0.1182,-0.5415,33.66,8.60,-40.98
859,650668845,0.7261,-0.1445,-0.5459,37.68,8.78,-39.15
860,650673845,0.7319,-0.1787,-0.5371,41.65,9.21,-36.95
861,650679078,0.7290,-0.1621,-0.5308,45.06,9.82,-35.06
862,650683998,0.7437,-0.1250,-0.5229,47.99,10.24,-33.35
863,650688846,0.7529,-0.0967,-0.5239,50.12,10.91,-31.95
864,650693849,0.7588,-0.0913,-0.5122,51.52,11.10,-30.49
865,650698846,0.7642,-0.1001,-0.5151,52.50,11.34,-29.09
866,650703847,0.7896,-0.1113,-0.5107,52.62,11.46,-27.56
867,650708848,0.8101,-0.1182,-0.4897,52.20,11.83,-26.04
868,650713848,0.8179,-0.1196,-0.4897,51.10,11.77,-24.51
869,650718847,0.8740,-0.1030,-0.4951,49.51,11.65,-22.93
870,650723847,0.9004,-0.0854,-0.5024,47.68,11.34,-21.22
871,650728872,0.9248,-0.0771,-0.4980,45.55,10.91,-19.51
872,650733849,0.9390,-0.0767,-0.4927,43.05,10.43,-17.93
873,650738846,0.9487,-0.0859,-0.4971,40.61,9.70,-16.28
874,650744213,0.9414,-0.1021,-0.4834,37.87,9.21,-14.76
875,650749163,0.9341,-0.1060,-0.4834,35.49,8.72,-13.29
876,650754141,0.9551,-0.0923,-0.4800,33.05,8.23,-11.89
877,650758847,0.9692,-0.0801,-0.4756,30.91,7.87,-10.49
878,650764330,0.9355,-0.0933,-0.4790,29.21,7.62,-9.39
879,650768847,0.9644,-0.0781,-0.4600,27.56,7.26,-8.05
880,650773847,0.9634,-0.0806,-0.4653,26.52,7.13,-6.83
881,650778847,0.9487,-0.0830,-0.4727,26.04,7.01,-5.67
882,650783850,0.9507,-0.0933,-0.4614,26.10,7.01,-4.57
883,650789182,0.9497,-0.0903,-0.4531,26.71,7.01,-3.60
884,650793848,0.9453,-0.0967,-0.4663,27.87,6.95,-2.56
885,650798847,0.9668,-0.0830,-0.4624,29.33,6.95,-1.59
886,650803847,0.9521,-0.0918,-0.4551,31.22,6.95,-0.67
887,650808847,0.9438,-0.0928,-0.4487,33.23,7.07,-0.06
888,650813847,0.9639,-0.0796,-0.4507,35.24,7.01,0.43
889,650818847,0.9473,-0.0874,-0.4478,37.20,7.20,0.91
890,650823847,0.9297,-0.1045,-0.4365,38.96,7.38,1.46
891,650828847,0.9385,-0.1021,-0.4307,40.18,7.56,1.71
892,650834106,0.9399,-0.0996,-0.4321,41.28,7.68,1.83
893,650838849,0.9297,-0.1011,-0.4233,41.89,7.93,2.01
894,650843846,0.9341,-0.0933,-0.4233,41.95,8.23,2.20
895,650849128,0.9082,-0.0967,-0.4141,41.89,8.60,2.07
896,650853847,0.8926,-0.1104,-0.4175,41.16,8.90,2.07
897,650858847,0.8979,-0.1118,-0.4111,40.12,9.39,1.83
898,650863847,0.8926,-0.1045,-0.4043,38.66,9.82,1.52
899,650868847,0.8896,-0.1074,-0.4023,36.83,10.43,0.98
900,650873847,0.8594,-0.1079,-0.4067,34.76,10.79,0.61
901,650879321,0.8516,-0.1104,-0.4043,32.01,11.52,-0.06
902,650883847,0.8652,-0.0967,-0.3989,30.18,11.95,-0.73
903,650888847,0.8452,-0.0996,-0.3906,27.32,12.56,-1.77
904,650894151,0.8335,-0.1089,-0.3882,24.88,13.17,-2.62
905,650898848,0.8413,-0.1050,-0.3813,22.74,13.41,-3.29
906,650903847,0.8364,-0.1084,-0.3755,20.61,13.96,-4.15
907,650908849,0.8315,-0.1108,-0.3691,18.35,14.57,-5.18
908,650914087,0.8433,-0.1069,-0.3682,15.85,15.06,-6.16
909,650919228,0.8354,-0.1074,-0.3594,13.96,15.43,-7.07
910,650924089,0.8091,-0.1187,-0.3486,12.13,15.98,-7.99
911,650928848,0.8198,-0.1172,-0.3525,10.73,16.22,-8.72
912,650933847,0.8232,-0.1113,-0.3408,9.39,16.65,-9.51
913,650938868,0.8091,-0.1201,-0.3242,8.17,16.83,-10.49
914,650944020,0.8188,-0.1182,-0.3232,7.26,17.38,-11.46
915,650948847,0.8130,-0.1245,-0.3145,6.71,17.56,-12.01
916,650953912,0.8315,-0.1230,-0.3140,6.22,17.74,-12.80
917,650958979,0.8213,-0.1309,-0.3081,5.67,17.99,-13.72
918,650963847,0.8408,-0.1299,-0.3013,5.43,18.05,-14.27
919,650968846,0.8257,-0.1387,-0.2954,5.00,18.11,-15.06
920,650973847,0.8545,-0.1406,-0.2876,4.57,18.17,-15.61
921,650978847,0.8438,-0.1509,-0.2812,4.09,18.05,-16.04
922,650983846,0.8662,-0.1558,-0.2812,3.84,17.99,-16.59
923,650989040,0.8740,-0.1641,-0.2764,3.41,17.80,-16.95
924,650994092,0.8770,-0.1655,-0.2739,3.29,17.56,-17.32
925,650999061,0.8892,-0.1689,-0.2710,3.29,17.26,-17.56
926,651003866,0.8994,-0.1797,-0.2671,3.11,17.07,-17.74
927,651008847,0.8984,-0.1870,-0.2632,2.80,16.77,-17.99
928,651013847,0.8931,-0.2031,-0.2637,2.56,16.52,-17.99
929,651018847,0.9199,-0.2031,-0.2563,2.20,16.22,-17.80
930,651024035,0.9214,-0.2129,-0.2554,1.77,15.91,-17.87
931,651028847,0.9160,-0.2163,-0.2539,1.59,15.79,-17.68
932,651034071,0.9302,-0.2197,-0.2568,1.65,15.30,-17.44
933,651039241,0.9199,-0.2271,-0.2544,1.59,15.30,-17.20
934,651044025,0.9375,-0.2290,-0.2529,1.77,14.76,-16.83
935,651049030,0.9189,-0.2368,-0.2500,2.38,14.76,-16.34
936,651054096,0.9277,-0.2334,-0.2383,3.23,14.63,-15.98
937,651059154,0.9004,-0.2451,-0.2373,4.33,14.57,-15.55
938,651064155,0.9204,-0.2407,-0.2344,5.98,14.39,-14.94
939,651069137,0.9194,-0.2368,-0.2310,7.93,14.15,-14.27
940,651074023,0.9214,-0.2485,-0.2236,10.12,14.15,-13.72
941,651078847,0.9136,-0.2495,-0.2163,12.38,14.09,-12.74
942,651084196,0.9067,-0.2632,-0.2031,14.94,13.90,-11.83
943,651089176,0.9272,-0.2622,-0.1982,17.56,13.78,-10.67
944,651093847,0.8999,-0.2676,-0.1831,20.61,13.41,-9.57
945,651098846,0.9102,-0.2598,-0.1826,23.78,13.35,-8.41
946,651103846,0.8989,-0.2666,-0.1738,27.20,12.93,-7.20
947,651108847,0.8716,-0.2720,-0.1680,31.10,13.05,-6.04
948,651113847,0.8701,-0.2705,-0.1533,35.00,12.74,-4.82
949,651118846,0.8569,-0.2671,-0.1470,39.27,12.56,-3.54
950,651123845,0.8530,-0.2656,-0.1445,43.60,12.32,-2.32
951,651128847,0.8535,-0.2563,-0.1406,47.93,11.89,-1.10
952,651133847,0.8154,-0.2627,-0.1328,52.13,11.65,0.00
953,651138847,0.8286,-0.2495,-0.1230,56.04,11.40,1.22
954,651143847,0.7939,-0.2583,-0.1123,59.63,10.98,2.26
955,651148846,0.7876,-0.2603,-0.1143,62.68,10.67,3.29
956,651153847,0.7959,-0.2480,-0.0903,65.24,10.12,4.39
957,651158851,0.7710,-0.2515,-0.0918,67.32,9.82,5.55
958,651163847,0.7578,-0.2524,-0.0830,68.96,9.33,6.59
959,651168847,0.7710,-0.2437,-0.0728,70.30,8.84,7.80
960,651173847,0.7681,-0.2368,-0.0684,71.34,8.41,8.84
961,651178846,0.7388,-0.2363,-0.0703,72.62,7.68,10.12
962,651183847,0.7617,-0.2329,-0.0635,73.60,7.07,11.16
963,651188847,0.7759,-0.2261,-0.0664,74.45,6.28,12.20
964,651193846,0.7793,-0.2251,-0.0649,75.43,5.49,13.66
965,651198849,0.7812,-0.2246,-0.0659,75.79,4.63,14.88
966,651203848,0.7778,-0.2266,-0.0659,76.16,3.90,15.85
967,651208847,0.7612,-0.2314,-0.0698,76.10,3.11,17.07
968,651213846,0.7598,-0.2319,-0.0820,75.85,2.20,18.35
969,651218847,0.7773,-0.2344,-0.0718,75.06,1.34,19.51
970,651224187,0.8062,-0.2256,-0.0742,73.96,0.30,20.73
971,651229074,0.7842,-0.2329,-0.0806,72.68,-0.91,22.07
972,651234113,0.7852,-0.2358,-0.0903,70.85,-2.07,23.17
973,651239112,0.8135,-0.2261,-0.0884,68.90,-3.23,24.39
974,651244135,0.7944,-0.2324,-0.0957,66.65,-4.70,25.55
975,651248847,0.8062,-0.2344,-0.1021,64.15,-6.28,26.77
976,651253847,0.8169,-0.2329,-0.1089,61.34,-7.68,27.68
977,651259171,0.8193,-0.2319,-0.1167,58.17,-9.21,28.78
978,651264130,0.8120,-0.2383,-0.1187,54.70,-10.79,29.94
979,651268850,0.8115,-0.2402,-0.1250,50.30,-12.62,31.16
980,651273847,0.8140,-0.2373,-0.1328,47.32,-13.90,31.83
981,651278847,0.7974,-0.2388,-0.1372,43.48,-15.49,32.74
982,651283847,0.7920,-0.2427,-0.1426,39.63,-17.13,33.48
983,651288847,0.7876,-0.2505,-0.1558,35.91,-18.54,34.27
984,651293847,0.7891,-0.2559,-0.1636,32.56,-19.88,35.06
985,651298847,0.7837,-0.2637,-0.1694,29.39,-21.40,35.67
986,651304306,0.8071,-0.2632,-0.1714,26.16,-23.23,36.34
987,651309002,0.8140,-0.2642,-0.1802,24.57,-24.27,36.71
988,651313847,0.7886,-0.2983,-0.2964,22.80,-25.85,37.38
989,651318847,0.8047,-0.3101,-0.5586,19.94,-29.02,37.80
990,651323847,0.8760,-0.2075,-0.3042,16.16,-29.94,37.20
991,651329773,0.8525,-0.2183,-0.3970,12.32,-29.94,35.91
992,651333847,0.8496,-0.2500,-0.3101,9.09,-31.28,35.43
993,651339165,0.8760,-0.2437,-0.3623,4.15,-32.38,35.00
994,651343849,0.8828,-0.2178,-0.4390,1.22,-31.40,34.76
995,651349093,0.8994,-0.2622,-0.3804,-2.20,-31.28,34.39
996,651354134,0.8701,-0.2920,-0.3208,-4.39,-31.52,34.02
997,651358847,0.8633,-0.3359,-0.4258,-5.67,-31.04,34.02
998,651363847,0.8418,-0.3389,-0.4082,-6.16,-30.49,33.78
999,651368847,0.7998,-0.3589,-0.3164,-5.49,-30.18,33.66
1000,651374075,0.7563,-0.3887,-0.3130,-3.84,-30.18,33.54
1001,651379098,0.7720,-0.3931,-0.3589,-1.59,-29.57,33.54
1002,651383848,0.7617,-0.3774,-0.3193,0.43,-29.15,33.54
1003,651388846,0.7500,-0.3965,-0.3003,3.23,-28.90,33.54
1004,651394119,0.7495,-0.4106,-0.3101,6.34,-28.23,33.66
1005,651398847,0.7622,-0.4287,-0.3345,8.17,-27.32,33.78
1006,651403847,0.7593,-0.4331,-0.3184,10.91,-26.46,33.96
1007,651408847,0.7808,-0.4277,-0.2949,13.35,-25.79,34.09
1008,651413845,0.7764,-0.4355,-0.3125,16.04,-24.70,34.21
1009,651418846,0.7993,-0.4312,-0.3345,18.60,-23.60,34.39
1010,651423847,0.8101,-0.4336,-0.3057,21.40,-22.74,34.70
1011,651428846,0.8149,-0.4336,-0.2954,24.21,-22.20,34.94
1012,651433848,0.8354,-0.4424,-0.3145,27.07,-21.28,35.49
1013,651438847,0.8477,-0.4468,-0.3140,29.51,-20.49,35.91
1014,651443846,0.8657,-0.4507,-0.2915,32.01,-20.18,36.40
1015,651448847,0.8784,-0.4492,-0.2930,34.57,-19.33,36.89
1016,651454159,0.8691,-0.4585,-0.3003,36.95,-18.84,37.38
1017,651458847,0.8760,-0.4507,-0.2856,39.33,-18.11,37.93
1018,651463847,0.8696,-0.4536,-0.2769,41.83,-17.56,38.23
1019,651469134,0.8755,-0.4507,-0.2778,44.33,-17.01,38.48
1020,651474107,0.8765,-0.4619,-0.2817,46.71,-16.40,38.72
1021,651478848,0.8657,-0.4736,-0.2769,49.27,-15.73,38.90
1022,651483847,0.9043,-0.4834,-0.2935,52.07,-14.88,38.84
1023,651489068,0.8872,-0.4976,-0.3096,54.45,-14.15,38.78
1024,651493847,0.8994,-0.4922,-0.3447,56.95,-13.05,38.29
1025,651498847,0.9209,-0.4893,-0.3828,58.90,-12.07,37.62
1026,651503847,0.9419,-0.4907,-0.4287,60.24,-10.85,36.77
1027,651508847,0.9468,-0.4771,-0.4536,60.73,-9.51,35.67
1028,651514062,0.9390,-0.4629,-0.4995,60.73,-7.62,34.27
1029,651519188,0.9082,-0.4590,-0.5229,59.94,-6.04,32.87
1030,651523847,0.8901,-0.4297,-0.5142,58.29,-3.96,31.10
1031,651529057,0.8843,-0.3960,-0.5122,55.55,-1.77,29.02
1032,651534028,0.8638,-0.3647,-0.5063,51.34,0.12,26.89
1033,651539118,0.8359,-0.3228,-0.4946,45.79,1.89,24.82
1034,651544083,0.8242,-0.2959,-0.4878,39.51,3.41,22.80
1035,651548961,0.8174,-0.3027,-0.4839,32.32,4.33,20.91
1036,651553847,0.7925,-0.3359,-0.4668,25.24,5.18,19.45
1037,651558846,0.7544,-0.3677,-0.4380,18.23,6.04,17.74
1038,651563847,0.7397,-0.4014,-0.4263,12.26,6.89,16.16
1039,651569160,0.7095,-0.4443,-0.3960,7.01,7.01,14.63
1040,651573847,0.6855,-0.4766,-0.3677,2.50,7.20,13.23
1041,651578848,0.6934,-0.4829,-0.3628,-1.52,7.20,11.65
1042,651583847,0.6860,-0.5034,-0.3379,-5.24,7.07,10.18
1043,651588847,0.6763,-0.5249,-0.3247,-9.02,6.89,8.72
1044,651593847,0.7061,-0.5415,-0.3047,-12.62,6.59,7.32
1045,651598847,0.7310,-0.5640,-0.2773,-16.04,6.28,6.10
1046,651604270,0.7598,-0.5791,-0.2705,-19.09,6.10,4.82
1047,651609081,0.7983,-0.5737,-0.2651,-21.89,5.49,3.54
1048,651613848,0.7979,-0.5923,-0.2686,-23.84,4.94,2.26
1049,651618846,0.8003,-0.5986,-0.2725,-25.18,4.27,1.16
1050,651623847,0.8296,-0.5972,-0.2852,-25.61,3.54,-0.12
1051,651628847,0.8184,-0.5894,-0.3022,-25.37,3.11,-1.40
1052,651634178,0.8140,-0.5801,-0.3105,-24.70,2.74,-2.80
1053,651639245,0.8022,-0.5605,-0.3389,-23.66,2.32,-4.21
1054,651643847,0.7964,-0.5415,-0.3555,-22.68,1.83,-5.55
1055,651648847,0.8071,-0.5156,-0.3730,-22.07,1.77,-6.89
1056,651653846,0.7910,-0.4995,-0.3896,-21.77,1.65,-8.35
1057,651659297,0.7861,-0.4727,-0.4067,-21.89,1.59,-9.82
1058,651664166,0.7920,-0.4595,-0.4199,-22.32,1.71,-10.85
1059,651668847,0.7739,-0.4492,-0.4282,-22.80,1.83,-11.95
1060,651673847,0.7935,-0.4346,-0.4277,-23.23,2.20,-13.05
1061,651678847,0.7954,-0.4375,-0.4316,-23.23,2.38,-14.09
1062,651683846,0.8120,-0.4316,-0.4253,-22.62,2.74,-15.06
1063,651688847,0.8022,-0.4375,-0.4268,-21.22,2.93,-15.85
1064,651693848,0.8213,-0.4380,-0.4233,-19.27,3.05,-16.71
1065,651698847,0.8032,-0.4453,-0.4175,-16.77,3.17,-17.38
1066,651703847,0.8076,-0.4458,-0.4106,-13.60,3.29,-18.05
1067,651708846,0.8091,-0.4463,-0.4092,-10.49,3.35,-18.60
1068,651713845,0.7959,-0.4453,-0.4058,-7.32,3.60,-19.09
1069,651718846,0.7988,-0.4497,-0.4028,-4.51,3.54,-19.45
1070,651723845,0.8115,-0.4468,-0.4009,-2.26,3.48,-19.82
1071,651728845,0.8164,-0.4521,-0.3926,-0.30,3.23,-19.57
1072,651733847,0.8174,-0.4502,-0.3867,1.28,3.11,-19.57
1073,651738847,0.8398,-0.4468,-0.3765,2.07,2.68,-19.39
1074,651743847,0.8413,-0.4478,-0.3706,2.56,2.50,-19.33
1075,651748846,0.8345,-0.4507,-0.3647,2.56,2.26,-19.21
1076,651753847,0.8438,-0.4341,-0.3599,2.26,1.89,-18.96
1077,651758846,0.8364,-0.4292,-0.3652,1.77,1.46,-18.96
1078,651763881,0.8535,-0.4136,-0.3540,0.98,0.85,-18.78
1079,651768846,0.8325,-0.4106,-0.3462,0.43,0.18,-18.54
1080,651773847,0.8354,-0.3970,-0.3506,-0.43,-0.30,-18.41
1081,651778846,0.8511,-0.3721,-0.3442,-0.85,-0.98,-18.17
1082,651784107,0.8315,-0.3721,-0.3394,-0.79,-1.77,-17.87
1083,651789079,0.8379,-0.3633,-0.3325,-0.49,-2.26,-17.38
1084,651793848,0.8223,-0.3613,-0.3286,-0.06,-2.80,-17.20
1085,651798846,0.8154,-0.3369,-0.3145,0.24,-3.29,-16.65
1086,651803847,0.8145,-0.3237,-0.3140,0.67,-4.09,-16.34
1087,651808847,0.8208,-0.3154,-0.3140,1.40,-4.76,-15.73
1088,651813848,0.7969,-0.3130,-0.3125,2.32,-5.55,-15.24
1089,651818847,0.7954,-0.3154,-0.3003,3.41,-6.16,-14.45
1090,651823847,0.7739,-0.3086,-0.2905,4.39,-6.59,-13.72
1091,651828847,0.7637,-0.3115,-0.2881,5.18,-7.26,-13.05
1092,651833847,0.7778,-0.3003,-0.2944,5.61,-7.62,-12.20
1093,651839132,0.7568,-0.2837,-0.2954,5.49,-8.17,-11.40
1094,651843847,0.7769,-0.2783,-0.2998,5.12,-8.41,-10.73
1095,651848846,0.7983,-0.2896,-0.3101,4.88,-8.72,-9.82
1096,651853847,0.8003,-0.2930,-0.3159,4.76,-9.21,-9.02
1097,651858847,0.8047,-0.3022,-0.3257,4.45,-9.57,-7.93
1098,651864302,0.8340,-0.2949,-0.3423,4.27,-9.94,-6.77
1099,651868847,0.8486,-0.2900,-0.3452,4.27,-10.43,-5.43
1100,651873846,0.8374,-0.3047,-0.3462,4.51,-10.67,-4.09
1101,651879225,0.8560,-0.3125,-0.3394,4.57,-10.98,-2.99
1102,651883847,0.8447,-0.3223,-0.3320,4.70,-11.16,-1.77
1103,651889385,0.8306,-0.3423,-0.3286,4.70,-11.16,-0.73
1104,651894210,0.8467,-0.3555,-0.3335,5.00,-11.28,0.37
1105,651898847,0.8267,-0.3726,-0.3408,5.37,-11.28,1.28
1106,651903847,0.8584,-0.3755,-0.3403,6.10,-11.22,2.13
1107,651909149,0.8618,-0.3872,-0.3604,6.83,-11.22,2.99
1108,651913847,0.8652,-0.3999,-0.3662,7.68,-11.22,3.84
1109,651918847,0.8633,-0.4053,-0.3750,8.35,-11.22,4.45
1110,651923846,0.8740,-0.4141,-0.3784,9.21,-10.98,5.12
1111,651928847,0.8682,-0.4185,-0.3857,9.70,-10.67,5.61
1112,651934093,0.8677,-0.4292,-0.3926,9.94,-10.49,6.04
1113,651939186,0.8638,-0.4282,-0.4004,9.82,-10.24,6.40
1114,651943847,0.8638,-0.4292,-0.4043,9.45,-9.70,6.65
1115,651948998,0.8599,-0.4331,-0.4067,8.96,-9.27,6.59
1116,651954180,0.8496,-0.4380,-0.4116,8.41,-8.41,6.46
1117,651959079,0.8579,-0.4292,-0.4238,7.44,-7.74,6.28
1118,651964128,0.8296,-0.4370,-0.4336,6.65,-6.95,5.79
1119,651968847,0.8501,-0.4238,-0.4399,5.49,-6.28,5.55
1120,651973846,0.8276,-0.4238,-0.4482,4.39,-5.49,5.00
1121,651979321,0.8164,-0.4180,-0.4517,3.17,-4.63,4.51
1122,651984216,0.8071,-0.4102,-0.4565,1.95,-3.90,3.90
1123,651988847,0.8101,-0.4058,-0.4556,0.98,-2.87,3.11
1124,651993848,0.7925,-0.4111,-0.4526,-0.24,-2.01,2.38
1125,651998847,0.7886,-0.4092,-0.4482,-1.16,-0.79,1.65
1126,652003847,0.7900,-0.3970,-0.4395,-2.07,0.06,0.79
1127,652008847,0.7651,-0.4028,-0.4448,-2.87,1.04,0.00
1128,652013847,0.7788,-0.3867,-0.4375,-3.66,1.95,-0.85
1129,652018847,0.7651,-0.3916,-0.4463,-4.27,2.87,-1.52
1130,652023847,0.7876,-0.3779,-0.4385,-4.94,3.78,-2.13
1131,652028846,0.7588,-0.3794,-0.4346,-5.67,4.45,-2.74
1132,652033852,0.7827,-0.3687,-0.4312,-6.46,4.94,-3.23
1133,652038851,0.7642,-0.3647,-0.4263,-7.38,5.55,-3.60
1134,652043847,0.7661,-0.3604,-0.4209,-8.54,6.10,-4.02
1135,652048846,0.7861,-0.3472,-0.4253,-9.33,6.22,-4.21
1136,652053847,0.7720,-0.3477,-0.4165,-10.55,6.59,-4.27
1137,652058847,0.7573,-0.3525,-0.4141,-11.89,6.71,-4.33
1138,652063847,0.7739,-0.3325,-0.4141,-13.11,6.83,-4.39
1139,652068846,0.7627,-0.3325,-0.4077,-14.45,6.95,-4.33
1140,652073848,0.7495,-0.3325,-0.4004,-15.61,7.01,-4.27
1141,652078909,0.7700,-0.3208,-0.3921,-16.77,6.71,-4.09
1142,652083847,0.7471,-0.3242,-0.3867,-17.87,6.65,-3.90
1143,652088847,0.7568,-0.3174,-0.3843,-18.23,6.40,-3.60
1144,652094067,0.7500,-0.3188,-0.3789,-18.54,6.04,-3.17
1145,652098847,0.7383,-0.3135,-0.3770,-18.66,5.67,-2.87
1146,652103873,0.7412,-0.3027,-0.3662,-18.48,5.37,-2.50
1147,652108847,0.7559,-0.2920,-0.3672,-17.99,4.63,-2.07
1148,652113847,0.7466,-0.2935,-0.3608,-17.56,4.15,-1.52
1149,652118849,0.7393,-0.2905,-0.3589,-17.01,3.23,-0.98
1150,652123846,0.7510,-0.2861,-0.3511,-16.77,2.26,-0.30
1151,652128848,0.7568,-0.2905,-0.3452,-16.52,0.85,0.55
1152,652133847,0.7388,-0.3013,-0.3379,-16.34,0.00,1.22
1153,652138847,0.7559,-0.3071,-0.3291,-16.40,-1.22,1.83
1154,652144232,0.7485,-0.3159,-0.3271,-16.34,-3.17,2.80
1155,652148847,0.7427,-0.3208,-0.3159,-16.46,-4.57,3.54
1156,652153849,0.7607,-0.3203,-0.3120,-16.59,-5.79,4.15
1157,652158847,0.7632,-0.3301,-0.3096,-16.83,-7.38,5.00
1158,652163847,0.7534,-0.3340,-0.3008,-17.13,-9.09,5.91
1159,652169039,0.7661,-0.3330,-0.2979,-17.50,-11.34,6.95
1160,652173847,0.7656,-0.3276,-0.2954,-17.99,-12.80,7.56
1161,652178847,0.7622,-0.3271,-0.2969,-18.35,-14.76,8.48
1162,652183847,0.7695,-0.3159,-0.2778,-18.60,-17.01,9.51
1163,652188847,0.7661,-0.3218,-0.2734,-18.78,-18.78,10.18
1164,652194026,0.7632,-0.3262,-0.2690,-18.84,-21.28,11.16
1165,652198849,0.7949,-0.3315,-0.2754,-18.72,-23.05,11.95
1166,652203848,0.7871,-0.3447,-0.2876,-18.60,-25.73,12.80
1167,652208849,0.7832,-0.3511,-0.2734,-18.54,-28.41,13.72
1168,652214103,0.7969,-0.3496,-0.2573,-18.54,-31.46,14.39
1169,652218847,0.7783,-0.3579,-0.2632,-18.60,-33.60,14.88
1170,652223847,0.7852,-0.3701,-0.2725,-18.72,-35.98,15.06
1171,652228848,0.7759,-0.3901,-0.2788,-18.78,-38.54,15.49
1172,652233847,0.7783,-0.3979,-0.2910,-18.84,-41.40,15.85
1173,652238847,0.7788,-0.3984,-0.3037,-18.78,-43.48,16.10
1174,652243847,0.7856,-0.3901,-0.3101,-18.60,-45.79,16.22
1175,652248846,0.7656,-0.3975,-0.3247,-18.11,-47.87,16.34
1176,652253847,0.7793,-0.3867,-0.3389,-17.56,-49.76,16.22
1177,652258848,0.7812,-0.3784,-0.3599,-16.95,-51.46,16.16
1178,652263847,0.7529,-0.3794,-0.3696,-16.04,-53.29,15.73
1179,652268847,0.7739,-0.3657,-0.3745,-15.12,-54.94,15.37
1180,652273846,0.7456,-0.3701,-0.3921,-14.09,-56.40,14.76
1181,652278847,0.7534,-0.3755,-0.3950,-12.99,-57.74,14.09
1182,652283918,0.7437,-0.3896,-0.4028,-11.65,-59.09,13.35
1183,652288847,0.7612,-0.3921,-0.4229,-10.06,-60.12,12.62
1184,652293847,0.7617,-0.3975,-0.4443,-8.23,-61.28,11.83
1185,652298847,0.7896,-0.4004,-0.4731,-6.28,-62.38,11.22
1186,652303846,0.7764,-0.4102,-0.4902,-4.57,-63.60,10.43
1187,652308847,0.7817,-0.4019,-0.5171,-3.17,-64.76,9.70
1188,652313845,0.8086,-0.3828,-0.5444,-2.62,-65.98,8.60
1189,652318846,0.7847,-0.3779,-0.5752,-2.99,-66.77,7.44
1190,652323847,0.7827,-0.3716,-0.6069,-4.02,-67.50,6.22
1191,652328845,0.7441,-0.3760,-0.6426,-6.04,-68.11,4.82
1192,652333846,0.7524,-0.3716,-0.6582,-8.72,-68.11,3.48
1193,652338847,0.7266,-0.3774,-0.6792,-12.26,-67.93,1.95
1194,652343846,0.7578,-0.3667,-0.7119,-16.22,-67.26,0.49
1195,652348848,0.7510,-0.3687,-0.7412,-20.24,-66.52,-1.04
1196,652353848,0.7471,-0.3691,-0.7734,-24.21,-65.55,-2.44
1197,652359158,0.7363,-0.3638,-0.8062,-27.87,-64.33,-3.78
1198,652363847,0.7593,-0.3560,-0.8403,-31.16,-63.11,-5.12
1199,652369026,0.7515,-0.3472,-0.8711,-34.45,-61.65,-6.28
1200,652373847,0.7554,-0.3281,-0.9014,-37.68,-60.24,-7.62
1201,652378849,0.7500,-0.3164,-0.9277,-41.16,-58.54,-9.15
1202,652383847,0.7256,-0.3154,-0.9536,-44.70,-56.59,-10.55
1203,652389071,0.7134,-0.3105,-0.9824,-48.41,-54.45,-12.13
1204,652393847,0.7207,-0.2886,-1.0068,-52.44,-52.20,-13.48
1205,652399043,0.7236,-0.2778,-1.0396,-56.71,-49.70,-14.82
1206,652403847,0.7192,-0.2705,-1.0649,-61.04,-46.83,-16.34
1207,652408849,0.7295,-0.2598,-1.1001,-65.18,-43.72,-17.62
1208,652413846,0.7344,-0.2461,-1.1201,-69.39,-40.61,-19.09
1209,652418846,0.7046,-0.2534,-1.1421,-73.23,-36.95,-20.49
1210,652423847,0.7144,-0.2471,-1.1641,-76.95,-33.29,-22.07
1211,652429161,0.6958,-0.2495,-1.1929,-80.24,-29.21,-23.35
1212,652433847,0.7056,-0.2573,-1.2114,-83.23,-25.37,-24.70
1213,652438847,0.7124,-0.2588,-1.2305,-85.67,-21.52,-25.79
1214,652443847,0.6929,-0.2686,-1.2393,-87.80,-17.44,-26.77
1215,652448846,0.7178,-0.2690,-1.2529,-89.76,-13.60,-27.44
1216,652453849,0.7271,-0.2837,-1.2671,-91.46,-9.88,-28.17
1217,652458847,0.7451,-0.2749,-1.2700,-93.17,-6.04,-28.66
1218,652463847,0.7197,-0.2783,-1.2754,-95.18,-2.26,-29.15
1219,652469042,0.7290,-0.2729,-1.2847,-97.50,1.52,-29.39
1220,652473847,0.7290,-0.2637,-1.2881,-100.37,5.73,-29.63
1221,652478847,0.7158,-0.2593,-1.2969,-103.84,9.76,-29.88
1222,652483846,0.7329,-0.2363,-1.2944,-107.87,13.90,-30.06
1223,652488847,0.6992,-0.2295,-1.2920,-112.87,18.11,-29.94
1224,652493847,0.7114,-0.2085,-1.2925,-118.66,22.44,-29.88
1225,652498847,0.6895,-0.1953,-1.2842,-125.00,27.07,-29.63
1226,652504229,0.6597,-0.1963,-1.2690,-133.23,32.44,-29.02
1227,652508847,0.6650,-0.1890,-1.2583,-139.02,36.16,-28.60
1228,652513894,0.6504,-0.1841,-1.2363,-146.10,40.85,-27.68
1229,652518847,0.6431,-0.1836,-1.2158,-153.05,45.30,-26.65
1230,652523847,0.6221,-0.1763,-1.1982,-159.51,49.94,-25.24
1231,652528847,0.6255,-0.1699,-1.1724,-165.18,54.33,-23.54
1232,652533853,0.6172,-0.1582,-1.1455,-169.94,58.66,-21.65
1233,652538846,0.6074,-0.1553,-1.1226,-173.96,62.74,-19.51
1234,652543846,0.5879,-0.1621,-1.0938,-177.01,66.83,-17.01
1235,652548893,0.6118,-0.1538,-1.0615,-179.21,70.85,-14.09
1236,652553846,0.5952,-0.1519,-1.0347,-180.37,74.70,-10.98
1237,652558846,0.5991,-0.1509,-1.0132,-180.79,78.54,-7.50
1238,652563849,0.6006,-0.1401,-0.9863,-180.49,82.32,-3.84
1239,652568847,0.5688,-0.1460,-0.9585,-179.57,84.15,0.06
1240,652573847,0.5864,-0.1353,-0.9380,-178.29,87.13,4.09
1241,652578849,0.5576,-0.1426,-0.9087,-176.65,91.16,8.29
1242,652583847,0.5596,-0.1372,-0.8765,-175.00,94.51,12.74
1243,652588847,0.5303,-0.1445,-0.8521,-173.48,97.68,17.20
1244,652593847,0.5298,-0.1348,-0.8169,-172.07,100.79,21.65
1245,652598847,0.5195,-0.1465,-0.7905,-170.98,103.66,26.22
1246,652603847,0.5044,-0.1475,-0.7544,-170.00,106.71,30.73
1247,652608846,0.4868,-0.1626,-0.7275,-169.57,109.70,35.18
1248,652613847,0.4692,-0.1689,-0.6895,-169.33,112.50,39.70
1249,652618847,0.4482,-0.1816,-0.6597,-169.27,115.67,44.02
1250,652623847,0.4546,-0.1904,-0.6284,-169.21,118.48,48.48
1251,652629467,0.4478,-0.1973,-0.5850,-168.96,122.13,53.60
1252,652633847,0.4180,-0.2178,-0.5615,-168.66,124.33,57.13
1253,652638848,0.4219,-0.2178,-0.5186,-167.93,126.95,61.34
1254,652643847,0.4126,-0.2280,-0.4790,-166.46,130.55,66.40
1255,652648847,0.3906,-0.2256,-0.4458,-164.82,133.23,70.43
1256,652654260,0.3804,-0.2261,-0.4072,-162.93,135.91,74.63
1257,652658847,0.3599,-0.2319,-0.3765,-160.67,138.60,78.78
1258,652664080,0.3442,-0.2275,-0.3491,-157.99,141.16,82.99
1259,652668847,0.3398,-0.2295,-0.3184,-155.18,143.84,87.87
1260,652673847,0.3237,-0.2354,-0.2861,-152.44,146.40,91.22
1261,652678847,0.3242,-0.2383,-0.2471,-149.15,149.21,95.43
1262,652683847,0.3008,-0.2476,-0.2061,-145.67,151.83,99.82
1263,652688845,0.2915,-0.2446,-0.1821,-142.13,154.63,103.96
1264,652693847,0.2876,-0.2476,-0.1440,-138.29,157.20,108.11
1265,652698846,0.2681,-0.2466,-0.1069,-134.27,159.88,112.32
1266,652704197,0.2729,-0.2495,-0.0889,-130.00,162.50,116.40
1267,652708847,0.2617,-0.2554,-0.0562,-125.61,165.18,120.24
1268,652713847,0.2617,-0.2632,-0.0254,-121.16,167.56,124.27
1269,652718849,0.2539,-0.2754,0.0059,-116.46,170.18,128.23
1270,652723847,0.2646,-0.2759,0.0361,-111.95,172.68,131.83
1271,652728847,0.2256,-0.2871,0.0674,-107.56,175.30,135.49
1272,652733847,0.2329,-0.2900,0.0972,-103.35,177.80,138.96
1273,652738846,0.2031,-0.2993,0.1235,-99.21,180.37,142.44
1274,652743848,0.2197,-0.2944,0.1553,-95.18,183.23,145.61
1275,652748848,0.2021,-0.2983,0.1860,-91.40,185.91,148.72
1276,652753847,0.1929,-0.3057,0.2065,-87.99,188.78,151.83
1277,652758847,0.1816,-0.3027,0.2290,-85.12,191.59,154.94
1278,652764174,0.1602,-0.3193,0.2700,-82.68,194.21,158.05
1279,652768847,0.1479,-0.3071,0.2939,-80.61,197.13,161.04
1280,652774151,0.1592,-0.3076,0.3179,-78.90,199.70,163.96
1281,652778847,0.1606,-0.3257,0.3447,-77.50,202.20,166.95
1282,652783849,0.1538,-0.3516,0.3579,-76.40,204.57,170.30
1283,652788850,0.1592,-0.3794,0.3936,-75.30,206.59,173.35
1284,652793846,0.1753,-0.3940,0.4165,-74.27,208.90,176.46
1285,652798847,0.1719,-0.4219,0.4438,-73.29,210.49,179.63
1286,652804086,0.1851,-0.4019,0.4849,-71.89,212.32,182.50
1287,652808847,0.1714,-0.4395,0.4990,-70.12,213.90,185.24
1288,652814086,0.1128,-0.4702,0.5083,-68.11,215.24,188.05
1289,652818848,0.0874,-0.4771,0.5283,-66.10,216.40,190.85
1290,652823846,0.0654,-0.4951,0.5581,-64.33,217.26,193.60
1291,652828847,0.0762,-0.4985,0.5698,-62.87,217.99,196.59
1292,652833847,0.0361,-0.5186,0.5879,-61.52,218.35,199.45
1293,652838847,0.0107,-0.5317,0.6079,-60.67,218.54,202.50
1294,652843848,0.0054,-0.5444,0.6255,-59.82,218.72,205.61
1295,652848847,-0.0254,-0.5669,0.6421,-59.27,218.35,208.84
1296,652853847,-0.0210,-0.5801,0.6660,-58.60,217.80,212.13
1297,652858847,-0.0332,-0.5918,0.6660,-58.11,216.83,215.37
1298,652864171,-0.0405,-0.6221,0.7471,-57.62,215.61,218.84
1299,652868847,-0.0703,-0.6548,0.7646,-56.46,214.39,222.44
1300,652874152,-0.0591,-0.6528,0.8032,-54.51,212.87,225.91
1301,652878847,-0.0269,-0.7188,0.8667,-52.44,211.10,229.39
1302,652883847,0.0308,-0.7886,0.9097,-49.45,209.15,233.11
1303,652888847,-0.0210,-0.7910,0.9609,-45.30,206.95,236.77
1304,652893847,-0.0742,-0.8086,1.0122,-40.00,204.02,240.18
1305,652898847,-0.1172,-0.8071,1.0669,-33.72,201.04,243.72
1306,652903846,-0.1582,-0.8120,1.0972,-26.52,197.50,246.95
1307,652908847,-0.1777,-0.7993,1.1450,-19.09,193.84,249.82
1308,652913847,-0.2368,-0.8184,1.1748,-11.89,189.94,252.50
1309,652918846,-0.3086,-0.8394,1.1987,-6.04,185.61,255.12
1310,652923846,-0.3101,-0.8315,1.2246,-2.50,180.67,257.56
1311,652928847,-0.3057,-0.8408,1.3052,0.06,176.10,260.00
1312,652933847,-0.3745,-0.8579,1.2925,2.44,171.59,262.50
1313,652938847,-0.3911,-0.9243,1.2964,3.96,165.98,264.88
1314,652943847,-0.3867,-0.9829,1.3525,5.73,159.57,267.50
1315,652948848,-0.4326,-1.0308,1.4023,8.05,152.80,270.55
1316,652953847,-0.5010,-1.0708,1.4468,11.28,145.30,273.35
1317,652958847,-0.5601,-1.0908,1.5039,14.94,137.26,276.28
1318,652963847,-0.5713,-1.1055,1.5415,18.78,128.90,278.96
1319,652968847,-0.6021,-1.1191,1.5830,22.07,120.12,281.46
1320,652973847,-0.6470,-1.1323,1.6509,24.82,110.43,283.90
1321,652978847,-0.7246,-1.1567,1.7188,26.83,100.18,286.10
1322,652983846,-0.8120,-1.1685,1.7710,27.80,88.96,288.23
1323,652988847,-0.8774,-1.2041,1.8584,27.87,78.11,290.30
1324,652993847,-0.9985,-1.2671,1.9365,26.59,66.28,292.50
1325,652999266,-1.1182,-1.3740,2.0840,23.90,51.52,295.55
1326,653003847,-1.2305,-1.3950,2.1558,22.13,41.16,297.68
1327,653008847,-1.2700,-1.4331,2.2310,20.55,27.20,300.18
1328,653013846,-1.2305,-1.4292,2.2876,20.67,11.95,302.87
1329,653018846,-1.2422,-1.4570,2.3501,23.41,-4.94,305.12
1330,653023867,-1.2285,-1.5083,2.4639,29.57,-23.41,307.62
1331,653028845,-1.2690,-1.5664,2.5898,39.21,-43.23,310.24
1332,653034268,-1.3560,-1.6509,2.7520,54.57,-68.54,313.66
1333,653038847,-1.4390,-1.6914,2.8604,66.65,-86.22,315.67
1334,653043847,-1.5098,-1.7388,3.0020,82.44,-109.02,318.17
1335,653048848,-1.6655,-1.8262,3.0903,98.23,-132.32,320.49
1336,653053847,-1.8228,-1.9126,3.2026,113.66,-157.13,322.68
1337,653058847,-1.9253,-1.9673,3.3232,130.55,-188.48,324.82
1338,653063847,-2.0073,-2.0229,3.4092,140.98,-215.98,325.91
1339,653069175,-2.1040,-2.0786,3.4399,149.51,-244.76,326.40
1340,653073847,-2.2114,-2.1372,3.4961,155.91,-274.88,326.65
1341,653078847,-2.3218,-2.1924,3.5391,161.10,-306.40,326.10
1342,653083847,-2.4316,-2.2598,3.5420,165.61,-338.84,325.43
1343,653088847,-2.5767,-2.3418,3.5269,170.55,-371.83,324.57
1344,653093847,-2.7280,-2.4297,3.5142,176.46,-405.18,323.66
1345,653098847,-2.8496,-2.5234,3.4673,183.54,-438.96,322.87
1346,653103846,-2.9380,-2.6172,3.3813,191.40,-472.32,322.20
1347,653108847,-3.1133,-2.7500,3.3174,200.79,-505.37,321.95
1348,653113847,-3.2593,-2.9160,3.2104,210.12,-537.62,322.50
1349,653118847,-3.3926,-3.0728,3.0659,218.78,-569.39,323.29
1350,653123847,-3.4722,-3.2275,2.8950,227.74,-600.12,324.70
1351,653128846,-3.5854,-3.4155,2.7163,236.95,-629.82,326.52
1352,653133847,-3.6475,-3.5928,2.5244,245.79,-658.35,328.96
1353,653138846,-3.6348,-3.7271,2.2974,253.72,-685.24,331.83
1354,653143847,-3.7622,-3.9097,2.1401,260.98,-710.12,334.88
1355,653148847,-3.8545,-4.0156,1.9644,266.04,-732.32,337.93
1356,653153893,-3.9336,-4.0376,1.7900,267.07,-751.65,339.70
1357,653158847,-3.9902,-3.9937,1.6123,262.20,-768.05,339.33
1358,653163847,-3.9570,-3.9263,1.4575,249.88,-781.89,335.98
1359,653169093,-3.8594,-4.2598,1.4321,230.24,-792.68,329.82
1360,653173847,-3.4521,-4.2437,1.0249,210.00,-797.38,326.28
1361,653179178,-3.3906,-3.7510,0.6372,193.17,-799.94,320.37
1362,653183847,-3.7124,-3.2202,0.1694,175.37,-799.33,309.70
1363,653189068,-3.7979,-3.0645,-0.1157,149.94,-797.26,293.90
1364,653193846,-3.7378,-3.0483,-0.2700,116.71,-791.04,274.51
1365,653199027,-3.5884,-3.1372,-0.4766,77.13,-781.77,251.77
1366,653203847,-3.4248,-3.1919,-0.7788,34.51,-768.66,225.79
1367,653208846,-3.3950,-3.1484,-1.0850,-8.05,-752.74,195.79
1368,653213847,-3.2954,-3.0581,-1.3872,-48.05,-734.82,161.77
1369,653218845,-3.1553,-2.9033,-1.6274,-82.93,-711.89,123.72
1370,653223847,-2.9531,-2.7588,-1.8730,-110.67,-684.45,82.38
1371,653228847,-2.7148,-2.6304,-2.2119,-128.78,-654.09,40.00
1372,653233846,-2.5981,-2.5205,-2.4790,-138.66,-622.07,-2.01
1373,653238847,-2.5391,-2.4062,-2.6260,-142.26,-589.76,-42.20
1374,653243847,-2.3501,-2.2544,-2.6538,-141.04,-556.65,-80.00
1375,653249046,-2.1572,-2.1055,-2.6909,-134.57,-521.34,-114.70
1376,653253847,-2.0186,-1.9624,-2.7188,-123.84,-484.94,-145.85
1377,653258847,-1.8740,-1.8262,-2.7197,-110.43,-447.56,-172.93
1378,653263851,-1.6636,-1.6543,-2.6963,-94.45,-402.56,-200.30
1379,653268847,-1.4624,-1.5059,-2.7090,-85.00,-372.26,-215.55
1380,653273847,-1.2812,-1.3652,-2.6665,-74.82,-334.94,-231.59
1381,653278847,-1.2129,-1.2402,-2.6284,-65.30,-297.87,-244.09
1382,653283847,-1.0767,-1.1099,-2.5713,-56.04,-261.83,-253.90
1383,653289242,-1.0044,-0.9854,-2.5073,-46.95,-226.83,-260.85
1384,653293847,-0.8735,-0.8291,-2.4375,-37.01,-193.60,-265.18
1385,653299207,-0.7783,-0.7178,-2.3672,-26.77,-162.26,-267.87
1386,653303847,-0.6870,-0.6548,-2.3193,-15.37,-132.99,-268.17
1387,653308846,-0.5420,-0.5923,-2.2637,-3.29,-106.28,-266.65
1388,653313847,-0.4873,-0.5605,-2.1846,9.45,-81.22,-263.35
1389,653318849,-0.3989,-0.5234,-2.1333,22.80,-58.41,-258.60
1390,653323847,-0.3164,-0.4790,-2.0254,36.40,-37.20,-252.74
1391,653328847,-0.2461,-0.4473,-1.9043,49.39,-17.62,-245.73
1392,653334351,-0.1592,-0.4409,-1.7485,63.11,4.02,-236.34
1393,653338849,-0.1104,-0.4243,-1.6514,70.49,17.01,-229.45
1394,653343847,0.0073,-0.3921,-1.5391,78.17,31.83,-220.98
1395,653348847,0.0586,-0.3662,-1.4331,83.54,45.30,-212.26
1396,653353847,0.0825,-0.3540,-1.3530,86.77,57.13,-203.48
1397,653359313,0.1152,-0.3267,-1.2646,88.72,69.45,-192.93
1398,653363847,0.1738,-0.2979,-1.2285,88.96,76.77,-186.04
1399,653368847,0.2124,-0.2759,-1.1792,88.23,84.94,-177.50
1400,653374115,0.2344,-0.2480,-1.1104,86.04,92.62,-167.87
1401,653378847,0.2407,-0.2344,-1.0591,83.66,97.44,-161.71
1402,653384058,0.2842,-0.2183,-0.9795,78.60,103.84,-152.93
1403,653388847,0.3115,-0.2012,-0.9204,74.09,107.56,-147.38
1404,653393847,0.3608,-0.1621,-0.8120,65.55,112.50,-139.63
1405,653398847,0.3608,-0.1387,-0.7485,58.78,115.30,-134.70
1406,653403847,0.3652,-0.1318,-0.6606,50.00,118.35,-129.02
1407,653408847,0.4033,-0.1113,-0.5850,40.79,120.98,-123.54
1408,653413846,0.4092,-0.0903,-0.4956,31.65,122.87,-118.35
1409,653418847,0.4141,-0.0879,-0.4277,22.74,124.39,-113.29
1410,653424119,0.4482,-0.0757,-0.3516,12.87,125.37,-107.32
1411,653428847,0.4634,-0.0781,-0.3057,7.26,125.55,-103.23
1412,653434043,0.4937,-0.0615,-0.2495,0.06,125.12,-97.26
1413,653438847,0.4956,-0.0586,-0.2075,-3.90,124.45,-93.35
1414,653443846,0.4937,-0.0688,-0.1553,-7.99,123.11,-88.23
1415,653448847,0.5098,-0.0669,-0.0957,-12.01,120.85,-82.38
1416,653453847,0.5200,-0.0659,-0.0688,-13.96,119.21,-78.54
1417,653458848,0.5308,-0.0664,-0.0405,-16.10,116.83,-73.90
1418,653463847,0.5498,-0.0586,-0.0015,-17.99,113.05,-68.29
1419,653469109,0.5469,-0.0537,0.0239,-19.02,109.82,-63.90
1420,653473848,0.5615,-0.0571,0.0503,-19.94,106.16,-59.82
1421,653478847,0.5771,-0.0439,0.0811,-20.37,102.56,-55.85
1422,653483847,0.5664,-0.0508,0.1001,-20.67,98.84,-51.95
1423,653489009,0.5884,-0.0366,0.1313,-20.85,95.06,-48.54
1424,653493847,0.5928,-0.0312,0.1665,-21.16,91.28,-45.43
1425,653498847,0.6084,-0.0376,0.1919,-21.59,88.29,-42.74
1426,653503849,0.6396,-0.0396,0.2129,-22.56,85.18,-40.12
1427,653509195,0.6182,-0.0640,0.2075,-23.96,81.95,-37.74
1428,653513847,0.6299,-0.0527,0.2505,-25.12,78.41,-35.49
1429,653518845,0.6562,-0.0752,0.2754,-26.83,75.18,-33.48
1430,653523846,0.6836,-0.0879,0.3071,-29.09,72.44,-31.65
1431,653528847,0.6836,-0.0967,0.3257,-32.26,69.76,-29.88
1432,653533845,0.6899,-0.1108,0.3237,-36.22,67.20,-28.11
1433,653538849,0.7109,-0.1230,0.3262,-40.91,64.45,-26.22
1434,653543847,0.7217,-0.1299,0.3291,-46.46,61.65,-24.45
1435,653548847,0.6919,-0.1558,0.3325,-52.38,58.60,-22.74
1436,653554110,0.7148,-0.1553,0.3281,-58.78,55.61,-20.79
1437,653558847,0.7349,-0.1577,0.3433,-65.30,52.56,-18.90
1438,653564446,0.7476,-0.1704,0.3462,-71.71,49.27,-16.89
1439,653568847,0.7563,-0.1777,0.3569,-78.11,46.28,-15.06
1440,653574243,0.7534,-0.1938,0.3667,-84.02,43.35,-13.17
1441,653578847,0.7632,-0.2007,0.3701,-89.82,40.49,-11.28
1442,653583847,0.7852,-0.2012,0.3696,-94.88,37.74,-9.57
1443,653589235,0.7979,-0.2075,0.3701,-99.51,35.30,-7.74
1444,653593847,0.8047,-0.2148,0.3828,-103.48,32.80,-6.22
1445,653598847,0.7983,-0.2261,0.3682,-106.71,30.24,-4.51
1446,653604242,0.7944,-0.2432,0.3604,-109.21,28.17,-2.74
1447,653608847,0.8115,-0.2334,0.3628,-110.85,25.85,-1.16
1448,653613847,0.8330,-0.2432,0.3579,-112.01,23.90,0.30
1449,653618847,0.8179,-0.2632,0.3506,-112.50,21.95,1.77
1450,653623847,0.8530,-0.2593,0.3486,-112.62,19.70,3.17
1451,653628848,0.8335,-0.2817,0.3467,-112.50,17.99,4.45
1452,653634000,0.8228,-0.3047,0.3413,-112.38,15.85,5.85
1453,653638847,0.8428,-0.3174,0.3354,-112.38,13.96,7.20
1454,653643847,0.8398,-0.3311,0.3286,-112.50,11.89,8.54
1455,653648846,0.8291,-0.3530,0.3315,-112.93,9.57,9.94
1456,653653847,0.8271,-0.3667,0.3311,-113.72,7.68,11.34
1457,653659052,0.8154,-0.3809,0.3354,-114.57,5.61,12.68
1458,653663847,0.8374,-0.3877,0.3428,-115.67,3.54,13.84
1459,653669165,0.8345,-0.3989,0.3354,-117.01,1.46,15.06
1460,653673847,0.8472,-0.4160,0.3374,-118.41,-0.55,16.28
1461,653679260,0.8667,-0.4351,0.3369,-120.18,-2.68,17.44
1462,653683847,0.9219,-0.4756,0.3413,-122.68,-5.49,19.09
1463,653688847,0.9126,-0.4673,0.3320,-124.82,-6.95,20.12
1464,653693849,0.8970,-0.4404,0.3198,-127.56,-9.21,21.34
1465,653698846,0.8804,-0.4287,0.3228,-130.06,-11.34,22.50
1466,653704167,0.9082,-0.4619,0.3335,-132.56,-13.29,23.66
1467,653708847,0.8994,-0.4644,0.3159,-135.12,-15.37,25.12
1468,653713847,0.9570,-0.4536,0.2368,-137.62,-17.62,26.46
1469,653718846,0.9453,-0.4424,0.2490,-140.12,-20.18,27.87
1470,653723938,0.8994,-0.4360,0.2710,-142.38,-22.50,29.39
1471,653728846,0.8613,-0.4219,0.2197,-144.33,-24.76,30.85
1472,653734037,0.8760,-0.4062,0.1899,-146.10,-27.20,32.26
1473,653738847,0.8696,-0.4141,0.2275,-147.38,-29.51,33.78
1474,653743849,0.8438,-0.4048,0.2183,-148.17,-31.77,35.30
1475,653748846,0.8462,-0.3911,0.1851,-148.90,-34.02,36.77
1476,653753847,0.8345,-0.3750,0.1685,-149.39,-36.46,38.17
1477,653758847,0.8198,-0.3281,0.1963,-150.12,-38.84,39.33
1478,653764082,0.8350,-0.3262,0.1870,-151.34,-41.52,40.85
1479,653768928,0.8506,-0.3179,0.1255,-152.20,-43.54,41.46
1480,653773847,0.8032,-0.3213,0.1714,-153.05,-45.79,42.74
1481,653778847,0.7983,-0.3257,0.2065,-153.54,-47.80,44.09
1482,653784046,0.8091,-0.2852,0.1582,-155.00,-50.24,45.49
1483,653788847,0.8335,-0.2378,0.0659,-156.89,-52.26,46.34
1484,653794208,0.8438,-0.2563,0.0889,-160.00,-54.82,47.87
1485,653798847,0.8086,-0.2227,0.1616,-162.07,-56.04,48.66
1486,653803847,0.7812,-0.2524,0.0850,-164.94,-58.23,50.24
1487,653808846,0.7876,-0.2920,0.0430,-168.11,-60.55,51.95
1488,653813845,0.7739,-0.3101,0.0986,-171.77,-62.56,53.96
1489,653818849,0.7598,-0.3286,0.0796,-175.61,-64.33,55.91
1490,653823846,0.7622,-0.3125,0.0010,-179.76,-66.83,58.23
1491,653828845,0.7329,-0.3022,0.0034,-184.21,-69.21,60.61
1492,653833847,0.6924,-0.3062,0.0488,-188.90,-71.34,62.80
1493,653838847,0.6689,-0.3145,0.0391,-193.66,-73.11,65.06
1494,653843847,0.6470,-0.3369,-0.0044,-198.35,-74.88,67.26
1495,653848847,0.6172,-0.3613,0.0161,-203.17,-76.46,69.39
1496,653853847,0.6167,-0.3779,0.0386,-208.05,-77.44,71.40
1497,653859022,0.6074,-0.3770,0.0190,-213.78,-78.78,73.35
1498,653863847,0.5776,-0.3833,-0.0405,-218.17,-79.76,74.82
1499,653869045,0.5566,-0.3696,-0.0513,-222.26,-80.67,76.04
1500,653873847,0.5381,-0.3564,-0.0356,-226.04,-81.65,76.89
1501,653878847,0.5396,-0.3535,-0.0669,-229.57,-82.13,77.20
1502,653883847,0.5532,-0.3706,-0.1196,-232.38,-82.87,77.50
1503,653888847,0.5532,-0.4023,-0.1260,-234.94,-83.72,77.87
1504,653894156,0.5376,-0.4453,-0.1353,-237.26,-84.57,78.29
1505,653898847,0.5376,-0.4800,-0.1831,-239.02,-85.37,78.96
1506,653904118,0.5249,-0.4990,-0.2246,-240.30,-86.34,79.76
1507,653908847,0.5103,-0.5146,-0.2314,-241.16,-87.44,80.61
1508,653914002,0.5020,-0.5239,-0.2456,-241.65,-88.41,81.46
1509,653918847,0.4907,-0.5317,-0.2832,-241.89,-89.33,82.20
1510,653923847,0.4932,-0.5376,-0.2993,-241.71,-89.63,82.93
1511,653929105,0.4878,-0.5464,-0.3037,-241.34,-90.30,83.66
1512,653933847,0.4717,-0.5635,-0.3242,-240.85,-90.61,83.66
1513,653939310,0.4761,-0.5889,-0.3618,-240.06,-90.79,84.15
1514,653943847,0.4653,-0.5986,-0.3765,-238.96,-90.85,84.63
1515,653948847,0.4824,-0.5986,-0.3867,-237.74,-90.85,86.52
1516,653953847,0.4658,-0.6050,-0.4048,-236.10,-90.73,87.62
1517,653958847,0.4507,-0.6162,-0.4116,-234.21,-90.55,87.32
1518,653963856,0.4604,-0.6226,-0.4233,-231.89,-90.30,87.62
1519,653968847,0.4497,-0.6353,-0.4331,-229.09,-89.82,89.51
1520,653973847,0.4653,-0.6328,-0.4536,-225.67,-89.21,91.10
1521,653978847,0.4404,-0.6377,-0.4780,-221.89,-88.78,92.50
1522,653983847,0.4473,-0.6250,-0.4863,-217.68,-88.11,93.78
1523,653989186,0.4434,-0.6123,-0.4927,-213.11,-87.32,94.94
1524,653993847,0.4204,-0.6084,-0.4990,-208.11,-86.52,96.04
1525,653998847,0.3975,-0.6133,-0.5137,-202.74,-85.73,97.01
1526,654003847,0.3843,-0.6099,-0.5234,-197.20,-84.94,98.05
1527,654008847,0.3750,-0.6045,-0.5278,-191.59,-84.39,98.96
1528,654013850,0.3735,-0.5898,-0.5366,-185.91,-83.78,99.76
1529,654018848,0.3613,-0.5850,-0.5391,-180.37,-83.48,100.79
1530,654023847,0.3721,-0.5923,-0.5488,-174.94,-83.35,101.83
1531,654028847,0.4185,-0.6011,-0.5732,-169.76,-83.48,103.11
1532,654033847,0.4492,-0.6152,-0.5811,-164.70,-84.09,104.82
1533,654038847,0.4629,-0.6406,-0.5977,-160.30,-84.82,106.89
1534,654043850,0.5010,-0.6562,-0.6016,-156.52,-85.91,108.96
1535,654048913,0.5283,-0.6543,-0.5962,-153.23,-86.95,111.40
1536,654053846,0.5190,-0.6475,-0.5938,-150.37,-87.62,113.60
1537,654058847,0.4912,-0.6470,-0.6001,-147.74,-88.29,115.67
1538,654063847,0.4839,-0.6436,-0.6123,-145.24,-88.78,117.62
1539,654068847,0.4829,-0.6279,-0.6260,-142.56,-89.57,119.39
1540,654073848,0.4678,-0.6211,-0.6377,-139.57,-89.82,121.04
1541,654078847,0.4277,-0.6152,-0.6421,-136.71,-90.06,122.56
1542,654083846,0.4067,-0.6138,-0.6499,-133.78,-90.37,123.78
1543,654088847,0.4082,-0.5962,-0.6475,-131.04,-90.49,124.76
1544,654093847,0.3579,-0.5952,-0.6558,-128.48,-90.43,125.67
1545,654098847,0.3320,-0.5952,-0.6655,-125.79,-90.43,126.52
1546,654103847,0.3398,-0.5967,-0.6875,-122.87,-90.61,127.62
1547,654108847,0.3340,-0.6152,-0.6987,-121.16,-90.85,128.60
1548,654113846,0.3521,-0.6113,-0.7148,-119.27,-91.46,129.82
1549,654118849,0.3301,-0.6182,-0.7163,-117.56,-91.65,131.04
1550,654123845,0.3140,-0.6250,-0.7246,-116.22,-91.89,132.50
1551,654128845,0.3140,-0.6328,-0.7324,-114.94,-91.89,133.96
1552,654133845,0.3203,-0.6250,-0.7446,-114.02,-92.01,135.37
1553,654138847,0.2910,-0.6392,-0.7471,-113.11,-91.71,136.83
1554,654143847,0.2861,-0.6284,-0.7480,-112.44,-91.77,138.29
1555,654148847,0.2715,-0.6323,-0.7539,-111.77,-91.40,139.88
1556,654153847,0.2725,-0.6191,-0.7524,-110.79,-91.04,141.10
1557,654158847,0.2319,-0.6172,-0.7578,-110.00,-90.67,142.50
1558,654164018,0.2178,-0.6084,-0.7637,-108.72,-90.18,143.35
1559,654168847,0.2144,-0.5898,-0.7607,-107.32,-89.82,144.21
1560,654173848,0.1870,-0.5850,-0.7480,-105.30,-89.33,145.12
1561,654178847,0.1479,-0.5791,-0.7471,-102.80,-88.90,145.91
1562,654183847,0.1357,-0.5796,-0.7441,-99.45,-88.48,146.83
1563,654188848,0.1367,-0.5718,-0.7368,-95.24,-88.23,147.74
1564,654193847,0.1333,-0.5645,-0.7363,-90.06,-88.17,148.78
1565,654198849,0.1309,-0.5522,-0.7432,-84.45,-88.11,149.94
1566,654203847,0.1162,-0.5415,-0.7480,-78.29,-88.23,150.91
1567,654208847,0.0894,-0.5430,-0.7612,-72.01,-88.35,151.95
1568,654213847,0.0688,-0.5542,-0.7720,-66.04,-88.11,152.62
1569,654219134,0.0669,-0.5498,-0.7739,-59.57,-87.80,153.66
1570,654223847,0.0430,-0.5654,-0.7964,-55.85,-87.44,154.33
1571,654229244,0.0479,-0.5776,-0.8145,-51.40,-86.89,155.55
1572,654233847,0.0586,-0.5815,-0.8198,-49.02,-86.52,156.46
1573,654238853,0.0513,-0.5908,-0.8296,-46.34,-85.67,157.68
1574,654243849,0.0469,-0.5918,-0.8345,-45.06,-85.24,158.72
1575,654248847,0.0200,-0.5996,-0.8389,-43.66,-84.63,160.24
1576,654253846,0.0181,-0.5928,-0.8325,-43.05,-84.21,161.40
1577,654258846,0.0005,-0.5884,-0.8320,-42.20,-83.72,162.99
1578,654263997,0.0098,-0.5781,-0.8198,-41.28,-83.41,164.51
1579,654268847,0.0054,-0.5654,-0.8032,-40.12,-83.48,166.16
1580,654273846,-0.0161,-0.5645,-0.7808,-38.41,-83.96,168.11
1581,654279050,-0.0352,-0.5698,-0.7896,-35.98,-84.51,169.88
1582,654283847,-0.0264,-0.5698,-0.8047,-33.17,-85.49,172.20
1583,654288846,-0.0322,-0.5654,-0.8101,-30.18,-86.52,174.45
1584,654293845,-0.0684,-0.5640,-0.8091,-27.13,-87.74,176.59
1585,654298846,-0.0776,-0.5542,-0.8135,-24.76,-88.48,178.54
1586,654303847,-0.0947,-0.5542,-0.8228,-22.99,-89.09,180.30
1587,654308846,-0.1265,-0.5615,-0.8354,-21.71,-89.45,182.01
1588,654313847,-0.1230,-0.5547,-0.8413,-20.91,-89.63,183.48
1589,654319083,-0.1606,-0.5566,-0.8599,-20.49,-89.70,184.82
1590,654323847,-0.1636,-0.5479,-0.8691,-20.18,-89.57,186.28
1591,654328845,-0.1841,-0.5508,-0.8765,-19.94,-89.70,187.26
1592,654333848,-0.2119,-0.5400,-0.8862,-19.33,-89.94,188.35
1593,654338847,-0.2339,-0.5366,-0.8833,-18.48,-90.00,189.33
1594,654344084,-0.2422,-0.5327,-0.8765,-17.20,-90.24,190.24
1595,654348847,-0.2617,-0.5278,-0.8623,-15.12,-90.73,191.46
1596,654353847,-0.2778,-0.5244,-0.8530,-12.38,-91.04,192.99
1597,654358847,-0.2881,-0.5332,-0.8486,-8.54,-91.59,194.63
1598,654363847,-0.3159,-0.5488,-0.8560,-3.96,-92.62,196.65
1599,654368847,-0.3276,-0.5356,-0.8530,1.16,-93.41,198.90
1600,654373847,-0.3628,-0.5322,-0.8506,6.59,-94.33,201.04
1601,654378847,-0.3950,-0.5332,-0.8569,12.01,-94.70,203.17
1602,654384163,-0.3984,-0.5269,-0.8447,16.95,-94.82,205.12
1603,654388847,-0.4219,-0.5273,-0.8525,21.22,-94.63,206.71
1604,654393847,-0.4404,-0.5273,-0.8555,24.63,-94.45,208.17
1605,654398846,-0.4771,-0.5352,-0.8501,27.50,-93.17,209.57
1606,654403847,-0.4775,-0.5352,-0.8604,29.51,-92.44,210.67
1607,654408845,-0.4858,-0.5361,-0.8604,31.28,-91.40,211.71
1608,654414203,-0.4829,-0.5205,-0.8701,32.50,-90.18,212.62
1609,654418849,-0.5127,-0.5229,-0.8647,33.72,-89.09,213.48
1610,654423846,-0.5220,-0.5234,-0.8662,35.00,-88.17,214.27
1611,654428845,-0.5400,-0.5278,-0.8628,36.65,-87.38,215.00
1612,654433845,-0.5571,-0.5293,-0.8765,38.66,-86.77,215.98
1613,654438847,-0.5869,-0.5273,-0.8750,40.91,-85.98,217.01
1614,654443847,-0.6006,-0.5122,-0.8672,43.17,-85.24,217.68
1615,654448849,-0.6045,-0.5117,-0.8711,45.37,-84.57,218.41
1616,654453846,-0.6304,-0.5195,-0.8696,47.56,-83.54,218.84
1617,654458861,-0.6274,-0.5190,-0.8662,49.27,-82.44,219.57
1618,654463846,-0.6470,-0.5283,-0.8662,50.73,-81.22,220.12
1619,654468847,-0.6860,-0.5327,-0.8628,51.89,-79.82,220.55
1620,654474230,-0.6816,-0.5366,-0.8667,52.68,-78.41,221.10
1621,654478847,-0.7100,-0.5386,-0.8608,53.29,-76.89,221.46
1622,654484107,-0.7046,-0.5347,-0.8618,53.66,-75.24,221.71
1623,654488847,-0.7090,-0.5410,-0.8604,53.90,-73.78,222.07
1624,654493847,-0.7104,-0.5371,-0.8594,54.51,-72.20,222.44
1625,654498847,-0.7324,-0.5483,-0.8564,55.30,-70.61,222.80
1626,654504151,-0.7441,-0.5366,-0.8447,56.52,-69.09,223.05
1627,654508847,-0.7461,-0.5312,-0.8428,58.41,-67.50,223.29
1628,654513847,-0.7466,-0.5347,-0.8418,61.22,-65.43,223.48
1629,654518983,-0.7720,-0.5322,-0.8511,63.23,-63.90,223.48
1630,654523850,-0.7573,-0.5215,-0.8511,66.34,-61.10,223.11
1631,654528847,-0.7842,-0.5229,-0.8560,68.35,-59.02,222.68
1632,654534044,-0.7744,-0.5146,-0.8589,70.73,-56.40,221.71
1633,654538847,-0.7788,-0.5176,-0.8491,73.17,-53.11,220.43
1634,654544167,-0.7739,-0.5166,-0.8594,75.91,-48.60,218.54
1635,654548847,-0.7734,-0.5112,-0.8540,77.99,-45.79,217.26
1636,654553847,-0.8145,-0.5142,-0.8633,80.79,-41.89,215.43
1637,654558847,-0.8252,-0.5142,-0.8643,84.21,-38.11,213.48
1638,654563847,-0.8438,-0.5166,-0.8745,88.05,-34.45,211.46
1639,654568847,-0.8608,-0.5151,-0.8740,92.26,-30.55,209.15
1640,654573847,-0.8672,-0.5137,-0.8735,96.83,-26.83,206.83
1641,654578849,-0.8545,-0.5142,-0.8604,101.95,-22.99,204.57
1642,654583848,-0.8403,-0.5103,-0.8545,107.38,-19.27,202.26
1643,654588847,-0.8193,-0.5059,-0.8486,113.05,-15.43,199.70
1644,654593847,-0.8066,-0.5020,-0.8413,119.02,-11.52,197.01
1645,654598847,-0.8062,-0.5112,-0.8340,124.82,-7.56,194.33
1646,654603846,-0.8027,-0.5044,-0.8267,130.49,-3.78,191.59
1647,654608847,-0.7822,-0.5029,-0.8188,136.22,0.06,188.78
1648,654613847,-0.7759,-0.5083,-0.8057,142.38,4.09,185.67
1649,654619035,-0.7617,-0.5181,-0.7944,149.02,8.90,182.13
1650,654623847,-0.7368,-0.5107,-0.7852,154.57,12.74,178.96
1651,654628847,-0.7456,-0.5181,-0.7817,158.54,15.91,176.40
1652,654633931,-0.7251,-0.5195,-0.7700,164.57,20.30,172.56
1653,654638847,-0.7466,-0.5312,-0.7554,168.29,23.41,170.06
1654,654643847,-0.7241,-0.5249,-0.7515,172.80,27.01,166.71
1655,654648847,-0.7441,-0.5303,-0.7563,177.01,30.49,163.60
1656,654654177,-0.7354,-0.5239,-0.7373,182.07,34.33,159.63
1657,654658847,-0.7397,-0.5298,-0.7402,185.30,36.71,156.83
1658,654663918,-0.7324,-0.5303,-0.7324,190.00,40.12,152.74
1659,654668847,-0.7090,-0.5259,-0.7241,193.72,42.93,149.39
1660,654673847,-0.7197,-0.5317,-0.7061,197.20,45.24,145.98
1661,654678847,-0.6948,-0.5322,-0.6929,200.37,47.44,142.62
1662,654683847,-0.6904,-0.5410,-0.6880,203.23,49.63,139.27
1663,654688845,-0.6807,-0.5415,-0.6753,205.12,51.10,136.77
1664,654693847,-0.6611,-0.5439,-0.6577,207.80,53.11,132.93
1665,654698847,-0.6729,-0.5498,-0.6479,209.82,54.63,129.70
1666,654703847,-0.6479,-0.5405,-0.6343,211.34,56.10,126.65
1667,654709119,-0.6499,-0.5352,-0.6167,212.93,57.20,123.66
1668,654713847,-0.6592,-0.5415,-0.6006,214.21,58.29,120.73
1669,654718846,-0.6514,-0.5347,-0.5942,214.94,59.21,117.93
1670,654723847,-0.6338,-0.5400,-0.5752,215.49,60.00,115.12
1671,654728849,-0.6533,-0.5425,-0.5713,215.73,60.67,112.44
1672,654733846,-0.6304,-0.5415,-0.5562,215.73,61.22,109.70
1673,654738847,-0.6479,-0.5444,-0.5435,215.24,61.34,107.20
1674,654743847,-0.6431,-0.5420,-0.5410,214.33,61.71,104.76
1675,654748847,-0.6309,-0.5347,-0.5249,213.23,61.77,102.20
1676,654754167,-0.6255,-0.5386,-0.5054,211.83,61.77,99.82
1677,654758847,-0.6313,-0.5449,-0.5044,209.94,61.52,97.50
1678,654763848,-0.6348,-0.5420,-0.4976,208.05,61.34,95.24
1679,654768847,-0.6230,-0.5415,-0.4731,205.79,60.98,93.05
1680,654773847,-0.6294,-0.5396,-0.4717,203.23,60.55,90.85
1681,654778847,-0.6108,-0.5396,-0.4634,200.79,59.82,89.09
1682,654783847,-0.6250,-0.5425,-0.4482,197.99,59.15,86.65
1683,654789234,-0.6240,-0.5317,-0.4507,195.12,58.35,85.06
1684,654793847,-0.6221,-0.5259,-0.4409,191.95,57.44,82.68
1685,654798847,-0.6406,-0.5298,-0.4268,188.66,56.46,80.49
1686,654803847,-0.6313,-0.5278,-0.4097,185.24,55.55,78.35
1687,654808847,-0.6230,-0.5308,-0.4087,181.71,54.63,76.40
1688,654813846,-0.6362,-0.5361,-0.4087,177.93,53.48,74.33
1689,654819262,-0.6416,-0.5391,-0.3936,174.15,52.13,72.62
1690,654823847,-0.6328,-0.5308,-0.3828,170.24,50.91,70.98
1691,654828847,-0.6538,-0.5381,-0.3931,166.28,49.70,69.45
1692,654833847,-0.6260,-0.5337,-0.3857,162.50,48.48,67.99
1693,654838847,-0.6436,-0.5439,-0.3730,158.48,46.95,66.77
1694,654843983,-0.6206,-0.5376,-0.3760,154.51,45.61,65.43
1695,654848847,-0.6318,-0.5405,-0.3721,150.49,44.21,64.33
1696,654853847,-0.6250,-0.5391,-0.3516,146.34,42.99,62.99
1697,654858847,-0.6265,-0.5322,-0.3564,141.83,41.28,61.89
1698,654863847,-0.6235,-0.5332,-0.3555,137.68,39.82,60.85
1699,654869356,-0.6245,-0.5337,-0.3452,133.05,38.54,59.57
1700,654874079,-0.6304,-0.5371,-0.3418,129.57,37.07,58.41
1701,654878846,-0.6372,-0.5308,-0.3452,125.00,35.79,57.26
1702,654883847,-0.6489,-0.5352,-0.3374,120.61,34.39,56.10
1703,654888846,-0.6494,-0.5264,-0.3262,116.34,33.11,54.94
1704,654893847,-0.6587,-0.5283,-0.3267,112.38,31.71,53.84
1705,654898847,-0.6567,-0.5322,-0.3276,108.29,30.49,52.74
1706,654904191,-0.6538,-0.5342,-0.3345,104.21,29.09,51.77
1707,654908847,-0.6582,-0.5396,-0.3320,100.37,27.80,50.67
1708,654913976,-0.6519,-0.5371,-0.3247,96.77,26.22,49.88
1709,654918847,-0.6606,-0.5332,-0.3218,93.23,25.00,49.09
1710,654923847,-0.6616,-0.5420,-0.3345,89.45,23.17,48.05
1711,654928847,-0.6538,-0.5444,-0.3281,87.20,22.13,47.50
1712,654933991,-0.6494,-0.5488,-0.3237,84.57,20.55,46.95
1713,654938847,-0.6479,-0.5454,-0.3242,82.13,19.09,46.22
1714,654943847,-0.6479,-0.5444,-0.3271,80.37,17.56,45.55
1715,654948847,-0.6543,-0.5410,-0.3286,78.78,16.28,44.76
1716,654953847,-0.6548,-0.5376,-0.3198,77.26,14.82,44.02
1717,654958847,-0.6704,-0.5356,-0.3237,76.16,13.54,43.23
1718,654963847,-0.6748,-0.5322,-0.3247,75.30,12.44,42.50
1719,654968848,-0.6772,-0.5381,-0.3320,74.76,11.34,41.77
1720,654973847,-0.6787,-0.5322,-0.3223,74.33,10.37,40.67
1721,654978847,-0.6733,-0.5308,-0.3154,74.15,9.51,39.70
1722,654983847,-0.6738,-0.5273,-0.3315,73.78,8.54,38.66
1723,654989167,-0.6753,-0.5381,-0.3184,73.23,7.56,37.44
1724,654993847,-0.6733,-0.5376,-0.3174,72.87,6.95,36.71
1725,654998847,-0.6636,-0.5366,-0.3174,72.26,6.04,35.85
1726,655003847,-0.6592,-0.5366,-0.3154,71.46,5.24,34.82
1727,655008847,-0.6572,-0.5435,-0.3120,70.61,4.39,33.90
1728,655014214,-0.6626,-0.5449,-0.3140,69.45,3.35,32.80
1729,655018847,-0.6572,-0.5459,-0.3179,68.66,2.74,32.20
1730,655023845,-0.6514,-0.5449,-0.3237,67.44,1.95,31.22
1731,655028845,-0.6592,-0.5464,-0.3198,66.34,0.91,30.49
1732,655033845,-0.6587,-0.5430,-0.3232,65.24,0.00,29.70
1733,655038850,-0.6665,-0.5449,-0.3145,64.02,-0.91,28.78
1734,655043846,-0.6675,-0.5420,-0.3198,62.68,-1.83,27.99
1735,655048847,-0.6641,-0.5493,-0.3130,61.22,-2.74,27.07
1736,655053847,-0.6699,-0.5522,-0.3145,59.88,-3.60,26.22
1737,655059156,-0.6729,-0.5522,-0.3184,58.11,-4.57,25.24
1738,655063847,-0.6851,-0.5527,-0.3174,56.77,-5.18,24.70
1739,655068847,-0.6816,-0.5493,-0.3184,55.06,-5.98,23.90
1740,655073847,-0.6914,-0.5527,-0.3154,53.29,-6.83,23.23
1741,655078847,-0.6689,-0.5493,-0.3145,51.59,-7.44,22.38
1742,655083847,-0.6851,-0.5581,-0.3179,49.51,-8.35,21.65
1743,655089278,-0.6890,-0.5571,-0.3154,47.32,-9.39,20.79
1744,655093847,-0.6929,-0.5557,-0.3149,45.85,-10.18,20.37
1745,655099070,-0.6914,-0.5610,-0.3145,43.60,-11.04,19.39
1746,655103847,-0.6719,-0.5503,-0.3149,41.95,-11.71,18.78
1747,655108847,-0.6733,-0.5527,-0.3140,39.63,-12.56,17.99
1748,655113847,-0.6699,-0.5513,-0.3130,37.87,-13.29,17.44
1749,655118849,-0.6719,-0.5518,-0.3052,36.04,-14.21,16.83
1750,655123847,-0.6689,-0.5542,-0.3130,34.09,-14.94,16.04
1751,655128847,-0.6724,-0.5527,-0.3076,32.44,-15.43,15.37
1752,655133847,-0.6719,-0.5630,-0.3130,30.67,-16.34,14.70
1753,655138847,-0.6733,-0.5586,-0.3125,28.96,-17.01,14.09
1754,655143847,-0.6611,-0.5591,-0.3159,27.26,-17.68,13.48
1755,655148847,-0.6748,-0.5708,-0.3218,25.67,-18.48,12.80
1756,655153847,-0.6763,-0.5684,-0.3252,24.09,-19.02,12.13
1757,655158847,-0.6680,-0.5625,-0.3218,22.62,-19.94,11.52
1758,655163847,-0.6558,-0.5669,-0.3159,21.10,-20.73,10.91
1759,655168847,-0.6729,-0.5693,-0.3232,19.63,-21.34,10.37
1760,655173848,-0.6528,-0.5698,-0.3296,18.11,-21.95,9.76
1761,655178846,-0.6475,-0.5674,-0.3257,16.83,-22.68,9.21
1762,655183973,-0.6519,-0.5708,-0.3252,15.43,-23.35,8.60
1763,655188847,-0.6582,-0.5737,-0.3242,14.21,-23.96,7.93
1764,655193847,-0.6562,-0.5752,-0.3267,12.80,-24.76,7.38
1765,655198850,-0.6523,-0.5757,-0.3291,11.52,-25.18,6.89
1766,655203847,-0.6572,-0.5757,-0.3311,10.37,-25.67,6.34
1767,655208847,-0.6538,-0.5776,-0.3311,9.15,-26.16,5.61
1768,655213847,-0.6582,-0.5796,-0.3350,7.99,-26.52,5.00
1769,655219237,-0.6606,-0.5771,-0.3291,6.95,-26.89,4.45
1770,655223847,-0.6577,-0.5786,-0.3350,5.85,-27.20,3.84
1771,655228847,-0.6523,-0.5747,-0.3398,4.76,-27.44,3.23
1772,655233847,-0.6489,-0.5796,-0.3389,3.60,-27.68,2.62
1773,655238847,-0.6611,-0.5840,-0.3403,2.44,-27.87,1.95
1774,655243847,-0.6650,-0.5850,-0.3394,1.34,-28.05,1.40
1775,655249183,-0.6436,-0.5845,-0.3486,0.18,-28.17,0.85
1776,655253847,-0.6558,-0.5864,-0.3477,-1.04,-28.11,0.24
1777,655258847,-0.6646,-0.5918,-0.3481,-2.13,-28.35,-0.37
1778,655264228,-0.6636,-0.5894,-0.3467,-3.54,-28.35,-0.91
1779,655268847,-0.6597,-0.5859,-0.3530,-4.82,-28.23,-1.59
1780,655273847,-0.6621,-0.5869,-0.3491,-5.98,-28.23,-2.07
1781,655279045,-0.6675,-0.5928,-0.3516,-7.07,-27.99,-2.62
1782,655283847,-0.6650,-0.5859,-0.3511,-7.99,-27.99,-3.11
1783,655288846,-0.6646,-0.5869,-0.3579,-9.09,-27.68,-3.66
1784,655293847,-0.6636,-0.5879,-0.3584,-9.76,-27.44,-4.27
1785,655298847,-0.6738,-0.5850,-0.3638,-10.49,-27.26,-4.88
1786,655303848,-0.6665,-0.5879,-0.3667,-11.16,-27.13,-5.49
1787,655308846,-0.6699,-0.5820,-0.3613,-11.83,-26.59,-5.91
1788,655313847,-0.6680,-0.5835,-0.3608,-12.38,-26.16,-6.52
1789,655318846,-0.6699,-0.5884,-0.3662,-12.87,-25.91,-7.13
1790,655323847,-0.6743,-0.5913,-0.3682,-13.41,-25.55,-7.74
1791,655328848,-0.6738,-0.5908,-0.3706,-13.84,-25.12,-8.23
1792,655333846,-0.6641,-0.5869,-0.3687,-14.33,-24.51,-8.72
1793,655338847,-0.6694,-0.5898,-0.3779,-14.94,-24.21,-9.15
1794,655343847,-0.6699,-0.5903,-0.3774,-15.43,-23.72,-9.63
1795,655348847,-0.6675,-0.5933,-0.3750,-15.85,-23.29,-9.88
1796,655353847,-0.6670,-0.5957,-0.3735,-16.28,-22.68,-10.24
1797,655359289,-0.6714,-0.5977,-0.3755,-16.77,-22.01,-10.67
1798,655363847,-0.6699,-0.5952,-0.3750,-17.07,-21.71,-10.85
1799,655368847,-0.6660,-0.5884,-0.3726,-17.32,-21.04,-11.04
1800,655373847,-0.6660,-0.5840,-0.3711,-17.44,-20.30,-11.46
1801,655378848,-0.6655,-0.5854,-0.3755,-17.50,-19.88,-11.65
1802,655383847,-0.6719,-0.5825,-0.3755,-17.38,-19.21,-11.95
1803,655388847,-0.6646,-0.5830,-0.3799,-17.26,-18.41,-12.26
1804,655393847,-0.6694,-0.5801,-0.3735,-17.07,-17.74,-12.50
1805,655398847,-0.6611,-0.5786,-0.3740,-16.83,-17.13,-12.93
1806,655403848,-0.6616,-0.5757,-0.3730,-16.52,-16.52,-13.11
1807,655408846,-0.6504,-0.5747,-0.3770,-16.22,-15.91,-13.35
1808,655413847,-0.6660,-0.5752,-0.3750,-16.10,-15.37,-13.48
1809,655418847,-0.6606,-0.5781,-0.3784,-15.91,-14.76,-13.60
1810,655423847,-0.6548,-0.5737,-0.3765,-15.73,-14.21,-13.78
1811,655428847,-0.6528,-0.5771,-0.3770,-15.73,-13.84,-13.84
1812,655433847,-0.6611,-0.5762,-0.3804,-15.61,-13.23,-13.96
1813,655438847,-0.6650,-0.5767,-0.3770,-15.55,-12.74,-13.90
1814,655443847,-0.6650,-0.5713,-0.3755,-15.55,-12.26,-13.90
1815,655449038,-0.6577,-0.5718,-0.3770,-15.55,-11.77,-13.90
1816,655453847,-0.6528,-0.5728,-0.3706,-15.61,-11.22,-13.84
1817,655458846,-0.6548,-0.5718,-0.3779,-15.73,-10.91,-13.78
1818,655463847,-0.6484,-0.5693,-0.3813,-15.98,-10.49,-13.72
1819,655469111,-0.6577,-0.5747,-0.3804,-15.98,-10.00,-13.41
1820,655473847,-0.6611,-0.5732,-0.3765,-16.10,-9.70,-13.41
1821,655478847,-0.6636,-0.5698,-0.3789,-16.10,-9.15,-13.29
1822,655483846,-0.6523,-0.5659,-0.3789,-16.22,-8.78,-13.23
1823,655488847,-0.6553,-0.5620,-0.3765,-16.40,-8.23,-13.11
1824,655493847,-0.6450,-0.5615,-0.3745,-16.52,-7.87,-12.93
1825,655498847,-0.6416,-0.5591,-0.3750,-16.40,-7.38,-12.80
1826,655503849,-0.6606,-0.5581,-0.3696,-16.52,-6.89,-12.56
1827,655508847,-0.6548,-0.5630,-0.3735,-16.52,-6.40,-12.38
1828,655513849,-0.6616,-0.5654,-0.3750,-16.46,-6.04,-12.26
1829,655518912,-0.6538,-0.5571,-0.3750,-16.46,-5.49,-12.01
1830,655523849,-0.6597,-0.5615,-0.3804,-16.40,-5.00,-11.77
1831,655528850,-0.6528,-0.5562,-0.3760,-16.28,-4.76,-11.59
1832,655533849,-0.6616,-0.5645,-0.3745,-16.22,-4.15,-11.28
1833,655538850,-0.6650,-0.5601,-0.3804,-16.16,-3.78,-10.91
1834,655543847,-0.6611,-0.5586,-0.3740,-16.04,-3.54,-10.73
1835,655548941,-0.6587,-0.5576,-0.3711,-15.91,-2.87,-10.30
1836,655553846,-0.6528,-0.5557,-0.3745,-15.73,-2.50,-10.12
1837,655558847,-0.6553,-0.5518,-0.3789,-15.37,-1.95,-9.76
1838,655564129,-0.6636,-0.5474,-0.3755,-15.12,-1.71,-9.51
1839,655568847,-0.6553,-0.5493,-0.3750,-14.76,-1.34,-9.21
1840,655573846,-0.6606,-0.5508,-0.3804,-14.33,-0.85,-8.84
1841,655578846,-0.6646,-0.5513,-0.3721,-14.02,-0.55,-8.54
1842,655583848,-0.6528,-0.5474,-0.3711,-13.60,-0.30,-8.23
1843,655588845,-0.6616,-0.5503,-0.3687,-13.11,0.18,-7.93
1844,655593847,-0.6621,-0.5464,-0.3696,-12.68,0.43,-7.56
1845,655598846,-0.6553,-0.5459,-0.3682,-12.26,0.79,-7.20
1846,655603847,-0.6636,-0.5518,-0.3726,-11.83,1.04,-6.89
1847,655608846,-0.6621,-0.5444,-0.3706,-11.28,1.40,-6.46
1848,655614680,-0.6616,-0.5513,-0.3701,-10.91,1.59,-6.16
1849,655618847,-0.6460,-0.5425,-0.3706,-10.37,1.89,-5.85
1850,655623846,-0.6401,-0.5483,-0.3750,-9.82,2.32,-5.37
1851,655628847,-0.6509,-0.5464,-0.3711,-9.27,2.62,-5.06
1852,655633845,-0.6572,-0.5469,-0.3701,-8.90,2.93,-4.63
1853,655638847,-0.6592,-0.5483,-0.3687,-8.54,3.05,-4.15
1854,655643847,-0.6650,-0.5474,-0.3735,-7.99,3.23,-3.90
1855,655648847,-0.6670,-0.5483,-0.3716,-7.62,3.66,-3.48
1856,655653847,-0.6646,-0.5488,-0.3740,-7.13,3.96,-2.99
1857,655658847,-0.6577,-0.5474,-0.3735,-6.89,4.27,-2.68
1858,655663846,-0.6553,-0.5415,-0.3691,-6.52,4.63,-2.32
1859,655668847,-0.6626,-0.5479,-0.3774,-6.04,5.00,-1.77
1860,655673847,-0.6699,-0.5503,-0.3755,-5.73,5.18,-1.34
1861,655678847,-0.6626,-0.5410,-0.3677,-5.37,5.61,-0.98
1862,655683847,-0.6719,-0.5474,-0.3628,-5.06,5.85,-0.55
1863,655688846,-0.6660,-0.5474,-0.3647,-4.76,6.16,-0.06
1864,655693847,-0.6543,-0.5381,-0.3633,-4.51,6.40,0.30
1865,655698847,-0.6675,-0.5444,-0.3745,-4.09,6.77,0.79
1866,655703847,-0.6646,-0.5420,-0.3633,-3.66,6.95,1.22
1867,655708847,-0.6538,-0.5396,-0.3652,-3.17,7.20,1.65
1868,655713847,-0.6538,-0.5430,-0.3589,-2.93,7.32,2.20
1869,655718847,-0.6641,-0.5474,-0.3628,-2.62,7.44,2.74
1870,655723847,-0.6553,-0.5469,-0.3618,-2.13,7.56,3.17
1871,655729244,-0.6582,-0.5488,-0.3623,-1.59,7.56,3.66
1872,655733847,-0.6543,-0.5522,-0.3643,-1.10,7.68,4.21
1873,655738847,-0.6436,-0.5449,-0.3599,-0.55,7.74,4.82
1874,655744284,-0.6431,-0.5449,-0.3618,0.18,7.80,5.37
1875,655748847,-0.6353,-0.5439,-0.3633,0.85,7.62,5.91
1876,655754101,-0.6489,-0.5469,-0.3569,1.59,7.50,6.34
1877,655758847,-0.6494,-0.5493,-0.3618,2.56,7.44,6.89
1878,655763878,-0.6562,-0.5469,-0.3550,3.41,7.56,7.32
1879,655768847,-0.6548,-0.5459,-0.3486,4.21,7.38,7.87
1880,655773847,-0.6396,-0.5391,-0.3535,5.06,7.44,8.35
1881,655779065,-0.6548,-0.5464,-0.3496,5.85,7.44,8.78
1882,655783847,-0.6602,-0.5464,-0.3530,6.71,7.20,9.39
1883,655788907,-0.6558,-0.5405,-0.3472,7.38,7.32,9.57
1884,655793846,-0.6455,-0.5396,-0.3501,7.93,7.20,9.94
1885,655798847,-0.6553,-0.5444,-0.3462,8.41,7.32,10.37
1886,655804195,-0.6611,-0.5464,-0.3467,8.84,7.38,10.73
1887,655808847,-0.6470,-0.5454,-0.3433,9.09,7.38,11.16
1888,655814144,-0.6738,-0.5459,-0.3472,9.21,7.32,11.40
1889,655819327,-0.6553,-0.5430,-0.3477,9.21,7.26,11.89
1890,655823847,-0.6567,-0.5410,-0.3501,9.15,7.26,12.01
1891,655828847,-0.6592,-0.5542,-0.3481,9.09,7.38,12.50
1892,655833847,-0.6748,-0.5562,-0.3545,8.96,7.38,12.80
1893,655839144,-0.6567,-0.5513,-0.3496,8.72,7.38,13.11
1894,655843847,-0.6631,-0.5571,-0.3486,8.54,7.44,13.48
1895,655849235,-0.6680,-0.5532,-0.3496,8.48,7.62,13.72
1896,655854252,-0.6616,-0.5547,-0.3501,8.41,7.56,13.90
1897,655858847,-0.6743,-0.5527,-0.3491,8.66,7.93,14.02
1898,655864110,-0.6753,-0.5552,-0.3481,8.84,8.05,14.21
1899,655868847,-0.6777,-0.5522,-0.3413,9.21,8.11,14.51
1900,655874113,-0.6694,-0.5542,-0.3438,9.70,8.17,14.63
1901,655878847,-0.6885,-0.5552,-0.3525,10.00,8.29,14.57
1902,655884089,-0.6655,-0.5498,-0.3467,10.61,8.48,14.76
1903,655888847,-0.6855,-0.5605,-0.3423,10.98,8.48,14.82
1904,655893847,-0.6655,-0.5571,-0.3525,11.40,8.72,14.88
1905,655898847,-0.6846,-0.5630,-0.3486,11.89,8.54,15.06
1906,655904339,-0.6807,-0.5591,-0.3462,12.50,8.60,15.12
1907,655908847,-0.6929,-0.5664,-0.3418,12.68,8.66,15.18
1908,655913846,-0.6777,-0.5596,-0.3462,13.05,8.78,15.18
1909,655918847,-0.6904,-0.5688,-0.3413,13.35,8.72,15.43
1910,655923845,-0.6733,-0.5635,-0.3398,13.72,8.78,15.43
1911,655928847,-0.6797,-0.5635,-0.3438,13.96,8.84,15.49
1912,655933847,-0.6748,-0.5703,-0.3423,14.27,8.84,15.67
1913,655938847,-0.6875,-0.5718,-0.3452,14.57,8.84,15.79
1914,655943847,-0.6826,-0.5728,-0.3442,15.12,8.78,16.04
1915,655949115,-0.6831,-0.5762,-0.3438,15.79,8.72,16.10
1916,655953847,-0.6763,-0.5713,-0.3506,16.22,8.66,16.16
1917,655958847,-0.6685,-0.5684,-0.3462,16.89,8.84,16.22
1918,655963846,-0.6938,-0.5737,-0.3423,17.62,8.84,16.46
1919,655968847,-0.6768,-0.5654,-0.3413,18.66,8.84,16.28
1920,655974185,-0.6909,-0.5718,-0.3428,19.82,8.60,16.34
1921,655978847,-0.6719,-0.5635,-0.3394,20.91,8.60,16.28
1922,655984221,-0.6831,-0.5713,-0.3477,22.20,8.48,16.28
1923,655988847,-0.6704,-0.5635,-0.3394,23.23,8.35,16.22
1924,655993848,-0.6602,-0.5605,-0.3442,24.70,8.23,16.22
1925,655998845,-0.6670,-0.5640,-0.3389,25.67,7.93,16.16
1926,656003847,-0.6597,-0.5654,-0.3398,26.89,7.44,16.10
1927,656008848,-0.6660,-0.5645,-0.3389,27.74,7.38,16.04
1928,656013847,-0.6748,-0.5737,-0.3394,28.48,7.13,15.98
1929,656018847,-0.6528,-0.5659,-0.3364,29.02,6.71,16.04
1930,656024223,-0.6626,-0.5664,-0.3350,29.63,6.28,16.04
1931,656028847,-0.6587,-0.5591,-0.3369,29.94,5.85,15.91
1932,656034192,-0.6562,-0.5669,-0.3306,30.30,5.61,15.85
1933,656038847,-0.6533,-0.5625,-0.3301,30.24,5.18,15.67
1934,656044012,-0.6514,-0.5640,-0.3364,30.18,4.82,15.61
1935,656048847,-0.6621,-0.5635,-0.3384,30.00,4.57,15.55
1936,656053847,-0.6724,-0.5654,-0.3350,29.51,4.27,15.43
1937,656059100,-0.6533,-0.5596,-0.3340,28.78,3.90,15.30
1938,656063847,-0.6572,-0.5576,-0.3354,27.99,3.72,15.06
1939,656068847,-0.6675,-0.5645,-0.3379,26.95,3.41,14.76
1940,656073846,-0.6465,-0.5601,-0.3301,25.49,3.41,14.51
1941,656078847,-0.6475,-0.5601,-0.3311,24.09,3.23,14.27
1942,656083847,-0.6733,-0.5664,-0.3335,22.56,3.17,14.02
1943,656088847,-0.6519,-0.5586,-0.3350,20.67,3.29,13.66
1944,656093847,-0.6821,-0.5664,-0.3325,18.72,3.48,13.41
1945,656098846,-0.6611,-0.5635,-0.3306,16.46,3.54,13.05
1946,656103847,-0.6738,-0.5679,-0.3257,14.45,3.84,12.68
1947,656108847,-0.6758,-0.5732,-0.3286,12.32,4.02,12.50
1948,656114211,-0.6567,-0.5698,-0.3330,10.24,4.27,12.20
1949,656118848,-0.6768,-0.5698,-0.3237,8.05,4.51,11.83
1950,656123847,-0.6616,-0.5659,-0.3252,6.22,4.76,11.52
1951,656128847,-0.6797,-0.5728,-0.3247,4.27,4.94,11.16
1952,656133847,-0.6855,-0.5815,-0.3384,2.62,5.12,11.04
1953,656138847,-0.6665,-0.5713,-0.3369,1.16,5.49,10.67
1954,656143847,-0.6768,-0.5767,-0.3384,0.00,5.67,10.37
1955,656149145,-0.6821,-0.5815,-0.3447,-1.04,5.73,10.12
1956,656153847,-0.6758,-0.5742,-0.3335,-1.77,5.91,9.76
1957,656159150,-0.6929,-0.5835,-0.3384,-2.13,6.16,9.51
1958,656163847,-0.6772,-0.5762,-0.3398,-2.50,6.40,9.15
1959,656168855,-0.6948,-0.5796,-0.3354,-2.56,6.65,8.84
1960,656173846,-0.6943,-0.5835,-0.3413,-2.32,6.83,8.66
1961,656179317,-0.6748,-0.5747,-0.3442,-2.01,6.95,8.35
1962,656183847,-0.6938,-0.5835,-0.3340,-1.46,7.38,8.05
1963,656188847,-0.6733,-0.5806,-0.3325,-0.98,7.56,7.87
1964,656193847,-0.6958,-0.5835,-0.3291,-0.30,7.68,7.56
1965,656198891,-0.6914,-0.5898,-0.3325,0.37,8.11,7.50
1966,656203846,-0.6660,-0.5815,-0.3320,1.22,8.35,7.26
1967,656208845,-0.6763,-0.5811,-0.3330,2.20,8.48,6.95
1968,656213845,-0.6924,-0.5854,-0.3330,3.11,8.78,6.83
1969,656218845,-0.6753,-0.5854,-0.3330,4.15,8.96,6.65
1970,656223846,-0.6768,-0.5850,-0.3286,5.06,9.09,6.40
1971,656228845,-0.6660,-0.5786,-0.3301,5.91,9.33,6.40
1972,656233845,-0.6636,-0.5830,-0.3257,6.71,9.45,6.22
1973,656238847,-0.6782,-0.5835,-0.3218,7.68,9.51,6.16
1974,656243847,-0.6890,-0.5889,-0.3257,8.48,9.51,6.10
1975,656248847,-0.6592,-0.5825,-0.3208,9.51,9.39,6.10
1976,656253847,-0.6812,-0.5820,-0.3203,10.24,9.33,5.98
1977,656259274,-0.6851,-0.5898,-0.3198,11.22,9.21,6.04
1978,656263847,-0.6704,-0.5801,-0.3237,12.07,9.09,6.04
1979,656268847,-0.6621,-0.5684,-0.3228,13.05,8.96,5.98
1980,656274359,-0.6772,-0.5732,-0.3203,14.15,8.54,5.98
1981,656278847,-0.6626,-0.5669,-0.3223,15.12,8.23,5.91
1982,656283847,-0.6665,-0.5635,-0.3159,15.79,7.99,5.91
1983,656288847,-0.6763,-0.5693,-0.3135,16.71,7.50,5.91
1984,656293847,-0.6699,-0.5635,-0.3193,17.38,7.13,5.79
1985,656298847,-0.6885,-0.5688,-0.3179,17.99,6.59,5.91
1986,656303847,-0.6636,-0.5630,-0.3193,18.35,6.10,5.91
1987,656308846,-0.6772,-0.5615,-0.3159,18.60,5.55,5.98
1988,656313974,-0.6885,-0.5654,-0.3091,18.66,5.00,5.98
1989,656318847,-0.6621,-0.5586,-0.3105,18.48,4.45,6.04
1990,656324130,-0.6758,-0.5615,-0.3120,18.17,3.60,6.04
1991,656328847,-0.6650,-0.5581,-0.3149,17.56,3.23,6.04
1992,656333847,-0.6597,-0.5537,-0.3125,16.95,2.68,6.10
1993,656338847,-0.6782,-0.5596,-0.3120,15.98,2.13,6.16
1994,656343847,-0.6597,-0.5562,-0.3057,15.24,1.65,6.16
1995,656349291,-0.6724,-0.5537,-0.3140,14.02,1.16,6.16
1996,656353847,-0.6729,-0.5498,-0.3101,13.29,0.67,6.04
1997,656359014,-0.6582,-0.5483,-0.3115,12.20,0.18,6.04
1998,656363847,-0.6714,-0.5527,-0.3174,11.40,0.00,5.98
1999,656369145,-0.6836,-0.5581,-0.3149,10.43,-0.49,5.85
2000,656373847,-0.6650,-0.5459,-0.3086,9.76,-0.73,5.79
2001,656378847,-0.6831,-0.5527,-0.3105,8.90,-0.91,5.55
2002,656383847,-0.6772,-0.5508,-0.3105,7.93,-1.28,5.37
2003,656388847,-0.6855,-0.5503,-0.3120,7.20,-1.40,5.24
2004,656394082,-0.6733,-0.5498,-0.3154,6.59,-1.59,5.06
2005,656398847,-0.6899,-0.5498,-0.3145,5.91,-1.77,4.88
2006,656403895,-0.6733,-0.5474,-0.3164,5.37,-1.95,4.70
2007,656408929,-0.6958,-0.5527,-0.3101,4.70,-1.95,4.57
2008,656413847,-0.6831,-0.5498,-0.3101,4.15,-2.01,4.33
2009,656418847,-0.6895,-0.5537,-0.3164,3.66,-1.95,4.21
2010,656424178,-0.6841,-0.5498,-0.3198,3.05,-1.95,4.09
2011,656428847,-0.7041,-0.5542,-0.3169,2.74,-1.95,3.78
2012,656433847,-0.6865,-0.5532,-0.3140,2.20,-1.95,3.60
2013,656438846,-0.6802,-0.5464,-0.3223,1.89,-1.95,3.35
2014,656444150,-0.7021,-0.5586,-0.3213,1.40,-1.71,3.29
2015,656448847,-0.7007,-0.5566,-0.3262,1.10,-1.65,3.05
2016,656454148,-0.6846,-0.5537,-0.3198,0.73,-1.40,2.80
2017,656458847,-0.7046,-0.5601,-0.3193,0.30,-1.16,2.56
2018,656463900,-0.6851,-0.5474,-0.3203,0.06,-1.04,2.44
2019,656468850,-0.7070,-0.5620,-0.3213,-0.12,-0.79,2.26
2020,656473847,-0.6948,-0.5537,-0.3267,-0.30,-0.73,2.20
2021,656478847,-0.6890,-0.5483,-0.3296,-0.55,-0.43,2.01
2022,656483847,-0.7026,-0.5537,-0.3247,-0.67,-0.24,1.83
2023,656488846,-0.7041,-0.5571,-0.3223,-0.73,-0.12,1.71
2024,656494165,-0.6851,-0.5537,-0.3179,-0.91,0.00,1.59
2025,656498846,-0.6689,-0.5469,-0.3184,-0.85,0.12,1.52
2026,656503847,-0.6870,-0.5537,-0.3130,-0.98,0.30,1.52
2027,656508845,-0.6973,-0.5522,-0.3140,-1.04,0.37,1.40
2028,656514273,-0.6968,-0.5615,-0.3193,-0.79,0.49,1.46
2029,656519277,-0.6787,-0.5527,-0.3188,-0.73,0.61,1.40
2030,656523846,-0.6973,-0.5586,-0.3169,-0.67,0.67,1.46
2031,656528846,-0.6714,-0.5547,-0.3135,-0.55,0.79,1.40
2032,656533848,-0.6860,-0.5552,-0.3154,-0.24,0.61,1.46
2033,656538847,-0.6753,-0.5571,-0.3130,-0.06,0.73,1.46
2034,656543849,-0.6729,-0.5513,-0.3135,0.06,0.61,1.65
2035,656548848,-0.6880,-0.5620,-0.3228,0.43,0.43,1.71
2036,656554270,-0.6680,-0.5508,-0.3198,0.61,0.24,1.77
2037,656558847,-0.6733,-0.5537,-0.3101,0.85,0.12,1.95
2038,656563847,-0.6792,-0.5596,-0.3174,1.16,-0.12,2.01
2039,656568847,-0.6719,-0.5518,-0.3208,1.34,-0.43,2.20
2040,656573847,-0.6836,-0.5576,-0.3218,1.65,-0.55,2.38
2041,656578847,-0.6831,-0.5537,-0.3169,1.89,-0.85,2.50
2042,656583847,-0.6816,-0.5557,-0.3223,2.13,-1.22,2.74
2043,656589159,-0.6841,-0.5527,-0.3237,2.32,-1.46,2.93
2044,656593847,-0.6982,-0.5596,-0.3228,2.50,-1.71,3.11
2045,656599205,-0.6812,-0.5527,-0.3198,2.56,-1.95,3.29
2046,656603847,-0.6880,-0.5601,-0.3198,2.62,-2.20,3.60
2047,656608848,-0.6777,-0.5630,-0.3208,2.87,-2.32,3.84
2048,656613956,-0.6572,-0.5576,-0.3159,2.93,-2.74,4.09
2049,656618847,-0.6621,-0.5557,-0.3145,3.17,-3.05,4.33
2050,656623846,-0.6743,-0.5615,-0.3164,3.29,-3.17,4.57
2051,656629119,-0.6597,-0.5596,-0.3213,3.48,-3.54,4.94
2052,656633881,-0.6777,-0.5620,-0.3188,3.66,-3.78,5.00
2053,656638847,-0.6606,-0.5610,-0.3193,3.90,-4.09,5.37
2054,656643847,-0.6665,-0.5645,-0.3218,4.21,-4.45,5.67
2055,656649150,-0.6562,-0.5674,-0.3232,4.57,-4.63,5.73
2056,656653847,-0.6772,-0.5664,-0.3242,4.94,-4.82,5.98
2057,656658847,-0.6621,-0.5664,-0.3208,5.49,-5.12,6.28
2058,656663847,-0.6631,-0.5596,-0.3311,6.04,-5.43,6.52
2059,656669178,-0.6904,-0.5654,-0.3335,6.65,-5.61,6.65
2060,656673847,-0.6753,-0.5664,-0.3320,7.07,-5.85,6.71
2061,656678847,-0.6670,-0.5596,-0.3320,7.50,-5.91,6.77
2062,656684274,-0.6938,-0.5703,-0.3306,8.17,-6.10,6.89
2063,656688847,-0.6777,-0.5698,-0.3384,8.60,-6.22,6.77
2064,656693847,-0.6694,-0.5596,-0.3296,8.84,-6.22,6.89
2065,656698847,-0.6792,-0.5596,-0.3320,9.09,-6.16,6.89
2066,656703847,-0.6909,-0.5698,-0.3384,9.27,-6.10,6.89
2067,656708847,-0.6719,-0.5640,-0.3359,9.27,-6.10,6.83
2068,656713847,-0.6870,-0.5630,-0.3364,9.15,-6.10,7.01
2069,656718847,-0.6978,-0.5718,-0.3369,8.96,-5.98,6.83
2070,656723847,-0.6772,-0.5713,-0.3369,8.78,-5.85,6.77
2071,656728847,-0.6694,-0.5654,-0.3345,8.48,-5.67,6.65
2072,656733847,-0.6782,-0.5684,-0.3403,8.11,-5.43,6.52
2073,656738847,-0.6729,-0.5635,-0.3345,7.80,-5.49,6.46
2074,656743847,-0.6753,-0.5620,-0.3354,7.56,-5.30,6.40
2075,656748847,-0.6680,-0.5635,-0.3408,7.13,-5.06,6.34
2076,656754281,-0.6797,-0.5635,-0.3428,6.77,-4.94,6.04
2077,656758847,-0.6914,-0.5747,-0.3389,6.71,-4.63,5.98
2078,656764152,-0.6636,-0.5640,-0.3384,6.40,-4.57,5.67
2079,656768847,-0.6802,-0.5669,-0.3354,6.28,-4.45,5.55
2080,656773847,-0.6743,-0.5718,-0.3369,6.40,-4.27,5.49
2081,656778847,-0.6885,-0.5703,-0.3384,6.22,-3.96,5.24
2082,656783847,-0.6689,-0.5664,-0.3418,6.34,-3.84,5.00
2083,656789275,-0.6704,-0.5625,-0.3394,6.52,-3.66,4.70
2084,656793847,-0.6963,-0.5659,-0.3384,6.83,-3.48,4.33
2085,656799130,-0.6924,-0.5659,-0.3394,6.83,-3.17,4.15
2086,656803847,-0.6890,-0.5674,-0.3359,7.07,-3.05,3.78
2087,656808847,-0.7021,-0.5684,-0.3335,7.07,-2.80,3.66
2088,656813848,-0.7017,-0.5713,-0.3364,7.20,-2.68,3.35
2089,656819318,-0.6987,-0.5610,-0.3374,7.20,-2.44,3.11
2090,656823847,-0.6973,-0.5605,-0.3364,7.13,-2.32,2.93
2091,656828846,-0.7021,-0.5645,-0.3433,7.01,-2.07,2.62
2092,656833847,-0.7002,-0.5645,-0.3398,6.77,-2.01,2.38
2093,656838847,-0.6899,-0.5625,-0.3423,6.46,-1.77,2.07
2094,656843847,-0.6855,-0.5625,-0.3374,6.10,-1.59,1.77
2095,656848847,-0.6929,-0.5649,-0.3330,5.73,-1.65,1.52
2096,656853846,-0.6719,-0.5581,-0.3433,5.37,-1.46,1.28
2097,656858847,-0.6909,-0.5586,-0.3423,4.88,-1.83,1.16
2098,656863847,-0.6792,-0.5581,-0.3398,4.39,-1.65,1.04
2099,656868847,-0.6685,-0.5532,-0.3315,3.84,-1.77,0.91
2100,656873847,-0.6919,-0.5625,-0.3315,3.29,-1.89,0.79
2101,656878847,-0.6680,-0.5571,-0.3315,2.80,-2.01,0.67
2102,656883993,-0.6865,-0.5601,-0.3330,2.07,-2.13,0.55
2103,656888847,-0.6714,-0.5537,-0.3325,1.65,-2.20,0.49
2104,656893847,-0.6870,-0.5581,-0.3325,1.22,-2.20,0.49
2105,656898847,-0.6875,-0.5630,-0.3345,0.91,-2.26,0.49
2106,656903847,-0.6729,-0.5557,-0.3320,0.43,-2.38,0.37
2107,656908997,-0.6597,-0.5547,-0.3330,0.18,-2.38,0.37
2108,656913847,-0.6592,-0.5498,-0.3345,-0.06,-2.50,0.43
2109,656918847,-0.6562,-0.5483,-0.3320,-0.24,-2.56,0.37
2110,656923847,-0.6807,-0.5513,-0.3320,-0.37,-2.56,0.30
2111,656928847,-0.6875,-0.5581,-0.3267,-0.49,-2.56,0.37
2112,656933847,-0.6655,-0.5503,-0.3398,-0.67,-2.68,0.30
2113,656938847,-0.6646,-0.5508,-0.3315,-0.73,-2.68,0.37
2114,656943847,-0.6660,-0.5483,-0.3296,-0.85,-2.68,0.49
2115,656948847,-0.6646,-0.5498,-0.3330,-0.98,-2.74,0.49
2116,656953947,-0.6807,-0.5547,-0.3340,-1.04,-2.68,0.43
