# skilleye imu stream v1
# device=xiao_esp32c6 imu=mpu6050 addr=0x68
# rate_hz=200 accel_range_g=16 gyro_range_dps=2000 dlpf_hz=94
# units: accel in g, gyro in deg/s, t_us in microseconds since boot (monotonic)
# no shared clock with the camera -- tap the racket once before each take
# so both recordings share a spike to align on
seq,t_us,ax,ay,az,gx,gy,gz
0,398096982,-0.5811,-0.6763,-0.3076,-5.06,-8.90,-14.33
1,398101984,-0.5806,-0.6763,-0.3052,-5.30,-9.21,-14.82
2,398106982,-0.5796,-0.6763,-0.3018,-5.49,-9.76,-15.18
3,398111987,-0.5786,-0.6792,-0.2959,-5.55,-10.00,-15.79
4,398116984,-0.5801,-0.6821,-0.2998,-5.43,-10.43,-16.22
5,398121985,-0.5791,-0.6787,-0.2998,-5.06,-10.85,-16.83
6,398126984,-0.5815,-0.6885,-0.2988,-4.51,-11.22,-17.50
7,398131984,-0.5718,-0.6919,-0.2988,-3.78,-11.52,-18.11
8,398136984,-0.5757,-0.6953,-0.3042,-2.80,-11.77,-18.72
9,398141984,-0.5728,-0.7041,-0.3022,-1.77,-12.13,-19.33
10,398146984,-0.5801,-0.7090,-0.3042,-0.79,-12.26,-20.00
11,398151984,-0.5811,-0.7222,-0.3140,0.24,-12.62,-20.61
12,398156984,-0.5830,-0.7290,-0.3169,1.22,-12.93,-21.22
13,398161984,-0.5737,-0.7397,-0.3193,1.71,-12.93,-21.65
14,398166984,-0.5737,-0.7485,-0.3267,2.32,-13.11,-22.26
15,398171984,-0.5703,-0.7520,-0.3232,2.74,-13.11,-22.87
16,398176983,-0.5737,-0.7554,-0.3369,2.99,-13.11,-23.41
17,398181986,-0.5718,-0.7656,-0.3394,3.48,-13.11,-23.96
18,398186983,-0.5610,-0.7661,-0.3535,3.96,-13.05,-24.63
19,398191983,-0.5586,-0.7725,-0.3540,4.27,-12.99,-25.30
20,398197452,-0.5625,-0.7812,-0.3594,4.76,-12.74,-26.22
21,398201984,-0.5654,-0.7832,-0.3672,5.00,-12.50,-26.89
22,398206984,-0.5693,-0.7842,-0.3721,5.24,-12.32,-27.62
23,398211983,-0.5674,-0.7896,-0.3818,5.49,-12.07,-28.48
24,398217332,-0.5645,-0.7920,-0.3789,5.55,-11.71,-29.51
25,398221984,-0.5684,-0.7959,-0.3867,5.30,-11.34,-30.30
26,398226984,-0.5742,-0.8022,-0.3950,4.82,-10.67,-31.34
27,398231984,-0.5742,-0.8062,-0.4028,4.21,-10.06,-32.26
28,398236984,-0.5688,-0.8110,-0.4023,3.41,-9.39,-33.29
29,398241984,-0.5640,-0.8174,-0.4033,2.80,-8.60,-34.39
30,398246984,-0.5640,-0.8188,-0.4111,2.56,-7.87,-35.67
31,398251984,-0.5645,-0.8174,-0.4204,2.44,-6.89,-36.77
32,398256984,-0.5586,-0.8247,-0.4233,2.56,-6.04,-37.93
33,398261984,-0.5562,-0.8276,-0.4224,2.80,-5.18,-39.21
34,398266984,-0.5483,-0.8301,-0.4321,2.80,-4.15,-40.49
35,398271984,-0.5479,-0.8291,-0.4355,2.87,-3.23,-42.01
36,398276984,-0.5474,-0.8354,-0.4434,2.80,-2.13,-43.41
37,398281984,-0.5518,-0.8335,-0.4326,2.26,-1.04,-44.82
38,398286985,-0.5469,-0.8408,-0.4404,1.22,0.37,-46.71
39,398291984,-0.5459,-0.8413,-0.4482,0.49,1.28,-47.93
40,398296984,-0.5439,-0.8403,-0.4438,-0.79,2.38,-49.76
41,398301984,-0.5425,-0.8452,-0.4448,-2.56,3.41,-51.71
42,398306984,-0.5347,-0.8472,-0.4399,-4.21,4.45,-53.72
43,398311984,-0.5303,-0.8423,-0.4512,-6.16,5.55,-55.67
44,398316984,-0.5239,-0.8462,-0.4434,-7.87,6.46,-57.87
45,398321984,-0.5200,-0.8428,-0.4404,-9.57,7.26,-60.00
46,398326984,-0.5190,-0.8462,-0.4438,-11.22,7.99,-62.20
47,398331984,-0.5156,-0.8457,-0.4419,-12.93,8.78,-64.33
48,398336984,-0.5146,-0.8516,-0.4458,-14.82,9.51,-66.40
49,398341984,-0.5176,-0.8594,-0.4443,-16.83,10.24,-68.66
50,398346984,-0.5137,-0.8584,-0.4443,-18.84,10.79,-70.55
51,398351984,-0.5195,-0.8564,-0.4434,-20.98,11.77,-72.50
52,398356984,-0.5200,-0.8647,-0.4399,-23.05,12.26,-74.39
53,398361985,-0.5210,-0.8672,-0.4507,-24.94,12.99,-76.22
54,398366984,-0.5205,-0.8696,-0.4395,-26.65,13.78,-78.23
55,398371984,-0.5200,-0.8652,-0.4346,-27.62,14.45,-80.06
56,398376984,-0.5146,-0.8643,-0.4395,-28.11,14.88,-81.46
57,398381984,-0.5063,-0.8604,-0.4395,-28.35,15.37,-83.29
58,398386982,-0.5005,-0.8594,-0.4287,-28.48,15.73,-85.30
59,398391982,-0.4912,-0.8647,-0.4355,-28.48,16.34,-87.01
60,398396982,-0.4849,-0.8687,-0.4326,-28.54,16.46,-88.72
61,398401982,-0.4800,-0.8633,-0.4312,-28.54,16.59,-90.43
62,398406985,-0.4834,-0.8652,-0.4292,-28.48,16.65,-92.20
63,398411983,-0.4780,-0.8696,-0.4229,-28.54,16.71,-93.84
64,398416985,-0.4766,-0.8755,-0.4175,-28.66,16.40,-95.55
65,398422354,-0.4688,-0.8779,-0.4160,-28.90,16.04,-97.44
66,398426984,-0.4619,-0.8760,-0.4185,-29.09,15.98,-98.72
67,398431984,-0.4678,-0.8813,-0.4199,-29.33,15.30,-100.37
68,398436984,-0.4678,-0.8848,-0.4102,-29.51,14.82,-101.95
69,398441984,-0.4707,-0.8916,-0.4146,-30.12,14.27,-103.48
70,398446984,-0.4746,-0.8955,-0.4067,-30.67,13.90,-104.88
71,398451984,-0.4692,-0.9004,-0.4106,-31.77,13.17,-106.46
72,398456984,-0.4683,-0.9072,-0.4014,-32.38,12.80,-107.44
73,398461984,-0.4673,-0.9126,-0.3906,-33.29,12.32,-108.66
74,398466984,-0.4692,-0.9126,-0.3911,-33.96,11.71,-109.51
75,398471984,-0.4648,-0.9224,-0.3818,-34.82,11.28,-110.61
76,398476984,-0.4619,-0.9238,-0.3716,-35.18,10.98,-111.22
77,398481984,-0.4541,-0.9199,-0.3779,-35.30,10.55,-111.95
78,398486984,-0.4463,-0.9180,-0.3701,-35.06,10.00,-112.56
79,398491986,-0.4409,-0.9180,-0.3730,-34.21,9.63,-113.35
80,398496984,-0.4312,-0.9155,-0.3706,-33.05,9.02,-113.78
81,398501984,-0.4131,-0.9146,-0.3633,-31.40,8.29,-114.51
82,398506984,-0.3979,-0.9092,-0.3599,-30.18,7.56,-114.88
83,398511984,-0.3799,-0.9136,-0.3521,-28.60,6.83,-115.43
84,398516984,-0.3682,-0.9092,-0.3481,-26.65,6.04,-115.73
85,398521984,-0.3594,-0.9009,-0.3452,-24.51,5.06,-115.98
86,398526984,-0.3472,-0.9014,-0.3403,-22.20,4.09,-116.16
87,398531984,-0.3354,-0.9028,-0.3433,-19.70,3.17,-116.34
88,398536984,-0.3257,-0.9009,-0.3306,-17.07,2.13,-116.40
89,398541984,-0.3169,-0.9014,-0.3345,-14.39,1.16,-116.40
90,398547315,-0.3042,-0.9009,-0.3330,-11.40,-0.30,-116.40
91,398551984,-0.3027,-0.9004,-0.3296,-9.33,-1.16,-116.22
92,398556984,-0.2969,-0.8975,-0.3286,-6.95,-2.32,-116.04
93,398562326,-0.2944,-0.8994,-0.3271,-3.84,-3.60,-115.91
94,398566984,-0.2891,-0.8994,-0.3232,-2.13,-4.45,-115.73
95,398571984,-0.2812,-0.8979,-0.3247,0.18,-5.61,-115.49
96,398576984,-0.2715,-0.8994,-0.3174,2.38,-6.71,-115.18
97,398581984,-0.2651,-0.8970,-0.3169,4.57,-7.99,-114.76
98,398586984,-0.2642,-0.8945,-0.3179,6.77,-9.21,-114.39
99,398591985,-0.2573,-0.8940,-0.3125,8.96,-10.37,-113.96
100,398596984,-0.2485,-0.8931,-0.3149,11.22,-11.65,-113.48
101,398601984,-0.2456,-0.8950,-0.3130,13.41,-12.93,-113.05
102,398606985,-0.2324,-0.8984,-0.3135,15.91,-14.33,-112.50
103,398611984,-0.2300,-0.9028,-0.3125,18.23,-15.67,-111.95
104,398616983,-0.2188,-0.9004,-0.3042,20.67,-17.38,-111.22
105,398621984,-0.2114,-0.8999,-0.3086,22.50,-18.66,-110.73
106,398626982,-0.2007,-0.8926,-0.3076,24.94,-20.55,-110.12
107,398631984,-0.1938,-0.8945,-0.2998,27.01,-22.26,-109.57
108,398636984,-0.1860,-0.8926,-0.2954,29.15,-23.90,-109.21
109,398641984,-0.1772,-0.8911,-0.2949,30.85,-25.55,-108.72
110,398646984,-0.1714,-0.8896,-0.3013,32.50,-27.07,-108.23
111,398651984,-0.1626,-0.8906,-0.3018,33.72,-28.84,-107.74
112,398656984,-0.1567,-0.8862,-0.3003,34.76,-30.49,-107.44
113,398661984,-0.1489,-0.8818,-0.3047,35.73,-32.13,-107.07
114,398666984,-0.1470,-0.8760,-0.3037,36.34,-33.60,-106.77
115,398671984,-0.1396,-0.8682,-0.2988,36.71,-35.24,-106.59
116,398676984,-0.1289,-0.8652,-0.3008,36.71,-36.77,-106.40
117,398681984,-0.1270,-0.8677,-0.3047,36.40,-38.29,-106.22
118,398686984,-0.1226,-0.8696,-0.3042,35.73,-39.94,-106.04
119,398691982,-0.1177,-0.8726,-0.3066,34.82,-41.46,-105.91
120,398696982,-0.1147,-0.8701,-0.3062,33.17,-42.93,-105.98
121,398701983,-0.1108,-0.8672,-0.3003,31.34,-44.02,-105.85
122,398706982,-0.1118,-0.8667,-0.2988,29.21,-45.30,-105.91
123,398711985,-0.1016,-0.8657,-0.3086,27.20,-46.28,-105.91
124,398716984,-0.0889,-0.8726,-0.3125,24.94,-47.62,-105.91
125,398721984,-0.0854,-0.8735,-0.3076,22.87,-48.84,-105.98
126,398726984,-0.0747,-0.8711,-0.3203,21.04,-49.82,-106.04
127,398731984,-0.0703,-0.8662,-0.3135,19.63,-50.79,-106.10
128,398736985,-0.0640,-0.8638,-0.3169,18.78,-52.07,-106.22
129,398741984,-0.0610,-0.8589,-0.3164,18.17,-53.17,-106.34
130,398746984,-0.0542,-0.8555,-0.3159,18.05,-54.09,-106.46
131,398751984,-0.0488,-0.8486,-0.3223,18.23,-55.12,-106.52
132,398756984,-0.0479,-0.8457,-0.3271,18.60,-56.04,-106.71
133,398761984,-0.0405,-0.8345,-0.3203,19.21,-57.13,-106.89
134,398766984,-0.0352,-0.8350,-0.3149,20.06,-57.93,-106.77
135,398771984,-0.0366,-0.8354,-0.3223,21.22,-59.15,-106.71
136,398776984,-0.0288,-0.8403,-0.3174,22.44,-60.12,-106.59
137,398781984,-0.0278,-0.8418,-0.3242,23.96,-61.16,-106.34
138,398786984,-0.0215,-0.8447,-0.3164,25.30,-62.20,-105.98
139,398791983,-0.0200,-0.8501,-0.3193,26.65,-63.17,-105.55
140,398796985,-0.0234,-0.8516,-0.3252,28.23,-64.02,-105.12
141,398801984,-0.0200,-0.8506,-0.3340,29.88,-64.88,-104.70
142,398806984,-0.0225,-0.8521,-0.3369,31.65,-65.61,-104.33
143,398811984,-0.0225,-0.8511,-0.3413,33.66,-66.22,-104.15
144,398816984,-0.0190,-0.8506,-0.3481,35.73,-66.89,-103.84
145,398821984,-0.0112,-0.8481,-0.3511,38.05,-67.44,-103.41
146,398826984,0.0015,-0.8438,-0.3491,40.37,-68.05,-103.23
147,398831984,0.0088,-0.8472,-0.3579,42.68,-68.48,-102.93
148,398836984,0.0156,-0.8423,-0.3584,45.12,-69.02,-102.56
149,398841984,0.0239,-0.8413,-0.3638,47.38,-69.57,-102.26
150,398846984,0.0327,-0.8369,-0.3691,49.51,-70.30,-102.01
151,398851984,0.0435,-0.8286,-0.3682,51.46,-70.91,-101.71
152,398856984,0.0630,-0.8193,-0.3687,53.41,-71.71,-101.52
153,398861984,0.0742,-0.8140,-0.3730,55.12,-72.56,-101.40
154,398866984,0.0840,-0.8130,-0.3755,56.65,-73.41,-101.04
155,398871984,0.0859,-0.8091,-0.3750,58.05,-74.21,-100.67
156,398876984,0.0967,-0.8062,-0.3755,59.09,-75.06,-100.30
157,398881984,0.0996,-0.8057,-0.3730,59.57,-75.79,-99.76
158,398886984,0.1113,-0.8042,-0.3745,59.88,-76.59,-99.27
159,398891984,0.1128,-0.8027,-0.3745,59.76,-77.13,-98.60
160,398896985,0.1177,-0.7993,-0.3667,59.51,-77.56,-97.99
161,398901984,0.1162,-0.8022,-0.3726,58.96,-77.99,-97.38
162,398906984,0.1108,-0.8076,-0.3726,58.11,-77.87,-96.95
163,398911983,0.1162,-0.8081,-0.3765,57.38,-78.05,-96.59
164,398916982,0.1260,-0.8096,-0.3765,56.34,-77.80,-96.10
165,398921982,0.1357,-0.8188,-0.3804,55.18,-77.62,-95.73
166,398926982,0.1543,-0.8198,-0.3877,54.51,-77.32,-95.49
167,398931984,0.1655,-0.8228,-0.3843,53.96,-76.83,-95.18
168,398936984,0.1655,-0.8218,-0.3862,54.09,-76.46,-94.94
169,398941984,0.1670,-0.8174,-0.3931,54.70,-75.91,-94.76
170,398946984,0.1816,-0.8208,-0.3970,55.91,-75.61,-94.51
171,398951984,0.1948,-0.8203,-0.3999,57.38,-75.12,-94.39
172,398956984,0.2100,-0.8232,-0.4004,59.51,-74.57,-94.21
173,398961984,0.2188,-0.8242,-0.3960,61.95,-74.09,-94.02
174,398966984,0.2222,-0.8271,-0.3960,64.57,-73.72,-93.72
175,398971985,0.2192,-0.8237,-0.4009,67.56,-73.23,-93.35
176,398976984,0.2100,-0.8315,-0.4033,70.49,-72.74,-92.99
177,398981983,0.2100,-0.8364,-0.3984,73.23,-71.83,-92.68
178,398986984,0.2129,-0.8457,-0.4014,75.91,-71.16,-92.26
179,398991984,0.2178,-0.8525,-0.3989,78.23,-70.37,-91.89
180,398996982,0.2217,-0.8550,-0.3979,80.24,-69.27,-91.59
181,399001982,0.2217,-0.8604,-0.4072,81.95,-68.17,-91.34
182,399006982,0.2271,-0.8696,-0.4121,83.35,-67.13,-91.28
183,399011985,0.2388,-0.8691,-0.4121,84.33,-66.04,-91.04
184,399016984,0.2578,-0.8657,-0.4062,84.94,-65.06,-91.10
185,399021984,0.2808,-0.8608,-0.4111,85.30,-64.15,-91.16
186,399026984,0.2988,-0.8662,-0.4053,85.24,-63.35,-91.10
187,399031984,0.3125,-0.8711,-0.4009,84.27,-62.56,-90.85
188,399036984,0.3242,-0.8799,-0.3950,83.05,-62.13,-90.49
189,399041984,0.3433,-0.8853,-0.3975,81.16,-61.59,-89.76
190,399046984,0.3599,-0.8916,-0.3892,78.96,-61.04,-88.90
191,399051984,0.3716,-0.8999,-0.3784,76.28,-60.67,-87.93
192,399056984,0.3784,-0.9097,-0.3750,73.29,-60.06,-86.77
193,399061984,0.3779,-0.9131,-0.3730,70.18,-59.57,-85.67
194,399066984,0.3813,-0.9180,-0.3667,66.95,-58.96,-84.39
195,399071984,0.3931,-0.9214,-0.3633,63.66,-58.17,-83.35
196,399076984,0.4019,-0.9194,-0.3589,60.00,-57.50,-82.13
197,399081984,0.4033,-0.9263,-0.3564,56.77,-56.77,-81.16
198,399086984,0.4067,-0.9297,-0.3525,53.54,-55.73,-80.18
199,399091984,0.4043,-0.9331,-0.3599,50.61,-54.82,-79.21
200,399096984,0.4131,-0.9346,-0.3540,47.87,-53.66,-78.54
201,399101983,0.4136,-0.9365,-0.3599,45.43,-52.38,-77.99
202,399106985,0.4238,-0.9346,-0.3657,43.29,-51.16,-77.44
203,399111984,0.4263,-0.9380,-0.3623,41.46,-49.88,-77.20
204,399116984,0.4312,-0.9531,-0.3643,40.00,-48.48,-76.83
205,399122363,0.4487,-0.9766,-0.3950,38.11,-47.26,-76.34
206,399126984,0.4585,-0.9722,-0.3564,35.91,-45.91,-75.73
207,399131984,0.4663,-0.9775,-0.3623,33.96,-44.63,-75.18
208,399136983,0.4678,-0.9912,-0.3740,31.95,-43.48,-74.33
209,399141986,0.4736,-0.9927,-0.3662,30.00,-42.62,-73.35
210,399146984,0.4878,-1.0317,-0.3975,27.80,-41.52,-72.32
211,399151984,0.5005,-1.0420,-0.3877,25.43,-40.55,-71.22
212,399156984,0.4976,-1.0356,-0.3809,23.60,-39.27,-70.12
213,399161984,0.4893,-1.0620,-0.4263,22.07,-38.29,-68.96
214,399167462,0.5044,-1.0977,-0.4761,20.30,-37.44,-67.93
215,399171987,0.5474,-1.0923,-0.4849,18.54,-36.46,-67.13
216,399176984,0.5444,-1.0703,-0.4678,17.01,-35.43,-66.65
217,399181986,0.5156,-1.0239,-0.4839,15.85,-34.45,-66.59
218,399186984,0.5010,-0.9829,-0.5098,14.39,-33.60,-66.83
219,399191983,0.4868,-0.9429,-0.4927,12.93,-33.05,-67.13
220,399197445,0.4912,-0.8896,-0.4922,11.34,-32.01,-67.99
221,399201984,0.4937,-0.8462,-0.5024,9.82,-31.28,-69.15
222,399206986,0.4995,-0.8008,-0.5322,7.93,-30.49,-70.91
223,399211984,0.5059,-0.7666,-0.5381,6.16,-29.88,-72.07
224,399217438,0.4976,-0.7339,-0.5376,3.54,-29.09,-73.90
225,399221984,0.4888,-0.7065,-0.5405,0.24,-28.17,-75.79
226,399226984,0.4814,-0.7031,-0.5103,-3.54,-27.01,-77.44
227,399231984,0.4668,-0.7070,-0.4751,-7.99,-25.55,-78.90
228,399236984,0.4424,-0.7349,-0.4224,-12.80,-23.78,-80.00
229,399241984,0.4111,-0.7544,-0.3735,-17.38,-21.77,-80.73
230,399246984,0.3945,-0.7744,-0.3267,-21.46,-19.76,-81.16
231,399251984,0.3916,-0.7671,-0.2949,-24.88,-17.26,-81.40
232,399256984,0.3926,-0.7554,-0.2734,-27.32,-14.76,-81.59
233,399261984,0.4014,-0.7505,-0.2554,-29.09,-12.44,-81.89
234,399266984,0.4146,-0.7358,-0.2417,-31.04,-9.51,-82.01
235,399271984,0.4175,-0.7251,-0.2402,-32.20,-7.87,-82.07
236,399276984,0.4238,-0.7085,-0.2383,-33.35,-5.55,-82.07
237,399281984,0.4360,-0.6758,-0.2441,-34.15,-3.60,-82.20
238,399286982,0.4541,-0.6416,-0.2554,-34.57,-1.71,-82.32
239,399291982,0.4707,-0.6147,-0.2798,-34.63,-0.18,-82.38
240,399296983,0.4858,-0.6060,-0.2979,-34.57,1.40,-82.50
241,399301984,0.5020,-0.5991,-0.3169,-34.09,2.62,-82.56
242,399306982,0.5210,-0.5898,-0.3345,-33.60,3.84,-82.44
243,399311986,0.5410,-0.5781,-0.3481,-32.74,5.06,-82.32
244,399316983,0.5586,-0.5630,-0.3481,-31.65,6.22,-82.13
245,399321984,0.5688,-0.5405,-0.3447,-29.94,7.26,-82.26
246,399326984,0.5815,-0.5195,-0.3623,-28.78,7.87,-82.20
247,399332383,0.5884,-0.5059,-0.3618,-26.65,8.66,-82.44
248,399336984,0.5972,-0.4966,-0.3716,-25.49,9.33,-82.62
249,399341984,0.6074,-0.4829,-0.3809,-24.57,9.88,-82.68
250,399346984,0.6113,-0.4785,-0.3931,-24.21,10.49,-82.93
251,399351984,0.6191,-0.4639,-0.4106,-24.76,11.52,-83.11
252,399356984,0.6230,-0.4517,-0.4238,-25.85,12.01,-83.29
253,399362341,0.6338,-0.4414,-0.4360,-27.93,13.11,-83.66
254,399366984,0.6436,-0.4224,-0.4507,-31.52,14.45,-84.09
255,399371984,0.6475,-0.4131,-0.4692,-35.43,15.91,-84.33
256,399377469,0.6489,-0.3989,-0.4790,-40.06,17.50,-84.57
257,399381984,0.6504,-0.3828,-0.4849,-44.39,18.96,-84.82
258,399386984,0.6460,-0.3765,-0.4951,-51.59,21.59,-85.30
259,399391987,0.6494,-0.3628,-0.5107,-58.11,24.27,-85.61
260,399396984,0.6465,-0.3574,-0.5190,-63.60,26.28,-85.79
261,399401985,0.6489,-0.3403,-0.5220,-70.49,28.96,-85.91
262,399406984,0.6489,-0.3442,-0.5239,-77.44,32.07,-86.16
263,399411985,0.6489,-0.3369,-0.5508,-84.33,35.43,-86.10
264,399416984,0.6514,-0.3330,-0.5547,-91.16,38.84,-86.04
265,399421984,0.6372,-0.3159,-0.5537,-99.02,43.29,-85.49
266,399426984,0.6357,-0.3169,-0.5581,-103.78,46.22,-85.12
267,399431984,0.6372,-0.3154,-0.5596,-109.63,50.18,-84.33
268,399436984,0.6240,-0.3091,-0.5498,-114.88,54.09,-83.35
269,399441984,0.6182,-0.2935,-0.5503,-119.39,57.93,-82.13
270,399446984,0.6104,-0.2964,-0.5425,-123.17,62.13,-80.55
271,399451984,0.6045,-0.2944,-0.5337,-126.28,65.85,-78.84
272,399456984,0.5938,-0.2734,-0.5327,-128.72,69.76,-76.77
273,399461984,0.5962,-0.2646,-0.5278,-130.37,73.84,-74.51
274,399466984,0.5933,-0.2588,-0.5122,-131.46,77.68,-72.13
275,399472352,0.5835,-0.2441,-0.5024,-131.77,82.50,-68.96
276,399476984,0.5791,-0.2358,-0.4888,-131.52,86.22,-66.16
277,399481984,0.5947,-0.2197,-0.4922,-131.04,87.87,-63.72
278,399486983,0.5903,-0.2124,-0.4834,-129.88,91.89,-60.79
279,399491986,0.5713,-0.2095,-0.4556,-128.05,95.49,-57.32
280,399496984,0.5503,-0.1929,-0.4375,-125.91,98.96,-53.90
281,399501984,0.5391,-0.1895,-0.4165,-123.35,102.32,-50.24
282,399506984,0.5405,-0.1860,-0.4146,-120.61,105.55,-46.52
283,399511985,0.5400,-0.1738,-0.3965,-117.38,108.72,-42.50
284,399516984,0.5361,-0.1636,-0.3701,-114.02,111.77,-38.54
285,399521984,0.5225,-0.1562,-0.3442,-110.12,114.88,-34.51
286,399526984,0.5166,-0.1567,-0.3174,-105.18,118.41,-29.45
287,399531984,0.5181,-0.1577,-0.3047,-101.83,120.91,-26.10
288,399536984,0.5171,-0.1528,-0.2817,-97.74,123.78,-21.71
289,399541983,0.5151,-0.1484,-0.2554,-93.29,126.28,-17.38
290,399546984,0.5146,-0.1504,-0.2373,-89.02,129.09,-12.93
291,399551983,0.5176,-0.1533,-0.2046,-84.57,131.71,-8.66
292,399556984,0.5103,-0.1543,-0.1860,-80.30,134.33,-4.27
293,399561984,0.5127,-0.1548,-0.1616,-75.85,136.77,0.18
294,399566984,0.5107,-0.1514,-0.1304,-71.71,139.33,4.45
295,399572361,0.5020,-0.1533,-0.1001,-66.77,142.13,9.45
296,399576984,0.5039,-0.1538,-0.0898,-63.84,144.09,12.87
297,399581983,0.4976,-0.1562,-0.0640,-60.43,146.28,16.95
298,399586982,0.4927,-0.1519,-0.0303,-57.50,148.60,20.91
299,399591982,0.4829,-0.1587,-0.0068,-54.82,150.79,24.94
300,399596982,0.4810,-0.1641,0.0215,-52.56,152.87,28.66
301,399601986,0.4766,-0.1626,0.0405,-50.79,154.94,32.56
302,399606983,0.4712,-0.1685,0.0586,-49.45,156.95,36.16
303,399611984,0.4683,-0.1724,0.0840,-48.23,158.78,39.94
304,399616985,0.4634,-0.1797,0.1064,-47.44,160.43,43.48
305,399621984,0.4595,-0.1812,0.1313,-46.83,162.01,47.32
306,399626984,0.4575,-0.1904,0.1558,-46.77,163.72,51.71
307,399631984,0.4468,-0.1895,0.1797,-47.01,164.70,54.51
308,399636985,0.4414,-0.1997,0.1943,-47.32,165.98,58.11
309,399641984,0.4365,-0.2109,0.2236,-47.99,167.01,61.89
310,399647233,0.4473,-0.2266,0.2510,-48.96,168.29,66.28
311,399651984,0.4468,-0.2441,0.2729,-49.82,169.02,69.39
312,399656984,0.4463,-0.2534,0.3037,-50.85,169.76,73.05
313,399661984,0.4473,-0.2578,0.3247,-52.13,170.30,76.83
314,399666984,0.4331,-0.2690,0.3486,-53.35,170.91,80.49
315,399671984,0.4307,-0.2710,0.3804,-54.82,171.10,83.84
316,399676984,0.4263,-0.2769,0.4067,-56.10,171.28,87.50
317,399681984,0.4146,-0.2896,0.4277,-57.38,171.28,90.67
318,399686984,0.4033,-0.3110,0.4531,-58.23,171.16,94.02
319,399691984,0.4019,-0.3262,0.4863,-59.15,170.85,97.87
320,399696984,0.3911,-0.3477,0.5039,-59.51,170.37,100.91
321,399701984,0.3794,-0.3691,0.5244,-59.57,169.76,103.96
322,399706984,0.3633,-0.3823,0.5454,-59.09,168.90,106.40
323,399711984,0.3589,-0.3931,0.5684,-58.11,167.80,109.15
324,399716983,0.3511,-0.4077,0.6001,-56.71,166.52,111.65
325,399721985,0.3452,-0.4507,0.6367,-54.27,165.24,113.90
326,399726984,0.3408,-0.4658,0.6528,-51.28,163.72,116.04
327,399731984,0.3374,-0.4707,0.6787,-47.50,161.83,118.11
328,399736984,0.3262,-0.4805,0.7061,-42.87,160.00,119.94
329,399741984,0.3193,-0.4819,0.7329,-37.44,158.05,121.22
330,399746982,0.3174,-0.4946,0.7578,-31.46,155.73,122.32
331,399751984,0.3115,-0.5112,0.7759,-25.00,153.29,122.99
332,399756984,0.3115,-0.5225,0.8169,-18.23,150.79,123.41
333,399761984,0.3042,-0.5518,0.8389,-10.91,148.29,123.96
334,399766984,0.3081,-0.5742,0.8652,-3.72,145.55,124.33
335,399771984,0.3076,-0.6006,0.8813,3.66,142.80,124.51
336,399776984,0.3086,-0.6147,0.9111,10.55,139.94,124.63
337,399781984,0.3276,-0.6255,0.9360,17.44,137.01,124.82
338,399786987,0.3228,-0.6445,0.9644,25.18,132.93,124.82
339,399791984,0.3188,-0.6489,0.9873,30.18,130.12,124.70
340,399796984,0.2998,-0.6626,1.0093,35.91,126.65,124.45
341,399801984,0.3042,-0.6904,1.0356,41.22,122.80,124.21
342,399806984,0.2876,-0.7046,1.0708,45.85,118.90,123.78
343,399811984,0.2847,-0.7129,1.0859,50.43,113.84,123.17
344,399816984,0.2788,-0.7109,1.1167,52.80,110.43,122.62
345,399821985,0.2627,-0.7178,1.1450,55.49,105.12,122.01
346,399826984,0.2485,-0.7217,1.1709,56.95,100.37,121.34
347,399831984,0.2402,-0.7363,1.1895,57.50,95.73,120.73
348,399836984,0.2412,-0.7476,1.2056,57.38,90.49,120.12
349,399841984,0.2495,-0.7603,1.2329,56.59,86.16,119.45
350,399846984,0.2603,-0.7729,1.2603,54.76,82.07,119.09
351,399851984,0.2539,-0.7808,1.2769,52.68,76.95,118.72
352,399856984,0.2476,-0.7856,1.2939,50.43,71.83,118.17
353,399861984,0.2437,-0.7842,1.3125,48.17,66.71,117.80
354,399866984,0.2334,-0.7944,1.3442,46.22,61.40,117.20
355,399871984,0.2090,-0.8130,1.3701,44.57,56.10,116.65
356,399876984,0.2046,-0.8184,1.3843,43.60,50.73,116.28
357,399881984,0.1963,-0.8350,1.4199,42.87,45.12,116.16
358,399886982,0.1924,-0.8384,1.4409,42.74,39.33,116.16
359,399891982,0.1792,-0.8613,1.4619,42.93,33.54,116.28
360,399896982,0.1748,-0.8687,1.4751,43.96,27.38,116.71
361,399901982,0.1670,-0.8765,1.4907,45.30,20.98,117.13
362,399906982,0.1548,-0.8726,1.5063,47.20,14.39,117.56
363,399911986,0.1426,-0.8706,1.5288,49.63,7.87,118.11
364,399916984,0.1353,-0.8789,1.5439,52.50,1.04,118.66
365,399922108,0.1196,-0.8960,1.5679,55.49,-5.49,119.33
366,399926984,0.0996,-0.9204,1.5806,58.48,-12.44,119.94
367,399931984,0.0879,-0.9355,1.5928,61.71,-19.15,120.79
368,399936984,0.0737,-0.9517,1.6133,64.76,-26.04,121.46
369,399941984,0.0542,-0.9629,1.6353,67.50,-32.80,122.07
370,399946984,0.0376,-0.9702,1.6475,70.24,-39.63,122.74
371,399952170,0.0215,-0.9858,1.6538,72.93,-46.22,123.41
372,399956984,0.0137,-0.9917,1.6597,75.30,-52.99,123.90
373,399961984,-0.0161,-1.0146,1.6782,77.32,-59.57,124.63
374,399966984,-0.0400,-1.0312,1.6851,79.45,-66.34,125.49
375,399971984,-0.0562,-1.0522,1.6919,81.46,-72.80,126.52
376,399976984,-0.0654,-1.0728,1.6997,83.41,-79.27,127.68
377,399981984,-0.0889,-1.0903,1.7075,85.49,-85.67,128.90
378,399986984,-0.1045,-1.0952,1.7075,87.56,-92.13,130.12
379,399991984,-0.1353,-1.1108,1.7178,89.76,-98.48,131.10
380,399996984,-0.1709,-1.1294,1.7197,92.13,-104.88,132.20
381,400001986,-0.1934,-1.1382,1.7197,94.76,-111.34,133.29
382,400006984,-0.2129,-1.1582,1.7295,97.32,-117.62,133.96
383,400011984,-0.2349,-1.1685,1.7246,99.70,-123.90,134.63
384,400016984,-0.2563,-1.1899,1.7368,101.65,-130.18,135.37
385,400021985,-0.2769,-1.2017,1.7305,103.29,-136.52,136.10
386,400026984,-0.2964,-1.2183,1.7314,104.76,-143.05,136.77
387,400031984,-0.3228,-1.2373,1.7256,105.85,-149.51,137.44
388,400036984,-0.3545,-1.2515,1.7324,107.44,-157.93,138.17
389,400041984,-0.3682,-1.2700,1.7041,108.60,-162.99,139.02
390,400046984,-0.3882,-1.2861,1.6875,110.49,-169.51,140.12
391,400051984,-0.4067,-1.3145,1.6660,112.74,-176.40,141.34
392,400056985,-0.4165,-1.3345,1.6475,115.37,-183.48,142.80
393,400062195,-0.4287,-1.3511,1.6440,117.99,-190.55,144.63
394,400066982,-0.4370,-1.3599,1.6094,120.49,-197.99,146.22
395,400071984,-0.4438,-1.3633,1.5869,122.99,-205.55,148.05
396,400076984,-0.4678,-1.3774,1.5591,125.12,-213.35,149.94
397,400081984,-0.4810,-1.3857,1.5347,126.95,-221.46,151.77
398,400086984,-0.4971,-1.4009,1.5054,129.70,-229.63,153.72
399,400091984,-0.5059,-1.4116,1.4834,129.76,-238.11,155.73
400,400096984,-0.5234,-1.4238,1.4482,129.88,-246.65,157.68
401,400101984,-0.5459,-1.4502,1.4087,132.13,-255.43,159.76
402,400106984,-0.5664,-1.4771,1.3779,132.56,-264.21,161.95
403,400111984,-0.5840,-1.4961,1.3418,132.87,-273.05,164.33
404,400116985,-0.6074,-1.5259,1.3057,133.60,-281.83,166.77
405,400121984,-0.6133,-1.5356,1.2676,134.09,-290.43,169.27
406,400126985,-0.6372,-1.5493,1.2241,134.09,-299.21,171.46
407,400131984,-0.6616,-1.5713,1.1821,133.23,-307.62,173.66
408,400136984,-0.6890,-1.5942,1.1377,132.50,-315.79,175.79
409,400141984,-0.7031,-1.6099,1.0942,129.45,-323.72,177.62
410,400146984,-0.7251,-1.6226,1.0459,128.72,-331.59,179.33
411,400151984,-0.7510,-1.6445,0.9932,125.18,-339.15,180.49
412,400157531,-0.7681,-1.6538,0.9438,121.59,-346.28,181.40
413,400161984,-0.7949,-1.6709,0.8999,117.87,-353.48,181.83
414,400166984,-0.8472,-1.6860,0.8389,113.96,-359.88,181.77
415,400171984,-0.8765,-1.6982,0.7822,109.82,-366.28,180.85
416,400176983,-0.8882,-1.7124,0.7148,105.24,-372.01,179.39
417,400181983,-0.8906,-1.7275,0.6455,100.55,-377.32,177.13
418,400186983,-0.8794,-1.7246,0.5752,95.61,-381.77,174.33
419,400191983,-0.8848,-1.7310,0.5088,90.43,-385.55,170.73
420,400196985,-0.9116,-1.7549,0.4370,85.43,-388.90,166.46
421,400201982,-0.9312,-1.7812,0.3501,80.24,-391.59,161.34
422,400206983,-0.9414,-1.8027,0.2803,75.30,-393.17,155.61
423,400211984,-0.9316,-1.8267,0.1914,70.67,-393.72,149.02
424,400216983,-0.9214,-1.8389,0.1230,66.28,-392.93,141.71
425,400221984,-0.9355,-1.8779,0.0342,62.50,-390.79,133.60
426,400226982,-0.9336,-1.9185,-0.0737,59.63,-387.13,125.43
427,400231985,-0.9053,-1.9121,-0.2012,58.35,-383.48,116.95
428,400236984,-0.8818,-1.9233,-0.2988,58.05,-379.09,108.35
429,400241984,-0.8594,-1.9268,-0.3726,58.35,-374.02,99.57
430,400246984,-0.8530,-1.9253,-0.4297,59.02,-368.60,90.91
431,400251984,-0.8315,-1.9126,-0.5200,59.94,-362.07,82.26
432,400256984,-0.8062,-1.9136,-0.5771,61.22,-355.37,73.17
433,400261984,-0.7773,-1.9136,-0.6465,62.26,-347.80,64.45
434,400266984,-0.7568,-1.9077,-0.7114,63.29,-339.88,55.67
435,400271984,-0.7271,-1.8994,-0.7710,64.15,-331.10,46.95
436,400276984,-0.6870,-1.8887,-0.7944,64.57,-322.01,37.99
437,400281984,-0.6582,-1.8853,-0.8242,64.63,-312.50,28.96
438,400286984,-0.6245,-1.8643,-0.8677,64.27,-302.50,20.37
439,400291984,-0.5864,-1.8335,-0.8926,63.29,-292.20,11.65
440,400296984,-0.5488,-1.8022,-0.8916,61.52,-282.01,3.29
441,400301984,-0.5146,-1.7676,-0.8921,59.02,-271.95,-5.00
442,400306984,-0.4766,-1.7417,-0.9053,56.04,-261.52,-12.99
443,400311984,-0.4297,-1.7095,-0.9004,52.56,-251.34,-20.61
444,400316984,-0.3926,-1.6787,-0.8896,49.02,-241.34,-27.87
445,400321984,-0.3608,-1.6392,-0.8838,44.94,-231.40,-34.76
446,400326984,-0.3271,-1.5908,-0.8857,41.10,-221.89,-41.28
447,400331986,-0.2900,-1.5371,-0.8901,37.01,-212.44,-47.38
448,400336984,-0.2642,-1.4849,-0.8838,33.35,-203.48,-53.35
449,400341984,-0.2373,-1.4399,-0.8784,30.24,-194.76,-58.96
450,400346984,-0.2095,-1.3955,-0.8706,27.99,-186.16,-64.09
451,400351984,-0.1753,-1.3491,-0.8613,26.16,-178.11,-68.78
452,400356984,-0.1494,-1.2969,-0.8394,25.00,-170.18,-72.99
453,400362052,-0.1260,-1.2495,-0.8286,23.90,-162.50,-76.71
454,400367114,-0.0913,-1.1963,-0.8091,23.23,-153.78,-80.49
455,400371984,-0.0718,-1.1587,-0.7852,22.80,-148.11,-82.62
456,400376984,-0.0439,-1.1162,-0.7617,22.13,-141.34,-84.82
457,400381984,-0.0269,-1.0708,-0.7485,21.65,-134.94,-86.40
458,400386984,0.0103,-1.0327,-0.7456,21.04,-128.41,-87.44
459,400391984,0.0278,-0.9961,-0.7188,20.67,-122.32,-88.11
460,400396984,0.0479,-0.9580,-0.7090,20.30,-116.52,-88.35
461,400401984,0.0806,-0.9224,-0.7090,20.00,-110.85,-88.17
462,400406983,0.0957,-0.8955,-0.6836,19.88,-105.24,-87.56
463,400411986,0.1147,-0.8579,-0.6631,19.94,-99.94,-86.59
464,400416983,0.1504,-0.8286,-0.6533,19.57,-94.82,-85.12
465,400421984,0.1606,-0.8062,-0.6348,19.15,-89.76,-83.54
466,400426984,0.1870,-0.7803,-0.6138,18.78,-84.82,-81.52
467,400431984,0.2153,-0.7559,-0.6021,18.29,-80.24,-79.45
468,400436985,0.2388,-0.7314,-0.5942,17.74,-75.79,-76.95
469,400441984,0.2554,-0.7031,-0.5737,17.38,-71.52,-74.51
470,400446984,0.2861,-0.6738,-0.5684,16.89,-67.44,-71.89
471,400451984,0.3057,-0.6484,-0.5513,16.40,-63.60,-69.15
472,400456984,0.3184,-0.6382,-0.5381,15.85,-59.70,-66.46
473,400461984,0.3291,-0.6240,-0.5103,15.43,-56.04,-63.72
474,400466984,0.3408,-0.6099,-0.5049,15.18,-52.44,-61.04
475,400471984,0.3604,-0.5933,-0.4854,14.70,-48.78,-58.11
476,400476982,0.3726,-0.5884,-0.4546,14.27,-45.49,-55.55
477,400481982,0.3931,-0.5732,-0.4512,13.84,-41.95,-52.56
478,400486982,0.4209,-0.5654,-0.4355,13.23,-38.90,-49.70
479,400491982,0.4253,-0.5581,-0.3970,12.13,-35.79,-47.01
480,400496982,0.4307,-0.5552,-0.3755,10.91,-32.80,-44.21
481,400501984,0.4448,-0.5518,-0.3716,9.51,-29.88,-41.52
482,400506983,0.4604,-0.5483,-0.3462,7.87,-27.50,-38.84
483,400511984,0.4736,-0.5464,-0.3286,6.04,-24.94,-36.16
484,400516985,0.4849,-0.5410,-0.3062,4.51,-22.62,-33.66
485,400521984,0.4951,-0.5376,-0.3008,2.80,-20.43,-31.04
486,400526984,0.5024,-0.5415,-0.2822,1.34,-18.23,-28.48
487,400531984,0.5171,-0.5400,-0.2632,0.00,-16.34,-26.10
488,400536986,0.5259,-0.5366,-0.2534,-1.16,-14.51,-23.66
489,400541984,0.5327,-0.5376,-0.2407,-2.20,-12.74,-21.40
490,400546984,0.5410,-0.5352,-0.2261,-3.05,-11.16,-19.15
491,400551984,0.5479,-0.5361,-0.2104,-4.02,-9.63,-17.13
492,400556984,0.5581,-0.5347,-0.1938,-4.57,-8.29,-15.12
493,400561984,0.5708,-0.5347,-0.1797,-5.24,-6.95,-13.05
494,400566984,0.5791,-0.5420,-0.1699,-5.61,-5.67,-11.16
495,400571983,0.5908,-0.5444,-0.1436,-6.16,-4.27,-9.09
496,400576984,0.6035,-0.5503,-0.1328,-6.77,-3.54,-7.74
497,400581984,0.6113,-0.5498,-0.1226,-7.38,-2.38,-6.16
498,400586984,0.6196,-0.5605,-0.1050,-8.23,-1.52,-4.76
499,400591984,0.6255,-0.5649,-0.0884,-9.21,-0.49,-3.11
500,400596984,0.6406,-0.5742,-0.0859,-10.49,0.37,-1.65
501,400601984,0.6499,-0.5776,-0.0713,-12.26,1.04,-0.24
502,400606984,0.6553,-0.5781,-0.0566,-13.96,2.01,0.91
503,400612391,0.6709,-0.5850,-0.0562,-16.40,2.68,2.38
504,400616984,0.6772,-0.5913,-0.0459,-18.17,3.35,3.35
505,400621984,0.6851,-0.5952,-0.0391,-20.30,4.02,4.70
506,400626984,0.6943,-0.5991,-0.0400,-22.26,4.63,5.73
507,400631984,0.7031,-0.6094,-0.0396,-24.27,5.24,6.89
508,400636984,0.7104,-0.6152,-0.0347,-25.91,5.67,7.99
509,400641986,0.7212,-0.6216,-0.0278,-27.26,6.16,9.15
510,400646984,0.7202,-0.6323,-0.0332,-28.35,6.59,10.24
511,400651984,0.7295,-0.6426,-0.0322,-29.15,6.83,11.28
512,400656984,0.7349,-0.6494,-0.0283,-29.57,7.13,12.38
513,400661984,0.7417,-0.6602,-0.0327,-30.06,7.01,13.54
514,400666984,0.7441,-0.6646,-0.0288,-30.30,7.38,14.63
515,400671983,0.7476,-0.6704,-0.0322,-30.49,7.20,15.49
516,400676984,0.7466,-0.6816,-0.0293,-30.73,7.13,16.46
517,400681982,0.7510,-0.6895,-0.0269,-31.16,7.01,17.50
518,400686984,0.7485,-0.6968,-0.0312,-31.65,6.95,18.29
519,400691984,0.7446,-0.7041,-0.0347,-32.38,6.83,19.09
520,400696984,0.7407,-0.7144,-0.0352,-33.35,6.71,19.70
521,400702320,0.7354,-0.7236,-0.0386,-34.45,6.46,20.49
522,400706984,0.7300,-0.7295,-0.0371,-35.49,6.34,21.10
523,400711984,0.7275,-0.7402,-0.0444,-36.52,5.98,21.52
524,400716984,0.7236,-0.7495,-0.0483,-37.38,5.73,21.83
525,400722428,0.7119,-0.7593,-0.0518,-38.72,5.55,22.26
526,400726984,0.7031,-0.7637,-0.0596,-39.51,5.06,22.44
527,400731984,0.6943,-0.7695,-0.0576,-40.67,4.70,22.62
528,400736984,0.6943,-0.7739,-0.0728,-41.83,4.51,22.74
529,400741986,0.6885,-0.7808,-0.0645,-42.99,4.02,22.68
530,400746984,0.6772,-0.7798,-0.0684,-44.15,4.02,22.44
531,400751984,0.6714,-0.7847,-0.0684,-45.37,3.90,22.07
532,400756984,0.6631,-0.7866,-0.0684,-46.40,3.96,21.46
533,400762101,0.6587,-0.8003,-0.0703,-47.68,3.78,20.85
534,400766984,0.6499,-0.8027,-0.0752,-48.84,3.84,20.12
535,400771983,0.6436,-0.8086,-0.0796,-50.00,3.96,19.39
536,400776984,0.6304,-0.8164,-0.0820,-51.46,4.15,18.60
537,400781984,0.6235,-0.8193,-0.0898,-53.05,4.39,17.68
538,400786983,0.6274,-0.8213,-0.0889,-54.51,4.76,16.77
539,400791982,0.6201,-0.8271,-0.0942,-56.04,5.18,15.91
540,400797619,0.6025,-0.8306,-0.1084,-57.74,5.85,14.63
541,400801984,0.5947,-0.8315,-0.1157,-58.66,6.34,13.84
542,400806984,0.5942,-0.8335,-0.1128,-59.70,6.95,12.93
543,400811984,0.5859,-0.8340,-0.1084,-60.55,7.62,11.95
544,400816984,0.5874,-0.8164,-0.1392,-61.10,8.48,11.16
545,400821984,0.5962,-0.8140,-0.1670,-60.91,9.02,10.24
546,400826984,0.5840,-0.8198,-0.1621,-59.88,9.94,9.45
547,400831984,0.5562,-0.8218,-0.1582,-58.96,10.79,8.72
548,400836984,0.5288,-0.8198,-0.1523,-58.11,11.83,7.99
549,400841986,0.5225,-0.8091,-0.1685,-57.32,12.68,7.13
550,400846984,0.5234,-0.8037,-0.1802,-56.95,13.54,6.52
551,400851983,0.5298,-0.7939,-0.1704,-57.07,14.45,5.73
552,400856984,0.5347,-0.7900,-0.1621,-57.56,15.49,4.94
553,400861984,0.5435,-0.8169,-0.1650,-58.48,16.59,4.27
554,400866984,0.5161,-0.7876,-0.1782,-60.30,17.56,3.54
555,400871984,0.4883,-0.8003,-0.1860,-62.44,18.48,2.80
556,400876984,0.4932,-0.7866,-0.1836,-64.02,19.33,2.44
557,400881984,0.4517,-0.7881,-0.1968,-65.37,20.55,1.95
558,400886984,0.4336,-0.8335,-0.1934,-67.56,21.77,1.71
559,400891984,0.4697,-0.8193,-0.1724,-70.79,23.11,1.28
560,400896984,0.4463,-0.8472,-0.2017,-74.21,24.21,0.79
561,400901984,0.4629,-0.8345,-0.2100,-77.50,25.55,0.37
562,400907330,0.4697,-0.8042,-0.2124,-81.28,27.56,-0.30
563,400911984,0.4692,-0.7822,-0.2173,-83.78,28.84,-0.73
564,400916984,0.4590,-0.7803,-0.2139,-87.13,30.37,-1.16
565,400922445,0.4614,-0.7734,-0.2241,-91.22,32.32,-1.52
566,400926984,0.4604,-0.7686,-0.2183,-93.66,33.60,-1.59
567,400932322,0.4590,-0.7568,-0.2290,-97.26,35.85,-1.71
568,400936984,0.4595,-0.7607,-0.2407,-99.39,37.20,-1.71
569,400941984,0.4604,-0.7554,-0.2393,-101.77,39.15,-1.71
570,400946986,0.4575,-0.7432,-0.2437,-103.84,40.85,-1.59
571,400951984,0.4556,-0.7314,-0.2534,-105.85,42.56,-1.40
572,400956984,0.4556,-0.7222,-0.2617,-107.50,44.15,-1.16
573,400961984,0.4492,-0.7188,-0.2681,-109.21,45.73,-0.91
574,400966984,0.4473,-0.7114,-0.2734,-110.91,47.26,-0.43
575,400971984,0.4478,-0.6963,-0.2900,-112.56,48.78,-0.06
576,400976984,0.4443,-0.6860,-0.2974,-114.27,50.18,0.55
577,400981984,0.4458,-0.6699,-0.3022,-116.22,51.46,1.10
578,400986984,0.4395,-0.6582,-0.3018,-118.11,52.74,1.83
579,400991984,0.4414,-0.6489,-0.3076,-120.18,54.09,2.56
580,400997413,0.4438,-0.6514,-0.3091,-122.87,55.61,3.60
581,401001984,0.4434,-0.6455,-0.3052,-124.82,56.65,4.27
582,401006984,0.4429,-0.6440,-0.3115,-127.20,57.93,5.37
583,401012451,0.4448,-0.6348,-0.3164,-130.00,59.15,6.77
584,401016984,0.4487,-0.6274,-0.3135,-132.01,60.00,7.68
585,401021986,0.4463,-0.6255,-0.3149,-134.57,61.16,8.90
586,401026984,0.4526,-0.6147,-0.3130,-137.26,62.32,10.18
587,401031984,0.4565,-0.6084,-0.3120,-140.12,63.11,11.59
588,401036984,0.4580,-0.6016,-0.3076,-142.99,64.09,13.05
589,401041986,0.4551,-0.5967,-0.3115,-145.91,65.00,14.51
590,401046984,0.4517,-0.5889,-0.3223,-148.96,65.55,16.04
591,401051984,0.4482,-0.5850,-0.3105,-152.07,66.22,17.44
592,401056983,0.4399,-0.5830,-0.3091,-155.49,67.07,19.02
593,401061984,0.4404,-0.5840,-0.3062,-159.09,67.50,20.67
594,401066984,0.4375,-0.5796,-0.3008,-162.80,68.11,22.38
595,401071984,0.4336,-0.5806,-0.2993,-166.83,68.72,24.39
596,401076984,0.4321,-0.5820,-0.3018,-170.73,69.27,26.22
597,401081983,0.4238,-0.5781,-0.2964,-174.76,69.63,28.41
598,401086982,0.4224,-0.5815,-0.2866,-178.48,70.00,30.67
599,401091982,0.4238,-0.5840,-0.2935,-182.26,70.37,33.35
600,401096984,0.4224,-0.5830,-0.2900,-186.52,70.73,36.65
601,401101982,0.4277,-0.5850,-0.2866,-189.15,70.98,38.90
602,401106982,0.4258,-0.5859,-0.2812,-192.32,71.10,42.07
603,401111985,0.4312,-0.5850,-0.2788,-195.61,71.34,45.91
604,401116987,0.4272,-0.5835,-0.2764,-198.11,71.34,49.33
605,401121982,0.4341,-0.5859,-0.2769,-200.06,71.46,52.99
606,401126984,0.4390,-0.5825,-0.2783,-201.71,71.22,56.52
607,401131984,0.4468,-0.5825,-0.2749,-203.05,70.98,60.37
608,401136984,0.4482,-0.5767,-0.2695,-204.02,70.43,64.15
609,401141984,0.4463,-0.5713,-0.2764,-204.76,69.94,68.05
610,401146984,0.4468,-0.5688,-0.2759,-205.00,69.15,72.07
611,401151986,0.4458,-0.5674,-0.2739,-205.18,68.48,75.98
612,401156984,0.4414,-0.5645,-0.2734,-205.18,67.44,79.94
613,401161984,0.4346,-0.5557,-0.2754,-204.82,66.40,83.48
614,401166984,0.4229,-0.5483,-0.2749,-204.33,65.24,87.38
615,401171984,0.4097,-0.5518,-0.2729,-203.60,64.15,90.49
616,401176982,0.3979,-0.5430,-0.2769,-202.80,62.99,94.09
617,401181982,0.3877,-0.5356,-0.2720,-202.07,61.65,97.44
618,401186983,0.3662,-0.5361,-0.2803,-201.34,60.43,100.55
619,401191982,0.3545,-0.5371,-0.2847,-200.49,59.15,103.54
620,401196985,0.3374,-0.5435,-0.2881,-199.70,57.74,106.71
621,401201982,0.3384,-0.5454,-0.2871,-198.84,56.34,109.70
622,401206982,0.3389,-0.5620,-0.2983,-198.17,54.82,112.93
623,401211986,0.3418,-0.5728,-0.2964,-197.07,53.23,116.22
624,401216984,0.3467,-0.5830,-0.3086,-195.98,51.46,119.70
625,401221984,0.3521,-0.5957,-0.3159,-194.94,49.57,123.35
626,401226984,0.3589,-0.6079,-0.3271,-193.96,47.50,127.32
627,401231984,0.3647,-0.6152,-0.3242,-192.87,45.30,131.16
628,401237473,0.3618,-0.6196,-0.3271,-191.83,43.54,135.18
629,401241984,0.3530,-0.6191,-0.3281,-190.55,41.71,139.09
630,401246984,0.3394,-0.6191,-0.3359,-189.39,39.88,143.05
631,401251984,0.3242,-0.6177,-0.3428,-187.93,37.99,146.89
632,401256986,0.3101,-0.6152,-0.3423,-186.28,36.59,150.61
633,401261984,0.2896,-0.6089,-0.3496,-184.33,34.82,154.02
634,401266984,0.2720,-0.6035,-0.3521,-182.13,33.41,157.32
635,401271984,0.2554,-0.6016,-0.3525,-179.51,32.26,160.55
636,401276984,0.2363,-0.5957,-0.3662,-176.40,31.04,163.41
637,401281984,0.2188,-0.5894,-0.3696,-172.99,29.70,166.10
638,401287063,0.2036,-0.5884,-0.3853,-169.21,28.54,168.72
639,401291984,0.1919,-0.5825,-0.3921,-165.00,27.38,171.16
640,401296984,0.1758,-0.5889,-0.4028,-160.55,26.16,173.23
641,401301984,0.1602,-0.5947,-0.4092,-156.04,25.06,175.18
642,401306984,0.1489,-0.5972,-0.4272,-151.34,24.27,177.07
643,401311984,0.1362,-0.6064,-0.4443,-146.52,23.35,178.78
644,401316984,0.1304,-0.6211,-0.4570,-141.77,22.44,180.61
645,401321986,0.1304,-0.6421,-0.4648,-137.20,21.52,182.32
646,401326984,0.1348,-0.6577,-0.4736,-132.99,20.79,184.09
647,401331984,0.1367,-0.6729,-0.4858,-129.21,20.06,185.98
648,401336984,0.1294,-0.6899,-0.4917,-125.79,19.45,188.05
649,401341984,0.1299,-0.7051,-0.5010,-122.74,19.02,190.00
650,401346984,0.1230,-0.7139,-0.5039,-119.76,18.72,191.95
651,401351984,0.1216,-0.7222,-0.5059,-116.95,18.35,194.27
652,401356986,0.1172,-0.7236,-0.5107,-114.02,18.35,196.34
653,401361984,0.1094,-0.7212,-0.5210,-111.10,18.23,198.48
654,401366984,0.1025,-0.7178,-0.5244,-107.99,18.05,200.43
655,401371984,0.0894,-0.7148,-0.5249,-104.88,18.35,202.26
656,401376984,0.0718,-0.7119,-0.5259,-101.52,18.54,203.84
657,401381984,0.0562,-0.7124,-0.5283,-97.74,19.09,205.18
658,401386984,0.0322,-0.7046,-0.5396,-94.09,19.45,206.52
659,401392567,0.0210,-0.7061,-0.5410,-90.61,20.30,207.38
660,401396984,0.0063,-0.7158,-0.5669,-86.89,20.79,208.29
661,401401984,-0.0039,-0.7324,-0.5776,-83.48,21.52,209.33
662,401406984,-0.0146,-0.7446,-0.5845,-80.18,22.20,210.12
663,401411984,-0.0229,-0.7495,-0.5889,-76.59,22.99,210.85
664,401416984,-0.0356,-0.7510,-0.5986,-72.93,23.84,211.46
665,401421984,-0.0425,-0.7490,-0.6074,-69.27,24.82,211.95
666,401426984,-0.0479,-0.7466,-0.6045,-65.49,25.67,212.38
667,401431984,-0.0513,-0.7471,-0.6133,-61.46,26.71,212.80
668,401436984,-0.0596,-0.7432,-0.6128,-57.50,27.74,213.11
669,401441984,-0.0679,-0.7334,-0.6094,-53.66,28.66,213.54
670,401446984,-0.0688,-0.7261,-0.6060,-49.94,29.45,213.78
671,401451984,-0.0747,-0.7168,-0.5991,-46.28,30.37,213.96
672,401456985,-0.0752,-0.7319,-0.6064,-43.05,30.85,214.39
673,401461984,-0.0742,-0.7559,-0.6157,-40.18,31.22,215.18
674,401466984,-0.0742,-0.7783,-0.6162,-37.93,31.65,216.10
675,401471982,-0.0811,-0.7944,-0.6274,-35.67,31.95,217.38
676,401476984,-0.0938,-0.8081,-0.6313,-33.72,32.38,218.72
677,401481984,-0.1045,-0.8174,-0.6382,-31.52,33.05,220.24
678,401486982,-0.1221,-0.8286,-0.6465,-29.33,33.60,221.77
679,401491982,-0.1294,-0.8379,-0.6538,-27.20,34.39,223.29
680,401496982,-0.1372,-0.8496,-0.6572,-25.43,35.43,224.63
681,401501982,-0.1445,-0.8530,-0.6646,-23.60,36.46,226.10
682,401506983,-0.1670,-0.8550,-0.6646,-21.59,37.74,227.38
683,401511986,-0.1807,-0.8555,-0.6748,-19.39,38.90,228.78
684,401516982,-0.1978,-0.8545,-0.6772,-17.01,40.24,229.88
685,401521984,-0.2114,-0.8481,-0.6733,-14.51,41.52,230.91
686,401526984,-0.2212,-0.8462,-0.6758,-11.89,42.93,231.83
687,401531984,-0.2334,-0.8511,-0.6816,-9.09,44.21,232.80
688,401536984,-0.2549,-0.8540,-0.6777,-5.98,45.61,234.02
689,401541984,-0.2695,-0.8564,-0.6836,-2.56,46.89,234.88
690,401546984,-0.2803,-0.8555,-0.6831,1.10,48.17,235.61
691,401551984,-0.2974,-0.8530,-0.6885,5.12,49.63,236.46
692,401556984,-0.3169,-0.8496,-0.6929,9.39,51.16,237.01
693,401561986,-0.3354,-0.8584,-0.6948,13.72,52.74,237.56
694,401566984,-0.3550,-0.8560,-0.6997,18.05,54.33,237.87
695,401571984,-0.3730,-0.8599,-0.7041,22.44,56.28,237.99
696,401576984,-0.3862,-0.8618,-0.7065,26.40,57.93,238.23
697,401581984,-0.3984,-0.8652,-0.7007,30.00,59.88,238.17
698,401586986,-0.4087,-0.8667,-0.7031,33.17,61.83,237.93
699,401591983,-0.4175,-0.8730,-0.6992,36.16,64.02,237.74
700,401596984,-0.4248,-0.8833,-0.7021,38.41,65.98,237.38
701,401601986,-0.4326,-0.8799,-0.7021,40.43,67.87,236.89
702,401606984,-0.4380,-0.8774,-0.6953,42.20,69.76,236.16
703,401611984,-0.4404,-0.8804,-0.6895,43.66,71.59,235.43
704,401616984,-0.4512,-0.8862,-0.6860,45.06,73.23,234.51
705,401621984,-0.4590,-0.8921,-0.6797,45.85,74.82,233.72
706,401626984,-0.4639,-0.8926,-0.6738,46.52,76.52,232.74
707,401631984,-0.4702,-0.9014,-0.6777,47.01,77.99,231.65
708,401636984,-0.4810,-0.9043,-0.6802,47.50,79.63,230.55
709,401641984,-0.4951,-0.9097,-0.6821,48.05,81.22,229.27
710,401647466,-0.5049,-0.9141,-0.6821,48.66,82.62,227.74
711,401651984,-0.5137,-0.9258,-0.6865,49.15,85.49,226.10
712,401656984,-0.5269,-0.9272,-0.6797,49.39,86.04,224.51
713,401661985,-0.5381,-0.9424,-0.6787,49.33,86.34,222.80
714,401666984,-0.5518,-0.9214,-0.6704,49.33,89.57,221.34
715,401671984,-0.5566,-0.9326,-0.6851,49.27,91.16,219.82
716,401676984,-0.5752,-0.9458,-0.6694,48.54,92.74,218.35
717,401681984,-0.5820,-0.9463,-0.6548,47.74,94.70,216.89
718,401686984,-0.5908,-0.9492,-0.6533,46.22,96.10,215.67
719,401691984,-0.5972,-0.9526,-0.6455,44.33,97.38,214.45
720,401696982,-0.6045,-0.9502,-0.6426,42.38,98.66,213.29
721,401701984,-0.6250,-0.9551,-0.6152,40.79,99.82,212.44
722,401706984,-0.6191,-0.9497,-0.6309,39.57,100.67,211.46
723,401711984,-0.6299,-0.9531,-0.6177,38.90,101.71,210.49
724,401716984,-0.6455,-0.9512,-0.6094,38.78,102.87,209.57
725,401721984,-0.6533,-0.9478,-0.6050,39.02,104.02,208.54
726,401726984,-0.6655,-0.9473,-0.6016,40.00,105.00,207.62
727,401731984,-0.6768,-0.9424,-0.6021,41.71,106.10,206.52
728,401736984,-0.6802,-0.9399,-0.5933,43.96,107.26,205.61
729,401742391,-0.6807,-0.9395,-0.5928,46.83,108.29,204.63
730,401746984,-0.6885,-0.9351,-0.5879,50.37,109.51,203.54
731,401751984,-0.6968,-0.9282,-0.5840,54.21,110.61,202.44
732,401756984,-0.7031,-0.9282,-0.5771,58.66,111.65,201.46
733,401761984,-0.7056,-0.9224,-0.5591,63.05,112.80,200.43
734,401766986,-0.6904,-0.9175,-0.5635,67.44,114.02,199.45
735,401771984,-0.6890,-0.9106,-0.5342,71.71,115.12,198.17
736,401776984,-0.6865,-0.9053,-0.5210,75.61,116.22,197.07
737,401781983,-0.6846,-0.8950,-0.5098,79.45,117.20,195.98
738,401786982,-0.6772,-0.8799,-0.4922,83.41,118.17,194.88
739,401791982,-0.6724,-0.8730,-0.4727,87.50,118.96,193.72
740,401796982,-0.6729,-0.8677,-0.4629,91.46,119.82,192.68
741,401801982,-0.6724,-0.8584,-0.4580,95.49,120.43,191.46
742,401808284,-0.6621,-0.8477,-0.4272,100.37,120.98,190.06
743,401811984,-0.6592,-0.8394,-0.4238,103.60,121.40,189.27
744,401816984,-0.6479,-0.8335,-0.4072,107.62,121.71,188.35
745,401821984,-0.6426,-0.8228,-0.3921,111.71,122.01,187.32
746,401826985,-0.6353,-0.8101,-0.3770,115.85,122.01,186.16
747,401831984,-0.6289,-0.8081,-0.3687,120.30,122.07,185.12
748,401836984,-0.6250,-0.8008,-0.3569,124.39,122.32,184.27
749,401841984,-0.6245,-0.7920,-0.3442,129.63,122.26,183.11
750,401846984,-0.6216,-0.7896,-0.3247,132.01,122.26,182.07
751,401851984,-0.6201,-0.7837,-0.3174,135.79,122.13,180.98
752,401856984,-0.6196,-0.7793,-0.3027,139.21,122.13,179.88
753,401861984,-0.6221,-0.7798,-0.2983,142.20,122.01,178.66
754,401866985,-0.6157,-0.7817,-0.2817,145.18,121.89,177.56
755,401871984,-0.6147,-0.7710,-0.2729,148.17,121.83,176.34
756,401876984,-0.6133,-0.7632,-0.2583,151.28,121.71,175.18
757,401881984,-0.6152,-0.7588,-0.2544,153.96,121.46,174.09
758,401886984,-0.6133,-0.7505,-0.2412,157.20,121.22,172.99
759,401891984,-0.6143,-0.7471,-0.2266,160.30,120.98,171.77
760,401896982,-0.6152,-0.7407,-0.2236,163.41,120.61,170.73
761,401901984,-0.6196,-0.7334,-0.2202,166.59,120.37,169.88
762,401906984,-0.6240,-0.7368,-0.2090,169.51,120.00,168.90
763,401911984,-0.6270,-0.7412,-0.2041,172.32,119.76,168.17
764,401916984,-0.6333,-0.7388,-0.1958,174.82,119.51,167.50
765,401921984,-0.6411,-0.7397,-0.1841,176.95,119.21,166.59
766,401926984,-0.6558,-0.7354,-0.1841,178.78,118.90,165.85
767,401931984,-0.6626,-0.7339,-0.1753,180.06,118.66,164.76
768,401936984,-0.6714,-0.7266,-0.1621,180.98,118.35,163.72
769,401941984,-0.6831,-0.7207,-0.1528,181.65,117.99,162.62
770,401946984,-0.6978,-0.7178,-0.1445,182.01,117.87,161.34
771,401951984,-0.7061,-0.7163,-0.1318,182.07,117.68,159.88
772,401956984,-0.7095,-0.7129,-0.1318,181.89,117.38,158.48
773,401961984,-0.7085,-0.7109,-0.1182,181.40,116.83,157.01
774,401966984,-0.7119,-0.7139,-0.1128,180.73,116.34,155.55
775,401971985,-0.7129,-0.7129,-0.1035,179.88,115.61,154.09
776,401976984,-0.7134,-0.7100,-0.0957,178.84,115.12,152.50
777,401981984,-0.7158,-0.7109,-0.0933,177.50,114.39,151.22
778,401986984,-0.7280,-0.7188,-0.0942,176.04,113.35,149.88
779,401991984,-0.7266,-0.7158,-0.0986,174.21,112.07,148.72
780,401996984,-0.7358,-0.7051,-0.0752,172.13,110.85,147.32
781,402002175,-0.7373,-0.7070,-0.0654,169.70,109.63,145.98
782,402006984,-0.7451,-0.7095,-0.0615,166.89,108.35,144.57
783,402011984,-0.7490,-0.7075,-0.0586,163.72,106.95,143.11
784,402016984,-0.7529,-0.7017,-0.0479,160.49,105.55,141.46
785,402021984,-0.7588,-0.7007,-0.0332,156.83,104.15,139.76
786,402026984,-0.7622,-0.6987,-0.0317,153.23,102.68,138.11
787,402031984,-0.7646,-0.6987,-0.0278,149.33,101.28,136.34
788,402036984,-0.7651,-0.7061,-0.0229,145.43,99.57,134.51
789,402041984,-0.7661,-0.6997,-0.0122,141.40,97.68,132.68
790,402046984,-0.7651,-0.6987,-0.0039,136.59,95.67,130.49
791,402051984,-0.7642,-0.6982,-0.0015,133.35,94.33,129.02
792,402056984,-0.7559,-0.7036,0.0063,129.02,92.26,127.07
793,402061984,-0.7534,-0.6987,0.0132,125.98,90.12,125.12
794,402066984,-0.7515,-0.7021,0.0156,122.20,88.48,123.41
795,402071985,-0.7490,-0.7046,0.0273,118.60,85.49,121.59
796,402076984,-0.7437,-0.7007,0.0293,115.12,85.00,119.82
797,402081983,-0.7412,-0.6973,0.0396,111.83,82.50,117.80
798,402086983,-0.7373,-0.6958,0.0459,109.09,80.12,116.04
799,402091984,-0.7368,-0.6958,0.0488,106.28,77.74,114.02
800,402096982,-0.7349,-0.6973,0.0605,103.78,75.73,112.01
801,402101982,-0.7314,-0.6929,0.0635,101.52,73.54,110.12
802,402106983,-0.7280,-0.6968,0.0645,99.39,71.28,108.17
803,402111984,-0.7310,-0.6968,0.0708,97.38,68.96,106.10
804,402116986,-0.7266,-0.6953,0.0762,95.73,66.71,103.96
805,402121984,-0.7271,-0.6987,0.0767,93.96,64.39,101.95
806,402126984,-0.7319,-0.7012,0.0776,92.32,62.20,99.94
807,402131984,-0.7339,-0.7021,0.0762,90.85,59.57,97.99
808,402136984,-0.7344,-0.7056,0.0859,89.21,57.44,95.91
809,402141984,-0.7354,-0.7095,0.0781,87.74,55.12,94.02
810,402146984,-0.7402,-0.7124,0.0786,86.16,52.74,92.13
811,402151984,-0.7441,-0.7188,0.0747,84.39,50.37,90.12
812,402156984,-0.7485,-0.7207,0.0796,82.80,47.93,88.96
813,402161984,-0.7554,-0.7231,0.0742,81.10,45.37,86.89
814,402166985,-0.7534,-0.7236,0.0791,79.33,42.99,85.73
815,402171984,-0.7637,-0.7241,0.0801,77.50,40.49,83.23
816,402176982,-0.7666,-0.7231,0.0840,75.85,38.35,81.16
817,402181984,-0.7725,-0.7246,0.0864,73.78,35.79,79.27
818,402186984,-0.7759,-0.7227,0.0791,71.77,33.48,77.32
819,402191984,-0.7793,-0.7246,0.0840,69.15,30.67,74.88
