# skilleye imu stream v1
# device=xiao_esp32c6 imu=mpu6050 addr=0x68
# rate_hz=200 accel_range_g=16 gyro_range_dps=2000 dlpf_hz=94
# units: accel in g, gyro in deg/s, t_us in microseconds since boot (monotonic)
# no shared clock with the camera -- tap the racket once before each take
# so both recordings share a spike to align on
seq,t_us,ax,ay,az,gx,gy,gz
0,456853294,-0.5874,-0.4761,-0.5112,2.07,-1.83,-1.16
1,456858295,-0.5767,-0.4668,-0.5098,1.89,-2.01,-0.98
2,456863294,-0.5996,-0.4780,-0.5142,1.83,-2.20,-0.98
3,456868294,-0.5825,-0.4731,-0.5122,1.46,-2.07,-0.79
4,456873294,-0.5698,-0.4702,-0.5034,1.46,-2.20,-0.49
5,456878297,-0.5840,-0.4692,-0.5024,1.16,-2.26,-0.43
6,456883298,-0.5986,-0.4756,-0.5137,0.98,-2.50,-0.30
7,456888296,-0.5903,-0.4785,-0.5151,0.67,-2.50,-0.12
8,456893732,-0.5967,-0.4800,-0.5073,0.55,-2.68,0.00
9,456898296,-0.5942,-0.4785,-0.5181,0.37,-2.80,0.18
10,456903296,-0.5845,-0.4746,-0.5127,0.18,-2.87,0.24
11,456908296,-0.5776,-0.4707,-0.5181,0.06,-2.93,0.43
12,456913296,-0.5986,-0.4741,-0.5122,0.00,-3.05,0.55
13,456918297,-0.5811,-0.4722,-0.5122,0.06,-3.05,0.79
14,456923294,-0.5840,-0.4761,-0.5146,-0.06,-3.11,0.98
15,456928296,-0.5850,-0.4722,-0.5156,0.12,-3.29,1.04
16,456933296,-0.5850,-0.4756,-0.5161,0.18,-3.11,1.22
17,456938296,-0.5972,-0.4819,-0.5156,0.37,-3.17,1.34
18,456943731,-0.5913,-0.4751,-0.5186,0.37,-3.41,1.65
19,456948296,-0.5874,-0.4790,-0.5142,0.49,-3.41,1.77
20,456953296,-0.5928,-0.4790,-0.5166,0.61,-3.41,1.95
21,456958444,-0.5747,-0.4780,-0.5117,0.79,-3.41,2.01
22,456963301,-0.5703,-0.4717,-0.5146,1.04,-3.41,2.13
23,456968296,-0.5835,-0.4761,-0.5117,1.28,-3.41,2.20
24,456973295,-0.5938,-0.4805,-0.5151,1.40,-3.35,2.32
25,456978296,-0.5928,-0.4839,-0.5176,1.65,-3.48,2.32
26,456983296,-0.5796,-0.4771,-0.5190,1.89,-3.41,2.50
27,456988296,-0.5684,-0.4712,-0.5156,2.07,-3.41,2.56
28,456993408,-0.5742,-0.4727,-0.5161,2.32,-3.41,2.62
29,456998296,-0.5977,-0.4839,-0.5200,2.38,-3.35,2.80
30,457003296,-0.5747,-0.4775,-0.5161,2.56,-3.29,2.80
31,457008296,-0.5996,-0.4878,-0.5171,2.62,-3.11,2.80
32,457013297,-0.6011,-0.4922,-0.5234,2.74,-3.17,2.87
33,457018295,-0.5869,-0.4873,-0.5190,2.80,-3.05,2.93
34,457023294,-0.5913,-0.4863,-0.5205,2.93,-2.99,2.99
35,457028294,-0.5776,-0.4834,-0.5210,2.93,-2.68,2.99
36,457033294,-0.5903,-0.4849,-0.5190,2.80,-2.74,2.99
37,457038294,-0.5986,-0.4897,-0.5269,2.87,-2.56,3.11
38,457043294,-0.5791,-0.4814,-0.5210,2.93,-2.50,3.05
39,457048294,-0.5933,-0.4863,-0.5244,2.93,-2.32,3.05
40,457053295,-0.5840,-0.4824,-0.5200,2.93,-2.32,2.99
41,457058368,-0.5967,-0.4824,-0.5205,3.05,-2.38,2.99
42,457063294,-0.5894,-0.4810,-0.5278,2.99,-2.13,2.93
43,457068296,-0.6050,-0.4883,-0.5229,2.99,-2.07,2.80
44,457073296,-0.6055,-0.4888,-0.5229,2.93,-2.01,2.80
45,457078296,-0.5776,-0.4858,-0.5210,2.87,-1.71,2.74
46,457083296,-0.5879,-0.4810,-0.5239,2.80,-1.83,2.87
47,457088296,-0.5977,-0.4922,-0.5215,2.62,-1.77,2.74
48,457093681,-0.5801,-0.4785,-0.5225,2.32,-1.59,2.68
49,457098296,-0.5791,-0.4858,-0.5234,2.26,-1.52,2.56
50,457103298,-0.5884,-0.4888,-0.5210,1.89,-1.59,2.56
51,457108296,-0.5869,-0.4868,-0.5225,1.65,-1.52,2.68
52,457113321,-0.5654,-0.4819,-0.5239,1.40,-1.40,2.38
53,457118297,-0.5864,-0.4873,-0.5298,1.22,-1.40,2.32
54,457123296,-0.5718,-0.4819,-0.5210,0.98,-1.22,2.26
55,457128295,-0.5952,-0.4902,-0.5195,0.61,-1.40,2.32
56,457133595,-0.5918,-0.4912,-0.5210,0.30,-1.22,2.26
57,457138488,-0.5786,-0.4873,-0.5249,0.18,-1.16,2.20
58,457143389,-0.5918,-0.4917,-0.5288,-0.24,-1.04,2.07
59,457148360,-0.5820,-0.4897,-0.5220,-0.43,-0.98,2.07
60,457153428,-0.5840,-0.4854,-0.5234,-0.61,-0.85,2.07
61,457158652,-0.5986,-0.4863,-0.5229,-0.73,-0.79,1.95
62,457163297,-0.5967,-0.4927,-0.5264,-0.85,-0.73,1.89
63,457168413,-0.6006,-0.4873,-0.5259,-0.85,-0.67,1.89
64,457173296,-0.6040,-0.4902,-0.5259,-1.04,-0.61,1.83
65,457178296,-0.5801,-0.4839,-0.5244,-0.91,-0.55,1.83
66,457183296,-0.6021,-0.4893,-0.5205,-1.04,-0.61,1.77
67,457188296,-0.5903,-0.4902,-0.5190,-0.85,-0.43,1.65
68,457193295,-0.5708,-0.4810,-0.5283,-0.61,-0.49,1.52
69,457198298,-0.5688,-0.4766,-0.5215,-0.30,-0.43,1.40
70,457203296,-0.5815,-0.4800,-0.5137,-0.06,-0.30,1.46
71,457208296,-0.5918,-0.4824,-0.5239,0.37,-0.37,1.28
72,457213299,-0.5786,-0.4829,-0.5200,0.73,-0.43,1.28
73,457218296,-0.5693,-0.4795,-0.5225,1.10,-0.37,1.10
74,457223296,-0.5693,-0.4751,-0.5205,1.65,-0.30,0.98
75,457228296,-0.5698,-0.4648,-0.5132,2.01,-0.06,0.73
76,457233296,-0.5864,-0.4692,-0.5151,2.38,-0.24,0.73
77,457238295,-0.6016,-0.4712,-0.5151,2.68,-0.06,0.55
78,457243762,-0.6011,-0.4663,-0.5093,2.80,0.24,0.30
79,457248296,-0.6084,-0.4707,-0.5146,2.87,0.43,0.30
80,457253296,-0.5991,-0.4717,-0.5151,2.68,0.49,0.12
81,457258296,-0.5830,-0.4624,-0.5073,2.38,0.49,-0.12
82,457263296,-0.5928,-0.4609,-0.5083,2.32,0.55,-0.18
83,457268494,-0.5981,-0.4614,-0.5078,1.89,0.67,-0.30
84,457273296,-0.5903,-0.4673,-0.5024,1.52,0.91,-0.30
85,457278294,-0.5732,-0.4634,-0.5034,0.85,1.16,-0.30
86,457283294,-0.5991,-0.4614,-0.5015,0.24,1.22,-0.30
87,457288294,-0.5947,-0.4668,-0.5015,-0.55,1.40,-0.30
88,457293294,-0.5693,-0.4565,-0.4980,-1.22,1.46,-0.37
89,457298294,-0.5923,-0.4668,-0.5000,-1.83,1.46,-0.18
90,457303303,-0.5732,-0.4614,-0.4971,-2.50,1.77,-0.24
91,457308298,-0.5776,-0.4683,-0.5024,-2.99,1.89,0.00
92,457313297,-0.5977,-0.4639,-0.5078,-3.60,1.83,0.00
93,457318295,-0.5923,-0.4673,-0.4990,-3.96,1.83,0.18
94,457323294,-0.5752,-0.4658,-0.4956,-4.27,1.71,0.24
95,457328294,-0.5645,-0.4648,-0.4976,-4.82,1.77,0.55
96,457333294,-0.5630,-0.4668,-0.5029,-5.24,1.65,0.73
97,457338294,-0.5801,-0.4722,-0.5000,-5.55,1.65,0.98
98,457344181,-0.5640,-0.4736,-0.5010,-5.85,1.40,1.28
99,457348296,-0.5640,-0.4819,-0.5020,-5.91,1.40,1.71
100,457353296,-0.5664,-0.4814,-0.5029,-5.98,1.10,1.89
101,457358501,-0.5635,-0.4795,-0.5073,-5.61,0.91,2.26
102,457363791,-0.5649,-0.4849,-0.5088,-5.24,0.61,2.74
103,457368296,-0.5771,-0.4893,-0.5127,-4.63,0.55,2.99
104,457373599,-0.5752,-0.4873,-0.5137,-3.54,0.00,3.35
105,457378296,-0.5840,-0.4971,-0.5122,-2.26,-0.49,3.72
106,457383296,-0.5864,-0.5010,-0.5161,-1.04,-0.61,4.02
107,457388296,-0.5776,-0.4971,-0.5146,0.98,-1.16,4.33
108,457393296,-0.5698,-0.4956,-0.5205,3.11,-1.71,4.51
109,457398296,-0.5654,-0.4980,-0.5234,4.88,-2.13,4.76
110,457403296,-0.5454,-0.4932,-0.5278,7.13,-2.74,4.88
111,457408296,-0.5645,-0.5024,-0.5278,9.82,-3.48,4.94
112,457413296,-0.5488,-0.4912,-0.5293,11.65,-3.90,5.06
113,457418301,-0.5825,-0.5044,-0.5317,14.27,-4.51,5.12
114,457423296,-0.5630,-0.5059,-0.5327,16.16,-4.94,5.06
115,457428296,-0.5586,-0.4995,-0.5298,18.17,-5.37,4.94
116,457433296,-0.5728,-0.5093,-0.5322,19.57,-5.91,5.00
117,457438296,-0.5464,-0.5029,-0.5308,20.98,-6.10,4.76
118,457443443,-0.5781,-0.5156,-0.5376,21.83,-6.52,4.76
119,457448296,-0.5664,-0.5117,-0.5386,22.62,-6.65,4.57
120,457453296,-0.5854,-0.5244,-0.5459,23.23,-6.95,4.33
121,457458296,-0.5654,-0.5186,-0.5425,23.41,-7.01,4.09
122,457463296,-0.5796,-0.5278,-0.5474,23.54,-7.32,3.78
123,457468296,-0.5576,-0.5210,-0.5488,23.41,-7.44,3.41
124,457473294,-0.5669,-0.5205,-0.5483,23.35,-7.56,2.93
125,457478294,-0.5605,-0.5239,-0.5493,23.05,-7.68,2.56
126,457483294,-0.5708,-0.5210,-0.5518,22.68,-7.68,2.07
127,457488294,-0.5645,-0.5215,-0.5508,22.20,-7.93,1.34
128,457493294,-0.5508,-0.5190,-0.5527,21.95,-8.23,0.79
129,457498294,-0.5669,-0.5220,-0.5498,21.46,-8.29,0.00
130,457503294,-0.5435,-0.5249,-0.5439,20.98,-8.66,-0.79
131,457508294,-0.5532,-0.5259,-0.5537,20.49,-9.02,-1.46
132,457513294,-0.5322,-0.5254,-0.5493,19.82,-9.21,-2.20
133,457518294,-0.5522,-0.5269,-0.5479,19.09,-9.63,-2.99
134,457523294,-0.5371,-0.5220,-0.5430,18.41,-9.94,-3.72
135,457528294,-0.5366,-0.5327,-0.5449,17.56,-10.18,-4.57
136,457533294,-0.5308,-0.5259,-0.5425,16.46,-10.55,-5.55
137,457538294,-0.5298,-0.5322,-0.5430,15.61,-10.85,-6.40
138,457543294,-0.5396,-0.5327,-0.5381,14.39,-11.04,-7.26
139,457548294,-0.5278,-0.5273,-0.5464,12.93,-11.10,-8.23
140,457553294,-0.5273,-0.5381,-0.5371,11.28,-11.40,-9.09
141,457558294,-0.5356,-0.5483,-0.5381,9.39,-11.52,-10.06
142,457563294,-0.5308,-0.5474,-0.5459,7.07,-11.52,-11.10
143,457568299,-0.5283,-0.5503,-0.5420,4.82,-11.46,-11.95
144,457573297,-0.5513,-0.5596,-0.5439,2.62,-11.10,-12.93
145,457578376,-0.5376,-0.5605,-0.5396,0.30,-11.04,-14.15
146,457583296,-0.5527,-0.5688,-0.5435,-1.04,-10.98,-14.94
147,457588427,-0.5386,-0.5684,-0.5430,-2.44,-10.49,-15.79
148,457593532,-0.5649,-0.5815,-0.5405,-3.72,-10.30,-16.65
149,457598480,-0.5527,-0.5811,-0.5425,-4.63,-10.00,-17.44
150,457603296,-0.5596,-0.5928,-0.5425,-5.12,-9.76,-18.35
151,457608649,-0.5732,-0.5957,-0.5400,-5.06,-9.51,-19.09
152,457613296,-0.5737,-0.6016,-0.5435,-4.76,-9.27,-19.88
153,457618295,-0.5566,-0.6006,-0.5381,-3.72,-9.02,-20.85
154,457623294,-0.5605,-0.6006,-0.5337,-2.32,-8.96,-21.77
155,457628296,-0.5698,-0.6040,-0.5332,-0.49,-9.15,-22.74
156,457633294,-0.5488,-0.6011,-0.5356,1.71,-9.21,-23.78
157,457638295,-0.5557,-0.6045,-0.5234,4.27,-9.27,-24.76
158,457643294,-0.5586,-0.6084,-0.5293,6.71,-9.63,-25.73
159,457648297,-0.5464,-0.6001,-0.5225,9.27,-9.88,-26.95
160,457653296,-0.5474,-0.6099,-0.5229,11.65,-10.37,-27.93
161,457658296,-0.5352,-0.6084,-0.5181,13.96,-10.91,-28.96
162,457663461,-0.5405,-0.6055,-0.5239,16.10,-11.34,-30.00
163,457668305,-0.5557,-0.6182,-0.5220,17.93,-12.01,-30.98
164,457673294,-0.5371,-0.6191,-0.5229,19.15,-12.50,-31.77
165,457678766,-0.5498,-0.6260,-0.5176,20.49,-13.35,-32.74
166,457683296,-0.5537,-0.6304,-0.5122,20.91,-13.72,-33.41
167,457688295,-0.5518,-0.6392,-0.5127,21.04,-14.33,-34.09
168,457693296,-0.5635,-0.6377,-0.5132,21.22,-14.82,-34.63
169,457698295,-0.5483,-0.6377,-0.5078,21.22,-15.30,-35.12
170,457703740,-0.5654,-0.6543,-0.5122,20.98,-15.91,-35.67
171,457708296,-0.5615,-0.6509,-0.5059,20.79,-16.34,-36.10
172,457713296,-0.5747,-0.6641,-0.5000,20.24,-16.77,-36.59
173,457718745,-0.5767,-0.6738,-0.4990,19.88,-17.26,-36.89
174,457723296,-0.5615,-0.6675,-0.4951,19.57,-17.74,-37.20
175,457728297,-0.5732,-0.6763,-0.4922,19.45,-17.99,-37.56
176,457733296,-0.5552,-0.6714,-0.4922,19.33,-18.41,-38.11
177,457738295,-0.5562,-0.6748,-0.4873,19.76,-18.90,-38.48
178,457743296,-0.5684,-0.6777,-0.4814,20.30,-19.45,-39.27
179,457748296,-0.5479,-0.6685,-0.4868,21.22,-19.94,-40.00
180,457753682,-0.5469,-0.6738,-0.4775,22.56,-20.85,-40.91
181,457758296,-0.5366,-0.6753,-0.4775,23.60,-21.34,-41.59
182,457763296,-0.5542,-0.6836,-0.4790,24.94,-22.20,-42.44
183,457768296,-0.5283,-0.6870,-0.4780,26.22,-23.11,-43.41
184,457773295,-0.5366,-0.6943,-0.4717,27.38,-23.96,-44.15
185,457778295,-0.5459,-0.7021,-0.4722,28.78,-24.82,-45.00
186,457783294,-0.5332,-0.6987,-0.4727,30.00,-25.67,-45.85
187,457788294,-0.5415,-0.7095,-0.4785,31.04,-26.65,-46.89
188,457793294,-0.5444,-0.7100,-0.4780,32.07,-27.50,-47.68
189,457798294,-0.5552,-0.7124,-0.4746,33.05,-28.29,-48.66
190,457803297,-0.5469,-0.7144,-0.4707,34.02,-28.90,-49.57
191,457808296,-0.5508,-0.7251,-0.4790,34.82,-29.63,-50.49
192,457813296,-0.5659,-0.7280,-0.4736,35.43,-30.24,-51.22
193,457818296,-0.5664,-0.7310,-0.4766,36.28,-30.85,-52.38
194,457823296,-0.5532,-0.7280,-0.4746,36.77,-31.28,-53.11
195,457828296,-0.5557,-0.7344,-0.4731,37.38,-31.65,-54.02
196,457833298,-0.5542,-0.7368,-0.4746,38.48,-32.13,-55.24
197,457838295,-0.5610,-0.7397,-0.4761,39.45,-32.56,-56.16
198,457843299,-0.5669,-0.7422,-0.4795,40.61,-32.99,-57.20
199,457848296,-0.5684,-0.7466,-0.4702,41.95,-33.48,-58.29
200,457853295,-0.5488,-0.7417,-0.4707,43.23,-33.90,-59.33
201,457858296,-0.5684,-0.7495,-0.4727,44.57,-34.39,-60.55
202,457863296,-0.5552,-0.7476,-0.4663,45.55,-35.06,-61.71
203,457868296,-0.5503,-0.7529,-0.4634,46.10,-35.67,-62.99
204,457873556,-0.5562,-0.7549,-0.4668,46.46,-36.34,-64.09
205,457878296,-0.5474,-0.7544,-0.4614,46.59,-36.83,-65.37
206,457883296,-0.5454,-0.7583,-0.4639,46.52,-37.50,-66.46
207,457888296,-0.5366,-0.7544,-0.4585,46.22,-38.11,-67.68
208,457893296,-0.5176,-0.7520,-0.4473,45.67,-39.02,-68.84
209,457898689,-0.5259,-0.7637,-0.4438,44.82,-39.88,-70.00
210,457903296,-0.5215,-0.7646,-0.4429,43.90,-40.73,-71.16
211,457908296,-0.5029,-0.7632,-0.4414,42.80,-41.52,-72.32
212,457913296,-0.5142,-0.7705,-0.4419,41.46,-42.38,-73.41
213,457918296,-0.5024,-0.7686,-0.4297,40.00,-43.17,-74.45
214,457923294,-0.4966,-0.7686,-0.4287,38.35,-43.96,-75.49
215,457928296,-0.4897,-0.7681,-0.4331,36.71,-44.63,-76.59
216,457933295,-0.4824,-0.7710,-0.4272,35.12,-45.37,-77.50
217,457938294,-0.4956,-0.7793,-0.4224,33.60,-46.22,-78.54
218,457943294,-0.4937,-0.7798,-0.4185,32.20,-46.77,-79.63
219,457948296,-0.4805,-0.7769,-0.4214,30.55,-47.44,-80.49
220,457953434,-0.4878,-0.7822,-0.4097,29.02,-48.23,-81.65
221,457958703,-0.4844,-0.7822,-0.4082,27.50,-48.78,-82.62
222,457963296,-0.4819,-0.7876,-0.3994,26.04,-49.51,-83.78
223,457968296,-0.4556,-0.7759,-0.3901,24.70,-50.12,-84.94
224,457973670,-0.4565,-0.7759,-0.3921,23.54,-50.67,-85.91
225,457978296,-0.4741,-0.7725,-0.3809,22.62,-51.34,-87.20
226,457983294,-0.4766,-0.7744,-0.3755,21.77,-51.83,-88.17
227,457988294,-0.4756,-0.7725,-0.3677,21.16,-52.44,-89.39
228,457993294,-0.4531,-0.7598,-0.3604,20.79,-52.87,-90.55
229,457998294,-0.4775,-0.7603,-0.3452,20.24,-53.35,-91.65
230,458003294,-0.4897,-0.7632,-0.3394,20.00,-53.78,-92.62
231,458008294,-0.4697,-0.7490,-0.3364,19.57,-54.15,-93.66
232,458013295,-0.4897,-0.7505,-0.3267,19.02,-54.70,-94.70
233,458018296,-0.4800,-0.7427,-0.3169,18.41,-54.82,-95.67
234,458023299,-0.4873,-0.7378,-0.3096,17.80,-55.06,-96.52
235,458028296,-0.4980,-0.7397,-0.3008,16.89,-55.18,-97.32
236,458033296,-0.4917,-0.7349,-0.2842,16.16,-55.43,-98.05
237,458038296,-0.5083,-0.7349,-0.2847,15.00,-55.55,-98.54
238,458043296,-0.4990,-0.7295,-0.2827,13.84,-55.79,-99.02
239,458048298,-0.4980,-0.7344,-0.2739,12.56,-56.04,-99.33
240,458053296,-0.5029,-0.7363,-0.2788,10.79,-56.46,-99.39
241,458058296,-0.4849,-0.7422,-0.2832,9.02,-56.95,-99.39
242,458063294,-0.5015,-0.7559,-0.2832,6.71,-57.68,-99.21
243,458068296,-0.4868,-0.7588,-0.2881,4.09,-58.29,-98.78
244,458073294,-0.4639,-0.7612,-0.2876,1.04,-59.09,-98.23
245,458078296,-0.4683,-0.7715,-0.2778,-2.32,-59.94,-97.56
246,458083296,-0.4658,-0.7715,-0.2827,-5.85,-60.91,-97.01
247,458088296,-0.4468,-0.7617,-0.2788,-9.27,-61.65,-96.46
248,458093296,-0.4482,-0.7676,-0.2856,-12.74,-62.32,-95.79
249,458098296,-0.4463,-0.7656,-0.2734,-16.71,-63.17,-95.12
250,458103296,-0.4424,-0.7627,-0.2661,-19.15,-63.35,-94.63
251,458108296,-0.4385,-0.7686,-0.2661,-21.95,-63.78,-93.96
252,458113323,-0.4536,-0.7764,-0.2627,-24.63,-64.09,-93.23
253,458118759,-0.4453,-0.7783,-0.2510,-27.62,-64.02,-92.38
254,458123296,-0.4434,-0.7861,-0.2529,-29.51,-64.02,-91.89
255,458128296,-0.4487,-0.7905,-0.2441,-31.59,-63.72,-90.98
256,458133296,-0.4321,-0.7871,-0.2422,-33.11,-63.29,-90.30
257,458138296,-0.4233,-0.7905,-0.2427,-34.09,-63.05,-89.63
258,458143510,-0.4292,-0.7998,-0.2363,-34.94,-62.56,-88.84
259,458148296,-0.4380,-0.8003,-0.2397,-35.12,-62.26,-88.05
260,458153296,-0.4346,-0.8013,-0.2373,-35.00,-61.77,-87.26
261,458158296,-0.4238,-0.8062,-0.2310,-34.63,-61.34,-86.46
262,458163536,-0.4180,-0.8130,-0.2344,-34.02,-60.91,-85.24
263,458168297,-0.4258,-0.8237,-0.2231,-33.54,-60.49,-84.51
264,458173301,-0.4316,-0.8281,-0.2227,-33.05,-59.94,-83.17
265,458178485,-0.4233,-0.8403,-0.2197,-33.05,-59.39,-81.83
266,458183294,-0.4199,-0.8467,-0.2173,-33.35,-58.90,-80.61
267,458188295,-0.4180,-0.8589,-0.2192,-34.02,-58.11,-79.15
268,458193294,-0.4170,-0.8701,-0.2188,-35.06,-57.38,-77.50
269,458198294,-0.4307,-0.8853,-0.2183,-36.10,-56.52,-75.91
270,458203294,-0.4360,-0.8975,-0.2148,-37.26,-55.49,-74.27
271,458208429,-0.4370,-0.9048,-0.2124,-38.66,-53.96,-72.20
272,458213295,-0.4385,-0.9126,-0.2153,-39.63,-52.87,-70.85
273,458218294,-0.4351,-0.9209,-0.2148,-40.73,-51.52,-69.09
274,458223294,-0.4346,-0.9316,-0.2134,-41.59,-50.18,-67.50
275,458228294,-0.4219,-0.9355,-0.2222,-42.32,-48.78,-65.73
276,458233294,-0.4224,-0.9424,-0.2202,-42.87,-47.26,-64.15
277,458238294,-0.4229,-0.9512,-0.2256,-42.74,-45.79,-62.32
278,458243589,-0.4180,-0.9512,-0.2168,-42.38,-43.84,-60.37
279,458248294,-0.4199,-0.9580,-0.2202,-41.83,-42.62,-58.96
280,458253397,-0.4106,-0.9624,-0.2217,-40.24,-40.73,-56.95
281,458258295,-0.3872,-0.9561,-0.2168,-38.84,-39.33,-55.61
282,458263296,-0.3804,-0.9546,-0.2158,-35.91,-37.26,-53.60
283,458268296,-0.3701,-0.9453,-0.2119,-33.11,-35.43,-52.07
284,458273296,-0.3560,-0.9473,-0.2163,-29.76,-33.84,-50.61
285,458278296,-0.3467,-0.9404,-0.2056,-26.04,-32.01,-49.02
286,458283296,-0.3145,-0.9351,-0.1992,-22.13,-30.37,-47.56
287,458288296,-0.3086,-0.9282,-0.1909,-17.99,-28.60,-46.22
288,458293751,-0.3003,-0.9229,-0.1880,-13.48,-27.01,-44.63
289,458298296,-0.2715,-0.9097,-0.1807,-8.96,-25.67,-43.29
290,458303296,-0.2568,-0.9077,-0.1792,-4.45,-24.33,-42.01
291,458308296,-0.2412,-0.9028,-0.1675,0.12,-23.11,-40.55
292,458313296,-0.2280,-0.8936,-0.1650,4.82,-22.01,-39.21
293,458318296,-0.2075,-0.8872,-0.1519,9.27,-21.04,-37.93
294,458323296,-0.1919,-0.8774,-0.1484,13.60,-19.94,-36.59
295,458328296,-0.1675,-0.8701,-0.1431,17.74,-19.27,-35.30
296,458333296,-0.1602,-0.8628,-0.1382,21.89,-18.35,-34.02
297,458338297,-0.1436,-0.8521,-0.1328,25.67,-17.80,-32.87
298,458343296,-0.1260,-0.8486,-0.1260,29.09,-17.32,-31.46
299,458348296,-0.1143,-0.8433,-0.1274,32.20,-16.89,-30.30
300,458353295,-0.1099,-0.8486,-0.1299,34.88,-16.52,-29.15
301,458358296,-0.0928,-0.8394,-0.1206,37.20,-16.16,-27.93
302,458363296,-0.0776,-0.8369,-0.1201,39.09,-16.04,-26.65
303,458368296,-0.0737,-0.8369,-0.1172,40.67,-15.67,-25.61
304,458373296,-0.0698,-0.8398,-0.1182,41.95,-15.73,-24.51
305,458378296,-0.0537,-0.8325,-0.1167,42.87,-15.61,-23.41
306,458383296,-0.0405,-0.8271,-0.1104,43.72,-15.37,-22.50
307,458388297,-0.0264,-0.8208,-0.1079,44.33,-15.43,-21.65
308,458393296,-0.0293,-0.8179,-0.1094,44.76,-15.43,-20.91
309,458398296,-0.0039,-0.8130,-0.1035,45.24,-15.37,-20.24
310,458403295,0.0059,-0.8096,-0.0967,45.49,-15.37,-19.45
311,458408294,0.0078,-0.8105,-0.0981,45.67,-15.43,-18.84
312,458413294,0.0063,-0.8105,-0.0947,45.67,-15.55,-18.17
313,458418294,0.0049,-0.8125,-0.0952,45.43,-15.67,-17.44
314,458423294,0.0244,-0.8135,-0.0947,45.12,-15.79,-16.83
315,458428298,0.0107,-0.8247,-0.0884,44.45,-15.91,-16.22
316,458433294,0.0342,-0.8242,-0.0874,43.54,-16.04,-15.61
317,458438296,0.0190,-0.8335,-0.0898,42.44,-16.10,-15.00
318,458443296,0.0376,-0.8364,-0.0947,41.22,-16.10,-14.21
319,458448296,0.0405,-0.8433,-0.0938,39.82,-16.22,-13.41
320,458453296,0.0259,-0.8594,-0.0923,38.35,-16.04,-12.56
321,458458296,0.0195,-0.8652,-0.0962,36.83,-15.91,-11.83
322,458463296,0.0181,-0.8662,-0.0942,35.43,-15.79,-11.16
323,458468296,0.0210,-0.8779,-0.1025,33.78,-15.73,-10.37
324,458473354,0.0195,-0.8853,-0.1113,32.44,-15.55,-9.51
325,458478294,0.0127,-0.8979,-0.1221,30.73,-15.43,-8.54
326,458483296,-0.0068,-0.9067,-0.1270,29.63,-15.18,-7.87
327,458488298,-0.0073,-0.9160,-0.1279,28.41,-15.00,-6.95
328,458493295,-0.0039,-0.9189,-0.1372,27.44,-14.94,-6.10
329,458498296,-0.0176,-0.9336,-0.1460,26.40,-14.82,-5.30
330,458503296,-0.0269,-0.9414,-0.1514,25.79,-14.94,-4.51
331,458508296,-0.0200,-0.9390,-0.1523,25.30,-15.06,-3.72
332,458513296,-0.0186,-0.9434,-0.1675,25.12,-15.18,-3.11
333,458518295,-0.0215,-0.9512,-0.1724,25.18,-15.37,-2.44
334,458523294,-0.0327,-0.9585,-0.1812,25.49,-15.49,-2.01
335,458528295,-0.0410,-0.9624,-0.1768,26.10,-15.67,-1.52
336,458533295,-0.0269,-0.9590,-0.1797,27.01,-15.85,-1.28
337,458538294,-0.0259,-0.9678,-0.1860,28.23,-16.10,-0.85
338,458543294,-0.0298,-0.9736,-0.1831,29.63,-16.34,-0.73
339,458548294,-0.0386,-0.9790,-0.1807,31.16,-16.52,-0.49
340,458553294,-0.0205,-0.9717,-0.1831,32.80,-16.83,-0.49
341,458558294,-0.0146,-0.9717,-0.1841,34.51,-16.95,-0.49
342,458563294,-0.0273,-0.9761,-0.1699,36.22,-17.13,-0.43
343,458568294,-0.0107,-0.9717,-0.1699,37.93,-17.01,-0.55
344,458573294,-0.0171,-0.9741,-0.1694,39.15,-17.07,-0.73
345,458578294,-0.0371,-0.9785,-0.1670,40.30,-17.01,-0.91
346,458583294,-0.0171,-0.9731,-0.1670,41.28,-16.71,-1.16
347,458588294,-0.0308,-0.9761,-0.1631,41.83,-16.40,-1.59
348,458593400,-0.0288,-0.9766,-0.1587,41.83,-16.28,-1.95
349,458598294,-0.0229,-0.9751,-0.1602,41.65,-15.91,-2.13
350,458603294,-0.0352,-0.9814,-0.1592,40.85,-15.61,-2.62
351,458608294,-0.0488,-0.9844,-0.1685,39.63,-15.18,-3.05
352,458613299,-0.0254,-0.9834,-0.1655,37.93,-14.76,-3.41
353,458618295,-0.0391,-0.9917,-0.1509,35.79,-14.02,-3.78
354,458623296,-0.0562,-0.9937,-0.1440,33.41,-13.48,-4.21
355,458628520,-0.0513,-0.9922,-0.1367,30.30,-12.87,-4.76
356,458633295,-0.0293,-0.9878,-0.1489,27.93,-12.44,-5.18
357,458638294,-0.0469,-0.9917,-0.1431,25.18,-12.01,-5.55
358,458643294,-0.0396,-0.9937,-0.1387,22.44,-11.59,-6.16
359,458648294,-0.0254,-0.9878,-0.1460,20.00,-11.04,-6.65
360,458653294,-0.0229,-0.9873,-0.1392,17.20,-10.61,-7.62
361,458658297,-0.0332,-0.9902,-0.1328,15.55,-10.37,-8.05
362,458663295,-0.0361,-0.9902,-0.1328,13.90,-10.00,-8.66
363,458668296,-0.0381,-0.9893,-0.1348,12.44,-9.76,-9.45
364,458673721,-0.0283,-0.9878,-0.1323,11.04,-9.45,-10.30
365,458678296,-0.0483,-0.9917,-0.1274,10.24,-8.96,-10.79
366,458683647,-0.0488,-0.9863,-0.1221,9.63,-8.35,-11.77
367,458688296,-0.0508,-0.9917,-0.1289,9.51,-7.87,-12.32
368,458693295,-0.0415,-0.9780,-0.1230,9.27,-7.32,-13.29
369,458698299,-0.0571,-0.9780,-0.1206,9.39,-6.71,-14.02
370,458703296,-0.0601,-0.9697,-0.1094,9.63,-6.16,-14.82
371,458708296,-0.0527,-0.9688,-0.1128,9.88,-5.61,-15.61
372,458713296,-0.0669,-0.9727,-0.1060,9.94,-4.82,-16.34
373,458718296,-0.0596,-0.9648,-0.0972,9.88,-3.96,-17.20
374,458723396,-0.0752,-0.9668,-0.1021,9.70,-3.17,-17.74
375,458728296,-0.0615,-0.9551,-0.0991,9.45,-2.50,-18.41
376,458733428,-0.0796,-0.9565,-0.0967,8.90,-1.65,-19.15
377,458738296,-0.0562,-0.9517,-0.0967,8.41,-0.91,-19.63
378,458743296,-0.0801,-0.9541,-0.0967,7.62,-0.06,-20.24
379,458748296,-0.0630,-0.9443,-0.0913,6.95,0.61,-20.73
380,458753296,-0.0757,-0.9517,-0.0889,5.91,1.16,-21.10
381,458758296,-0.0737,-0.9482,-0.0864,4.94,1.83,-21.34
382,458763346,-0.0552,-0.9448,-0.0889,3.78,2.38,-21.65
383,458768525,-0.0615,-0.9438,-0.0874,2.50,2.93,-21.95
384,458773296,-0.0669,-0.9487,-0.0874,1.22,3.17,-22.01
385,458778295,-0.0518,-0.9414,-0.0933,-0.18,3.48,-22.20
386,458783296,-0.0532,-0.9375,-0.0947,-1.40,3.84,-22.20
387,458788296,-0.0654,-0.9419,-0.0938,-2.50,4.15,-22.32
388,458793296,-0.0547,-0.9360,-0.1016,-3.48,4.45,-22.44
389,458798296,-0.0713,-0.9448,-0.1045,-4.27,4.94,-22.50
390,458803296,-0.0566,-0.9390,-0.1055,-4.88,5.30,-22.62
391,458808647,-0.0679,-0.9385,-0.1108,-5.12,5.67,-22.56
392,458813296,-0.0601,-0.9448,-0.1099,-5.18,5.98,-22.50
393,458818294,-0.0635,-0.9468,-0.1196,-5.24,6.22,-22.26
394,458823294,-0.0669,-0.9521,-0.1187,-5.30,6.52,-22.01
395,458828294,-0.0562,-0.9473,-0.1245,-5.06,6.89,-21.77
396,458833294,-0.0679,-0.9580,-0.1318,-4.82,6.95,-21.34
397,458838294,-0.0444,-0.9531,-0.1284,-4.51,7.13,-20.98
398,458843992,-0.0649,-0.9561,-0.1270,-4.15,7.32,-20.30
399,458848296,-0.0659,-0.9639,-0.1333,-3.90,7.50,-20.06
400,458853500,-0.0474,-0.9517,-0.1465,-3.66,7.62,-19.39
401,458858700,-0.0635,-0.9600,-0.1484,-3.48,7.93,-18.96
402,458863296,-0.0547,-0.9663,-0.1543,-3.35,7.87,-18.29
403,458868296,-0.0469,-0.9590,-0.1562,-3.35,8.05,-17.74
404,458873295,-0.0659,-0.9678,-0.1714,-3.23,8.23,-16.95
405,458878780,-0.0747,-0.9756,-0.1733,-3.11,8.29,-16.46
406,458883296,-0.0518,-0.9653,-0.1733,-2.80,8.48,-15.91
407,458888296,-0.0596,-0.9692,-0.1772,-2.50,8.54,-15.43
408,458893727,-0.0498,-0.9712,-0.1860,-2.07,8.84,-14.76
409,458898295,-0.0444,-0.9692,-0.1919,-1.40,8.96,-14.27
410,458903294,-0.0605,-0.9790,-0.1963,-0.73,9.27,-13.78
411,458908294,-0.0605,-0.9727,-0.2002,-0.12,9.57,-13.54
412,458913294,-0.0645,-0.9663,-0.2031,0.79,10.06,-13.17
413,458918294,-0.0503,-0.9624,-0.2085,1.95,10.49,-12.99
414,458923294,-0.0283,-0.9546,-0.2070,3.05,10.91,-12.93
415,458928296,-0.0391,-0.9507,-0.2080,4.45,11.59,-13.05
416,458933298,-0.0518,-0.9634,-0.2119,6.34,12.07,-13.17
417,458938296,-0.0410,-0.9585,-0.2114,7.56,12.68,-13.35
418,458943296,-0.0195,-0.9492,-0.2114,9.02,13.23,-13.60
419,458948296,-0.0361,-0.9492,-0.2070,10.37,13.72,-13.90
420,458953296,-0.0464,-0.9546,-0.2119,11.52,14.33,-14.21
421,458958531,-0.0229,-0.9565,-0.2192,12.80,15.06,-14.57
422,458963296,-0.0039,-0.9478,-0.2178,13.54,15.67,-14.88
423,458968294,-0.0171,-0.9473,-0.2109,14.21,16.22,-15.24
424,458973295,-0.0239,-0.9546,-0.2109,14.39,16.77,-15.61
425,458978296,0.0073,-0.9463,-0.2188,14.51,17.32,-15.98
426,458983295,-0.0054,-0.9565,-0.2202,14.45,17.68,-16.28
427,458988296,0.0210,-0.9536,-0.2222,14.09,18.17,-16.71
428,458993296,0.0117,-0.9502,-0.2231,13.66,18.29,-17.13
429,458998297,0.0015,-0.9570,-0.2236,13.23,18.41,-17.44
430,459003296,0.0298,-0.9570,-0.2256,12.56,18.48,-17.99
431,459008559,0.0498,-0.9580,-0.2300,11.59,18.66,-18.41
432,459013296,0.0278,-0.9673,-0.2334,10.98,18.54,-18.78
433,459018296,0.0542,-0.9751,-0.2441,9.70,18.29,-19.27
434,459023296,0.0386,-0.9829,-0.2412,8.72,18.11,-19.57
435,459028296,0.0625,-0.9805,-0.2471,7.38,17.80,-19.94
436,459033296,0.0410,-0.9951,-0.2563,6.22,17.50,-20.37
437,459038296,0.0649,-0.9966,-0.2544,4.94,17.01,-20.73
438,459043296,0.0635,-0.9937,-0.2539,3.66,16.65,-21.10
439,459048296,0.0493,-1.0068,-0.2568,2.26,16.04,-21.52
440,459053296,0.0620,-1.0088,-0.2651,1.10,15.49,-22.07
441,459058296,0.0806,-1.0010,-0.2544,-0.49,14.94,-22.50
442,459063296,0.0654,-1.0000,-0.2583,-1.83,14.39,-22.87
443,459068296,0.0522,-1.0073,-0.2544,-3.23,13.78,-23.29
444,459073379,0.0522,-1.0068,-0.2524,-4.70,12.93,-23.66
445,459078296,0.0791,-0.9985,-0.2485,-5.24,12.32,-24.02
446,459083296,0.0698,-0.9971,-0.2407,-6.04,11.65,-24.33
447,459088296,0.0605,-1.0039,-0.2510,-6.52,10.85,-24.70
448,459093693,0.0918,-1.0029,-0.2446,-7.26,10.12,-25.12
449,459098296,0.0991,-1.0015,-0.2388,-7.74,9.45,-25.49
450,459103297,0.0786,-1.0073,-0.2344,-8.54,8.66,-25.73
451,459108296,0.0981,-1.0112,-0.2329,-9.09,7.80,-26.10
452,459113323,0.1074,-1.0083,-0.2344,-9.88,7.07,-26.34
453,459118297,0.1152,-1.0068,-0.2266,-10.55,6.28,-26.65
454,459123294,0.1172,-1.0098,-0.2246,-11.22,5.55,-26.83
455,459128294,0.1094,-1.0142,-0.2178,-12.07,4.88,-27.20
456,459133294,0.1108,-1.0215,-0.2217,-12.62,4.21,-27.38
457,459138294,0.1382,-1.0112,-0.2178,-13.41,3.72,-27.80
458,459143508,0.1460,-1.0083,-0.2109,-14.15,3.29,-28.29
459,459148296,0.1367,-1.0044,-0.2041,-14.70,2.93,-28.60
460,459153295,0.1450,-0.9985,-0.2041,-14.94,2.56,-29.02
461,459158296,0.1372,-0.9995,-0.1973,-14.94,2.32,-29.63
462,459163640,0.1206,-1.0010,-0.1929,-14.76,2.07,-30.24
463,459168296,0.1387,-0.9849,-0.1919,-14.51,1.95,-30.79
464,459173296,0.1470,-0.9849,-0.1934,-14.15,1.83,-31.40
465,459178296,0.1387,-0.9824,-0.1895,-13.84,1.95,-31.95
466,459183296,0.1416,-0.9751,-0.1797,-13.29,2.01,-32.62
467,459188296,0.1372,-0.9604,-0.1777,-12.87,2.26,-33.11
468,459193295,0.1152,-0.9619,-0.1826,-12.13,2.32,-33.60
469,459198525,0.1045,-0.9663,-0.1816,-11.52,2.68,-34.09
470,459203613,0.1245,-0.9717,-0.1768,-10.98,2.93,-34.45
471,459208673,0.1108,-0.9795,-0.1680,-10.30,3.23,-34.76
472,459213296,0.1084,-0.9658,-0.1719,-9.70,3.66,-35.18
473,459218296,0.0967,-0.9707,-0.1699,-9.02,3.84,-35.49
474,459223296,0.1079,-0.9653,-0.1621,-8.41,4.09,-35.79
475,459228681,0.1104,-0.9458,-0.1621,-7.93,4.39,-36.28
476,459233297,0.1016,-0.9409,-0.1631,-7.26,4.57,-36.46
477,459238296,0.1172,-0.9243,-0.1572,-7.07,4.88,-36.71
478,459243304,0.0928,-0.9258,-0.1558,-6.83,5.00,-36.89
479,459248294,0.1118,-0.9116,-0.1538,-6.65,5.12,-37.01
480,459253296,0.1221,-0.8911,-0.1543,-6.77,5.18,-37.26
481,459258296,0.1240,-0.8853,-0.1470,-6.52,5.24,-37.32
482,459263298,0.0977,-0.8794,-0.1489,-6.46,5.37,-37.38
483,459268296,0.1104,-0.8662,-0.1396,-6.16,5.30,-37.38
484,459273296,0.1060,-0.8584,-0.1445,-6.04,5.12,-37.44
485,459278295,0.1069,-0.8457,-0.1367,-5.55,4.88,-37.38
486,459283296,0.1069,-0.8389,-0.1392,-5.37,4.63,-37.32
487,459288296,0.0986,-0.8306,-0.1372,-5.06,4.33,-37.26
488,459293296,0.1035,-0.8164,-0.1348,-4.82,4.09,-37.26
489,459298355,0.1138,-0.8086,-0.1338,-4.39,3.66,-37.26
490,459303296,0.1021,-0.8096,-0.1455,-4.27,3.29,-37.01
491,459308295,0.1260,-0.7969,-0.1465,-4.15,2.68,-37.13
492,459313294,0.1133,-0.7988,-0.1626,-4.15,1.89,-37.01
493,459318294,0.1323,-0.7905,-0.1626,-4.70,1.16,-36.95
494,459323294,0.1416,-0.7969,-0.1846,-5.37,0.00,-36.83
495,459328294,0.1421,-0.7988,-0.1978,-6.52,-0.85,-36.71
496,459333294,0.1636,-0.8013,-0.2197,-8.35,-1.89,-36.77
497,459338294,0.1978,-0.7954,-0.2480,-10.67,-2.93,-36.95
498,459343294,0.2129,-0.7856,-0.2705,-13.66,-4.15,-36.95
499,459348298,0.2061,-0.7856,-0.2920,-17.07,-5.18,-37.26
500,459353294,0.2412,-0.7578,-0.3057,-21.10,-6.10,-37.62
501,459358296,0.2300,-0.7534,-0.3027,-25.18,-6.89,-37.80
502,459363299,0.2324,-0.7480,-0.2754,-30.12,-7.87,-38.23
503,459368296,0.2227,-0.7539,-0.2725,-32.99,-8.23,-38.29
504,459373296,0.2144,-0.7490,-0.2588,-35.98,-8.90,-38.41
505,459378297,0.2480,-0.7402,-0.2500,-38.66,-9.45,-38.41
506,459383294,0.2446,-0.7344,-0.2422,-40.85,-10.12,-38.35
507,459388294,0.2339,-0.7329,-0.2490,-42.68,-10.85,-38.29
508,459393294,0.2202,-0.7378,-0.2158,-43.96,-11.59,-38.05
509,459398294,0.2012,-0.7573,-0.2139,-45.18,-12.20,-37.68
510,459403294,0.2036,-0.7769,-0.2192,-45.98,-12.93,-37.13
511,459408296,0.2314,-0.7827,-0.1938,-46.40,-13.35,-36.52
512,459413299,0.2095,-0.7871,-0.1895,-46.77,-13.78,-35.67
513,459418296,0.2329,-0.7788,-0.1973,-46.59,-14.27,-35.00
514,459423450,0.2310,-0.7817,-0.1865,-45.85,-14.88,-33.96
515,459428296,0.2285,-0.7896,-0.1831,-45.12,-15.12,-33.35
516,459433296,0.2549,-0.7891,-0.1748,-43.78,-15.55,-32.68
517,459438296,0.2520,-0.7969,-0.1758,-42.32,-16.04,-31.95
518,459443295,0.2446,-0.8174,-0.1831,-40.67,-16.28,-31.22
519,459448296,0.2661,-0.8223,-0.1880,-38.72,-16.59,-30.55
520,459453295,0.2847,-0.8267,-0.1997,-36.46,-16.89,-29.82
521,459458296,0.2817,-0.8330,-0.1992,-35.00,-17.01,-29.33
522,459463296,0.2734,-0.8506,-0.1953,-33.11,-17.26,-28.78
523,459468653,0.2710,-0.8721,-0.2026,-31.40,-17.20,-28.11
524,459473296,0.2852,-0.8804,-0.1997,-30.43,-17.32,-27.56
525,459478296,0.3037,-0.8809,-0.2065,-29.57,-17.26,-27.07
526,459483296,0.2812,-0.8979,-0.2158,-29.09,-17.38,-26.52
527,459488782,0.2910,-0.8970,-0.2153,-29.15,-17.44,-26.04
528,459493296,0.3125,-0.9033,-0.2183,-29.82,-17.50,-25.61
529,459498296,0.2939,-0.9170,-0.2305,-31.04,-17.32,-25.30
530,459503296,0.3130,-0.9136,-0.2280,-32.93,-17.38,-24.88
531,459508296,0.2900,-0.9263,-0.2275,-35.24,-17.20,-24.57
532,459513297,0.3027,-0.9277,-0.2280,-37.80,-16.77,-24.33
533,459518296,0.3008,-0.9399,-0.2407,-40.73,-16.22,-24.02
534,459523296,0.3003,-0.9492,-0.2495,-43.90,-15.67,-23.90
535,459528296,0.2900,-0.9565,-0.2539,-47.38,-14.94,-23.72
536,459533294,0.2749,-0.9731,-0.2632,-50.61,-14.15,-23.41
537,459538294,0.2876,-0.9790,-0.2900,-53.96,-13.29,-23.17
538,459543294,0.3062,-0.9810,-0.2988,-57.26,-12.26,-22.80
539,459548294,0.3076,-0.9922,-0.3140,-60.30,-11.10,-22.44
540,459553295,0.2974,-0.9995,-0.3281,-63.11,-9.88,-21.89
541,459558296,0.2998,-1.0024,-0.3574,-65.55,-8.48,-21.46
542,459563295,0.3350,-0.9897,-0.3613,-67.38,-7.13,-21.04
543,459568750,0.3359,-0.9917,-0.3711,-68.48,-5.37,-20.79
544,459573295,0.3335,-0.9946,-0.3965,-68.90,-3.84,-20.37
545,459578294,0.3726,-0.9824,-0.4097,-68.48,-2.20,-20.06
546,459583294,0.3535,-0.9863,-0.4116,-67.38,-0.55,-19.70
547,459588294,0.3804,-0.9756,-0.4165,-65.61,1.22,-19.45
548,459593294,0.3765,-0.9648,-0.4316,-63.29,3.29,-19.09
549,459598294,0.3970,-0.9619,-0.4390,-60.43,4.94,-18.96
550,459603294,0.4160,-0.9380,-0.4468,-56.89,6.83,-18.72
551,459608294,0.4180,-0.9351,-0.4385,-52.80,8.78,-18.66
552,459613294,0.4165,-0.9238,-0.4424,-48.35,10.61,-18.84
553,459618294,0.4189,-0.9175,-0.4331,-43.66,12.68,-18.96
554,459623294,0.4204,-0.9067,-0.4360,-38.96,14.70,-19.27
555,459628294,0.4175,-0.8989,-0.4268,-34.09,16.52,-19.33
556,459633294,0.4219,-0.8877,-0.4238,-29.76,18.41,-19.76
557,459638294,0.4600,-0.8721,-0.4150,-25.67,20.30,-20.06
558,459643294,0.4551,-0.8711,-0.4214,-21.95,22.20,-20.37
559,459648294,0.4727,-0.8594,-0.4165,-19.15,23.78,-20.85
560,459653294,0.4595,-0.8491,-0.4116,-16.89,25.73,-21.46
561,459658294,0.4658,-0.8389,-0.4014,-15.49,27.38,-21.83
562,459663294,0.4897,-0.8286,-0.4136,-14.70,28.96,-22.26
563,459668299,0.4761,-0.8242,-0.4062,-14.45,30.67,-22.80
564,459673295,0.4907,-0.8115,-0.4028,-14.51,32.07,-22.99
565,459678296,0.4868,-0.8057,-0.3965,-15.00,33.60,-23.48
566,459683294,0.4834,-0.7969,-0.3931,-15.85,34.88,-23.72
567,459688296,0.4951,-0.7959,-0.3853,-16.83,36.34,-24.09
568,459693294,0.4819,-0.7930,-0.3794,-18.17,37.44,-24.09
569,459698294,0.4873,-0.7856,-0.3765,-19.70,38.96,-24.15
570,459703294,0.4912,-0.7847,-0.3789,-21.34,40.12,-24.27
571,459708297,0.4785,-0.7783,-0.3755,-23.29,41.28,-24.33
572,459713298,0.4844,-0.7749,-0.3740,-24.94,42.32,-24.33
573,459718295,0.5127,-0.7578,-0.3706,-26.40,43.54,-24.27
574,459723296,0.4927,-0.7622,-0.3804,-27.68,44.70,-24.15
575,459728475,0.4702,-0.7588,-0.3662,-28.84,45.91,-23.96
576,459733430,0.4668,-0.7666,-0.3584,-29.82,47.13,-23.90
577,459738297,0.4580,-0.7568,-0.3613,-30.85,48.35,-23.66
578,459743296,0.4556,-0.7568,-0.3721,-31.40,49.63,-23.48
579,459748463,0.4644,-0.7397,-0.3765,-31.59,51.22,-23.23
580,459753401,0.4761,-0.7305,-0.3608,-31.40,52.56,-23.05
581,459758297,0.4277,-0.7349,-0.3623,-30.85,54.09,-22.80
582,459763295,0.4302,-0.7192,-0.3779,-30.49,55.61,-22.50
583,459768728,0.4336,-0.7070,-0.3726,-29.21,57.38,-22.26
584,459773296,0.4341,-0.6982,-0.3774,-28.05,58.78,-22.01
585,459778297,0.4517,-0.6885,-0.3735,-26.34,60.37,-21.65
586,459783296,0.4243,-0.6924,-0.3721,-24.15,62.07,-21.22
587,459788742,0.4053,-0.6851,-0.3569,-21.52,64.15,-20.61
588,459793296,0.4141,-0.6836,-0.3438,-19.70,65.55,-20.24
589,459798301,0.3921,-0.6777,-0.3398,-17.62,67.20,-19.70
590,459803296,0.4102,-0.6743,-0.3379,-15.43,69.02,-19.09
591,459808297,0.4346,-0.6562,-0.3281,-12.93,70.79,-18.48
592,459813296,0.4170,-0.6606,-0.3188,-10.30,72.32,-17.74
593,459818298,0.4102,-0.6675,-0.3042,-7.80,74.21,-16.95
594,459823295,0.3828,-0.6631,-0.2925,-5.06,76.10,-16.10
595,459828294,0.3740,-0.6646,-0.2788,-2.32,77.74,-15.30
596,459833294,0.3887,-0.6523,-0.2754,0.49,79.70,-14.45
597,459838294,0.4048,-0.6353,-0.2598,3.60,81.77,-13.66
598,459843294,0.4028,-0.6372,-0.2393,6.40,84.39,-12.99
599,459848756,0.3760,-0.6465,-0.2280,9.70,86.40,-11.95
600,459853296,0.3828,-0.6455,-0.2144,12.01,86.10,-11.34
601,459858296,0.3828,-0.6392,-0.1904,14.57,88.78,-10.49
602,459863513,0.3818,-0.6353,-0.1753,18.05,91.04,-9.45
603,459868297,0.3955,-0.6255,-0.1670,20.24,92.74,-8.72
604,459873296,0.3984,-0.6157,-0.1504,23.05,94.76,-7.99
605,459878296,0.3721,-0.6152,-0.1372,25.79,96.52,-7.13
606,459883296,0.3809,-0.6196,-0.1143,28.54,98.41,-6.28
607,459888296,0.3887,-0.6104,-0.0986,30.91,100.30,-5.43
608,459893297,0.3721,-0.6074,-0.0869,33.96,102.44,-4.39
609,459898295,0.3853,-0.6060,-0.0679,36.52,104.09,-3.35
610,459903453,0.3916,-0.5928,-0.0591,39.02,105.85,-2.20
611,459908297,0.4009,-0.5723,-0.0474,41.65,107.32,-1.16
612,459913296,0.3892,-0.5659,-0.0332,44.09,109.02,-0.30
613,459918296,0.3877,-0.5615,-0.0161,46.40,110.49,0.73
614,459923295,0.3950,-0.5649,-0.0083,48.29,111.95,1.95
615,459928296,0.4009,-0.5615,0.0098,49.88,113.17,3.23
616,459933296,0.4028,-0.5679,0.0356,50.79,114.33,4.51
617,459938297,0.3940,-0.5747,0.0615,51.40,115.73,6.16
618,459943296,0.4253,-0.5718,0.0806,51.77,116.77,7.62
619,459948296,0.4414,-0.5659,0.1035,51.95,118.17,9.33
620,459953296,0.4268,-0.5776,0.1211,52.13,119.39,11.10
621,459958296,0.4546,-0.5801,0.1504,52.26,120.73,13.05
622,459963296,0.4355,-0.5952,0.1738,52.32,122.07,15.12
623,459968296,0.4595,-0.5962,0.1958,52.68,123.23,17.38
624,459973296,0.4487,-0.5996,0.2095,53.29,124.63,19.57
625,459978295,0.4277,-0.6104,0.2388,54.09,125.91,22.01
626,459983294,0.4443,-0.6187,0.2705,55.00,127.20,24.33
627,459988295,0.4341,-0.6392,0.3018,56.22,128.41,26.77
628,459993297,0.4653,-0.6499,0.3315,57.62,129.51,29.09
629,459998294,0.4512,-0.6533,0.3779,58.90,130.61,31.52
630,460003294,0.4453,-0.6733,0.4326,60.12,132.01,33.84
631,460008297,0.4790,-0.6714,0.4673,61.52,133.35,36.10
632,460013296,0.4502,-0.6860,0.5005,63.05,134.82,38.17
633,460018296,0.4321,-0.7046,0.5522,64.51,136.22,40.55
634,460023296,0.4170,-0.7231,0.5928,66.10,137.74,42.74
635,460028295,0.3770,-0.7612,0.6230,67.50,139.39,45.06
636,460033294,0.3638,-0.7788,0.6499,69.09,140.73,47.50
637,460038294,0.3809,-0.7661,0.6743,70.73,142.13,49.82
638,460043294,0.3394,-0.7793,0.7075,72.26,143.17,52.32
639,460048294,0.3291,-0.7759,0.7378,74.15,144.02,54.45
640,460053298,0.3315,-0.8101,0.7949,76.16,144.82,57.07
641,460058295,0.3140,-0.8633,0.8159,78.23,145.24,59.76
642,460063296,0.2891,-0.9326,0.8174,80.55,145.30,62.80
643,460068296,0.2769,-0.9604,0.9014,83.66,145.06,66.04
644,460073297,0.2588,-0.9668,0.9556,87.99,144.82,69.21
645,460078296,0.2153,-1.0020,0.9375,93.35,143.78,72.68
646,460083296,0.2007,-1.0366,1.0176,100.18,142.13,76.16
647,460088296,0.1797,-1.0815,1.1108,108.23,140.67,79.76
648,460093296,0.1274,-1.1372,1.1001,117.87,138.41,83.66
649,460098296,0.0679,-1.1841,1.1440,127.56,135.06,86.77
650,460103294,0.0190,-1.2207,1.2383,140.18,131.65,90.12
651,460108296,-0.0483,-1.2466,1.2598,152.74,127.32,93.23
652,460113324,-0.1143,-1.2856,1.3218,165.85,122.26,96.16
653,460118781,-0.1724,-1.2915,1.3394,181.28,115.55,99.63
654,460123296,-0.0449,-1.2480,1.4521,191.95,110.43,101.22
655,460128297,0.0298,-1.2764,1.5508,205.24,103.60,102.74
656,460133296,0.0254,-1.3032,1.6196,218.90,96.28,104.15
657,460138298,-0.0205,-1.3008,1.6929,232.13,88.35,105.18
658,460143296,-0.1279,-1.3315,1.6943,244.57,78.54,105.98
659,460148296,-0.2217,-1.3330,1.8203,255.55,67.20,106.77
660,460153296,-0.2832,-1.3452,1.9263,266.10,52.74,107.74
661,460158296,-0.2935,-1.3579,1.9067,271.22,41.71,108.29
662,460163296,-0.2563,-1.3408,2.0044,275.55,27.13,108.90
663,460168296,-0.2271,-1.3164,2.0645,277.56,8.48,109.88
664,460173296,-0.2417,-1.3252,2.1943,277.56,-4.57,110.61
665,460178295,-0.3037,-1.3164,2.2290,275.49,-22.38,111.71
666,460183296,-0.3071,-1.3120,2.2617,271.34,-41.34,113.11
667,460188295,-0.2798,-1.2852,2.3389,265.24,-61.34,114.51
668,460193296,-0.2363,-1.2500,2.2993,258.29,-82.13,116.34
669,460198300,-0.3301,-1.2524,2.3442,251.04,-104.09,118.35
670,460203295,-0.4204,-1.2549,2.3926,241.77,-126.16,120.49
671,460208296,-0.4160,-1.2275,2.4170,227.80,-153.72,123.11
672,460213297,-0.4038,-1.2305,2.3770,217.44,-172.44,124.76
673,460218296,-0.4468,-1.2104,2.3711,204.15,-196.10,126.34
674,460223296,-0.4971,-1.2109,2.3540,187.99,-224.45,128.41
675,460228297,-0.5464,-1.2100,2.3228,177.26,-243.11,129.94
676,460233295,-0.5933,-1.2236,2.2607,163.96,-266.16,131.52
677,460238294,-0.6113,-1.2300,2.2119,151.65,-288.66,133.29
678,460243294,-0.6587,-1.2495,2.1313,140.18,-310.61,135.06
679,460248294,-0.6841,-1.2559,2.0303,129.15,-331.77,136.59
680,460253381,-0.7139,-1.2578,1.9302,121.16,-352.26,137.93
681,460258296,-0.7642,-1.2539,1.8311,112.99,-371.95,139.21
682,460263296,-0.7900,-1.2456,1.7314,105.98,-391.16,140.24
683,460268710,-0.8569,-1.2593,1.5791,98.84,-412.80,141.22
684,460273296,-0.8877,-1.2764,1.4761,94.82,-426.77,141.71
685,460278294,-0.9160,-1.2983,1.3452,90.30,-443.60,142.07
686,460283294,-0.9585,-1.3286,1.1875,86.34,-459.15,142.56
687,460288294,-0.9922,-1.3691,1.0171,82.56,-474.15,142.74
688,460293294,-1.0049,-1.3936,0.8560,78.35,-487.87,142.80
689,460298296,-1.0044,-1.4038,0.6670,72.93,-500.61,142.32
690,460303294,-1.0093,-1.3994,0.4639,63.96,-514.09,140.61
691,460308296,-1.0205,-1.3926,0.2954,54.15,-523.66,137.87
692,460313298,-1.0605,-1.3955,0.1519,42.32,-531.16,134.02
693,460318296,-1.1187,-1.3364,0.1001,28.78,-535.43,128.41
694,460323296,-1.1255,-1.2285,0.0088,14.27,-534.63,120.00
695,460328295,-1.0181,-1.2007,-0.1147,0.24,-528.11,108.84
696,460333296,-0.9746,-1.3438,-0.4888,-12.99,-517.93,96.46
697,460338296,-1.0029,-1.5352,-0.8677,-25.55,-507.99,85.18
698,460343296,-1.1299,-1.6235,-1.0845,-37.13,-498.29,75.30
699,460348296,-1.1152,-1.4849,-1.2788,-47.20,-486.59,65.12
700,460353767,-1.1040,-1.3940,-1.4614,-56.34,-472.26,53.54
701,460358296,-1.1309,-1.3579,-1.6416,-65.55,-455.67,41.16
702,460363296,-1.1177,-1.3633,-1.7368,-74.82,-437.38,28.60
703,460368296,-1.0488,-1.3682,-1.8257,-84.70,-417.32,16.40
704,460373296,-1.0068,-1.3462,-1.9390,-95.18,-395.85,4.70
705,460378296,-0.9600,-1.3413,-2.0063,-106.22,-372.80,-6.89
706,460383296,-0.8301,-1.2798,-1.9780,-116.71,-347.20,-18.29
707,460388296,-0.7622,-1.2632,-2.0244,-127.01,-320.43,-29.76
708,460393296,-0.7510,-1.2754,-2.0986,-135.37,-293.41,-40.18
709,460398296,-0.7061,-1.2471,-2.1479,-139.82,-266.40,-49.15
710,460403734,-0.5645,-1.1616,-2.1519,-139.02,-239.63,-56.83
711,460408296,-0.4941,-1.0869,-2.1025,-132.26,-213.23,-63.41
712,460413295,-0.4082,-1.0366,-2.0552,-119.82,-187.62,-68.96
713,460418296,-0.3511,-1.0063,-1.9639,-102.32,-163.17,-73.11
714,460423296,-0.2778,-0.9580,-1.8887,-81.34,-139.88,-76.10
715,460428296,-0.2002,-0.9097,-1.8218,-57.99,-117.80,-78.05
716,460433296,-0.1655,-0.8643,-1.7524,-32.93,-97.68,-78.84
717,460438295,-0.1299,-0.7939,-1.6860,-7.68,-78.66,-78.66
718,460443294,-0.1177,-0.7354,-1.6108,16.65,-61.52,-77.68
719,460448294,-0.0693,-0.6982,-1.5308,38.84,-46.10,-76.46
720,460453294,-0.0195,-0.6797,-1.4561,58.11,-32.01,-74.63
721,460458325,0.0103,-0.6704,-1.3765,74.09,-19.39,-72.56
722,460463296,0.0371,-0.6567,-1.2881,86.16,-7.87,-70.37
723,460468295,0.0845,-0.6450,-1.2026,94.15,2.44,-68.11
724,460473296,0.1289,-0.6309,-1.1079,98.11,11.77,-65.61
725,460478296,0.1362,-0.6411,-1.0269,98.48,19.94,-63.23
726,460483296,0.1733,-0.6470,-0.9492,95.79,27.07,-60.73
727,460488296,0.1982,-0.6396,-0.8716,91.22,33.11,-57.99
728,460493298,0.2173,-0.6323,-0.7656,85.24,38.60,-55.55
729,460498295,0.2446,-0.6392,-0.7095,78.23,43.48,-53.11
730,460503296,0.2852,-0.6294,-0.6489,71.04,47.38,-50.43
731,460508295,0.2832,-0.6362,-0.5933,64.02,50.67,-47.93
732,460513296,0.3291,-0.6216,-0.5308,57.62,53.48,-45.30
733,460518749,0.3501,-0.6304,-0.4756,50.91,55.79,-41.77
734,460523296,0.3706,-0.6230,-0.4434,46.95,57.07,-39.27
735,460528296,0.3555,-0.6313,-0.4067,42.56,58.05,-35.79
736,460533296,0.3862,-0.6348,-0.3667,38.66,58.72,-32.32
737,460538296,0.4165,-0.6387,-0.3247,35.43,58.78,-28.35
738,460543296,0.4028,-0.6455,-0.2925,32.80,58.66,-24.33
739,460548556,0.4141,-0.6528,-0.2495,30.61,58.17,-20.24
740,460553296,0.4209,-0.6484,-0.2124,28.41,57.07,-15.49
741,460558296,0.4365,-0.6514,-0.1870,27.44,56.34,-12.26
742,460563296,0.4409,-0.6646,-0.1548,26.28,55.30,-8.17
743,460568296,0.4541,-0.6646,-0.1357,25.18,53.96,-4.21
744,460573296,0.4663,-0.6616,-0.1060,24.39,52.62,-0.49
745,460578393,0.4702,-0.6621,-0.0801,23.41,51.28,3.11
746,460583296,0.4639,-0.6753,-0.0566,22.38,49.88,6.59
747,460588294,0.4849,-0.6777,-0.0454,21.04,48.29,9.63
748,460593294,0.4956,-0.6743,-0.0195,19.57,46.59,12.56
749,460598294,0.5122,-0.6860,-0.0059,17.80,44.76,15.18
750,460603296,0.4956,-0.7070,0.0098,15.91,42.87,17.62
751,460608294,0.5190,-0.7100,0.0200,13.84,40.67,19.94
752,460613300,0.5249,-0.7236,0.0391,11.59,38.78,21.95
753,460618296,0.5293,-0.7393,0.0425,9.51,36.46,23.84
754,460623294,0.5444,-0.7422,0.0581,7.20,34.27,25.30
755,460628294,0.5327,-0.7656,0.0713,5.06,32.01,26.71
756,460633294,0.5596,-0.7764,0.0840,2.93,29.63,27.87
757,460638294,0.5469,-0.7949,0.0908,0.85,27.38,28.84
758,460643294,0.5659,-0.8013,0.1138,-1.04,24.94,29.63
759,460648294,0.5645,-0.8091,0.1196,-2.56,22.56,30.30
760,460653294,0.5605,-0.8384,0.1206,-3.54,20.00,30.67
761,460658294,0.5811,-0.8452,0.1294,-4.02,17.56,30.98
762,460663294,0.5806,-0.8613,0.1240,-3.90,15.12,31.10
763,460668294,0.5776,-0.8706,0.1226,-3.35,12.62,30.98
764,460673294,0.5996,-0.8745,0.1201,-2.44,10.24,30.61
765,460678294,0.5825,-0.8892,0.1255,-1.77,7.99,30.06
766,460683294,0.5957,-0.9014,0.1240,-1.40,5.85,29.33
767,460688294,0.6133,-0.9067,0.1196,-1.59,3.90,28.48
768,460693294,0.6157,-0.9087,0.1211,-2.62,2.13,27.68
769,460698294,0.6050,-0.9214,0.1167,-4.45,0.37,26.65
770,460703294,0.6030,-0.9434,0.1133,-6.95,-1.40,25.67
771,460708294,0.6167,-0.9478,0.1133,-9.94,-2.80,24.63
772,460713298,0.6294,-0.9473,0.1006,-13.41,-4.33,23.41
773,460718297,0.6304,-0.9512,0.0962,-16.22,-5.55,22.20
774,460723296,0.6157,-0.9585,0.0903,-18.48,-6.83,20.98
775,460728294,0.6162,-0.9644,0.0889,-20.30,-7.80,19.70
776,460733296,0.6035,-0.9697,0.0791,-21.46,-8.66,18.41
777,460738296,0.6108,-0.9834,0.0693,-21.95,-9.63,17.01
778,460743296,0.6064,-0.9824,0.0635,-21.65,-10.06,15.67
779,460748296,0.5869,-0.9902,0.0566,-20.67,-10.55,14.39
780,460753296,0.6074,-0.9888,0.0469,-19.09,-10.67,12.93
781,460758296,0.5835,-0.9912,0.0308,-17.13,-10.61,11.40
782,460763294,0.5869,-0.9971,0.0176,-15.12,-10.43,10.06
783,460768300,0.6040,-0.9902,0.0063,-13.29,-10.06,8.72
784,460773296,0.5723,-0.9941,-0.0083,-11.71,-9.39,7.50
785,460778296,0.5947,-0.9927,-0.0195,-10.55,-8.66,6.28
786,460783297,0.5723,-0.9966,-0.0381,-9.70,-7.68,5.12
787,460788324,0.5957,-0.9912,-0.0571,-9.57,-6.77,3.96
788,460793296,0.5928,-0.9956,-0.0625,-9.45,-5.85,2.93
789,460798296,0.5811,-0.9937,-0.0742,-9.76,-4.88,2.07
790,460803296,0.5820,-0.9946,-0.0903,-10.18,-3.48,1.04
791,460808296,0.5737,-0.9990,-0.1016,-10.49,-2.32,0.12
792,460813296,0.6021,-0.9907,-0.1138,-10.49,-0.98,-0.73
793,460818296,0.5820,-0.9976,-0.1089,-10.30,0.55,-1.65
794,460823296,0.5938,-1.0068,-0.1235,-9.82,1.77,-2.50
795,460828296,0.5918,-1.0059,-0.1279,-9.21,3.17,-3.17
796,460833296,0.6045,-1.0073,-0.1396,-8.54,4.70,-3.84
797,460838779,0.5889,-1.0127,-0.1362,-8.11,6.22,-4.27
798,460843296,0.5996,-1.0117,-0.1499,-7.56,7.62,-4.88
799,460848361,0.5947,-1.0190,-0.1421,-7.07,9.15,-5.24
800,460853296,0.6055,-1.0103,-0.1494,-6.65,10.30,-5.61
801,460858297,0.5908,-1.0156,-0.1611,-6.34,11.77,-5.79
802,460863296,0.6138,-1.0049,-0.1660,-6.16,13.05,-5.91
803,460868296,0.5962,-1.0088,-0.1772,-6.16,14.02,-6.10
804,460873301,0.6050,-1.0098,-0.1787,-6.22,14.94,-6.04
805,460878295,0.6030,-1.0083,-0.1812,-6.34,16.04,-5.98
806,460883294,0.5923,-1.0146,-0.1992,-6.40,16.89,-5.85
807,460888294,0.6099,-1.0093,-0.2007,-6.59,17.62,-5.61
808,460893296,0.6191,-1.0093,-0.2036,-6.83,18.23,-5.43
809,460898294,0.5933,-1.0181,-0.2026,-7.07,18.66,-4.82
810,460903294,0.5947,-1.0210,-0.2104,-7.50,19.21,-4.33
811,460908294,0.6021,-1.0151,-0.2090,-7.99,19.82,-3.84
812,460913296,0.5923,-1.0190,-0.2197,-8.54,20.12,-3.23
813,460918296,0.5747,-1.0205,-0.2217,-9.33,20.55,-2.68
814,460923297,0.5620,-1.0249,-0.2217,-10.12,20.91,-1.89
815,460928296,0.5591,-1.0205,-0.2305,-11.28,21.10,-1.28
816,460933296,0.5649,-1.0151,-0.2363,-12.62,21.40,-0.49
817,460938296,0.5522,-1.0059,-0.2476,-14.09,21.65,0.24
818,460943296,0.5234,-1.0078,-0.2505,-15.06,21.71,0.73
819,460948294,0.5352,-1.0000,-0.2466,-16.10,21.95,1.34
820,460953294,0.5391,-0.9941,-0.2490,-17.44,22.01,1.71
821,460958294,0.5327,-0.9883,-0.2446,-19.02,21.95,2.07
822,460963294,0.5161,-0.9951,-0.2451,-20.85,22.13,2.80
823,460968294,0.4941,-0.9902,-0.2441,-23.35,21.95,3.35
824,460973297,0.4927,-1.0000,-0.2378,-25.12,21.77,3.84
825,460978295,0.4810,-0.9976,-0.2300,-27.44,21.34,4.45
826,460983296,0.4590,-1.0088,-0.2173,-30.24,21.16,5.24
827,460988296,0.4731,-0.9956,-0.2114,-32.07,20.85,5.73
828,460993296,0.4541,-0.9932,-0.2031,-34.39,20.67,6.40
829,460998296,0.4375,-0.9961,-0.1997,-36.40,20.30,6.95
830,461003296,0.4551,-0.9927,-0.1875,-38.29,20.06,7.62
831,461008296,0.4517,-0.9795,-0.1802,-40.06,19.82,8.11
832,461013296,0.4146,-0.9834,-0.1704,-41.65,19.63,8.78
833,461018295,0.4229,-0.9766,-0.1675,-43.17,19.33,9.39
834,461023295,0.4121,-0.9741,-0.1567,-44.63,19.02,10.00
835,461028296,0.4097,-0.9604,-0.1553,-45.73,18.78,10.61
836,461033296,0.3857,-0.9492,-0.1567,-46.83,18.72,11.16
837,461038296,0.3955,-0.9302,-0.1548,-47.93,18.54,11.65
838,461043296,0.3633,-0.9297,-0.1528,-49.09,18.60,12.20
839,461048296,0.3838,-0.8989,-0.1587,-50.73,18.72,12.80
840,461053296,0.3545,-0.9023,-0.1548,-51.77,18.96,13.11
841,461058296,0.3286,-0.8960,-0.1499,-53.41,19.45,13.54
842,461063296,0.3408,-0.8755,-0.1431,-55.67,19.82,14.02
843,461068296,0.3086,-0.8750,-0.1406,-57.20,20.24,14.45
844,461073296,0.3115,-0.8662,-0.1377,-59.51,20.73,15.00
845,461078296,0.2988,-0.8315,-0.1377,-61.89,21.46,15.49
846,461083296,0.2964,-0.8174,-0.1260,-64.02,22.20,15.91
847,461088296,0.2695,-0.8169,-0.1187,-66.04,22.93,16.59
848,461093753,0.2637,-0.8037,-0.1045,-68.41,23.84,17.44
849,461098296,0.2510,-0.8018,-0.0986,-69.76,24.51,18.05
850,461103296,0.2695,-0.7773,-0.0942,-71.52,25.24,18.96
851,461108296,0.2500,-0.7642,-0.0972,-72.74,25.91,19.76
852,461113322,0.2534,-0.7461,-0.0908,-73.78,26.71,20.55
853,461118296,0.2393,-0.7319,-0.0947,-74.63,27.38,21.46
854,461123296,0.2510,-0.7139,-0.0854,-75.30,27.93,22.26
855,461128296,0.2314,-0.7031,-0.0869,-75.67,28.48,23.17
856,461133296,0.2515,-0.6855,-0.0820,-75.85,29.15,24.15
857,461138297,0.2397,-0.6729,-0.0771,-75.85,29.57,25.06
858,461143296,0.2285,-0.6660,-0.0874,-75.79,29.82,26.16
859,461148296,0.2363,-0.6523,-0.0830,-75.49,30.30,27.07
860,461153448,0.2612,-0.6445,-0.0952,-75.37,30.55,28.17
861,461158296,0.2617,-0.6372,-0.0996,-75.12,30.67,29.33
862,461163465,0.2583,-0.6226,-0.1060,-75.00,31.04,30.55
863,461168702,0.2715,-0.6162,-0.0962,-75.43,31.22,31.77
864,461173296,0.2715,-0.6055,-0.1006,-75.85,31.46,32.87
865,461178296,0.2778,-0.5972,-0.0977,-76.46,31.83,34.21
866,461183296,0.2637,-0.5952,-0.0845,-77.13,32.07,35.55
867,461188296,0.2910,-0.5854,-0.0869,-78.05,32.56,36.95
868,461193295,0.2773,-0.5938,-0.0874,-79.15,32.68,38.35
869,461198299,0.2915,-0.5889,-0.0947,-80.43,32.99,39.76
870,461203296,0.3037,-0.5845,-0.0845,-81.83,33.11,41.34
871,461208296,0.3076,-0.5781,-0.0923,-83.48,33.35,42.68
872,461213296,0.3105,-0.5767,-0.1025,-85.24,33.78,44.21
873,461218295,0.3071,-0.5825,-0.1040,-87.01,33.90,45.85
874,461223294,0.3125,-0.5830,-0.1001,-88.78,34.09,47.44
875,461228294,0.2993,-0.5898,-0.1006,-90.37,34.51,49.09
876,461233294,0.3101,-0.5776,-0.1162,-91.77,34.70,50.61
877,461238306,0.2837,-0.5894,-0.1187,-93.11,35.00,52.20
878,461243434,0.3218,-0.6060,-0.1230,-94.45,35.24,53.72
879,461248296,0.3037,-0.6074,-0.1416,-95.85,35.55,55.37
880,461253297,0.2871,-0.6172,-0.1230,-97.13,35.98,56.83
881,461258296,0.3071,-0.6113,-0.1182,-97.74,36.52,58.05
882,461263296,0.3022,-0.6074,-0.1133,-97.44,37.20,59.27
883,461268789,0.2754,-0.6187,-0.1147,-96.89,37.68,60.30
884,461273297,0.2793,-0.6196,-0.1138,-96.04,38.41,61.46
885,461278296,0.2627,-0.6138,-0.1162,-94.82,38.84,62.62
886,461283296,0.2676,-0.6479,-0.1191,-93.96,39.27,63.72
887,461288297,0.2729,-0.6387,-0.1206,-93.41,39.76,64.94
888,461293296,0.2632,-0.6392,-0.1128,-92.44,40.49,66.10
889,461298294,0.2695,-0.6353,-0.1089,-91.28,41.10,67.13
890,461303296,0.2524,-0.6460,-0.1191,-90.18,41.65,68.54
891,461308359,0.2705,-0.6416,-0.1138,-89.21,42.20,69.70
892,461313296,0.2451,-0.6460,-0.1064,-88.29,42.93,71.10
893,461318296,0.2466,-0.6606,-0.1108,-87.62,43.29,72.50
894,461323297,0.2534,-0.6631,-0.1167,-86.83,43.84,74.09
895,461328296,0.2300,-0.6812,-0.1191,-86.16,44.02,75.61
896,461333296,0.2314,-0.6919,-0.1045,-85.79,44.39,77.32
897,461338296,0.2451,-0.7075,-0.1035,-85.61,44.94,79.15
898,461343295,0.2251,-0.7256,-0.1016,-85.67,45.37,81.04
899,461348296,0.2324,-0.7339,-0.1045,-86.04,45.73,83.48
900,461353297,0.2251,-0.7476,-0.0962,-86.34,46.22,85.85
901,461358378,0.2144,-0.7485,-0.0967,-86.59,46.52,87.56
902,461363294,0.2021,-0.7607,-0.1050,-86.65,46.71,89.57
903,461368294,0.2104,-0.7573,-0.1016,-86.65,46.77,92.13
904,461373294,0.2192,-0.7568,-0.1016,-86.34,46.77,94.63
905,461378294,0.2031,-0.7642,-0.1064,-85.73,46.83,97.26
906,461383296,0.2134,-0.7510,-0.1060,-85.06,46.71,99.82
907,461388294,0.2100,-0.7563,-0.1060,-83.60,46.46,102.93
908,461393297,0.2046,-0.7563,-0.0977,-82.50,46.46,104.76
909,461398461,0.2241,-0.7505,-0.0903,-80.79,46.28,107.26
910,461403296,0.2148,-0.7544,-0.0898,-78.29,45.98,110.12
911,461408296,0.2358,-0.7480,-0.0894,-76.40,45.91,111.95
912,461413296,0.2188,-0.7593,-0.0786,-73.84,45.55,114.33
913,461418297,0.2158,-0.7622,-0.0728,-71.40,45.12,116.71
914,461423296,0.2314,-0.7676,-0.0762,-68.96,44.70,119.09
915,461428296,0.2192,-0.7842,-0.0581,-66.89,44.21,121.59
916,461433296,0.2090,-0.8110,-0.0586,-65.12,43.78,124.21
917,461438700,0.2163,-0.8374,-0.0513,-63.41,42.99,127.62
918,461443296,0.2280,-0.8496,-0.0342,-62.50,42.50,130.00
919,461448296,0.2046,-0.8755,-0.0298,-61.34,41.83,132.93
920,461453296,0.2163,-0.8979,-0.0303,-60.00,41.34,135.98
921,461458296,0.2266,-0.9131,-0.0298,-58.23,40.49,139.15
922,461463296,0.2061,-0.9395,-0.0303,-55.98,39.63,142.13
923,461468296,0.2271,-0.9497,-0.0391,-53.23,38.84,144.82
924,461473296,0.2100,-0.9727,-0.0410,-50.06,37.74,147.68
925,461478294,0.2246,-0.9878,-0.0352,-45.98,36.95,150.24
926,461483294,0.2114,-1.0166,-0.0381,-41.77,35.91,152.80
927,461488294,0.2285,-1.0264,-0.0288,-37.13,35.12,155.24
928,461493294,0.2261,-1.0464,-0.0312,-31.95,34.27,157.32
929,461498294,0.2207,-1.0635,-0.0220,-27.01,33.60,159.15
930,461503294,0.2197,-1.0884,-0.0127,-21.95,32.93,161.10
931,461508298,0.2227,-1.0967,-0.0020,-16.16,32.07,162.99
932,461513296,0.2144,-1.1094,0.0088,-11.59,31.59,164.33
933,461518295,0.1782,-1.1274,0.0068,-7.50,30.91,165.49
934,461523296,0.1831,-1.1309,0.0103,-3.60,30.18,166.22
935,461528296,0.1587,-1.1416,0.0039,-0.24,29.76,166.95
936,461533691,0.1479,-1.1582,0.0068,2.68,29.15,167.38
937,461538296,0.1553,-1.1602,0.0049,5.12,28.41,167.62
938,461543296,0.1260,-1.1792,0.0044,6.95,27.93,167.68
939,461548295,0.1416,-1.1758,0.0024,8.41,27.38,167.50
940,461553296,0.1050,-1.1890,0.0020,9.51,27.13,167.20
941,461558296,0.0981,-1.1973,0.0073,10.37,26.95,166.65
942,461563296,0.1094,-1.1909,0.0010,10.67,26.65,166.04
943,461568294,0.0962,-1.2007,-0.0029,10.61,26.65,165.37
944,461573294,0.0869,-1.2021,-0.0054,10.43,26.65,164.51
945,461578294,0.0811,-1.2012,-0.0112,10.06,26.65,163.48
946,461583294,0.0659,-1.2085,-0.0068,9.27,26.65,162.62
947,461588822,0.0410,-1.2153,-0.0107,8.60,26.71,161.40
948,461593296,0.0269,-1.2173,-0.0200,8.17,26.77,160.12
949,461598296,0.0054,-1.2271,-0.0259,8.41,26.95,158.66
950,461603296,0.0010,-1.2256,-0.0361,9.51,26.83,156.95
951,461608451,0.0088,-1.2178,-0.0444,11.34,26.83,155.12
952,461613700,-0.0293,-1.2192,-0.0571,14.02,26.77,153.17
953,461618296,-0.0337,-1.2153,-0.0610,17.20,26.52,150.98
954,461623297,-0.0352,-1.1978,-0.0605,20.85,26.34,148.60
955,461628296,-0.0664,-1.2056,-0.0625,24.82,26.04,146.10
956,461633295,-0.0669,-1.1851,-0.0586,28.90,25.85,143.60
957,461638296,-0.0859,-1.1875,-0.0645,33.29,25.43,140.98
958,461643296,-0.0859,-1.1738,-0.0605,37.62,25.43,138.35
959,461648296,-0.0957,-1.1582,-0.0645,41.95,25.18,135.67
960,461653297,-0.1240,-1.1567,-0.0566,46.46,25.18,132.99
961,461658296,-0.1177,-1.1460,-0.0503,51.10,25.30,130.06
962,461663295,-0.1084,-1.1328,-0.0483,55.91,25.73,127.20
963,461668294,-0.1235,-1.1299,-0.0420,60.55,26.16,124.33
964,461673294,-0.1123,-1.1230,-0.0352,65.67,26.89,121.34
965,461678294,-0.1162,-1.1074,-0.0342,70.55,27.38,118.48
966,461683294,-0.1304,-1.1011,-0.0293,75.43,27.99,115.43
967,461688294,-0.1450,-1.1035,-0.0229,80.43,28.78,112.50
968,461693294,-0.1270,-1.0942,-0.0264,85.06,29.57,109.63
969,461698294,-0.0762,-1.0952,-0.0215,89.76,30.18,106.83
970,461703294,-0.0781,-1.0869,-0.0278,94.21,30.79,104.39
971,461708294,-0.1064,-1.0811,-0.0259,98.72,31.16,101.89
972,461713294,-0.1064,-1.0728,-0.0337,102.87,31.34,99.88
973,461718294,-0.0908,-1.0850,-0.0454,106.04,31.40,97.74
974,461723294,-0.0649,-1.0718,-0.0669,107.56,31.28,95.98
975,461728294,-0.0781,-1.0635,-0.1216,108.11,30.91,94.21
976,461733294,-0.0889,-1.0386,-0.1167,107.74,30.61,92.26
977,461738294,-0.0845,-1.0093,-0.0469,106.89,30.55,90.43
978,461743294,-0.0640,-0.9683,-0.0327,105.73,30.49,88.72
979,461748294,-0.0278,-0.9492,-0.0322,103.84,30.18,86.59
980,461753294,-0.0562,-0.9629,-0.0435,100.79,30.00,86.65
981,461758294,-0.0806,-0.9590,-0.0381,97.74,29.51,86.28
982,461763298,-0.0942,-0.9375,-0.0283,94.15,29.21,84.82
983,461768296,-0.1089,-0.9097,-0.0312,90.55,28.96,84.21
984,461773296,-0.1201,-0.8813,-0.0405,86.71,28.60,83.48
985,461778296,-0.1533,-0.8745,-0.0469,82.68,28.48,83.23
986,461783294,-0.1709,-0.8813,-0.0381,78.35,28.60,83.05
987,461788294,-0.1646,-0.8740,-0.0518,73.54,28.66,82.87
988,461793296,-0.1606,-0.8647,-0.0596,68.41,29.09,82.80
989,461798294,-0.1909,-0.8574,-0.0649,63.05,29.57,83.11
990,461803294,-0.2085,-0.8364,-0.0728,57.20,30.30,83.29
991,461808294,-0.2476,-0.8130,-0.0806,50.79,30.91,83.35
992,461813299,-0.2534,-0.7988,-0.0723,43.72,31.71,83.60
993,461818296,-0.2856,-0.7866,-0.0752,36.40,32.68,83.84
994,461823450,-0.2783,-0.7500,-0.0732,28.90,33.66,83.96
995,461828407,-0.3096,-0.7451,-0.0762,21.52,34.51,84.45
996,461833296,-0.3018,-0.7349,-0.0664,14.39,35.43,84.82
997,461838296,-0.2900,-0.7285,-0.0581,7.44,36.16,84.82
998,461843297,-0.3164,-0.7144,-0.0640,1.34,36.95,85.30
999,461848294,-0.3335,-0.7046,-0.0581,-4.33,37.56,86.28
1000,461853296,-0.3193,-0.6885,-0.0527,-8.96,38.11,86.95
1001,461858304,-0.3423,-0.6802,-0.0537,-12.62,38.72,86.95
1002,461863565,-0.3179,-0.6582,-0.0479,-16.34,38.84,87.13
1003,461868411,-0.3335,-0.6606,-0.0488,-18.35,39.15,87.01
1004,461873606,-0.3320,-0.6655,-0.0405,-19.76,39.21,87.01
1005,461878581,-0.3438,-0.6636,-0.0552,-20.55,39.09,87.07
1006,461883296,-0.3481,-0.6641,-0.0581,-20.98,38.72,87.13
1007,461888296,-0.3789,-0.6631,-0.0605,-21.16,38.35,87.13
1008,461893295,-0.4004,-0.6772,-0.0605,-20.98,37.99,87.56
1009,461898296,-0.4404,-0.6914,-0.0767,-20.91,37.32,89.39
1010,461903294,-0.4746,-0.7104,-0.0781,-21.16,36.71,90.55
1011,461908296,-0.4800,-0.7173,-0.0742,-22.01,36.22,91.95
1012,461913295,-0.4775,-0.7158,-0.0728,-22.74,36.04,92.80
1013,461918295,-0.4888,-0.7256,-0.0669,-24.09,35.49,94.15
1014,461923782,-0.5244,-0.7319,-0.0757,-24.94,35.24,95.24
1015,461928297,-0.5347,-0.7402,-0.0874,-25.85,34.70,96.34
1016,461933296,-0.5371,-0.7363,-0.0835,-26.28,34.39,97.26
1017,461938318,-0.5718,-0.7432,-0.0854,-26.65,33.84,98.48
1018,461943296,-0.5801,-0.7471,-0.0879,-26.52,33.29,99.45
1019,461948294,-0.5586,-0.7441,-0.0898,-26.16,32.87,100.67
1020,461953296,-0.5854,-0.7471,-0.0874,-25.24,32.50,101.77
1021,461958642,-0.6118,-0.7568,-0.0991,-23.78,32.26,102.93
1022,461963296,-0.6172,-0.7515,-0.1030,-22.13,31.95,104.02
1023,461968297,-0.6533,-0.7559,-0.0972,-19.94,31.52,105.00
1024,461973296,-0.6362,-0.7461,-0.0947,-17.68,31.28,106.10
1025,461978296,-0.6523,-0.7554,-0.0928,-15.12,31.04,107.13
1026,461983728,-0.6367,-0.7441,-0.0942,-12.26,30.98,108.05
1027,461988296,-0.6436,-0.7446,-0.1016,-8.90,30.79,109.09
1028,461993296,-0.6387,-0.7329,-0.0972,-5.30,30.55,109.88
1029,461998296,-0.6274,-0.7300,-0.1035,-1.40,30.43,110.61
1030,462003296,-0.6479,-0.7241,-0.1079,2.68,30.30,111.40
1031,462008296,-0.6470,-0.7222,-0.1152,6.52,30.24,111.95
1032,462013296,-0.6660,-0.7173,-0.1172,10.00,30.12,112.74
1033,462018296,-0.6768,-0.7202,-0.1172,12.80,30.06,113.17
1034,462023296,-0.7114,-0.7266,-0.1196,14.88,30.12,113.78
1035,462028296,-0.7266,-0.7363,-0.1206,16.10,30.55,114.09
1036,462033296,-0.7236,-0.7271,-0.1245,16.83,30.85,114.45
1037,462038296,-0.7573,-0.7349,-0.1221,16.83,31.46,114.70
1038,462043295,-0.7676,-0.7417,-0.1299,16.71,31.95,115.12
1039,462048296,-0.7808,-0.7402,-0.1396,16.40,32.62,115.49
1040,462053296,-0.8340,-0.7539,-0.1519,15.85,33.41,115.85
1041,462058296,-0.8662,-0.7656,-0.1548,15.67,34.21,116.40
1042,462063296,-0.8540,-0.7627,-0.1504,15.61,35.18,117.07
1043,462068296,-0.8726,-0.7578,-0.1533,16.28,36.10,117.74
1044,462073295,-0.8936,-0.7642,-0.1567,17.38,37.38,118.41
1045,462078295,-0.8730,-0.7500,-0.1582,19.51,38.48,119.15
1046,462083294,-0.8867,-0.7446,-0.1548,22.32,39.94,119.70
1047,462088294,-0.8730,-0.7334,-0.1641,26.10,41.22,120.30
1048,462093294,-0.8809,-0.7192,-0.1641,30.61,42.44,120.91
1049,462098294,-0.9033,-0.7144,-0.1685,35.85,43.90,121.40
1050,462103294,-0.8848,-0.7031,-0.1733,41.59,45.37,121.89
1051,462108294,-0.8896,-0.6890,-0.1763,47.56,46.65,122.20
1052,462113308,-0.9165,-0.6895,-0.1807,53.72,48.29,122.38
1053,462118476,-0.9106,-0.6846,-0.1797,59.88,50.00,122.68
1054,462123295,-0.9194,-0.6733,-0.1865,67.13,51.77,122.68
1055,462128296,-0.9131,-0.6694,-0.1846,71.83,53.35,122.74
1056,462133296,-0.9229,-0.6646,-0.1841,77.38,55.00,122.68
1057,462138299,-0.9370,-0.6514,-0.1938,84.21,57.50,122.50
1058,462143296,-0.9609,-0.6509,-0.2026,88.54,58.78,122.38
1059,462148296,-0.9644,-0.6436,-0.2065,93.54,61.04,122.13
1060,462153296,-1.0068,-0.6484,-0.2134,97.99,62.99,121.71
1061,462158735,-1.0000,-0.6426,-0.2158,102.50,65.67,121.22
1062,462163296,-1.0088,-0.6401,-0.2090,104.76,67.62,120.85
1063,462168296,-1.0195,-0.6470,-0.2148,107.07,69.94,120.24
1064,462173296,-0.9893,-0.6318,-0.2153,108.96,72.50,119.76
1065,462178296,-1.0112,-0.6309,-0.2124,110.43,74.82,119.09
1066,462183296,-1.0044,-0.6240,-0.2183,111.59,77.32,118.29
1067,462188296,-0.9917,-0.6040,-0.2217,112.74,79.76,117.44
1068,462193766,-0.9844,-0.5894,-0.2212,113.72,82.32,116.04
1069,462198298,-0.9985,-0.5815,-0.2251,114.21,84.33,115.12
1070,462203296,-1.0039,-0.5835,-0.2305,114.51,85.43,113.84
1071,462208296,-0.9961,-0.5723,-0.2300,114.57,86.16,112.44
1072,462213296,-0.9985,-0.5649,-0.2378,114.51,89.02,110.91
1073,462218296,-1.0078,-0.5566,-0.2300,114.02,91.28,109.09
1074,462223296,-1.0210,-0.5605,-0.2290,113.48,92.80,107.93
1075,462228296,-1.0176,-0.5566,-0.2363,112.26,94.51,106.34
1076,462233296,-1.0181,-0.5542,-0.2383,111.22,96.22,104.88
1077,462238463,-1.0464,-0.5547,-0.2461,109.76,97.99,103.29
1078,462243296,-1.0659,-0.5596,-0.2485,108.17,99.51,101.71
1079,462248296,-1.0596,-0.5591,-0.2480,106.59,101.10,100.06
1080,462253621,-1.0469,-0.5459,-0.2495,104.63,103.05,97.99
1081,462258296,-1.0742,-0.5522,-0.2539,102.99,104.82,96.28
1082,462263296,-1.0596,-0.5449,-0.2437,101.59,106.16,94.88
1083,462268296,-1.0728,-0.5454,-0.2451,99.88,107.74,92.99
1084,462273556,-1.0557,-0.5405,-0.2480,97.68,109.82,90.30
1085,462278296,-1.0786,-0.5454,-0.2515,96.22,110.98,89.39
1086,462283295,-1.0557,-0.5400,-0.2495,94.15,112.38,86.77
1087,462288294,-1.0469,-0.5347,-0.2515,92.32,113.66,85.73
1088,462293294,-1.0474,-0.5386,-0.2456,90.00,115.06,83.05
1089,462298294,-1.0605,-0.5396,-0.2485,87.62,116.22,80.91
1090,462303294,-1.0396,-0.5356,-0.2480,84.88,117.26,78.72
1091,462308403,-1.0454,-0.5405,-0.2515,81.40,118.35,76.28
1092,462313296,-1.0571,-0.5498,-0.2588,78.17,119.09,74.21
1093,462318296,-1.0586,-0.5542,-0.2598,74.94,119.45,72.26
1094,462323296,-1.0332,-0.5513,-0.2656,71.40,119.70,70.43
1095,462328296,-1.0244,-0.5591,-0.2642,67.56,119.63,68.60
1096,462333296,-1.0215,-0.5703,-0.2710,63.72,119.33,66.89
1097,462338296,-0.9980,-0.5713,-0.2788,59.82,118.84,65.18
1098,462343296,-0.9937,-0.5747,-0.2759,55.73,118.23,63.48
1099,462348297,-0.9995,-0.5854,-0.2778,52.01,117.20,61.89
1100,462353295,-0.9741,-0.5840,-0.2915,48.29,116.22,60.37
1101,462358380,-0.9819,-0.5898,-0.2930,44.88,114.88,58.72
1102,462363295,-0.9795,-0.5903,-0.3008,41.83,113.29,57.07
1103,462368296,-0.9766,-0.5791,-0.2954,39.33,111.89,55.43
1104,462373493,-0.9512,-0.5776,-0.3022,37.13,110.18,53.78
1105,462378296,-0.9424,-0.5806,-0.3003,35.37,108.41,52.01
1106,462383295,-0.9268,-0.5830,-0.3022,34.21,106.46,50.30
1107,462388294,-0.9272,-0.5874,-0.3013,33.35,104.39,48.35
1108,462393294,-0.9023,-0.5879,-0.3027,32.80,102.32,46.59
1109,462398294,-0.9028,-0.5874,-0.2974,32.56,100.06,44.63
1110,462403294,-0.8955,-0.5864,-0.2988,32.93,97.99,42.80
1111,462408296,-0.8672,-0.5786,-0.2915,33.48,95.79,40.79
1112,462413296,-0.8540,-0.5864,-0.2915,34.33,93.48,38.90
1113,462418296,-0.8579,-0.5933,-0.2944,35.61,91.22,36.77
1114,462423296,-0.8330,-0.5884,-0.2935,36.89,88.66,34.88
1115,462428296,-0.8262,-0.5952,-0.2944,38.48,85.73,32.93
1116,462433296,-0.8232,-0.6001,-0.2920,40.43,85.00,31.04
1117,462438616,-0.8125,-0.5942,-0.2939,42.20,82.13,29.21
1118,462443296,-0.7949,-0.5938,-0.2900,44.33,79.33,27.26
1119,462448401,-0.7974,-0.5947,-0.2861,46.52,76.65,25.49
1120,462453296,-0.7793,-0.5933,-0.2861,48.54,74.02,23.66
1121,462458297,-0.7534,-0.5884,-0.2876,50.55,71.10,21.77
1122,462463295,-0.7524,-0.5942,-0.2827,52.32,68.35,19.88
1123,462468296,-0.7314,-0.5830,-0.2803,53.90,65.43,17.99
1124,462473296,-0.7124,-0.5830,-0.2817,55.00,62.32,16.28
1125,462478296,-0.7119,-0.5879,-0.2915,55.73,59.39,14.57
1126,462483295,-0.6738,-0.5859,-0.2856,55.98,55.98,12.93
1127,462488295,-0.6836,-0.5938,-0.2935,55.37,52.74,11.34
1128,462493294,-0.6426,-0.5879,-0.2935,54.45,49.33,9.94
1129,462498294,-0.6484,-0.5986,-0.2900,53.11,45.55,8.41
1130,462503294,-0.6211,-0.5962,-0.2915,51.34,42.01,7.20
1131,462508296,-0.6289,-0.5977,-0.2964,49.27,38.48,5.79
1132,462513294,-0.6104,-0.5928,-0.2876,46.89,34.76,4.57
1133,462518296,-0.6055,-0.5947,-0.2964,44.15,31.46,3.41
1134,462523296,-0.6147,-0.5996,-0.2891,41.22,28.11,2.38
1135,462528296,-0.6084,-0.5942,-0.2852,37.56,24.27,1.04
1136,462533296,-0.5957,-0.5913,-0.2856,35.00,21.89,0.12
1137,462538296,-0.6060,-0.5928,-0.2915,31.59,18.90,-0.85
1138,462543296,-0.6040,-0.5928,-0.2881,28.17,16.04,-1.95
1139,462548296,-0.5972,-0.5913,-0.2881,24.70,13.54,-2.74
1140,462553296,-0.6255,-0.5981,-0.2886,21.04,10.73,-3.78
1141,462558296,-0.6133,-0.5913,-0.2998,16.52,8.05,-4.88
1142,462563296,-0.6250,-0.5977,-0.3003,13.48,6.22,-5.67
1143,462568296,-0.6147,-0.6016,-0.3037,9.70,4.15,-6.46
1144,462573297,-0.6265,-0.6108,-0.3047,5.85,2.07,-7.26
1145,462578296,-0.5923,-0.6104,-0.3042,1.89,0.00,-7.80
1146,462583296,-0.6045,-0.6094,-0.3076,-2.01,-1.59,-8.60
1147,462588296,-0.5859,-0.6104,-0.3213,-5.91,-3.35,-9.09
1148,462593296,-0.6016,-0.6221,-0.3208,-9.76,-5.00,-9.76
1149,462598296,-0.5820,-0.6187,-0.3218,-13.17,-6.52,-10.30
1150,462603296,-0.5752,-0.6226,-0.3237,-16.52,-8.11,-10.85
1151,462608773,-0.5752,-0.6235,-0.3281,-19.88,-9.82,-11.52
1152,462613296,-0.5835,-0.6216,-0.3325,-22.01,-10.55,-11.95
1153,462618296,-0.5723,-0.6216,-0.3335,-24.33,-11.59,-12.68
1154,462623297,-0.5825,-0.6206,-0.3394,-26.10,-12.56,-13.35
1155,462628296,-0.5830,-0.6162,-0.3477,-27.44,-13.41,-14.33
1156,462633297,-0.5854,-0.6138,-0.3423,-28.11,-13.96,-15.00
1157,462638296,-0.5986,-0.6167,-0.3447,-28.41,-14.21,-15.85
1158,462643296,-0.6089,-0.6094,-0.3574,-28.41,-14.57,-16.77
1159,462648296,-0.6104,-0.6118,-0.3574,-27.99,-14.76,-17.74
1160,462653296,-0.6294,-0.6128,-0.3613,-27.20,-14.82,-18.84
1161,462658336,-0.6187,-0.6055,-0.3589,-26.28,-14.76,-19.70
1162,462663294,-0.6348,-0.6133,-0.3677,-25.24,-14.51,-20.67
1163,462668296,-0.6421,-0.6138,-0.3745,-23.84,-14.33,-21.52
1164,462673296,-0.6489,-0.6108,-0.3740,-22.56,-13.96,-22.50
1165,462678295,-0.6470,-0.6094,-0.3755,-21.10,-13.78,-23.41
1166,462683294,-0.6367,-0.6064,-0.3867,-19.63,-13.54,-24.21
1167,462688295,-0.6538,-0.6094,-0.3857,-17.99,-13.29,-25.12
1168,462693294,-0.6323,-0.5996,-0.3936,-16.28,-13.17,-25.85
1169,462698294,-0.6411,-0.5898,-0.3970,-14.27,-13.17,-26.77
1170,462703295,-0.6401,-0.5908,-0.4014,-12.20,-12.87,-27.74
1171,462708366,-0.6436,-0.5854,-0.3984,-10.00,-12.99,-28.54
1172,462713294,-0.6367,-0.5801,-0.4067,-7.87,-13.05,-29.39
1173,462718294,-0.6519,-0.5757,-0.4009,-5.85,-13.35,-30.30
1174,462723294,-0.6440,-0.5659,-0.4053,-3.78,-13.41,-31.28
1175,462728294,-0.6299,-0.5615,-0.4048,-1.77,-13.41,-32.01
1176,462733294,-0.6372,-0.5605,-0.4077,0.00,-13.72,-32.93
1177,462738294,-0.6270,-0.5557,-0.4023,1.40,-13.84,-33.84
1178,462743294,-0.6260,-0.5542,-0.4048,2.62,-14.02,-34.63
1179,462748294,-0.6177,-0.5410,-0.4053,3.60,-14.27,-35.37
1180,462753294,-0.6304,-0.5449,-0.4058,4.27,-14.63,-36.10
1181,462758294,-0.6235,-0.5391,-0.4131,4.27,-14.82,-36.65
1182,462763294,-0.6074,-0.5361,-0.4072,4.09,-15.30,-37.38
1183,462768294,-0.6143,-0.5376,-0.4111,3.54,-15.67,-38.05
1184,462773294,-0.6221,-0.5386,-0.4111,2.56,-16.10,-38.54
1185,462778294,-0.6099,-0.5337,-0.4106,1.22,-16.16,-39.15
1186,462783294,-0.6147,-0.5229,-0.4121,-0.73,-16.77,-39.76
1187,462788294,-0.6094,-0.5215,-0.4092,-2.62,-17.01,-40.37
1188,462793294,-0.6157,-0.5249,-0.4126,-4.57,-17.20,-40.91
1189,462798294,-0.6123,-0.5171,-0.4102,-6.77,-17.62,-41.34
1190,462803681,-0.6108,-0.5132,-0.4097,-9.15,-17.87,-41.77
1191,462808419,-0.6167,-0.5142,-0.4077,-11.46,-18.23,-42.20
1192,462813296,-0.6304,-0.5127,-0.4062,-14.15,-18.29,-42.87
