# skilleye imu stream v1
# device=xiao_esp32c6 imu=mpu6050 addr=0x68
# rate_hz=200 accel_range_g=16 gyro_range_dps=2000 dlpf_hz=94
# units: accel in g, gyro in deg/s, t_us in microseconds since boot (monotonic)
# no shared clock with the camera -- tap the racket once before each take
# so both recordings share a spike to align on
seq,t_us,ax,ay,az,gx,gy,gz
0,255543296,-0.5469,-0.5669,-0.4551,-15.12,3.48,-18.54
1,255548301,-0.5542,-0.5640,-0.4595,-15.06,3.72,-18.05
2,255553296,-0.5444,-0.5645,-0.4556,-15.06,4.33,-17.44
3,255558296,-0.5327,-0.5659,-0.4570,-15.37,4.76,-16.95
4,255563296,-0.5513,-0.5718,-0.4590,-15.55,5.00,-16.28
5,255568296,-0.5469,-0.5698,-0.4595,-15.98,5.61,-15.73
6,255573296,-0.5322,-0.5649,-0.4575,-16.59,6.04,-15.24
7,255578296,-0.5361,-0.5684,-0.4600,-16.89,6.22,-14.45
8,255583296,-0.5308,-0.5703,-0.4585,-17.50,6.65,-13.84
9,255588296,-0.5327,-0.5718,-0.4531,-18.11,6.89,-13.35
10,255593296,-0.5342,-0.5742,-0.4541,-18.48,7.44,-12.68
11,255598296,-0.5337,-0.5693,-0.4556,-18.96,7.74,-12.01
12,255603296,-0.5200,-0.5635,-0.4556,-19.21,8.23,-11.34
13,255608297,-0.5317,-0.5732,-0.4580,-19.51,8.60,-10.79
14,255613296,-0.5171,-0.5640,-0.4590,-19.70,9.02,-10.18
15,255618296,-0.5332,-0.5723,-0.4546,-19.63,9.39,-9.45
16,255623296,-0.5259,-0.5684,-0.4609,-19.70,9.76,-8.96
17,255628296,-0.5176,-0.5688,-0.4526,-19.70,10.12,-8.35
18,255633301,-0.5205,-0.5737,-0.4531,-19.51,10.49,-7.62
19,255638296,-0.5239,-0.5718,-0.4526,-19.39,10.67,-7.13
20,255643298,-0.5283,-0.5835,-0.4600,-19.27,11.16,-6.40
21,255648296,-0.5195,-0.5742,-0.4580,-19.09,11.40,-5.79
22,255653373,-0.5229,-0.5786,-0.4619,-18.90,11.59,-5.18
23,255658313,-0.5303,-0.5806,-0.4565,-18.48,11.95,-4.51
24,255663380,-0.5234,-0.5801,-0.4673,-18.29,12.26,-3.78
25,255668296,-0.5273,-0.5811,-0.4585,-17.80,12.50,-3.17
26,255673407,-0.5156,-0.5854,-0.4575,-17.32,12.56,-2.50
27,255678296,-0.5156,-0.5845,-0.4595,-16.71,12.93,-1.83
28,255683294,-0.5181,-0.5815,-0.4556,-15.79,13.11,-1.16
29,255688294,-0.5171,-0.5796,-0.4531,-15.18,13.23,-0.49
30,255693294,-0.5215,-0.5889,-0.4585,-14.15,13.35,0.18
31,255698294,-0.5205,-0.5845,-0.4600,-13.11,13.41,0.79
32,255703294,-0.5127,-0.5840,-0.4561,-12.07,13.60,1.46
33,255708294,-0.5127,-0.5854,-0.4546,-10.79,13.66,2.07
34,255713294,-0.5093,-0.5845,-0.4517,-9.63,13.96,2.74
35,255718627,-0.5063,-0.5850,-0.4575,-8.23,13.96,3.54
36,255723501,-0.5083,-0.5894,-0.4546,-7.26,13.96,3.90
37,255728576,-0.5137,-0.5918,-0.4546,-6.04,14.15,4.76
38,255733297,-0.5151,-0.5942,-0.4526,-5.30,14.02,5.24
39,255738295,-0.5122,-0.5918,-0.4541,-4.51,13.96,5.98
40,255743298,-0.5195,-0.5972,-0.4526,-3.54,13.90,6.59
41,255748296,-0.5015,-0.5918,-0.4517,-2.74,13.96,7.20
42,255753296,-0.4971,-0.5908,-0.4590,-2.01,13.78,7.99
43,255758296,-0.5112,-0.5952,-0.4526,-1.52,13.66,8.66
44,255763297,-0.5015,-0.5938,-0.4517,-0.98,13.72,9.15
45,255768298,-0.5010,-0.5991,-0.4575,-0.30,13.72,9.94
46,255773294,-0.5093,-0.6016,-0.4478,0.24,13.54,10.61
47,255778298,-0.5049,-0.5972,-0.4517,0.79,13.54,11.28
48,255783295,-0.5020,-0.5962,-0.4487,1.40,13.48,11.83
49,255788297,-0.5020,-0.5967,-0.4482,2.13,13.48,12.50
50,255793296,-0.5205,-0.5996,-0.4482,2.62,13.41,12.99
51,255798295,-0.5083,-0.5957,-0.4473,3.17,13.17,13.48
52,255803297,-0.5181,-0.6011,-0.4443,3.84,13.23,13.84
53,255808298,-0.5161,-0.6025,-0.4473,4.82,13.17,14.33
54,255813296,-0.5078,-0.5986,-0.4448,5.43,13.17,14.63
55,255818295,-0.5112,-0.5967,-0.4463,6.52,13.05,15.12
56,255823298,-0.5205,-0.6064,-0.4424,7.44,13.05,15.49
57,255828294,-0.4985,-0.5981,-0.4404,8.41,12.87,15.79
58,255833298,-0.5225,-0.6094,-0.4414,9.39,12.80,15.98
59,255838298,-0.5093,-0.6030,-0.4424,10.24,12.62,16.28
60,255843296,-0.5083,-0.6064,-0.4380,11.10,12.68,16.65
61,255848303,-0.5239,-0.6050,-0.4385,12.01,12.50,16.77
62,255853296,-0.5176,-0.6094,-0.4404,12.74,12.56,17.07
63,255858296,-0.5269,-0.6055,-0.4390,13.48,12.38,17.26
64,255863296,-0.5132,-0.6040,-0.4355,14.02,12.13,17.38
65,255868298,-0.5142,-0.6006,-0.4331,14.51,11.95,17.56
66,255873296,-0.5171,-0.6050,-0.4302,15.06,11.65,17.68
67,255878296,-0.5298,-0.6118,-0.4365,15.37,11.52,17.87
68,255883298,-0.5210,-0.6055,-0.4282,15.61,11.28,17.80
69,255888296,-0.5308,-0.6099,-0.4277,15.67,11.16,17.93
70,255893297,-0.5229,-0.6064,-0.4185,15.79,10.98,17.99
71,255898326,-0.5132,-0.5991,-0.4258,15.79,10.85,18.05
72,255903294,-0.5312,-0.6099,-0.4214,15.49,10.43,18.05
73,255908296,-0.5210,-0.6050,-0.4185,15.30,10.30,17.99
74,255913295,-0.5391,-0.6050,-0.4185,15.00,9.94,17.99
75,255918298,-0.5151,-0.6060,-0.4233,14.63,9.63,17.99
76,255923733,-0.5322,-0.6128,-0.4097,14.33,9.51,17.99
77,255928296,-0.5137,-0.6050,-0.4106,13.66,9.09,17.99
78,255933296,-0.5352,-0.6128,-0.4062,13.35,8.84,17.99
79,255938296,-0.5234,-0.6055,-0.4087,12.99,8.60,17.87
80,255943295,-0.5234,-0.6050,-0.4087,12.50,8.23,17.80
81,255948295,-0.5400,-0.6143,-0.4048,12.07,8.05,17.62
82,255953294,-0.5273,-0.6035,-0.4038,11.59,7.50,17.62
83,255958294,-0.5210,-0.6064,-0.4004,11.34,7.26,17.38
84,255963294,-0.5176,-0.6055,-0.3940,11.10,6.89,17.32
85,255968294,-0.5205,-0.6045,-0.4072,10.79,6.59,17.13
86,255973414,-0.5190,-0.6050,-0.4058,10.49,6.16,17.13
87,255978295,-0.5317,-0.6118,-0.3994,10.24,5.73,16.95
88,255983294,-0.5259,-0.6118,-0.3984,10.12,5.30,16.71
89,255988294,-0.5234,-0.6104,-0.3979,9.88,5.06,16.59
90,255993294,-0.5366,-0.6108,-0.3975,9.70,4.63,16.52
91,255998294,-0.5420,-0.6104,-0.3965,9.45,4.21,16.22
92,256003294,-0.5312,-0.6084,-0.3926,9.09,4.02,16.10
93,256008294,-0.5337,-0.6074,-0.3877,8.78,3.66,15.98
94,256013297,-0.5435,-0.6206,-0.4009,8.29,3.29,15.79
95,256018300,-0.5405,-0.6147,-0.3960,7.93,2.99,15.49
96,256023295,-0.5469,-0.6157,-0.3906,7.38,2.93,15.30
97,256028296,-0.5479,-0.6177,-0.3896,7.07,2.50,15.24
98,256033705,-0.5430,-0.6162,-0.3887,6.65,2.38,15.00
99,256038296,-0.5464,-0.6196,-0.3911,6.34,1.95,14.94
100,256043297,-0.5347,-0.6191,-0.3911,5.85,1.65,14.70
101,256048296,-0.5376,-0.6216,-0.3892,5.61,1.28,14.39
102,256053296,-0.5293,-0.6226,-0.3848,5.30,0.98,14.27
103,256058296,-0.5371,-0.6289,-0.3853,5.06,0.79,14.21
104,256063296,-0.5435,-0.6318,-0.3877,4.82,0.61,14.02
105,256068296,-0.5479,-0.6362,-0.3848,4.57,0.18,13.90
106,256073296,-0.5518,-0.6357,-0.3857,4.63,-0.24,13.72
107,256078763,-0.5391,-0.6338,-0.3882,4.51,-0.67,13.66
108,256083296,-0.5483,-0.6411,-0.3892,4.57,-0.91,13.48
109,256088296,-0.5522,-0.6426,-0.3926,4.70,-1.34,13.35
110,256093296,-0.5479,-0.6450,-0.3896,5.00,-1.83,13.17
111,256098296,-0.5522,-0.6445,-0.3896,5.43,-2.38,12.87
112,256103296,-0.5527,-0.6440,-0.3945,5.73,-2.87,12.80
113,256108296,-0.5469,-0.6411,-0.3921,6.28,-3.54,12.80
114,256113321,-0.5518,-0.6475,-0.3965,7.01,-4.02,12.56
115,256118298,-0.5508,-0.6470,-0.3955,7.80,-4.76,12.32
116,256123296,-0.5625,-0.6523,-0.3994,8.60,-5.49,12.13
117,256128295,-0.5674,-0.6543,-0.4004,9.39,-6.10,11.89
118,256133294,-0.5718,-0.6543,-0.4009,10.24,-6.95,11.83
119,256138294,-0.5757,-0.6592,-0.3965,11.10,-7.68,11.65
120,256143294,-0.5859,-0.6626,-0.4043,11.95,-8.41,11.40
121,256148294,-0.5669,-0.6592,-0.3965,12.74,-9.33,11.22
122,256153294,-0.5928,-0.6611,-0.4004,13.84,-9.88,10.85
123,256158294,-0.5679,-0.6523,-0.3911,14.70,-10.73,10.55
124,256163294,-0.5894,-0.6602,-0.3940,15.55,-11.59,10.24
125,256168294,-0.5732,-0.6484,-0.3936,16.46,-12.32,9.76
126,256173294,-0.5732,-0.6484,-0.3911,17.13,-13.17,9.45
127,256178294,-0.5747,-0.6548,-0.3921,17.80,-13.96,9.02
128,256183294,-0.5815,-0.6562,-0.3931,18.23,-14.70,8.60
129,256188294,-0.5835,-0.6567,-0.3994,18.48,-15.49,8.23
130,256193294,-0.5830,-0.6582,-0.3960,18.48,-16.34,7.80
131,256198294,-0.5786,-0.6572,-0.3989,18.29,-17.07,7.20
132,256203294,-0.5796,-0.6567,-0.3965,18.11,-17.99,6.89
133,256208294,-0.5815,-0.6621,-0.3916,17.50,-18.60,6.40
134,256213294,-0.5786,-0.6602,-0.3965,16.89,-19.27,5.91
135,256218294,-0.5742,-0.6582,-0.4009,16.04,-20.12,5.49
136,256223294,-0.5732,-0.6582,-0.3872,15.12,-20.67,5.00
137,256228294,-0.5698,-0.6602,-0.3999,14.27,-21.34,4.51
138,256233425,-0.5767,-0.6602,-0.3970,13.11,-22.13,3.90
139,256238296,-0.5713,-0.6558,-0.3936,12.38,-22.38,3.54
140,256243299,-0.5776,-0.6582,-0.3931,11.40,-23.17,2.93
141,256248295,-0.5864,-0.6641,-0.3940,10.37,-23.48,2.26
142,256253296,-0.5889,-0.6655,-0.3999,9.57,-24.02,1.77
143,256258297,-0.5845,-0.6611,-0.4004,8.96,-24.39,1.22
144,256263296,-0.5845,-0.6562,-0.4004,8.11,-24.76,0.43
145,256268785,-0.5820,-0.6553,-0.4043,7.56,-25.12,-0.18
146,256273296,-0.5801,-0.6509,-0.4004,7.01,-25.49,-0.85
147,256278296,-0.5767,-0.6528,-0.4019,6.59,-25.91,-1.59
148,256283295,-0.5684,-0.6499,-0.4009,5.85,-26.10,-2.20
149,256288294,-0.5649,-0.6455,-0.3960,5.43,-26.46,-3.05
150,256293294,-0.5620,-0.6470,-0.3955,4.88,-26.46,-3.84
151,256298294,-0.5688,-0.6494,-0.4062,4.21,-26.59,-4.63
152,256303294,-0.5684,-0.6475,-0.4019,3.48,-26.71,-5.43
153,256308295,-0.5674,-0.6494,-0.3994,2.62,-26.77,-6.22
154,256313296,-0.5649,-0.6411,-0.4038,1.83,-26.77,-6.83
155,256318702,-0.5698,-0.6489,-0.4062,0.61,-26.71,-7.68
156,256323296,-0.5723,-0.6523,-0.4038,-0.55,-26.65,-8.41
157,256328296,-0.5732,-0.6514,-0.4033,-1.95,-26.59,-9.21
158,256333367,-0.5723,-0.6509,-0.3999,-3.35,-26.46,-9.88
159,256338296,-0.5728,-0.6543,-0.4082,-5.06,-26.28,-10.61
160,256343767,-0.5742,-0.6523,-0.4087,-6.46,-26.04,-11.28
161,256348400,-0.5698,-0.6523,-0.4067,-8.17,-26.10,-11.95
162,256353294,-0.5693,-0.6499,-0.4150,-9.76,-25.91,-12.74
163,256358294,-0.5815,-0.6558,-0.4141,-11.40,-25.85,-13.29
164,256363294,-0.5708,-0.6519,-0.4072,-12.99,-25.79,-13.84
165,256368294,-0.5728,-0.6543,-0.4092,-14.63,-25.67,-14.45
166,256373294,-0.5610,-0.6538,-0.4116,-16.04,-25.49,-14.88
167,256378297,-0.5625,-0.6528,-0.4199,-17.50,-25.49,-15.30
168,256383296,-0.5654,-0.6577,-0.4185,-18.78,-25.37,-15.85
169,256388527,-0.5708,-0.6602,-0.4248,-19.88,-25.18,-16.28
170,256393778,-0.5645,-0.6597,-0.4209,-20.98,-25.06,-16.71
171,256398296,-0.5659,-0.6621,-0.4268,-21.83,-25.06,-16.95
172,256403296,-0.5625,-0.6558,-0.4258,-22.44,-25.00,-17.38
173,256408610,-0.5664,-0.6587,-0.4321,-22.87,-24.88,-17.68
174,256413783,-0.5659,-0.6577,-0.4263,-23.11,-24.70,-17.93
175,256418296,-0.5757,-0.6606,-0.4312,-22.93,-24.51,-18.29
176,256423296,-0.5688,-0.6567,-0.4336,-22.68,-24.39,-18.60
177,256428296,-0.5703,-0.6553,-0.4302,-22.20,-24.33,-18.90
178,256433296,-0.5786,-0.6528,-0.4336,-21.59,-24.15,-19.21
179,256438296,-0.5815,-0.6514,-0.4312,-20.79,-23.96,-19.39
180,256443296,-0.5854,-0.6504,-0.4365,-19.88,-23.90,-19.82
181,256448296,-0.5796,-0.6479,-0.4385,-18.90,-23.66,-20.18
182,256453296,-0.5801,-0.6450,-0.4346,-17.99,-23.48,-20.43
183,256458397,-0.5830,-0.6475,-0.4355,-16.83,-23.29,-20.73
184,256463295,-0.5679,-0.6353,-0.4316,-16.04,-23.29,-20.98
185,256468299,-0.5718,-0.6353,-0.4365,-15.24,-23.05,-21.22
186,256473296,-0.5713,-0.6323,-0.4302,-14.51,-23.11,-21.46
187,256478296,-0.5679,-0.6328,-0.4287,-13.84,-22.80,-21.83
188,256483296,-0.5659,-0.6260,-0.4248,-13.48,-22.74,-22.01
189,256488296,-0.5645,-0.6313,-0.4214,-13.11,-22.56,-22.32
190,256493296,-0.5562,-0.6279,-0.4292,-12.87,-22.56,-22.32
191,256498296,-0.5562,-0.6255,-0.4258,-12.74,-22.56,-22.50
192,256503296,-0.5581,-0.6206,-0.4253,-12.87,-22.32,-22.74
193,256508296,-0.5547,-0.6152,-0.4209,-13.05,-22.32,-22.99
194,256513296,-0.5566,-0.6201,-0.4263,-13.35,-22.20,-23.11
195,256518296,-0.5620,-0.6201,-0.4277,-13.90,-22.26,-23.29
196,256523296,-0.5693,-0.6177,-0.4204,-14.39,-21.95,-23.41
197,256528298,-0.5591,-0.6157,-0.4229,-15.00,-21.89,-23.48
198,256533299,-0.5635,-0.6138,-0.4272,-15.91,-21.71,-23.60
199,256538296,-0.5581,-0.6128,-0.4302,-16.46,-21.65,-23.66
200,256543296,-0.5562,-0.6162,-0.4263,-17.20,-21.52,-23.72
201,256548296,-0.5654,-0.6177,-0.4263,-17.80,-21.28,-23.78
202,256553296,-0.5767,-0.6211,-0.4316,-18.54,-21.34,-23.78
203,256558296,-0.5796,-0.6201,-0.4331,-19.09,-21.22,-23.78
204,256563297,-0.5723,-0.6147,-0.4336,-19.70,-20.98,-23.90
205,256568296,-0.5679,-0.6123,-0.4351,-20.06,-20.98,-23.78
206,256573296,-0.5679,-0.6143,-0.4375,-20.37,-20.85,-23.90
207,256578294,-0.5654,-0.6177,-0.4409,-20.43,-20.61,-23.96
208,256583294,-0.5820,-0.6191,-0.4399,-20.30,-20.43,-23.84
209,256588294,-0.5874,-0.6182,-0.4385,-20.00,-20.43,-23.84
210,256593294,-0.5742,-0.6152,-0.4434,-19.76,-20.49,-23.84
211,256598294,-0.5747,-0.6182,-0.4419,-19.09,-20.24,-23.90
212,256603294,-0.5864,-0.6143,-0.4458,-18.48,-20.06,-23.84
213,256608294,-0.5908,-0.6152,-0.4473,-17.44,-19.94,-23.90
214,256613905,-0.5854,-0.6055,-0.4448,-16.40,-19.82,-23.90
215,256618299,-0.5732,-0.6094,-0.4448,-15.49,-19.70,-24.02
216,256623296,-0.5840,-0.6069,-0.4482,-14.45,-19.39,-24.02
217,256628295,-0.5859,-0.6035,-0.4512,-12.99,-19.45,-24.09
218,256633296,-0.5796,-0.5981,-0.4448,-12.01,-19.33,-24.09
219,256638296,-0.5762,-0.6006,-0.4438,-10.98,-19.39,-24.09
220,256643296,-0.5771,-0.6006,-0.4478,-10.06,-19.15,-24.15
221,256648296,-0.5962,-0.6021,-0.4512,-9.15,-19.09,-24.15
222,256653296,-0.5820,-0.6006,-0.4463,-8.29,-18.96,-23.96
223,256658301,-0.5757,-0.5986,-0.4443,-7.62,-18.84,-24.02
224,256663294,-0.5752,-0.5967,-0.4556,-6.95,-18.96,-23.96
225,256668296,-0.5742,-0.5889,-0.4473,-6.40,-18.96,-23.84
226,256673428,-0.5845,-0.5962,-0.4512,-6.04,-18.90,-23.66
227,256678793,-0.5864,-0.5938,-0.4521,-5.79,-18.66,-23.66
228,256683296,-0.5786,-0.5894,-0.4580,-5.73,-18.66,-23.54
229,256688299,-0.5811,-0.5908,-0.4526,-5.73,-18.48,-23.35
230,256693299,-0.5801,-0.5898,-0.4478,-5.85,-18.41,-23.29
231,256698296,-0.5698,-0.5879,-0.4521,-6.16,-18.41,-23.23
232,256703296,-0.5708,-0.5864,-0.4531,-6.34,-18.41,-22.93
233,256708725,-0.5757,-0.5840,-0.4512,-6.65,-18.05,-22.93
234,256713296,-0.5732,-0.5898,-0.4502,-7.01,-18.11,-22.80
235,256718296,-0.5747,-0.5830,-0.4556,-7.62,-17.99,-22.62
236,256723296,-0.5693,-0.5845,-0.4497,-8.17,-17.74,-22.38
237,256728296,-0.5669,-0.5859,-0.4575,-8.72,-17.62,-22.26
238,256733296,-0.5630,-0.5854,-0.4580,-9.27,-17.56,-22.01
239,256738296,-0.5527,-0.5830,-0.4570,-9.70,-17.32,-21.95
240,256743296,-0.5522,-0.5796,-0.4609,-10.12,-17.13,-21.59
241,256748297,-0.5527,-0.5791,-0.4575,-10.67,-17.01,-21.40
242,256753296,-0.5552,-0.5815,-0.4653,-11.10,-16.77,-21.16
243,256758296,-0.5601,-0.5801,-0.4683,-11.52,-16.59,-20.85
244,256763296,-0.5684,-0.5820,-0.4692,-11.77,-16.22,-20.55
245,256768296,-0.5586,-0.5791,-0.4731,-12.01,-16.16,-20.37
246,256773296,-0.5566,-0.5796,-0.4741,-12.26,-15.98,-19.94
247,256778296,-0.5439,-0.5771,-0.4692,-12.38,-15.49,-19.70
248,256783296,-0.5645,-0.5864,-0.4717,-12.50,-15.18,-19.45
249,256788296,-0.5537,-0.5811,-0.4736,-12.62,-14.94,-19.27
250,256793298,-0.5518,-0.5811,-0.4712,-12.62,-14.39,-18.84
251,256798296,-0.5513,-0.5835,-0.4780,-12.62,-14.02,-18.60
252,256803296,-0.5498,-0.5806,-0.4785,-12.62,-13.72,-18.17
253,256808296,-0.5488,-0.5835,-0.4736,-12.50,-13.17,-17.93
254,256813296,-0.5439,-0.5825,-0.4824,-12.44,-12.87,-17.56
255,256818296,-0.5474,-0.5840,-0.4814,-12.13,-12.32,-17.32
256,256823740,-0.5430,-0.5874,-0.4849,-12.01,-11.77,-16.89
257,256828296,-0.5474,-0.5884,-0.4844,-11.83,-11.22,-16.59
258,256833296,-0.5430,-0.5801,-0.4873,-11.34,-10.73,-16.28
259,256838448,-0.5356,-0.5781,-0.4868,-11.22,-10.18,-15.91
260,256843453,-0.5317,-0.5820,-0.4824,-10.67,-9.76,-15.55
261,256848452,-0.5269,-0.5845,-0.4824,-10.30,-9.39,-15.37
262,256853454,-0.5234,-0.5850,-0.4824,-9.94,-8.78,-14.94
263,256858534,-0.5244,-0.5791,-0.4863,-9.45,-8.41,-14.63
264,256863296,-0.5166,-0.5776,-0.4834,-9.02,-7.93,-14.27
265,256868295,-0.5166,-0.5762,-0.4893,-8.78,-7.38,-14.02
266,256873294,-0.5186,-0.5757,-0.4858,-8.35,-6.89,-13.54
267,256878294,-0.5078,-0.5762,-0.4863,-7.99,-6.59,-13.29
268,256883294,-0.5112,-0.5781,-0.4814,-7.68,-6.16,-12.87
269,256888294,-0.5015,-0.5776,-0.4839,-7.62,-5.73,-12.50
270,256893294,-0.5034,-0.5776,-0.4810,-7.38,-5.12,-12.20
271,256898294,-0.5059,-0.5752,-0.4888,-7.32,-4.70,-11.83
272,256903294,-0.5020,-0.5718,-0.4844,-7.07,-4.27,-11.34
273,256908298,-0.5015,-0.5728,-0.4873,-7.07,-3.96,-11.04
274,256913297,-0.4985,-0.5723,-0.4858,-7.13,-3.54,-10.73
275,256918296,-0.4956,-0.5713,-0.4873,-7.20,-2.93,-10.18
276,256923296,-0.4946,-0.5762,-0.4854,-7.44,-2.44,-9.88
277,256928775,-0.5015,-0.5742,-0.4897,-7.50,-2.13,-9.39
278,256933296,-0.4980,-0.5771,-0.4854,-7.80,-1.71,-9.09
279,256938297,-0.4937,-0.5742,-0.4927,-8.17,-1.22,-8.66
280,256943299,-0.5005,-0.5737,-0.4946,-8.60,-0.79,-8.11
281,256948296,-0.5049,-0.5771,-0.4971,-8.84,-0.43,-7.68
282,256953296,-0.5083,-0.5781,-0.4937,-9.39,-0.06,-7.20
283,256958296,-0.5103,-0.5767,-0.4956,-9.82,0.49,-6.59
284,256963296,-0.5098,-0.5786,-0.4971,-10.06,0.98,-6.16
285,256968296,-0.5034,-0.5801,-0.4980,-10.49,1.46,-5.67
286,256973296,-0.5190,-0.5869,-0.5000,-10.85,2.01,-5.18
287,256978296,-0.5195,-0.5752,-0.4980,-11.16,2.62,-4.63
288,256983296,-0.5093,-0.5776,-0.5000,-11.40,3.17,-4.02
289,256988296,-0.5098,-0.5786,-0.4976,-11.59,3.84,-3.54
290,256993296,-0.5200,-0.5806,-0.5054,-11.59,4.57,-2.87
291,256998296,-0.5132,-0.5830,-0.5010,-11.52,5.00,-2.44
292,257003296,-0.5195,-0.5835,-0.5063,-11.40,5.61,-1.77
293,257008296,-0.5156,-0.5869,-0.5068,-11.28,6.10,-1.40
294,257013296,-0.5107,-0.5835,-0.5039,-10.79,6.52,-0.73
295,257018296,-0.5137,-0.5859,-0.5088,-10.30,7.20,-0.24
296,257023296,-0.5166,-0.5869,-0.5000,-9.70,7.62,0.30
297,257028296,-0.5146,-0.5874,-0.5059,-9.02,8.23,0.79
298,257033296,-0.5054,-0.5869,-0.5088,-8.29,8.78,1.16
299,257038296,-0.5034,-0.5840,-0.5132,-7.56,9.21,1.83
300,257043295,-0.5078,-0.5894,-0.5034,-6.52,9.88,2.44
301,257048296,-0.5049,-0.5850,-0.5034,-5.91,10.37,2.93
302,257053296,-0.5078,-0.5850,-0.5063,-5.06,10.85,3.35
303,257058296,-0.5024,-0.5796,-0.5103,-4.15,11.52,3.84
304,257063296,-0.5015,-0.5796,-0.4976,-2.93,12.01,4.39
305,257068295,-0.5034,-0.5811,-0.5010,-2.32,12.44,4.76
306,257073295,-0.5073,-0.5811,-0.4995,-1.46,13.05,5.24
307,257078294,-0.5005,-0.5781,-0.5024,-0.61,13.41,5.61
308,257083294,-0.4951,-0.5806,-0.4980,0.06,14.02,6.10
309,257088294,-0.4980,-0.5796,-0.4961,0.55,14.45,6.59
310,257093294,-0.5039,-0.5806,-0.4985,0.85,14.94,6.95
311,257098294,-0.4995,-0.5771,-0.4990,1.04,15.30,7.50
312,257103294,-0.4883,-0.5796,-0.4893,1.40,15.79,7.93
313,257108297,-0.4917,-0.5840,-0.4937,1.40,16.52,8.54
314,257113319,-0.4863,-0.5801,-0.4888,1.22,16.71,8.90
315,257119096,-0.4961,-0.5820,-0.4902,0.85,17.32,9.57
316,257123296,-0.4985,-0.5825,-0.4907,0.55,17.50,9.88
317,257128472,-0.4937,-0.5815,-0.4888,0.00,17.93,10.49
318,257133296,-0.4951,-0.5850,-0.4839,-0.43,18.23,10.85
319,257138296,-0.4824,-0.5796,-0.4785,-1.04,18.78,11.46
320,257143296,-0.4863,-0.5801,-0.4849,-1.40,19.02,11.89
321,257148296,-0.4873,-0.5840,-0.4839,-1.89,19.33,12.32
322,257153296,-0.4985,-0.5859,-0.4810,-2.32,19.63,12.80
323,257158296,-0.4966,-0.5874,-0.4805,-2.56,19.88,13.23
324,257163296,-0.4961,-0.5889,-0.4834,-2.99,20.37,13.66
325,257168296,-0.5039,-0.5869,-0.4800,-3.41,20.67,14.27
326,257173296,-0.4990,-0.5874,-0.4819,-3.72,20.91,14.70
327,257178295,-0.4922,-0.5830,-0.4766,-3.90,21.28,15.06
328,257183294,-0.4912,-0.5879,-0.4785,-3.96,21.59,15.49
329,257188295,-0.4941,-0.5864,-0.4756,-3.96,21.65,16.04
330,257193294,-0.4922,-0.5908,-0.4810,-3.84,22.01,16.46
331,257198297,-0.4893,-0.5903,-0.4790,-3.78,22.01,16.83
332,257203294,-0.4946,-0.5947,-0.4688,-3.48,22.26,17.20
333,257208294,-0.4951,-0.5928,-0.4741,-3.23,22.50,17.56
334,257213295,-0.4927,-0.5942,-0.4731,-2.87,22.56,17.93
335,257218294,-0.4941,-0.5996,-0.4707,-2.50,22.68,18.29
336,257223294,-0.4873,-0.5957,-0.4727,-2.07,22.68,18.66
337,257228294,-0.4922,-0.6011,-0.4751,-1.65,22.87,18.96
338,257233294,-0.5034,-0.6064,-0.4751,-1.22,22.80,19.21
339,257238294,-0.5083,-0.6069,-0.4775,-0.85,22.68,19.63
340,257243294,-0.5015,-0.6035,-0.4712,-0.24,22.68,19.88
341,257248294,-0.4985,-0.6025,-0.4673,0.06,22.74,20.12
342,257253294,-0.4902,-0.6045,-0.4678,0.49,22.56,20.43
343,257258294,-0.4897,-0.6099,-0.4673,0.91,22.44,20.67
344,257263294,-0.4980,-0.6123,-0.4648,1.16,22.38,20.98
345,257268294,-0.5015,-0.6099,-0.4658,1.52,22.20,21.22
346,257273294,-0.4966,-0.6138,-0.4707,1.77,21.95,21.46
347,257278294,-0.4912,-0.6128,-0.4702,2.07,21.77,21.71
348,257283298,-0.5112,-0.6138,-0.4644,2.38,21.71,21.89
349,257288305,-0.4995,-0.6118,-0.4629,2.74,21.52,22.13
350,257293296,-0.4971,-0.6152,-0.4629,3.05,21.46,22.26
351,257298295,-0.5020,-0.6133,-0.4673,3.48,21.40,22.38
352,257303296,-0.5034,-0.6157,-0.4678,4.02,21.10,22.56
353,257308296,-0.5054,-0.6138,-0.4658,4.45,21.10,22.68
354,257313296,-0.5078,-0.6172,-0.4629,4.88,20.91,22.87
355,257318296,-0.5112,-0.6177,-0.4585,5.37,20.61,22.87
356,257323296,-0.5098,-0.6201,-0.4600,5.79,20.55,22.99
357,257328296,-0.5239,-0.6245,-0.4639,6.28,20.37,23.17
358,257333296,-0.5186,-0.6250,-0.4600,6.65,20.24,23.11
359,257338296,-0.5190,-0.6230,-0.4600,7.20,20.06,23.35
360,257343296,-0.5034,-0.6201,-0.4551,7.56,19.88,23.23
361,257348501,-0.5151,-0.6250,-0.4556,7.74,19.82,23.11
362,257353502,-0.5151,-0.6265,-0.4556,8.05,19.70,23.17
363,257358310,-0.5176,-0.6294,-0.4536,8.23,19.33,23.29
364,257363459,-0.5098,-0.6299,-0.4507,8.41,19.27,23.23
365,257368373,-0.5063,-0.6294,-0.4502,8.72,19.02,23.23
366,257373406,-0.5059,-0.6284,-0.4468,8.78,18.84,23.23
367,257378296,-0.5103,-0.6362,-0.4512,8.84,18.66,23.23
368,257383296,-0.5112,-0.6333,-0.4478,8.84,18.29,23.29
369,257388296,-0.5103,-0.6313,-0.4443,8.96,18.23,23.17
370,257393693,-0.5039,-0.6333,-0.4448,9.15,17.99,23.29
371,257398296,-0.5054,-0.6357,-0.4458,9.33,17.62,23.05
372,257403296,-0.5044,-0.6333,-0.4360,9.51,17.32,23.11
373,257408296,-0.4971,-0.6309,-0.4346,9.82,17.01,23.05
374,257413296,-0.5034,-0.6387,-0.4414,10.18,16.65,23.05
375,257418296,-0.5142,-0.6382,-0.4365,10.49,16.34,23.11
376,257423296,-0.5098,-0.6387,-0.4360,10.98,16.10,22.93
377,257428296,-0.5005,-0.6353,-0.4360,11.52,15.49,22.80
378,257433296,-0.4985,-0.6348,-0.4385,11.95,15.12,22.74
379,257438296,-0.4941,-0.6357,-0.4321,12.50,14.57,22.68
380,257443296,-0.4961,-0.6377,-0.4312,13.05,14.27,22.62
381,257448296,-0.5010,-0.6406,-0.4326,13.78,13.78,22.44
382,257453784,-0.5088,-0.6416,-0.4321,14.45,13.35,22.26
383,257458296,-0.5034,-0.6406,-0.4326,15.12,12.99,22.20
384,257463296,-0.5020,-0.6401,-0.4316,15.73,12.62,22.07
385,257468297,-0.4922,-0.6387,-0.4287,16.34,12.01,21.77
386,257473296,-0.5000,-0.6401,-0.4302,17.13,11.52,21.65
387,257478295,-0.5005,-0.6411,-0.4297,17.74,11.10,21.40
388,257483294,-0.4961,-0.6445,-0.4263,18.60,10.49,21.22
389,257488294,-0.4937,-0.6396,-0.4292,19.15,10.12,20.98
390,257493294,-0.4990,-0.6416,-0.4258,19.94,9.63,20.73
391,257498294,-0.5083,-0.6421,-0.4253,20.55,8.96,20.55
392,257503294,-0.4971,-0.6426,-0.4253,21.04,8.66,20.30
393,257508294,-0.4932,-0.6387,-0.4312,21.52,8.05,19.94
394,257513294,-0.5015,-0.6396,-0.4229,22.01,7.50,19.82
395,257518298,-0.5078,-0.6406,-0.4229,22.38,7.26,19.51
396,257523463,-0.5146,-0.6445,-0.4194,22.56,6.59,19.27
397,257528295,-0.5073,-0.6401,-0.4199,22.50,6.16,18.84
398,257533296,-0.5049,-0.6377,-0.4185,22.56,5.61,18.48
399,257538296,-0.5132,-0.6416,-0.4209,22.44,5.18,18.35
400,257543350,-0.5186,-0.6436,-0.4194,22.38,4.88,17.99
401,257548299,-0.5254,-0.6426,-0.4194,22.01,4.21,17.56
402,257553358,-0.5220,-0.6455,-0.4224,21.71,3.90,17.38
403,257558789,-0.5264,-0.6460,-0.4180,21.16,3.35,16.89
404,257563296,-0.5200,-0.6465,-0.4180,20.73,2.93,16.71
405,257568296,-0.5220,-0.6465,-0.4185,20.18,2.62,16.16
406,257573296,-0.5283,-0.6494,-0.4224,19.57,1.77,15.67
407,257578296,-0.5269,-0.6489,-0.4219,19.27,1.46,15.37
408,257583296,-0.5269,-0.6523,-0.4185,18.84,0.85,15.00
409,257588296,-0.5166,-0.6479,-0.4170,18.35,0.30,14.51
410,257593296,-0.5195,-0.6538,-0.4229,18.17,-0.18,14.09
411,257598296,-0.5156,-0.6519,-0.4136,17.87,-0.79,13.48
412,257603296,-0.5186,-0.6509,-0.4243,17.62,-1.46,12.87
413,257608296,-0.5249,-0.6519,-0.4180,17.56,-2.01,12.44
414,257613296,-0.5264,-0.6528,-0.4214,17.32,-2.62,11.95
415,257618296,-0.5298,-0.6509,-0.4141,17.26,-3.41,11.28
416,257623296,-0.5249,-0.6514,-0.4219,16.89,-4.02,10.67
417,257628296,-0.5229,-0.6504,-0.4214,16.65,-4.82,10.12
418,257633296,-0.5249,-0.6538,-0.4194,16.34,-5.49,9.57
419,257638296,-0.5264,-0.6553,-0.4155,15.98,-6.04,8.84
420,257643296,-0.5215,-0.6572,-0.4160,15.49,-6.65,8.29
421,257648296,-0.5190,-0.6548,-0.4150,15.00,-7.20,7.68
422,257653294,-0.5146,-0.6567,-0.4155,14.45,-7.93,7.13
423,257658296,-0.5186,-0.6587,-0.4180,13.90,-8.41,6.65
424,257663461,-0.5181,-0.6587,-0.4243,13.54,-9.27,5.91
425,257668392,-0.5186,-0.6567,-0.4238,12.93,-9.88,5.30
426,257673592,-0.5186,-0.6514,-0.4185,12.50,-10.37,4.70
427,257678629,-0.5273,-0.6587,-0.4175,12.13,-11.04,3.96
428,257683296,-0.5264,-0.6577,-0.4214,11.77,-11.52,3.35
429,257688296,-0.5215,-0.6553,-0.4175,11.28,-12.07,2.68
430,257693296,-0.5225,-0.6567,-0.4253,11.10,-12.62,1.89
431,257698297,-0.5254,-0.6572,-0.4229,10.73,-13.05,1.16
432,257703294,-0.5220,-0.6528,-0.4224,10.43,-13.78,0.43
433,257708294,-0.5225,-0.6572,-0.4258,10.18,-14.09,-0.55
434,257713294,-0.5312,-0.6567,-0.4263,9.82,-14.63,-1.28
435,257718294,-0.5264,-0.6523,-0.4214,9.33,-15.06,-2.07
436,257723294,-0.5303,-0.6558,-0.4282,8.96,-15.61,-2.87
437,257728294,-0.5347,-0.6533,-0.4268,8.41,-16.04,-3.66
438,257733294,-0.5312,-0.6533,-0.4248,7.87,-16.34,-4.57
439,257738299,-0.5269,-0.6470,-0.4307,7.26,-16.77,-5.30
440,257743296,-0.5288,-0.6440,-0.4277,6.59,-17.07,-6.22
441,257748296,-0.5259,-0.6426,-0.4336,5.73,-17.38,-7.01
442,257753298,-0.5195,-0.6411,-0.4409,4.94,-17.56,-7.87
443,257758296,-0.5322,-0.6411,-0.4360,4.09,-17.93,-8.72
444,257763300,-0.5298,-0.6382,-0.4385,3.11,-18.17,-9.39
445,257768296,-0.5317,-0.6426,-0.4385,2.01,-18.41,-10.24
446,257773296,-0.5244,-0.6392,-0.4385,0.67,-18.48,-11.04
447,257778296,-0.5293,-0.6367,-0.4360,-0.43,-18.48,-11.71
448,257783295,-0.5288,-0.6338,-0.4434,-1.89,-18.78,-12.38
449,257788294,-0.5361,-0.6323,-0.4385,-3.35,-18.84,-13.11
450,257793294,-0.5342,-0.6362,-0.4448,-4.76,-19.02,-13.78
451,257798294,-0.5303,-0.6323,-0.4458,-6.46,-19.21,-14.39
452,257803294,-0.5337,-0.6343,-0.4429,-7.99,-19.09,-14.94
453,257808437,-0.5361,-0.6323,-0.4526,-9.70,-19.21,-15.61
454,257813728,-0.5269,-0.6323,-0.4497,-11.46,-19.21,-16.10
455,257818296,-0.5269,-0.6270,-0.4551,-13.11,-19.27,-16.59
456,257823296,-0.5259,-0.6284,-0.4595,-14.70,-19.45,-17.13
457,257828298,-0.5303,-0.6294,-0.4526,-16.16,-19.33,-17.62
458,257833296,-0.5273,-0.6274,-0.4624,-17.68,-19.33,-18.05
459,257838296,-0.5239,-0.6260,-0.4580,-19.09,-19.39,-18.54
460,257843296,-0.5210,-0.6191,-0.4648,-20.30,-19.33,-19.02
461,257848296,-0.5127,-0.6206,-0.4590,-21.46,-19.21,-19.45
462,257853295,-0.5122,-0.6230,-0.4595,-22.56,-19.27,-19.88
463,257858296,-0.5249,-0.6245,-0.4683,-23.90,-19.33,-20.30
464,257863296,-0.5176,-0.6206,-0.4688,-24.45,-19.33,-20.49
465,257868296,-0.5249,-0.6206,-0.4707,-25.49,-19.39,-20.85
466,257873296,-0.5220,-0.6211,-0.4658,-26.04,-19.51,-21.04
467,257878296,-0.5229,-0.6201,-0.4790,-26.59,-19.45,-21.40
468,257883296,-0.5264,-0.6216,-0.4829,-27.26,-19.45,-21.65
469,257888298,-0.5259,-0.6187,-0.4819,-27.56,-19.39,-21.83
470,257893298,-0.5303,-0.6201,-0.4814,-28.11,-19.51,-21.95
471,257898295,-0.5303,-0.6201,-0.4917,-28.54,-19.39,-22.32
472,257903298,-0.5264,-0.6187,-0.4888,-28.66,-19.45,-22.32
473,257908352,-0.5244,-0.6157,-0.4888,-28.78,-19.27,-22.50
474,257913298,-0.5200,-0.6133,-0.4990,-28.84,-19.39,-22.50
475,257918382,-0.5088,-0.6128,-0.4893,-28.84,-19.33,-22.62
476,257923296,-0.5156,-0.6182,-0.4956,-28.84,-19.33,-22.74
477,257928386,-0.5229,-0.6201,-0.4971,-28.84,-19.15,-22.80
478,257933298,-0.5215,-0.6182,-0.4971,-28.72,-19.02,-22.74
479,257938318,-0.5244,-0.6206,-0.4980,-28.72,-18.90,-22.62
480,257943295,-0.5166,-0.6152,-0.4995,-28.66,-18.78,-22.56
481,257948298,-0.5186,-0.6162,-0.4990,-28.54,-18.66,-22.44
482,257953297,-0.5220,-0.6157,-0.5068,-28.23,-18.29,-22.32
483,257958296,-0.5161,-0.6147,-0.5054,-28.05,-18.23,-22.32
484,257963323,-0.5161,-0.6147,-0.5093,-27.56,-18.05,-22.01
485,257968349,-0.5200,-0.6123,-0.5112,-27.32,-17.80,-21.83
486,257973296,-0.5020,-0.6118,-0.5098,-26.71,-17.50,-21.59
487,257978296,-0.5098,-0.6108,-0.5098,-26.10,-17.38,-21.34
488,257983296,-0.5186,-0.6113,-0.5122,-25.43,-17.26,-21.22
489,257988296,-0.5156,-0.6138,-0.5132,-24.63,-16.89,-20.91
490,257993295,-0.5112,-0.6104,-0.5073,-23.72,-16.65,-20.67
491,257998294,-0.5044,-0.6084,-0.5107,-22.68,-16.46,-20.37
492,258003294,-0.5020,-0.6064,-0.5142,-21.40,-16.04,-20.12
493,258008294,-0.5054,-0.6025,-0.5166,-20.00,-15.61,-19.82
494,258013294,-0.4985,-0.5967,-0.5132,-18.66,-15.30,-19.51
495,258018298,-0.4995,-0.5962,-0.5083,-17.26,-15.06,-19.33
496,258023296,-0.5000,-0.5938,-0.5151,-15.73,-14.70,-19.09
497,258028296,-0.5024,-0.5938,-0.5063,-14.09,-14.21,-18.78
498,258033298,-0.5029,-0.5889,-0.5044,-12.68,-14.02,-18.48
499,258038295,-0.4971,-0.5879,-0.5063,-11.28,-13.54,-18.29
500,258043298,-0.4961,-0.5854,-0.5068,-10.00,-13.23,-17.93
501,258048294,-0.5020,-0.5884,-0.5073,-8.66,-12.99,-17.74
502,258053296,-0.5000,-0.5864,-0.5039,-7.26,-12.68,-17.38
503,258058295,-0.4932,-0.5771,-0.5044,-6.16,-12.32,-17.01
504,258063300,-0.4912,-0.5781,-0.4956,-5.00,-11.89,-16.59
505,258068296,-0.5020,-0.5786,-0.5010,-4.09,-11.71,-16.16
506,258073295,-0.4966,-0.5752,-0.5020,-3.11,-11.59,-15.79
507,258078296,-0.4971,-0.5742,-0.4971,-2.38,-11.28,-15.37
508,258083294,-0.4902,-0.5679,-0.4961,-1.52,-10.98,-15.00
509,258088294,-0.4971,-0.5669,-0.4937,-0.73,-10.79,-14.51
510,258093295,-0.5005,-0.5659,-0.4956,0.06,-10.67,-14.09
511,258098294,-0.4863,-0.5586,-0.4893,0.98,-10.49,-13.54
512,258103295,-0.4912,-0.5620,-0.4927,1.65,-10.30,-13.17
513,258108295,-0.4995,-0.5581,-0.4912,2.44,-10.00,-12.80
514,258113320,-0.5020,-0.5562,-0.4893,2.99,-10.00,-12.38
515,258118296,-0.5015,-0.5547,-0.4863,3.72,-9.82,-11.95
516,258123300,-0.4956,-0.5493,-0.4805,4.27,-9.70,-11.59
517,258128296,-0.4937,-0.5488,-0.4844,4.82,-9.39,-11.22
518,258133296,-0.4980,-0.5479,-0.4829,5.30,-9.33,-10.85
519,258138296,-0.5029,-0.5454,-0.4829,5.73,-9.27,-10.49
520,258143300,-0.5063,-0.5479,-0.4829,6.10,-9.21,-10.00
521,258148296,-0.5049,-0.5464,-0.4775,6.22,-9.15,-9.76
522,258153296,-0.4985,-0.5410,-0.4780,6.59,-9.09,-9.39
523,258158296,-0.5063,-0.5405,-0.4683,6.83,-9.15,-9.09
524,258163295,-0.5044,-0.5371,-0.4756,7.07,-9.27,-8.78
525,258168296,-0.5024,-0.5356,-0.4766,7.32,-9.33,-8.54
526,258173296,-0.4995,-0.5356,-0.4741,7.44,-9.39,-8.17
527,258178296,-0.5015,-0.5308,-0.4761,7.50,-9.39,-7.99
528,258183296,-0.5083,-0.5278,-0.4702,7.50,-9.39,-7.68
529,258188296,-0.5020,-0.5244,-0.4771,7.44,-9.51,-7.38
530,258193296,-0.5034,-0.5229,-0.4658,7.26,-9.63,-7.13
531,258198296,-0.5107,-0.5269,-0.4678,7.01,-9.88,-6.89
532,258203294,-0.5117,-0.5259,-0.4717,6.71,-10.06,-6.59
533,258208294,-0.5059,-0.5288,-0.4692,6.22,-10.18,-6.40
534,258213294,-0.5088,-0.5264,-0.4639,5.67,-10.24,-6.16
535,258218294,-0.5132,-0.5254,-0.4639,5.06,-10.37,-5.98
536,258223396,-0.4990,-0.5176,-0.4595,4.33,-10.37,-5.67
537,258228296,-0.4961,-0.5156,-0.4644,3.60,-10.61,-5.43
538,258233296,-0.5088,-0.5249,-0.4629,2.62,-10.61,-5.24
539,258238296,-0.4980,-0.5161,-0.4600,1.59,-10.79,-5.12
540,258243295,-0.4951,-0.5161,-0.4497,0.49,-10.79,-4.76
541,258248294,-0.4976,-0.5205,-0.4580,-0.85,-10.91,-4.63
542,258253294,-0.4966,-0.5161,-0.4600,-2.13,-10.98,-4.27
543,258258294,-0.4961,-0.5186,-0.4609,-3.48,-11.10,-4.09
544,258263294,-0.4897,-0.5220,-0.4565,-4.82,-11.10,-3.84
545,258268294,-0.4863,-0.5254,-0.4497,-6.22,-11.22,-3.48
546,258273294,-0.4858,-0.5269,-0.4556,-7.44,-11.28,-3.05
547,258278294,-0.4888,-0.5249,-0.4536,-8.72,-11.40,-2.80
548,258283296,-0.4902,-0.5244,-0.4570,-9.88,-11.59,-2.32
549,258288294,-0.4917,-0.5283,-0.4590,-10.79,-11.65,-2.13
550,258293294,-0.4883,-0.5269,-0.4575,-11.65,-11.89,-1.77
551,258298294,-0.4893,-0.5273,-0.4600,-12.26,-11.95,-1.40
552,258303294,-0.4883,-0.5264,-0.4565,-12.74,-12.07,-1.04
553,258308294,-0.4863,-0.5283,-0.4614,-13.11,-12.07,-0.73
554,258313294,-0.4858,-0.5317,-0.4595,-13.35,-12.44,-0.43
555,258318294,-0.4829,-0.5327,-0.4609,-13.60,-12.80,-0.06
556,258323294,-0.4790,-0.5332,-0.4619,-13.54,-13.17,0.30
557,258328294,-0.4878,-0.5352,-0.4702,-13.60,-13.35,0.67
558,258333294,-0.4883,-0.5371,-0.4692,-13.54,-13.78,1.16
559,258338563,-0.4951,-0.5415,-0.4673,-13.17,-14.09,1.52
560,258343294,-0.4951,-0.5439,-0.4707,-12.99,-14.57,2.13
561,258348297,-0.4937,-0.5444,-0.4683,-12.74,-14.88,2.56
562,258353294,-0.4985,-0.5439,-0.4731,-12.38,-15.30,2.99
563,258358296,-0.5000,-0.5454,-0.4795,-11.89,-15.85,3.48
564,258363296,-0.5054,-0.5479,-0.4814,-11.59,-16.28,3.96
565,258368296,-0.5098,-0.5498,-0.4868,-11.34,-16.83,4.51
566,258373295,-0.5117,-0.5498,-0.5034,-11.04,-17.13,4.94
567,258378295,-0.5122,-0.5562,-0.4897,-10.73,-17.87,5.55
568,258383294,-0.5156,-0.5562,-0.4966,-10.49,-18.35,6.10
569,258388294,-0.5205,-0.5581,-0.5044,-10.55,-18.84,6.77
570,258393294,-0.5254,-0.5674,-0.5015,-10.55,-19.39,7.38
571,258398294,-0.5181,-0.5698,-0.5059,-10.55,-19.82,8.17
572,258403294,-0.5215,-0.5747,-0.5044,-10.61,-20.49,8.78
573,258408294,-0.5181,-0.5757,-0.5122,-10.61,-20.79,9.45
574,258413299,-0.5190,-0.5771,-0.5083,-10.61,-21.34,10.24
575,258418294,-0.5273,-0.5820,-0.5073,-10.55,-21.59,10.98
576,258423296,-0.5215,-0.5830,-0.5078,-10.37,-22.20,11.59
577,258428295,-0.5215,-0.5894,-0.5059,-10.00,-22.44,12.26
578,258433294,-0.5117,-0.5874,-0.5107,-9.57,-22.68,12.93
579,258438416,-0.5063,-0.5840,-0.5078,-8.78,-22.68,13.48
580,258443388,-0.5078,-0.5864,-0.5049,-7.93,-22.87,14.09
581,258448506,-0.5029,-0.5894,-0.5029,-6.95,-22.99,14.63
582,258453296,-0.5078,-0.5908,-0.5010,-5.49,-22.99,15.18
583,258458337,-0.5034,-0.5889,-0.5024,-4.15,-22.93,15.61
584,258463296,-0.4990,-0.5889,-0.4990,-2.74,-22.80,16.10
585,258468294,-0.4902,-0.5864,-0.4946,-0.67,-22.56,16.52
586,258473296,-0.4849,-0.5884,-0.4927,0.67,-22.50,16.89
587,258478296,-0.4819,-0.5869,-0.4897,2.32,-22.26,17.20
588,258483765,-0.4863,-0.5869,-0.4844,4.51,-21.95,17.50
589,258488296,-0.4834,-0.5894,-0.4839,5.79,-21.71,17.74
590,258493296,-0.4746,-0.5850,-0.4780,7.44,-21.59,17.93
591,258498296,-0.4653,-0.5854,-0.4824,8.96,-21.28,18.17
592,258503296,-0.4629,-0.5820,-0.4683,10.55,-20.98,18.60
593,258508296,-0.4624,-0.5830,-0.4648,11.52,-20.79,18.84
594,258513296,-0.4639,-0.5840,-0.4697,12.68,-20.55,18.90
595,258518296,-0.4629,-0.5825,-0.4653,13.48,-20.37,19.02
596,258523763,-0.4624,-0.5820,-0.4629,14.39,-20.30,19.21
597,258528296,-0.4663,-0.5835,-0.4497,14.70,-20.12,19.33
598,258533296,-0.4595,-0.5815,-0.4575,15.18,-19.94,19.51
599,258538296,-0.4609,-0.5811,-0.4487,15.43,-19.76,19.63
600,258543296,-0.4614,-0.5786,-0.4546,15.43,-19.57,19.63
601,258548783,-0.4683,-0.5815,-0.4438,15.43,-19.39,19.63
602,258553296,-0.4692,-0.5781,-0.4443,15.18,-19.45,19.70
603,258558296,-0.4683,-0.5776,-0.4419,14.76,-19.27,19.76
604,258563296,-0.4688,-0.5815,-0.4375,14.02,-19.27,19.76
605,258568300,-0.4692,-0.5815,-0.4312,13.17,-19.27,19.70
606,258573296,-0.4756,-0.5791,-0.4302,12.38,-19.21,19.76
607,258578516,-0.4761,-0.5742,-0.4292,11.16,-19.33,19.70
608,258583735,-0.4849,-0.5786,-0.4248,10.12,-19.33,19.63
609,258588296,-0.4878,-0.5757,-0.4238,9.02,-19.51,19.70
610,258593295,-0.4858,-0.5698,-0.4189,7.80,-19.70,19.45
611,258598296,-0.4897,-0.5659,-0.4126,6.52,-19.88,19.21
612,258603297,-0.4961,-0.5718,-0.4121,5.37,-20.00,19.09
613,258608295,-0.5000,-0.5708,-0.4141,4.02,-20.43,19.02
614,258613294,-0.5088,-0.5693,-0.4106,2.56,-20.61,18.72
615,258618294,-0.5161,-0.5659,-0.4131,1.16,-20.85,18.48
616,258623294,-0.5181,-0.5688,-0.4199,-0.37,-21.52,18.17
617,258628294,-0.5249,-0.5703,-0.4165,-1.95,-21.77,17.93
618,258633294,-0.5410,-0.5703,-0.4263,-3.54,-22.38,17.68
619,258638296,-0.5425,-0.5679,-0.4351,-5.37,-22.93,17.38
620,258643296,-0.5601,-0.5713,-0.4414,-7.07,-23.48,17.20
621,258648296,-0.5674,-0.5698,-0.4409,-8.96,-24.02,16.83
622,258653296,-0.5806,-0.5723,-0.4434,-11.10,-24.57,16.40
623,258658295,-0.5884,-0.5757,-0.4458,-13.23,-25.06,16.16
624,258663296,-0.6060,-0.5713,-0.4517,-15.55,-25.67,15.67
625,258668294,-0.6172,-0.5786,-0.4590,-18.23,-26.04,15.30
626,258673706,-0.6353,-0.5811,-0.4590,-20.73,-26.28,15.00
627,258678296,-0.6494,-0.5845,-0.4648,-23.54,-26.59,14.63
628,258683296,-0.6626,-0.5869,-0.4624,-26.52,-26.77,14.21
629,258688294,-0.6680,-0.5850,-0.4629,-29.45,-26.71,13.90
630,258693294,-0.6772,-0.5928,-0.4639,-32.44,-26.46,13.48
631,258698294,-0.6860,-0.5947,-0.4634,-35.61,-26.16,13.05
632,258703294,-0.6914,-0.5981,-0.4697,-38.54,-25.61,12.62
633,258708295,-0.7031,-0.6006,-0.4712,-41.46,-25.00,12.32
634,258713296,-0.7065,-0.5962,-0.4688,-44.21,-24.27,11.95
635,258718765,-0.7051,-0.6011,-0.4756,-46.65,-23.41,11.65
636,258723296,-0.7051,-0.6045,-0.4707,-49.02,-22.50,11.10
637,258728296,-0.7065,-0.6055,-0.4746,-50.79,-21.34,10.67
638,258733296,-0.7139,-0.6128,-0.4712,-52.38,-20.30,10.30
639,258738296,-0.7119,-0.6094,-0.4741,-53.17,-19.09,9.94
640,258743296,-0.7100,-0.6055,-0.4717,-53.90,-17.74,9.57
641,258748296,-0.7041,-0.6035,-0.4678,-54.02,-16.34,9.27
642,258753296,-0.6987,-0.5981,-0.4707,-53.60,-14.94,8.78
643,258758744,-0.6909,-0.5918,-0.4707,-52.50,-13.60,8.41
644,258763296,-0.6924,-0.5918,-0.4707,-50.98,-12.20,7.93
645,258768296,-0.6899,-0.5903,-0.4688,-48.84,-10.79,7.44
646,258773767,-0.6792,-0.5815,-0.4614,-46.04,-9.27,6.95
647,258778296,-0.6787,-0.5757,-0.4614,-42.80,-7.99,6.40
648,258783296,-0.6709,-0.5698,-0.4546,-38.90,-6.59,5.79
649,258788296,-0.6665,-0.5537,-0.4531,-34.63,-5.12,5.37
650,258793296,-0.6704,-0.5479,-0.4521,-29.88,-3.96,4.57
651,258798296,-0.6738,-0.5396,-0.4419,-25.06,-2.74,3.90
652,258803296,-0.6753,-0.5327,-0.4458,-18.90,-1.28,3.11
653,258808296,-0.6685,-0.5273,-0.4453,-14.76,-0.18,2.50
654,258813296,-0.6694,-0.5220,-0.4453,-9.70,0.79,1.83
655,258818296,-0.6743,-0.5181,-0.4507,-4.88,1.59,1.10
656,258823296,-0.6816,-0.5073,-0.4502,-0.30,2.32,0.61
657,258828300,-0.6851,-0.5044,-0.4473,4.51,3.05,-0.24
658,258833296,-0.6909,-0.4990,-0.4497,7.26,3.72,-0.67
659,258838295,-0.6929,-0.4961,-0.4463,10.00,4.15,-1.16
660,258843294,-0.7061,-0.4956,-0.4463,12.13,4.76,-1.52
661,258848294,-0.7090,-0.4893,-0.4502,13.29,5.06,-1.95
662,258853294,-0.7246,-0.4897,-0.4487,13.84,5.67,-2.32
663,258858294,-0.7266,-0.4834,-0.4419,13.84,6.22,-2.56
664,258863295,-0.7334,-0.4775,-0.4414,13.23,6.65,-2.80
665,258868296,-0.7510,-0.4790,-0.4478,12.20,7.13,-2.93
666,258873295,-0.7593,-0.4746,-0.4438,10.67,7.80,-3.05
667,258878296,-0.7617,-0.4658,-0.4448,8.60,8.29,-3.23
668,258883296,-0.7725,-0.4683,-0.4473,6.34,8.84,-3.29
669,258888295,-0.7773,-0.4692,-0.4375,3.72,9.76,-3.29
670,258893298,-0.7886,-0.4590,-0.4443,0.91,10.49,-3.23
671,258898296,-0.7954,-0.4556,-0.4419,-1.89,11.22,-3.29
672,258903296,-0.8071,-0.4556,-0.4482,-4.82,12.01,-3.17
673,258908638,-0.8027,-0.4478,-0.4395,-8.54,12.74,-2.99
674,258913296,-0.8086,-0.4404,-0.4302,-11.04,13.41,-3.05
675,258918295,-0.8179,-0.4443,-0.4375,-13.84,14.33,-2.74
676,258923358,-0.8120,-0.4404,-0.4434,-16.71,15.12,-2.56
677,258928409,-0.8115,-0.4375,-0.4355,-19.45,15.79,-2.26
678,258933397,-0.8135,-0.4395,-0.4370,-22.07,16.52,-2.01
679,258938357,-0.8096,-0.4385,-0.4370,-24.70,17.26,-1.59
680,258943444,-0.8057,-0.4365,-0.4321,-26.95,17.74,-1.10
681,258948296,-0.7954,-0.4346,-0.4346,-29.33,18.29,-0.61
682,258953476,-0.7969,-0.4390,-0.4385,-31.40,18.66,-0.06
683,258958375,-0.7891,-0.4463,-0.4375,-33.35,19.09,0.61
684,258963295,-0.7876,-0.4458,-0.4424,-34.94,19.39,1.40
685,258968296,-0.7754,-0.4399,-0.4434,-36.28,19.39,2.32
686,258973296,-0.7729,-0.4424,-0.4473,-37.32,19.45,3.17
687,258978297,-0.7739,-0.4482,-0.4434,-37.93,19.27,4.09
688,258983294,-0.7666,-0.4487,-0.4409,-38.41,19.21,5.06
689,258988294,-0.7568,-0.4458,-0.4517,-38.17,18.96,6.10
690,258993294,-0.7471,-0.4409,-0.4458,-37.80,18.60,7.07
691,258998294,-0.7490,-0.4424,-0.4507,-36.89,18.17,8.23
692,259003295,-0.7466,-0.4468,-0.4453,-35.73,17.80,9.33
693,259008296,-0.7446,-0.4419,-0.4570,-34.27,17.44,10.30
694,259013295,-0.7456,-0.4419,-0.4580,-32.01,16.77,11.65
695,259018365,-0.7358,-0.4399,-0.4668,-29.51,16.40,12.80
696,259023296,-0.7476,-0.4395,-0.4629,-27.44,15.98,13.66
697,259028296,-0.7358,-0.4375,-0.4614,-24.70,15.55,14.76
698,259033296,-0.7285,-0.4336,-0.4600,-20.79,14.76,16.10
699,259038296,-0.7163,-0.4326,-0.4604,-18.11,14.51,16.95
700,259043296,-0.7090,-0.4277,-0.4634,-14.51,13.90,17.87
701,259048296,-0.7026,-0.4238,-0.4604,-10.91,13.54,18.90
702,259053296,-0.7046,-0.4253,-0.4600,-6.59,12.99,20.12
703,259058296,-0.6909,-0.4219,-0.4541,-2.93,12.74,20.98
704,259063296,-0.6826,-0.4175,-0.4590,0.67,12.32,21.89
705,259068296,-0.6855,-0.4180,-0.4604,4.33,12.07,22.80
706,259073295,-0.6895,-0.4155,-0.4624,7.62,11.77,23.66
707,259078294,-0.6880,-0.4097,-0.4639,10.79,11.59,24.51
708,259083296,-0.6855,-0.4087,-0.4565,13.72,11.28,25.24
709,259088296,-0.6855,-0.4072,-0.4561,16.40,11.28,25.98
710,259093294,-0.6836,-0.3999,-0.4521,18.84,11.28,26.52
711,259098294,-0.6738,-0.3916,-0.4473,20.91,11.34,27.13
712,259103294,-0.6763,-0.3901,-0.4395,22.74,11.40,27.62
713,259108980,-0.6689,-0.3867,-0.4365,24.02,11.71,28.17
714,259113326,-0.6675,-0.3887,-0.4360,24.94,12.07,28.60
715,259118294,-0.6533,-0.3853,-0.4297,25.24,12.20,28.96
716,259123294,-0.6577,-0.3887,-0.4375,25.06,12.56,29.27
717,259128294,-0.6567,-0.3936,-0.4370,24.51,13.11,29.82
718,259133294,-0.6655,-0.3945,-0.4355,23.29,13.29,30.37
719,259138294,-0.6616,-0.3965,-0.4346,21.71,13.60,30.79
720,259143294,-0.6641,-0.4023,-0.4395,19.82,13.96,31.22
721,259148298,-0.6660,-0.3994,-0.4453,17.68,14.09,31.71
722,259153296,-0.6646,-0.4062,-0.4434,15.24,14.33,32.26
723,259158296,-0.6543,-0.4111,-0.4512,12.44,14.57,32.87
724,259163296,-0.6650,-0.4141,-0.4487,9.51,14.82,33.60
725,259168296,-0.6641,-0.4268,-0.4585,6.59,15.06,34.27
726,259173296,-0.6665,-0.4341,-0.4595,3.48,15.18,35.06
727,259178296,-0.6694,-0.4360,-0.4590,0.67,15.43,35.91
728,259183407,-0.6655,-0.4443,-0.4707,-1.77,15.49,36.77
729,259188296,-0.6768,-0.4478,-0.4810,-3.84,15.79,37.68
730,259193296,-0.6699,-0.4473,-0.4814,-5.37,16.04,38.54
731,259198299,-0.6587,-0.4536,-0.4883,-6.40,16.52,39.33
732,259203296,-0.6685,-0.4639,-0.4985,-6.95,16.83,40.37
733,259208296,-0.6606,-0.4775,-0.5156,-7.01,17.26,41.22
734,259213296,-0.6650,-0.4907,-0.5254,-6.77,17.62,42.32
735,259218296,-0.6631,-0.5083,-0.5425,-5.73,17.87,43.66
736,259223296,-0.6479,-0.5181,-0.5522,-4.21,18.17,44.88
737,259228296,-0.6343,-0.5317,-0.5742,-1.77,18.60,46.40
738,259233296,-0.6133,-0.5469,-0.5933,1.34,18.78,47.99
739,259238296,-0.6074,-0.5532,-0.6138,5.30,19.27,49.70
740,259243296,-0.6011,-0.5503,-0.6367,10.12,19.63,51.28
741,259248296,-0.5972,-0.5508,-0.6694,16.04,20.12,52.74
742,259253296,-0.6094,-0.5273,-0.7002,23.41,20.30,53.78
743,259258296,-0.6157,-0.5166,-0.7266,31.83,20.85,54.63
744,259263296,-0.6167,-0.4995,-0.7583,41.59,21.28,55.06
745,259268296,-0.6362,-0.4844,-0.8081,52.07,21.83,55.06
746,259273296,-0.6533,-0.4683,-0.8462,63.54,22.38,54.82
747,259278295,-0.6802,-0.4438,-0.8730,75.61,22.99,54.02
748,259283295,-0.6963,-0.4326,-0.8921,88.11,23.84,52.99
749,259288294,-0.7104,-0.4121,-0.9126,100.85,25.12,51.52
750,259293294,-0.7075,-0.3960,-0.9028,113.66,26.77,49.70
751,259298294,-0.7183,-0.3823,-0.9019,125.49,29.09,47.62
752,259303294,-0.7329,-0.3735,-0.8940,137.50,31.65,45.37
753,259308294,-0.7368,-0.3662,-0.8926,147.93,34.82,42.99
754,259313294,-0.7485,-0.3633,-0.8950,156.95,38.05,40.43
755,259318296,-0.7563,-0.3604,-0.8945,164.33,41.59,37.87
756,259323481,-0.7671,-0.3511,-0.8857,169.45,45.24,35.18
757,259328294,-0.7778,-0.3511,-0.8804,172.74,48.72,32.62
758,259333294,-0.7808,-0.3486,-0.8579,173.72,52.38,29.82
759,259338294,-0.7671,-0.3418,-0.8438,172.62,55.73,27.07
760,259343294,-0.7563,-0.3364,-0.8374,169.15,59.27,24.21
761,259348294,-0.7534,-0.3496,-0.8174,163.48,62.62,21.52
762,259353294,-0.7329,-0.3584,-0.7974,155.24,65.79,18.90
763,259358294,-0.7129,-0.3760,-0.7866,144.76,68.54,16.77
764,259363294,-0.6665,-0.3789,-0.7539,132.01,70.98,14.63
765,259368294,-0.6382,-0.3955,-0.7451,117.93,73.11,12.68
766,259373294,-0.5952,-0.4165,-0.7275,101.83,74.94,11.40
767,259378294,-0.5591,-0.4351,-0.7168,84.39,76.28,10.43
768,259383663,-0.5342,-0.4517,-0.6997,65.73,76.89,9.76
769,259388298,-0.5044,-0.4629,-0.6865,46.83,77.26,9.57
770,259393295,-0.4854,-0.4819,-0.6753,27.68,77.20,9.70
771,259398294,-0.4624,-0.4824,-0.6689,8.66,76.65,10.00
772,259404091,-0.4458,-0.4985,-0.6460,-13.23,75.67,10.91
773,259408296,-0.4316,-0.4961,-0.6436,-27.01,74.70,11.77
774,259413296,-0.4238,-0.4951,-0.6240,-43.11,73.41,12.87
775,259418297,-0.4121,-0.4810,-0.6128,-57.38,71.77,13.84
776,259423369,-0.4141,-0.4761,-0.5996,-69.82,70.06,15.06
777,259428748,-0.4111,-0.4604,-0.5874,-82.13,67.99,16.40
778,259433296,-0.4248,-0.4551,-0.5791,-88.78,66.34,17.32
779,259438612,-0.4312,-0.4448,-0.5659,-96.22,64.09,18.48
780,259443297,-0.4355,-0.4390,-0.5576,-99.63,62.74,19.39
781,259448439,-0.4453,-0.4287,-0.5479,-102.13,61.10,20.37
782,259453551,-0.4697,-0.4214,-0.5420,-103.05,59.21,21.52
783,259458348,-0.4780,-0.4219,-0.5308,-102.26,58.11,22.13
784,259463296,-0.4868,-0.4180,-0.5352,-100.00,56.65,23.05
785,259468296,-0.5000,-0.4185,-0.5298,-96.40,55.55,23.90
786,259473296,-0.5059,-0.4111,-0.5254,-91.71,54.21,24.57
787,259478297,-0.5049,-0.4062,-0.5273,-85.85,53.29,25.18
788,259483295,-0.5171,-0.4092,-0.5234,-79.09,52.26,25.79
789,259488296,-0.5146,-0.4058,-0.5156,-71.71,51.22,26.16
790,259493296,-0.5186,-0.4038,-0.5244,-62.13,50.12,26.65
791,259498297,-0.5103,-0.4067,-0.5171,-55.61,49.33,26.89
792,259503296,-0.5117,-0.4019,-0.5229,-47.20,48.48,27.13
793,259508783,-0.5049,-0.3984,-0.5151,-37.07,47.44,27.26
794,259513296,-0.5049,-0.3979,-0.5190,-30.55,46.71,27.44
795,259518296,-0.4990,-0.4009,-0.5151,-22.62,45.85,27.32
796,259523296,-0.4946,-0.3945,-0.5176,-15.06,45.12,27.26
797,259528464,-0.4854,-0.3911,-0.5161,-6.52,44.02,27.01
798,259533294,-0.4844,-0.3921,-0.5166,-1.22,43.17,26.71
799,259538294,-0.4814,-0.3887,-0.5181,4.76,42.26,26.40
800,259543294,-0.4697,-0.3916,-0.5273,9.94,41.22,25.98
801,259548454,-0.4580,-0.3896,-0.5322,15.37,39.94,25.43
802,259553296,-0.4507,-0.3975,-0.5254,18.11,39.09,25.12
803,259558788,-0.4478,-0.3926,-0.5322,21.34,37.62,24.57
804,259563296,-0.4438,-0.3921,-0.5298,22.87,36.77,24.09
805,259568296,-0.4385,-0.3877,-0.5259,24.02,35.67,23.60
806,259573296,-0.4409,-0.3848,-0.5269,24.63,34.45,22.87
807,259578296,-0.4492,-0.3848,-0.5259,24.39,33.48,22.38
808,259583296,-0.4438,-0.3784,-0.5259,23.66,32.68,21.52
809,259588296,-0.4502,-0.3799,-0.5264,22.44,31.71,20.67
810,259593784,-0.4482,-0.3784,-0.5332,20.73,30.91,20.00
811,259598296,-0.4487,-0.3823,-0.5381,18.54,30.24,19.21
812,259603296,-0.4531,-0.3838,-0.5439,15.73,29.33,18.41
813,259608296,-0.4609,-0.3862,-0.5449,12.68,28.54,17.62
814,259613296,-0.4614,-0.3911,-0.5522,9.21,27.74,16.83
815,259618296,-0.4580,-0.3926,-0.5513,5.37,26.95,16.04
816,259623296,-0.4546,-0.3945,-0.5518,1.28,26.34,15.30
817,259628296,-0.4585,-0.4014,-0.5649,-3.11,25.49,14.63
818,259633296,-0.4658,-0.4062,-0.5713,-7.26,24.94,13.90
819,259638296,-0.4663,-0.4092,-0.5688,-11.65,24.27,13.29
820,259643296,-0.4644,-0.4087,-0.5786,-15.85,23.54,12.68
821,259648296,-0.4653,-0.4106,-0.5879,-20.18,22.99,12.01
822,259653296,-0.4644,-0.4126,-0.5815,-24.09,22.38,11.46
823,259658295,-0.4600,-0.4194,-0.5889,-27.68,21.83,11.04
824,259663295,-0.4502,-0.4180,-0.5928,-31.10,21.22,10.49
825,259668296,-0.4438,-0.4199,-0.5967,-33.90,20.73,10.06
826,259673296,-0.4414,-0.4238,-0.6001,-36.28,20.06,9.51
827,259678296,-0.4399,-0.4243,-0.6025,-38.29,19.57,9.15
828,259683296,-0.4336,-0.4268,-0.6074,-39.70,18.84,8.66
829,259688294,-0.4395,-0.4268,-0.6099,-40.43,18.35,8.35
830,259693294,-0.4365,-0.4233,-0.6133,-40.85,17.80,7.87
831,259698296,-0.4321,-0.4219,-0.6182,-40.55,17.32,7.50
832,259703296,-0.4370,-0.4219,-0.6201,-39.76,16.77,7.07
833,259708295,-0.4453,-0.4204,-0.6211,-38.54,16.40,6.52
834,259713297,-0.4453,-0.4160,-0.6255,-36.71,16.04,6.16
835,259718296,-0.4492,-0.4185,-0.6299,-34.39,15.61,5.61
836,259723296,-0.4453,-0.4160,-0.6348,-31.65,15.24,5.06
837,259728297,-0.4468,-0.4175,-0.6377,-28.78,14.70,4.70
838,259733500,-0.4507,-0.4214,-0.6431,-25.85,14.27,4.15
839,259738294,-0.4507,-0.4238,-0.6494,-22.56,13.66,3.78
840,259743294,-0.4497,-0.4214,-0.6567,-19.33,13.05,3.41
841,259748294,-0.4424,-0.4199,-0.6543,-16.04,12.20,2.93
842,259753457,-0.4307,-0.4131,-0.6602,-12.80,11.52,2.62
843,259758347,-0.4326,-0.4146,-0.6558,-9.51,10.67,2.26
844,259763295,-0.4287,-0.4150,-0.6509,-6.46,9.82,1.89
845,259768296,-0.4229,-0.4116,-0.6577,-3.66,9.15,1.59
846,259773728,-0.4292,-0.4082,-0.6606,-1.04,8.23,1.34
847,259778296,-0.4292,-0.4087,-0.6641,1.52,7.32,1.10
848,259783296,-0.4297,-0.4092,-0.6548,3.48,6.46,0.79
849,259788296,-0.4146,-0.4043,-0.6567,5.18,5.73,0.55
850,259793296,-0.4146,-0.3994,-0.6626,6.59,5.00,0.24
851,259798296,-0.4048,-0.3989,-0.6616,7.68,4.27,0.06
852,259803296,-0.4058,-0.4048,-0.6553,8.48,3.48,-0.06
853,259808296,-0.4097,-0.4043,-0.6616,9.02,2.74,-0.24
854,259813296,-0.4077,-0.4014,-0.6650,9.02,2.07,-0.43
855,259818296,-0.4092,-0.4058,-0.6611,9.02,1.52,-0.55
856,259823296,-0.4131,-0.4058,-0.6655,8.72,0.79,-0.67
857,259828296,-0.4048,-0.4033,-0.6616,8.23,0.49,-0.79
858,259833297,-0.4082,-0.4019,-0.6714,7.50,-0.30,-0.79
859,259838296,-0.4062,-0.3994,-0.6704,6.65,-0.73,-1.04
860,259843296,-0.4033,-0.3994,-0.6714,5.79,-1.34,-1.34
861,259848296,-0.3940,-0.3984,-0.6724,4.57,-1.89,-1.46
862,259853296,-0.3994,-0.3960,-0.6636,3.66,-2.38,-1.52
863,259858296,-0.3877,-0.3936,-0.6748,2.62,-2.80,-1.77
864,259863296,-0.3877,-0.3936,-0.6724,1.34,-3.48,-2.01
865,259868296,-0.3760,-0.3931,-0.6714,0.43,-3.78,-2.20
866,259873296,-0.3843,-0.3936,-0.6763,-0.67,-4.15,-2.44
867,259878296,-0.3867,-0.3936,-0.6763,-1.65,-4.51,-2.68
868,259883766,-0.3896,-0.3926,-0.6812,-2.80,-5.06,-2.99
869,259888296,-0.3853,-0.3950,-0.6841,-3.72,-5.37,-3.05
870,259893608,-0.3872,-0.3945,-0.6851,-4.45,-5.85,-3.29
871,259898297,-0.3848,-0.3975,-0.6831,-5.18,-6.10,-3.72
872,259903440,-0.3843,-0.3979,-0.6851,-5.98,-6.52,-3.84
873,259908296,-0.3833,-0.3892,-0.6846,-6.46,-6.59,-4.21
874,259913296,-0.3843,-0.3882,-0.6899,-6.83,-6.95,-4.51
875,259918296,-0.3896,-0.3887,-0.6929,-7.13,-6.95,-4.94
876,259923296,-0.3931,-0.3867,-0.6929,-7.26,-7.07,-5.24
877,259928296,-0.3984,-0.3848,-0.6938,-7.38,-7.07,-5.67
878,259933296,-0.3955,-0.3843,-0.6953,-7.44,-7.32,-5.98
879,259938296,-0.3916,-0.3818,-0.6968,-7.44,-7.07,-6.40
880,259943296,-0.3979,-0.3828,-0.7051,-7.44,-7.07,-6.83
881,259948296,-0.4082,-0.3823,-0.7026,-7.20,-6.95,-7.20
882,259953294,-0.4102,-0.3823,-0.7056,-6.83,-6.89,-7.68
883,259958294,-0.4028,-0.3784,-0.7031,-6.46,-6.77,-8.05
884,259963294,-0.4048,-0.3779,-0.7051,-6.04,-6.46,-8.48
885,259968294,-0.4067,-0.3760,-0.7075,-5.49,-6.65,-8.96
886,259973294,-0.4033,-0.3730,-0.7036,-4.82,-6.65,-9.39
887,259978298,-0.4014,-0.3657,-0.7051,-4.02,-6.59,-9.76
888,259983294,-0.4106,-0.3672,-0.7075,-3.23,-6.40,-10.24
889,259988294,-0.4019,-0.3647,-0.7075,-2.26,-6.52,-10.61
890,259993295,-0.4058,-0.3604,-0.7100,-1.46,-6.28,-10.98
891,259998294,-0.4043,-0.3574,-0.7085,-0.49,-6.22,-11.40
892,260003294,-0.4033,-0.3599,-0.7104,0.49,-6.16,-11.77
893,260008298,-0.4048,-0.3599,-0.7114,1.28,-6.04,-12.20
894,260013295,-0.4077,-0.3569,-0.7153,2.07,-6.16,-12.68
895,260018296,-0.4087,-0.3521,-0.7104,2.93,-6.28,-12.99
896,260023616,-0.4141,-0.3521,-0.7153,3.66,-6.34,-13.48
897,260028296,-0.4102,-0.3496,-0.7090,4.15,-6.40,-13.84
898,260033296,-0.4136,-0.3433,-0.7109,4.39,-6.22,-14.09
899,260038297,-0.4131,-0.3452,-0.7148,4.70,-6.46,-14.39
900,260043296,-0.4131,-0.3477,-0.7095,4.76,-6.52,-14.82
901,260048296,-0.4180,-0.3447,-0.7144,4.82,-6.59,-15.12
902,260053296,-0.4160,-0.3423,-0.7168,4.70,-6.83,-15.49
903,260058296,-0.4121,-0.3394,-0.7188,4.39,-6.83,-15.85
904,260063296,-0.4180,-0.3364,-0.7197,4.15,-7.07,-16.16
905,260068296,-0.4185,-0.3345,-0.7236,3.78,-7.07,-16.59
906,260073296,-0.4155,-0.3330,-0.7212,3.35,-7.13,-16.83
907,260078296,-0.4170,-0.3306,-0.7173,2.80,-7.26,-17.13
908,260083296,-0.4258,-0.3311,-0.7231,2.32,-7.38,-17.38
909,260088294,-0.4287,-0.3315,-0.7168,1.59,-7.26,-17.62
910,260093296,-0.4258,-0.3247,-0.7173,1.10,-7.56,-17.93
911,260098296,-0.4263,-0.3242,-0.7178,0.24,-7.50,-18.29
912,260103296,-0.4238,-0.3228,-0.7212,-0.67,-7.38,-18.54
913,260108297,-0.4243,-0.3159,-0.7207,-1.34,-7.38,-18.84
914,260113367,-0.4224,-0.3223,-0.7222,-2.32,-7.38,-19.21
915,260118296,-0.4189,-0.3159,-0.7178,-3.23,-7.32,-19.51
916,260123423,-0.4165,-0.3154,-0.7168,-4.15,-7.26,-19.82
917,260128766,-0.4185,-0.3115,-0.7183,-5.24,-7.44,-20.12
918,260133296,-0.4224,-0.3145,-0.7163,-6.28,-7.50,-20.55
919,260138297,-0.4209,-0.3101,-0.7178,-7.20,-7.44,-20.79
920,260143296,-0.4180,-0.3125,-0.7197,-8.23,-7.62,-21.04
921,260148296,-0.4185,-0.3091,-0.7134,-9.02,-7.74,-21.22
922,260153296,-0.4155,-0.3081,-0.7178,-9.82,-7.62,-21.40
923,260158296,-0.4204,-0.3057,-0.7173,-10.67,-7.74,-21.52
924,260163296,-0.4185,-0.3022,-0.7217,-11.40,-7.87,-21.77
925,260168296,-0.4204,-0.3047,-0.7173,-12.07,-7.74,-21.77
926,260173296,-0.4248,-0.3022,-0.7197,-12.62,-7.74,-21.89
927,260178296,-0.4253,-0.3022,-0.7202,-13.54,-7.93,-21.95
928,260183296,-0.4297,-0.3013,-0.7134,-14.21,-7.87,-22.01
929,260188297,-0.4253,-0.3037,-0.7168,-14.94,-7.99,-22.07
930,260193296,-0.4351,-0.3008,-0.7124,-15.73,-7.93,-22.07
931,260198299,-0.4316,-0.2974,-0.7202,-16.40,-7.93,-21.89
932,260203296,-0.4277,-0.3032,-0.7183,-17.26,-7.93,-21.83
933,260208295,-0.4326,-0.2979,-0.7158,-17.99,-7.87,-21.83
934,260213296,-0.4292,-0.2944,-0.7148,-18.78,-8.11,-21.83
935,260218298,-0.4360,-0.2944,-0.7178,-19.21,-8.11,-21.65
936,260223296,-0.4346,-0.2964,-0.7100,-19.70,-8.11,-21.65
937,260228296,-0.4331,-0.2944,-0.7173,-20.06,-8.17,-21.46
938,260233296,-0.4380,-0.2998,-0.7119,-20.49,-8.17,-21.22
939,260238296,-0.4307,-0.2939,-0.7192,-20.55,-8.29,-20.98
940,260243295,-0.4341,-0.2939,-0.7212,-20.61,-8.41,-20.79
941,260248295,-0.4263,-0.2886,-0.7129,-20.37,-8.41,-20.43
942,260253294,-0.4341,-0.2964,-0.7148,-20.12,-8.72,-20.12
943,260258294,-0.4336,-0.2910,-0.7168,-19.76,-8.78,-19.82
944,260263294,-0.4365,-0.2896,-0.7188,-19.45,-8.96,-19.45
945,260268294,-0.4380,-0.2886,-0.7129,-18.72,-9.09,-19.21
946,260273296,-0.4312,-0.2847,-0.7178,-18.17,-9.33,-18.78
947,260278294,-0.4248,-0.2837,-0.7153,-17.26,-9.51,-18.48
948,260283294,-0.4209,-0.2822,-0.7192,-16.40,-9.76,-18.17
949,260288294,-0.4238,-0.2808,-0.7153,-15.49,-10.06,-17.68
950,260293294,-0.4194,-0.2837,-0.7129,-14.57,-10.37,-17.26
951,260298294,-0.4224,-0.2856,-0.7197,-13.48,-10.61,-16.77
952,260303294,-0.4136,-0.2793,-0.7173,-12.44,-10.91,-16.40
953,260308296,-0.4150,-0.2788,-0.7148,-11.40,-11.16,-15.91
954,260313297,-0.4102,-0.2764,-0.7178,-10.43,-11.59,-15.55
955,260318296,-0.4077,-0.2773,-0.7231,-9.39,-12.01,-15.12
956,260323295,-0.4170,-0.2764,-0.7144,-8.35,-12.32,-14.63
957,260328296,-0.4155,-0.2744,-0.7202,-7.26,-12.62,-14.21
958,260333296,-0.4214,-0.2764,-0.7197,-6.34,-12.68,-13.78
959,260338296,-0.4248,-0.2739,-0.7241,-5.43,-12.80,-13.23
960,260343294,-0.4277,-0.2773,-0.7173,-4.63,-12.93,-12.87
961,260348294,-0.4307,-0.2749,-0.7212,-3.84,-12.99,-12.32
962,260353294,-0.4346,-0.2749,-0.7207,-3.11,-13.17,-11.77
963,260358294,-0.4321,-0.2764,-0.7222,-2.56,-13.23,-11.40
964,260363294,-0.4331,-0.2773,-0.7197,-1.83,-13.17,-10.91
965,260368294,-0.4263,-0.2705,-0.7158,-1.28,-13.17,-10.43
966,260373294,-0.4351,-0.2773,-0.7192,-0.79,-13.17,-9.94
967,260378295,-0.4302,-0.2783,-0.7246,-0.55,-13.23,-9.45
968,260383294,-0.4326,-0.2788,-0.7217,-0.18,-13.11,-8.90
969,260388294,-0.4321,-0.2754,-0.7197,0.06,-13.17,-8.41
970,260393294,-0.4346,-0.2769,-0.7246,0.06,-13.23,-7.93
971,260398294,-0.4287,-0.2773,-0.7236,0.12,-13.11,-7.38
972,260403294,-0.4272,-0.2759,-0.7202,0.12,-13.17,-6.89
973,260408294,-0.4238,-0.2812,-0.7280,-0.06,-13.11,-6.40
974,260413300,-0.4321,-0.2798,-0.7197,-0.06,-13.11,-6.04
975,260418296,-0.4292,-0.2783,-0.7212,-0.30,-12.93,-5.49
976,260423294,-0.4365,-0.2822,-0.7266,-0.55,-12.93,-5.00
977,260428294,-0.4331,-0.2773,-0.7261,-0.67,-12.62,-4.57
978,260433294,-0.4463,-0.2778,-0.7334,-0.73,-12.56,-4.15
979,260438298,-0.4424,-0.2734,-0.7295,-0.73,-12.44,-3.78
980,260443296,-0.4429,-0.2764,-0.7236,-0.55,-12.38,-3.35
981,260448298,-0.4434,-0.2778,-0.7256,-0.37,-12.20,-2.80
982,260453295,-0.4453,-0.2744,-0.7266,-0.18,-11.95,-2.62
983,260458397,-0.4482,-0.2783,-0.7207,0.18,-11.77,-2.26
984,260463294,-0.4380,-0.2788,-0.7212,0.55,-11.52,-1.83
985,260468296,-0.4380,-0.2739,-0.7236,0.85,-11.28,-1.52
986,260473296,-0.4297,-0.2778,-0.7280,1.16,-11.22,-1.10
987,260478296,-0.4331,-0.2798,-0.7271,1.46,-11.16,-0.85
988,260483297,-0.4326,-0.2812,-0.7236,1.77,-11.04,-0.67
989,260488365,-0.4277,-0.2798,-0.7266,2.07,-11.10,-0.30
990,260493295,-0.4224,-0.2773,-0.7310,2.20,-11.04,0.00
991,260498737,-0.4238,-0.2798,-0.7285,2.50,-10.85,0.30
992,260503296,-0.4214,-0.2754,-0.7300,2.56,-10.85,0.43
993,260508525,-0.4233,-0.2822,-0.7280,2.80,-10.73,0.67
994,260513296,-0.4224,-0.2842,-0.7261,2.87,-10.67,0.91
995,260518409,-0.4292,-0.2822,-0.7231,2.87,-10.55,1.10
996,260523296,-0.4258,-0.2827,-0.7368,2.87,-10.49,1.22
997,260528296,-0.4253,-0.2856,-0.7261,2.93,-10.37,1.22
998,260533296,-0.4307,-0.2817,-0.7188,2.68,-10.30,1.59
999,260538296,-0.4312,-0.2876,-0.7261,2.44,-10.24,1.71
1000,260543681,-0.4360,-0.2856,-0.7354,2.13,-9.88,1.89
1001,260548297,-0.4390,-0.2896,-0.7295,1.95,-9.76,2.01
1002,260553296,-0.4395,-0.2881,-0.7314,1.46,-9.51,2.32
1003,260558296,-0.4438,-0.2876,-0.7285,1.04,-9.33,2.50
1004,260563296,-0.4473,-0.2900,-0.7256,0.79,-8.96,2.56
1005,260568296,-0.4448,-0.2891,-0.7256,0.24,-8.72,2.87
1006,260573751,-0.4487,-0.2974,-0.7295,-0.18,-8.41,3.23
1007,260578296,-0.4482,-0.2964,-0.7231,-0.30,-8.23,3.29
1008,260583295,-0.4517,-0.2954,-0.7271,-0.73,-7.93,3.60
1009,260588295,-0.4492,-0.2983,-0.7231,-0.85,-7.62,3.84
1010,260593296,-0.4512,-0.3027,-0.7285,-0.91,-7.44,4.21
1011,260598294,-0.4497,-0.2983,-0.7227,-0.91,-7.32,4.39
1012,260603295,-0.4556,-0.2988,-0.7305,-0.91,-7.13,4.57
1013,260608294,-0.4531,-0.2993,-0.7256,-0.85,-7.07,4.88
1014,260613298,-0.4580,-0.3003,-0.7256,-0.49,-6.95,4.94
1015,260618296,-0.4604,-0.3008,-0.7344,-0.43,-6.83,5.18
1016,260623295,-0.4561,-0.3062,-0.7329,-0.06,-6.83,5.43
1017,260628445,-0.4604,-0.3042,-0.7295,0.30,-6.52,5.67
1018,260633294,-0.4639,-0.3071,-0.7285,0.79,-6.28,5.73
1019,260638296,-0.4624,-0.3115,-0.7373,1.16,-6.46,5.98
1020,260643296,-0.4634,-0.3081,-0.7305,1.59,-6.28,6.16
1021,260648296,-0.4624,-0.3081,-0.7314,2.20,-6.16,6.28
1022,260653295,-0.4585,-0.3076,-0.7300,2.80,-6.04,6.40
1023,260658295,-0.4590,-0.3091,-0.7295,3.41,-5.91,6.46
1024,260663294,-0.4561,-0.3057,-0.7271,3.96,-5.79,6.59
1025,260668294,-0.4600,-0.3110,-0.7241,4.45,-5.61,6.65
1026,260673294,-0.4551,-0.3096,-0.7236,5.12,-5.37,6.77
1027,260678294,-0.4575,-0.3115,-0.7231,5.61,-5.37,6.77
1028,260683476,-0.4600,-0.3130,-0.7227,6.10,-5.24,6.89
1029,260688300,-0.4531,-0.3120,-0.7285,6.40,-5.18,6.89
1030,260693371,-0.4551,-0.3120,-0.7241,6.65,-5.18,6.89
1031,260698295,-0.4556,-0.3135,-0.7227,6.89,-5.12,7.07
1032,260703296,-0.4482,-0.3145,-0.7222,7.01,-5.12,7.07
1033,260708294,-0.4561,-0.3154,-0.7241,7.13,-5.06,7.07
1034,260713296,-0.4580,-0.3169,-0.7178,7.13,-4.94,7.20
1035,260718296,-0.4624,-0.3218,-0.7231,7.07,-4.82,7.20
1036,260723296,-0.4624,-0.3184,-0.7202,6.89,-4.63,7.20
1037,260728756,-0.4683,-0.3193,-0.7168,6.83,-4.57,7.26
1038,260733296,-0.4683,-0.3198,-0.7178,6.52,-4.45,7.26
1039,260738296,-0.4600,-0.3184,-0.7192,6.28,-4.33,7.26
1040,260743296,-0.4668,-0.3184,-0.7212,6.04,-4.09,7.26
1041,260748779,-0.4683,-0.3149,-0.7192,5.85,-4.02,7.20
1042,260753296,-0.4756,-0.3188,-0.7095,5.79,-3.84,7.20
1043,260758296,-0.4658,-0.3193,-0.7148,5.73,-3.78,7.13
1044,260763296,-0.4663,-0.3140,-0.7139,5.55,-3.60,6.95
1045,260768296,-0.4712,-0.3169,-0.7148,5.55,-3.48,6.89
1046,260773296,-0.4648,-0.3203,-0.7114,5.49,-3.41,6.77
1047,260778296,-0.4619,-0.3193,-0.7148,5.43,-3.41,6.65
1048,260783296,-0.4619,-0.3174,-0.7124,5.30,-3.29,6.59
1049,260788297,-0.4668,-0.3193,-0.7100,5.37,-3.29,6.59
1050,260793297,-0.4639,-0.3232,-0.7070,5.18,-3.23,6.40
1051,260798299,-0.4604,-0.3198,-0.7065,4.94,-3.17,6.22
1052,260803296,-0.4609,-0.3257,-0.7119,4.82,-3.29,5.98
1053,260808296,-0.4648,-0.3237,-0.7031,4.51,-3.11,5.98
1054,260813297,-0.4644,-0.3276,-0.7114,4.33,-3.17,5.91
1055,260818296,-0.4639,-0.3262,-0.7090,4.09,-3.11,5.79
1056,260823296,-0.4619,-0.3247,-0.7090,4.02,-3.05,5.79
1057,260828296,-0.4712,-0.3276,-0.7026,3.90,-3.11,5.55
1058,260833297,-0.4761,-0.3291,-0.7090,3.96,-2.93,5.43
1059,260838296,-0.4731,-0.3286,-0.7070,3.84,-2.87,5.37
1060,260843297,-0.4766,-0.3306,-0.7041,3.96,-2.87,5.30
1061,260848295,-0.4678,-0.3281,-0.7114,3.78,-2.87,5.06
1062,260853296,-0.4731,-0.3271,-0.7085,3.90,-2.68,4.94
1063,260858296,-0.4717,-0.3262,-0.7056,4.02,-2.68,4.88
1064,260863296,-0.4727,-0.3262,-0.7075,4.09,-2.44,4.63
1065,260868296,-0.4668,-0.3232,-0.7061,4.27,-2.44,4.45
1066,260873297,-0.4683,-0.3242,-0.7129,4.33,-2.50,4.21
1067,260878296,-0.4678,-0.3262,-0.7075,4.39,-2.38,4.02
1068,260883296,-0.4575,-0.3218,-0.7061,4.45,-2.56,3.78
1069,260888296,-0.4609,-0.3232,-0.7046,4.33,-2.20,3.60
1070,260893296,-0.4668,-0.3281,-0.7080,4.21,-2.38,3.29
1071,260898296,-0.4648,-0.3237,-0.7012,4.02,-2.13,3.17
1072,260903785,-0.4653,-0.3281,-0.7051,3.78,-2.07,2.87
1073,260908296,-0.4712,-0.3247,-0.7051,3.41,-2.07,2.74
1074,260913296,-0.4712,-0.3267,-0.7026,2.99,-2.01,2.62
1075,260918296,-0.4702,-0.3228,-0.7002,2.56,-1.77,2.32
1076,260923296,-0.4741,-0.3257,-0.6973,2.32,-1.71,2.38
1077,260928296,-0.4790,-0.3252,-0.6973,1.95,-1.71,2.20
