# skilleye imu stream v1
# device=xiao_esp32c6 imu=mpu6050 addr=0x68
# rate_hz=200 accel_range_g=16 gyro_range_dps=2000 dlpf_hz=94
# units: accel in g, gyro in deg/s, t_us in microseconds since boot (monotonic)
# no shared clock with the camera -- tap the racket once before each take
# so both recordings share a spike to align on
seq,t_us,ax,ay,az,gx,gy,gz
0,792693087,0.2046,0.9316,-0.2295,7.93,0.12,1.89
1,792698090,0.2080,0.9370,-0.2246,8.54,0.30,2.07
2,792703086,0.2139,0.9336,-0.2280,8.78,0.43,2.13
3,792708085,0.2148,0.9385,-0.2271,9.33,0.49,2.26
4,792713087,0.2144,0.9380,-0.2241,9.45,0.55,2.26
5,792718086,0.2178,0.9385,-0.2246,9.45,0.67,2.44
6,792723087,0.2251,0.9409,-0.2275,9.51,0.79,2.56
7,792728086,0.2212,0.9438,-0.2275,9.39,0.98,2.62
8,792733088,0.2217,0.9434,-0.2261,9.09,0.91,2.80
9,792738087,0.2236,0.9404,-0.2310,8.78,1.10,2.87
10,792743089,0.2231,0.9429,-0.2339,8.35,1.28,2.87
11,792748087,0.2256,0.9443,-0.2310,7.80,1.40,2.99
12,792753087,0.2192,0.9395,-0.2256,7.38,1.34,3.05
13,792758085,0.2188,0.9419,-0.2358,6.89,1.46,3.29
14,792763089,0.2178,0.9482,-0.2290,6.52,1.65,3.35
15,792768087,0.2178,0.9453,-0.2266,6.22,1.77,3.35
16,792773085,0.2163,0.9453,-0.2402,6.04,1.95,3.60
17,792778089,0.2109,0.9473,-0.2329,5.91,2.01,3.84
18,792783086,0.2100,0.9482,-0.2349,5.91,2.13,3.90
19,792788089,0.2061,0.9468,-0.2402,6.16,2.26,4.02
20,792793085,0.2012,0.9443,-0.2432,6.28,2.44,4.09
21,792798085,0.1978,0.9478,-0.2329,6.46,2.74,4.27
22,792803085,0.1909,0.9478,-0.2373,6.52,2.87,4.57
23,792808089,0.1899,0.9487,-0.2344,6.65,3.05,4.57
24,792813085,0.1860,0.9458,-0.2393,6.59,3.29,4.88
25,792818216,0.1851,0.9492,-0.2422,6.28,3.54,4.94
26,792823087,0.1826,0.9468,-0.2373,6.16,3.84,5.06
27,792828086,0.1836,0.9409,-0.2378,5.67,3.90,5.18
28,792833087,0.1797,0.9424,-0.2451,5.24,4.15,5.43
29,792838089,0.1826,0.9395,-0.2441,4.70,4.33,5.43
30,792843086,0.1865,0.9336,-0.2441,4.33,4.51,5.67
31,792848087,0.1885,0.9370,-0.2417,3.90,4.82,5.61
32,792853085,0.1846,0.9326,-0.2393,3.41,4.88,5.67
33,792858085,0.1860,0.9316,-0.2368,3.05,5.18,5.67
34,792863087,0.1919,0.9321,-0.2456,2.62,5.37,5.67
35,792868393,0.1904,0.9258,-0.2402,2.20,5.49,5.61
36,792873088,0.1895,0.9209,-0.2397,1.89,5.55,5.55
37,792878086,0.1919,0.9214,-0.2417,1.52,5.85,5.49
38,792883087,0.1909,0.9170,-0.2373,1.16,5.98,5.37
39,792888088,0.1899,0.9160,-0.2368,0.91,6.28,5.24
40,792893087,0.1870,0.9126,-0.2388,0.43,6.52,5.12
41,792898086,0.1899,0.9150,-0.2363,0.06,6.65,5.00
42,792903087,0.1919,0.9072,-0.2363,-0.43,6.89,4.82
43,792908086,0.1875,0.9092,-0.2388,-0.67,7.20,4.82
44,792913087,0.1846,0.9028,-0.2339,-0.91,7.38,4.57
45,792918088,0.1831,0.8999,-0.2329,-1.10,7.50,4.39
46,792923087,0.1821,0.8979,-0.2324,-1.10,7.74,4.33
47,792928086,0.1865,0.8989,-0.2290,-1.16,7.99,4.09
48,792933116,0.1860,0.8945,-0.2373,-1.04,8.05,4.02
49,792938088,0.1841,0.8960,-0.2319,-0.91,8.35,3.78
50,792943087,0.1846,0.8975,-0.2280,-0.73,8.54,3.54
51,792948087,0.1870,0.8921,-0.2280,-0.43,8.60,3.35
52,792953087,0.1870,0.8906,-0.2295,-0.12,8.78,3.11
53,792958085,0.1880,0.8877,-0.2290,0.12,8.84,2.87
54,792963085,0.1880,0.8906,-0.2280,0.43,8.96,2.62
55,792968089,0.1919,0.8901,-0.2222,0.73,9.15,2.32
56,792973086,0.1899,0.8877,-0.2217,0.91,9.21,2.01
57,792978087,0.1870,0.8892,-0.2207,1.16,9.33,1.65
58,792983085,0.1885,0.8853,-0.2246,1.46,9.39,1.40
59,792988087,0.1895,0.8853,-0.2246,1.65,9.33,0.91
60,792993141,0.1885,0.8867,-0.2197,1.77,9.27,0.49
61,792998089,0.1914,0.8892,-0.2222,1.95,9.27,0.12
62,793003085,0.1929,0.8896,-0.2280,2.01,9.27,-0.24
63,793008087,0.1929,0.8901,-0.2251,2.13,9.09,-0.73
64,793013086,0.1938,0.8931,-0.2236,2.20,8.96,-1.22
65,793018087,0.1953,0.8936,-0.2217,2.26,9.09,-1.59
66,793023085,0.1948,0.8960,-0.2246,2.32,8.90,-1.95
67,793028088,0.1943,0.8936,-0.2231,2.56,9.02,-2.26
68,793033086,0.1929,0.8950,-0.2246,2.56,8.84,-2.74
69,793038085,0.1934,0.8984,-0.2271,2.68,8.84,-3.05
70,793043089,0.1934,0.8999,-0.2212,2.80,8.84,-3.48
71,793048172,0.1924,0.8994,-0.2246,2.74,8.84,-3.84
72,793053086,0.1924,0.9028,-0.2256,2.74,8.78,-4.02
73,793058385,0.1929,0.9072,-0.2192,2.80,8.60,-4.21
74,793063088,0.1943,0.9023,-0.2183,2.74,8.54,-4.51
75,793068085,0.1929,0.9043,-0.2153,2.87,8.60,-4.63
76,793073087,0.1924,0.9126,-0.2212,2.99,8.48,-4.82
77,793078088,0.1934,0.9126,-0.2236,3.23,8.41,-5.00
78,793083087,0.1948,0.9165,-0.2251,3.41,8.41,-5.00
79,793088086,0.1899,0.9180,-0.2163,3.66,8.29,-5.00
80,793093087,0.1909,0.9155,-0.2183,4.09,8.35,-5.12
81,793098086,0.1914,0.9209,-0.2197,4.39,8.48,-5.24
82,793103087,0.1929,0.9199,-0.2173,4.70,8.54,-5.24
83,793108087,0.1982,0.9243,-0.2168,5.00,8.48,-5.06
84,793113087,0.1963,0.9302,-0.2119,5.30,8.60,-5.12
85,793118088,0.1982,0.9297,-0.2173,5.49,8.72,-5.12
86,793123087,0.2002,0.9331,-0.2129,5.73,8.54,-5.06
87,793128086,0.2031,0.9355,-0.2217,5.85,8.60,-5.00
88,793133087,0.2075,0.9395,-0.2222,5.85,8.60,-4.88
89,793138087,0.2080,0.9390,-0.2124,5.91,8.54,-4.82
90,793143087,0.2061,0.9390,-0.2114,5.98,8.48,-4.76
91,793148085,0.2051,0.9414,-0.2192,5.79,8.41,-4.57
92,793153089,0.2070,0.9453,-0.2188,5.73,8.17,-4.39
93,793158086,0.2090,0.9487,-0.2217,5.61,8.23,-4.27
94,793163087,0.2100,0.9473,-0.2104,5.61,8.35,-4.21
95,793168377,0.2085,0.9463,-0.2129,5.61,8.17,-3.96
96,793173087,0.2065,0.9517,-0.2148,5.55,8.29,-3.78
97,793178086,0.2090,0.9580,-0.2158,5.55,8.35,-3.66
98,793183087,0.2104,0.9546,-0.2178,5.43,8.41,-3.35
99,793188087,0.2100,0.9580,-0.2129,5.24,8.60,-3.17
100,793193089,0.2075,0.9604,-0.2114,5.12,8.48,-2.87
101,793198088,0.2104,0.9590,-0.2134,4.88,8.60,-2.62
102,793203087,0.2080,0.9570,-0.2075,4.63,8.54,-2.50
103,793208086,0.2129,0.9575,-0.2114,4.27,8.66,-2.26
104,793213087,0.2139,0.9595,-0.2173,4.02,8.60,-2.01
105,793218086,0.2100,0.9595,-0.2061,3.66,8.72,-1.71
106,793223085,0.2095,0.9648,-0.2158,3.35,8.60,-1.46
107,793228089,0.2070,0.9619,-0.2134,2.87,8.60,-1.34
108,793233086,0.2075,0.9624,-0.2158,2.56,8.66,-1.10
109,793238087,0.2051,0.9585,-0.2109,2.26,8.66,-0.79
110,793243085,0.2021,0.9585,-0.2192,2.07,8.66,-0.61
111,793248089,0.1948,0.9551,-0.2085,1.89,8.54,-0.61
112,793253086,0.1958,0.9546,-0.2188,1.83,8.60,-0.37
113,793258085,0.1924,0.9521,-0.2217,1.71,8.54,-0.06
114,793263085,0.1895,0.9478,-0.2207,1.83,8.35,0.06
115,793268085,0.1826,0.9419,-0.2173,2.01,8.35,0.24
116,793273089,0.1768,0.9419,-0.2192,2.26,8.41,0.43
117,793278087,0.1729,0.9355,-0.2114,2.74,8.41,0.61
118,793283086,0.1714,0.9214,-0.2114,3.35,8.41,0.79
119,793288085,0.1704,0.9238,-0.2104,3.96,8.35,1.04
120,793293088,0.1689,0.9189,-0.2124,4.57,8.72,1.04
121,793298086,0.1675,0.9111,-0.2095,5.24,8.72,1.22
122,793303087,0.1709,0.9082,-0.2041,5.73,8.84,1.34
123,793308179,0.1724,0.9033,-0.2031,6.16,9.15,1.28
124,793313087,0.1714,0.9023,-0.2007,6.46,9.33,1.22
125,793318088,0.1738,0.9004,-0.1973,6.77,9.57,1.16
126,793323087,0.1797,0.8940,-0.1992,6.71,9.94,0.91
127,793328087,0.1826,0.8940,-0.1890,6.83,10.30,0.67
128,793333087,0.1880,0.8931,-0.1919,6.89,10.49,0.49
129,793338086,0.1943,0.8896,-0.1934,6.83,10.79,0.12
130,793343085,0.1924,0.8872,-0.1851,6.71,11.16,-0.18
131,793348089,0.1973,0.8921,-0.1870,6.52,11.52,-0.61
132,793353087,0.1963,0.8857,-0.1846,6.28,12.01,-1.16
133,793358086,0.2031,0.8838,-0.1768,6.10,12.44,-1.59
134,793363087,0.2061,0.8833,-0.1807,5.79,12.87,-2.13
135,793368085,0.2100,0.8887,-0.1758,5.49,13.23,-2.80
136,793373085,0.2061,0.8926,-0.1729,5.24,13.72,-3.41
137,793378089,0.2114,0.8896,-0.1738,5.00,14.02,-4.15
138,793383086,0.2129,0.8955,-0.1772,4.76,14.39,-4.94
139,793388089,0.2095,0.8994,-0.1782,4.45,14.70,-5.67
140,793393085,0.2109,0.8970,-0.1743,4.09,14.88,-6.52
141,793398089,0.2090,0.8984,-0.1772,3.78,15.12,-7.20
142,793403086,0.2031,0.9019,-0.1787,3.54,15.18,-7.87
143,793408089,0.2061,0.9038,-0.1772,3.23,15.24,-8.54
144,793413085,0.1953,0.9097,-0.1782,3.17,15.12,-9.15
145,793418631,0.1919,0.9131,-0.1777,3.11,15.18,-9.88
146,793423088,0.1851,0.9102,-0.1733,3.17,15.12,-10.30
147,793428087,0.1787,0.9155,-0.1743,3.35,15.06,-10.73
148,793433087,0.1719,0.9199,-0.1665,3.54,15.00,-11.04
149,793438086,0.1660,0.9209,-0.1719,4.09,14.94,-11.28
150,793443087,0.1606,0.9209,-0.1714,4.70,15.00,-11.46
151,793448088,0.1548,0.9268,-0.1646,5.43,15.06,-11.59
152,793453087,0.1499,0.9258,-0.1606,6.28,15.12,-11.46
153,793458087,0.1514,0.9321,-0.1636,7.07,15.06,-11.59
154,793463087,0.1509,0.9307,-0.1611,8.05,15.12,-11.40
155,793468423,0.1475,0.9385,-0.1592,8.72,15.30,-11.46
156,793473087,0.1523,0.9370,-0.1528,9.39,15.30,-11.40
157,793478087,0.1538,0.9360,-0.1528,9.94,15.24,-11.22
158,793483086,0.1558,0.9385,-0.1440,10.67,15.30,-11.22
159,793488089,0.1631,0.9453,-0.1494,11.10,15.24,-11.16
160,793493085,0.1631,0.9443,-0.1401,11.59,15.30,-11.16
161,793498089,0.1626,0.9453,-0.1431,11.95,15.30,-11.04
162,793503086,0.1719,0.9507,-0.1372,12.07,15.24,-11.04
163,793508090,0.1738,0.9551,-0.1431,12.01,15.24,-11.10
164,793513087,0.1768,0.9570,-0.1396,11.71,15.30,-10.98
165,793518087,0.1758,0.9663,-0.1367,11.22,15.18,-10.98
166,793523087,0.1792,0.9648,-0.1396,10.67,15.18,-11.04
167,793528085,0.1768,0.9712,-0.1333,9.82,15.12,-10.98
168,793533088,0.1782,0.9692,-0.1348,8.96,15.24,-10.91
169,793538088,0.1763,0.9722,-0.1367,8.23,15.18,-10.79
170,793543087,0.1802,0.9766,-0.1362,7.68,15.18,-10.73
171,793548085,0.1821,0.9805,-0.1289,7.13,15.37,-10.67
172,793553088,0.1748,0.9849,-0.1333,6.95,15.43,-10.49
173,793558606,0.1821,0.9844,-0.1294,6.83,15.67,-10.24
174,793563087,0.1758,0.9829,-0.1309,6.77,15.73,-10.06
175,793568085,0.1733,0.9927,-0.1362,6.77,15.85,-9.88
176,793573085,0.1729,0.9980,-0.1289,7.07,15.98,-9.63
177,793578085,0.1719,0.9990,-0.1333,7.13,16.22,-9.33
178,793583088,0.1719,0.9980,-0.1353,7.32,16.40,-9.02
179,793588086,0.1714,1.0024,-0.1338,7.56,16.52,-8.78
180,793593087,0.1729,1.0093,-0.1343,7.68,16.71,-8.60
181,793598089,0.1719,1.0127,-0.1357,7.56,16.89,-8.17
182,793603086,0.1768,1.0176,-0.1362,7.44,17.13,-7.87
183,793608087,0.1841,1.0186,-0.1382,7.07,17.26,-7.50
184,793613087,0.1855,1.0220,-0.1401,6.59,17.44,-7.13
185,793618310,0.1899,1.0254,-0.1401,5.91,17.44,-6.71
186,793623087,0.1909,1.0259,-0.1436,5.06,17.38,-6.22
187,793628086,0.1963,1.0283,-0.1387,4.21,17.26,-5.55
188,793633088,0.2002,1.0312,-0.1406,3.35,17.07,-5.00
189,793638087,0.2017,1.0347,-0.1475,2.62,17.01,-4.45
190,793643086,0.2065,1.0327,-0.1465,2.13,16.83,-3.66
191,793648085,0.2178,1.0352,-0.1450,1.83,16.89,-2.93
192,793653089,0.2183,1.0361,-0.1387,1.95,16.89,-2.13
193,793658086,0.2202,1.0371,-0.1504,2.38,16.89,-1.22
194,793663085,0.2246,1.0356,-0.1392,3.29,17.01,-0.43
195,793668088,0.2280,1.0356,-0.1353,4.33,17.32,0.61
196,793673087,0.2354,1.0322,-0.1353,5.73,17.68,1.46
197,793678085,0.2402,1.0332,-0.1372,7.20,18.17,2.32
198,793683087,0.2412,1.0317,-0.1377,8.60,18.48,3.17
199,793688087,0.2378,1.0298,-0.1362,10.00,19.15,4.02
200,793693086,0.2432,1.0215,-0.1304,11.34,19.76,4.88
201,793698308,0.2471,1.0210,-0.1426,12.44,20.37,5.67
202,793703087,0.2471,1.0181,-0.1377,13.54,20.98,6.46
203,793708086,0.2480,1.0166,-0.1470,14.21,21.65,7.20
204,793713088,0.2432,1.0146,-0.1479,14.57,22.07,7.87
205,793718089,0.2456,1.0142,-0.1489,14.82,22.62,8.48
206,793723086,0.2441,1.0103,-0.1587,14.76,23.11,9.09
207,793728089,0.2393,1.0078,-0.1533,14.57,23.48,9.63
208,793733086,0.2334,1.0039,-0.1650,14.39,23.78,10.18
209,793738087,0.2305,0.9966,-0.1719,14.15,24.33,10.49
210,793743086,0.2295,0.9971,-0.1724,13.84,24.70,10.85
211,793748086,0.2305,0.9951,-0.1826,13.66,24.94,11.16
212,793753087,0.2266,0.9932,-0.1792,13.41,25.43,11.34
213,793758086,0.2300,0.9863,-0.1821,13.35,25.73,11.46
214,793763089,0.2241,0.9824,-0.1880,13.35,26.10,11.65
215,793768087,0.2197,0.9746,-0.1870,13.48,26.46,11.71
216,793773087,0.2178,0.9736,-0.1958,13.66,26.83,11.65
217,793778085,0.2129,0.9756,-0.2017,14.02,27.32,11.71
218,793783087,0.2104,0.9722,-0.2041,14.27,27.74,11.71
219,793788087,0.2100,0.9629,-0.2124,14.57,28.11,11.59
220,793793086,0.2114,0.9624,-0.2119,14.94,28.54,11.52
221,793798087,0.2070,0.9565,-0.2158,15.18,29.15,11.46
222,793803086,0.2056,0.9531,-0.2373,15.30,29.51,11.22
223,793808087,0.2134,0.9521,-0.2290,15.43,29.76,11.16
224,793813086,0.2139,0.9497,-0.2358,15.49,30.24,10.85
225,793818186,0.2188,0.9438,-0.2451,15.24,30.61,10.49
226,793823087,0.2158,0.9492,-0.2500,14.94,30.91,10.18
227,793828088,0.2178,0.9419,-0.2612,14.45,31.10,9.76
228,793833087,0.2305,0.9390,-0.2690,13.90,31.28,9.39
229,793838446,0.2305,0.9326,-0.2715,13.35,31.46,8.90
230,793843088,0.2358,0.9316,-0.2793,12.99,31.59,8.41
231,793848087,0.2339,0.9233,-0.2881,12.62,31.59,7.80
232,793853087,0.2427,0.9160,-0.2959,12.32,31.71,7.38
233,793858088,0.2432,0.9126,-0.2983,12.20,31.95,6.83
234,793863087,0.2388,0.9038,-0.3057,12.26,32.26,6.34
235,793868087,0.2476,0.9014,-0.3149,12.20,32.44,5.91
236,793873087,0.2480,0.9004,-0.3247,12.07,32.62,5.49
237,793878085,0.2441,0.8916,-0.3384,11.95,33.11,5.30
238,793883085,0.2446,0.8853,-0.3506,11.65,33.60,5.18
239,793888089,0.2422,0.8774,-0.3667,10.91,34.33,4.94
240,793893087,0.2432,0.8735,-0.3677,10.37,35.00,4.82
241,793898087,0.2422,0.8667,-0.3794,9.82,35.91,4.76
242,793903087,0.2417,0.8584,-0.3813,9.33,36.89,4.82
243,793908087,0.2402,0.8521,-0.3955,8.96,37.99,4.70
244,793913087,0.2437,0.8423,-0.3965,8.60,39.27,4.82
245,793918087,0.2422,0.8335,-0.4072,8.41,40.30,4.76
246,793923087,0.2515,0.8252,-0.4155,8.48,41.46,4.82
247,793928087,0.2520,0.8184,-0.4248,8.35,42.56,4.82
248,793933087,0.2598,0.8149,-0.4302,8.11,43.66,4.76
249,793938087,0.2744,0.8076,-0.4390,7.80,44.70,4.76
250,793943087,0.2837,0.8047,-0.4609,7.26,45.55,4.63
251,793948085,0.2993,0.8027,-0.4727,6.40,46.46,4.39
252,793953087,0.3115,0.8027,-0.4849,5.85,47.13,4.21
253,793958087,0.3203,0.8013,-0.5029,5.00,47.80,3.90
254,793963087,0.3311,0.7964,-0.5171,4.33,48.54,3.60
255,793968088,0.3379,0.7964,-0.5366,3.90,49.15,3.11
256,793973087,0.3394,0.7979,-0.5576,3.78,50.06,2.62
257,793978085,0.3403,0.7925,-0.5649,4.45,50.85,2.20
258,793983085,0.3418,0.7905,-0.5708,5.61,51.59,1.83
259,793988085,0.3472,0.7847,-0.5864,7.56,52.68,1.22
260,793993087,0.3467,0.7803,-0.5933,10.37,53.60,0.79
261,793998088,0.3452,0.7822,-0.5962,13.78,54.57,0.24
262,794003087,0.3530,0.7739,-0.6011,17.68,55.73,-0.30
263,794008087,0.3608,0.7705,-0.6040,21.77,56.95,-0.85
264,794013087,0.3589,0.7622,-0.6172,26.04,58.23,-1.40
265,794018088,0.3545,0.7593,-0.6143,30.00,59.57,-2.01
266,794023087,0.3545,0.7539,-0.6226,33.54,61.16,-2.62
267,794028087,0.3511,0.7437,-0.6245,36.46,62.99,-3.17
268,794033087,0.3569,0.7368,-0.6284,38.54,64.76,-3.78
269,794038085,0.3535,0.7300,-0.6401,40.00,66.71,-4.45
270,794043087,0.3491,0.7192,-0.6392,40.61,68.66,-5.00
271,794048087,0.3501,0.7124,-0.6411,40.55,70.73,-5.61
272,794053087,0.3481,0.7051,-0.6411,39.88,73.11,-6.22
273,794058085,0.3438,0.7021,-0.6406,38.72,75.49,-6.77
274,794063087,0.3418,0.6929,-0.6357,37.07,77.99,-7.38
275,794068088,0.3516,0.6885,-0.6401,35.12,80.37,-7.87
276,794073087,0.3501,0.6870,-0.6377,32.87,82.56,-8.60
277,794078087,0.3555,0.6802,-0.6343,30.67,85.79,-9.21
278,794083087,0.3638,0.6748,-0.6304,28.48,86.71,-9.94
279,794088085,0.3721,0.6724,-0.6250,26.34,89.76,-10.67
280,794093085,0.3857,0.6724,-0.6289,24.51,91.95,-11.22
281,794098089,0.3862,0.6685,-0.6230,22.74,94.33,-12.20
282,794103086,0.3926,0.6660,-0.6143,21.52,96.46,-12.99
283,794108087,0.3989,0.6689,-0.6099,20.61,98.66,-13.78
284,794113086,0.3984,0.6646,-0.6011,20.12,100.98,-14.76
285,794118132,0.4019,0.6606,-0.5972,20.18,103.11,-15.55
286,794123087,0.4004,0.6592,-0.5933,20.67,105.00,-16.59
287,794128089,0.3975,0.6567,-0.5811,21.65,106.95,-17.56
288,794133086,0.3970,0.6558,-0.5762,23.11,108.78,-18.54
289,794138087,0.3989,0.6597,-0.5576,25.00,110.61,-19.51
290,794143086,0.3999,0.6631,-0.5464,27.26,112.26,-20.73
291,794148085,0.4004,0.6641,-0.5317,29.57,114.09,-22.01
292,794153087,0.3989,0.6631,-0.5229,32.01,115.61,-23.29
293,794158086,0.3999,0.6621,-0.5132,34.27,117.26,-24.63
294,794163088,0.3970,0.6641,-0.5020,36.40,118.54,-26.28
295,794168087,0.3984,0.6641,-0.4800,38.23,119.88,-27.87
296,794173086,0.3955,0.6680,-0.4634,39.70,121.04,-29.57
297,794178520,0.3906,0.6641,-0.4492,40.91,122.26,-31.71
298,794183088,0.3853,0.6660,-0.4380,41.40,123.05,-33.11
299,794188086,0.3784,0.6680,-0.4199,41.65,123.78,-35.00
300,794193638,0.3696,0.6763,-0.4028,41.22,124.51,-37.32
301,794198092,0.3599,0.6772,-0.3901,40.24,124.88,-39.09
302,794203087,0.3408,0.6821,-0.3828,39.15,125.18,-40.43
303,794208086,0.3267,0.6899,-0.3584,37.56,125.49,-41.89
304,794213089,0.3120,0.7021,-0.3481,35.98,125.49,-43.41
305,794218168,0.3022,0.7090,-0.3315,34.15,125.49,-44.70
306,794223134,0.2910,0.7144,-0.3203,32.38,125.43,-45.91
307,794228087,0.2803,0.7173,-0.3042,30.85,125.12,-46.83
308,794233086,0.2646,0.7266,-0.2964,29.39,124.94,-47.80
309,794238155,0.2573,0.7354,-0.2808,28.29,124.63,-48.72
310,794243088,0.2490,0.7324,-0.2808,27.50,124.45,-49.39
311,794248086,0.2441,0.7510,-0.2422,27.01,124.21,-50.12
312,794253085,0.2319,0.7363,-0.2583,26.89,123.78,-50.79
313,794258088,0.2314,0.7598,-0.2134,27.07,123.72,-51.34
314,794263087,0.2290,0.7490,-0.2227,27.87,123.54,-51.89
315,794268089,0.2280,0.7446,-0.1582,29.63,123.29,-52.56
316,794273088,0.2031,0.7886,-0.2158,30.37,123.05,-53.23
317,794278086,0.1934,0.7817,-0.1836,30.79,122.80,-53.96
318,794283481,0.1973,0.7788,-0.1787,30.43,122.38,-54.82
319,794288088,0.2031,0.7949,-0.1948,29.88,121.77,-55.49
320,794293085,0.2017,0.7822,-0.1670,28.48,121.46,-56.34
321,794298087,0.1997,0.7847,-0.1641,26.40,121.16,-57.26
322,794303086,0.1982,0.7930,-0.1807,23.90,120.67,-58.29
323,794308089,0.1978,0.8003,-0.1602,20.79,120.24,-59.27
324,794313086,0.1968,0.8032,-0.1499,17.20,119.76,-60.37
325,794318089,0.1968,0.8169,-0.1587,13.48,119.33,-61.40
326,794323086,0.1880,0.8008,-0.1396,9.27,119.09,-62.74
327,794328089,0.1895,0.7959,-0.0918,4.82,119.02,-63.72
328,794333086,0.1855,0.8247,-0.1079,-0.12,119.09,-64.82
329,794339498,0.2163,0.8550,-0.0889,-8.35,119.27,-66.04
330,794343088,0.1890,0.8672,-0.0649,-12.50,119.21,-66.34
331,794348088,0.1631,0.8579,-0.0508,-19.94,119.21,-66.89
332,794353087,0.1997,0.9390,-0.0176,-28.17,119.15,-67.32
333,794358085,0.2417,0.9253,0.0088,-37.68,119.02,-67.62
334,794363088,0.2075,0.9414,0.0918,-47.68,119.15,-67.01
335,794368087,0.1782,0.9668,0.0742,-58.23,119.51,-66.83
336,794373087,0.1753,0.9814,0.0781,-68.90,119.45,-66.71
337,794378356,0.1797,0.9678,0.1416,-79.70,119.51,-66.16
338,794383087,0.1548,0.9541,0.1763,-90.61,120.00,-65.24
339,794388085,0.1372,0.9365,0.1621,-101.65,120.43,-64.45
340,794393095,0.1313,0.9116,0.1577,-112.62,120.85,-63.66
341,794398087,0.1328,0.8965,0.1709,-123.11,121.16,-62.80
342,794403085,0.1323,0.8999,0.1646,-132.74,121.59,-61.89
343,794408085,0.1152,0.9116,0.1387,-141.34,121.95,-60.85
344,794413091,0.0747,0.9224,0.1152,-148.41,122.68,-59.88
345,794418086,0.0298,0.9204,0.1040,-154.15,123.48,-58.54
346,794423087,-0.0039,0.9263,0.0620,-158.78,124.33,-57.01
347,794428089,-0.0288,0.9204,0.0898,-162.32,125.18,-55.49
348,794433086,-0.0308,0.9331,0.0547,-165.00,126.34,-53.96
349,794438087,-0.0342,0.9526,0.0317,-166.77,127.01,-52.26
350,794443700,-0.0400,0.9722,0.0459,-168.35,127.93,-50.00
351,794448089,-0.0522,0.9902,0.0879,-168.78,128.90,-48.35
352,794453087,-0.0630,1.0137,0.0884,-169.27,129.70,-46.16
353,794458087,-0.0557,1.0391,0.0898,-169.33,130.55,-44.02
354,794463087,-0.0483,1.0439,0.1094,-169.21,131.59,-41.65
355,794468085,-0.0005,1.0586,0.1196,-168.90,132.50,-38.60
356,794473087,0.0259,1.1016,0.1104,-168.84,133.48,-35.73
357,794478086,0.0181,1.1333,0.1182,-169.51,134.39,-32.74
358,794483146,-0.0083,1.1538,0.1743,-171.65,135.30,-29.63
359,794488088,-0.0269,1.1641,0.2021,-173.60,135.61,-27.44
360,794493089,-0.0200,1.1523,0.2554,-176.59,135.73,-24.45
361,794498086,-0.0059,1.1328,0.3091,-180.00,135.85,-21.16
362,794503087,0.0381,1.1514,0.3813,-184.45,135.18,-17.74
363,794508273,0.0737,1.1567,0.4497,-189.63,134.45,-15.00
364,794513087,0.0869,1.1489,0.5381,-194.33,134.27,-12.26
365,794518090,0.0728,1.1230,0.5718,-197.93,133.90,-9.63
366,794523086,0.0332,1.0957,0.5825,-200.06,132.93,-6.89
367,794528611,-0.0132,1.0762,0.6328,-200.24,131.83,-3.41
368,794533087,-0.0220,1.0381,0.7075,-198.48,130.85,-1.10
369,794538087,-0.0195,0.9590,0.7725,-193.35,130.00,1.83
370,794543087,-0.0293,0.9385,0.8154,-184.21,129.02,4.94
371,794548088,-0.0713,0.9683,0.8184,-170.61,127.68,7.44
372,794553087,-0.1313,1.0044,0.7871,-152.93,125.67,9.57
373,794558087,-0.1455,0.9771,0.7598,-132.20,123.23,11.40
374,794563088,-0.1206,0.9263,0.7393,-109.02,120.12,13.41
375,794568086,-0.0874,0.9419,0.7847,-84.82,117.32,15.12
376,794573087,-0.1001,0.9048,0.6992,-60.61,114.63,16.46
377,794578087,-0.0747,0.9399,0.6548,-36.28,111.34,17.56
378,794583087,-0.0537,0.9355,0.6602,-13.17,107.99,18.17
379,794588086,-0.0210,0.9121,0.6646,8.11,104.94,18.23
380,794593087,-0.0029,0.8921,0.6646,26.89,102.68,17.87
381,794598086,-0.0059,0.8813,0.6460,43.05,100.49,17.26
382,794603086,-0.0132,0.8662,0.6318,56.34,98.41,16.46
383,794608089,-0.0195,0.8457,0.6245,66.77,96.52,15.67
384,794613086,-0.0293,0.8198,0.6255,74.39,94.82,15.00
385,794618592,-0.0337,0.8042,0.6250,79.88,93.05,14.21
386,794623087,-0.0352,0.7998,0.6274,81.52,92.01,13.72
387,794628087,-0.0430,0.7998,0.6201,81.34,90.79,12.99
388,794633089,-0.0405,0.8057,0.6094,78.96,89.76,12.26
389,794638087,-0.0405,0.8105,0.6025,74.70,88.29,11.46
390,794643088,-0.0361,0.8145,0.5967,68.78,87.26,10.67
391,794648086,-0.0322,0.8252,0.5981,61.59,87.44,9.94
392,794653087,-0.0264,0.8311,0.5830,53.84,85.61,9.33
393,794658088,-0.0312,0.8408,0.5723,45.55,85.43,8.72
394,794663087,-0.0259,0.8506,0.5625,37.44,85.18,8.54
395,794668086,-0.0166,0.8589,0.5688,29.70,83.41,8.48
396,794673085,-0.0112,0.8804,0.5776,22.44,82.87,8.48
397,794678089,-0.0117,0.8950,0.5942,15.18,82.56,8.54
398,794683086,0.0024,0.8867,0.5840,7.80,82.13,8.11
399,794688087,0.0435,0.9185,0.5234,0.18,80.85,7.26
400,794693086,0.0571,0.9312,0.5410,-6.83,79.39,5.98
401,794698085,0.0522,0.9443,0.5972,-12.93,77.99,4.82
402,794703089,0.0273,0.9360,0.6099,-17.68,77.01,3.72
403,794708087,-0.0029,0.9214,0.6206,-21.10,75.98,2.93
404,794713086,-0.0098,0.9106,0.6670,-23.48,75.24,2.01
405,794718087,0.0039,0.8901,0.7041,-25.30,74.70,1.22
406,794723086,-0.0430,0.8652,0.6572,-26.95,74.27,0.85
407,794728089,-0.0552,0.9316,0.6201,-27.62,73.60,0.61
408,794733086,-0.0239,0.9600,0.6177,-27.38,72.87,0.30
409,794738087,0.0049,0.9478,0.6406,-26.52,72.32,0.12
410,794743086,-0.0063,0.9155,0.6499,-25.67,71.71,0.00
411,794748087,-0.0298,0.9160,0.6548,-24.70,71.22,0.06
412,794753086,-0.0273,0.9390,0.6465,-23.23,70.67,0.06
413,794758089,-0.0312,0.9507,0.6255,-21.65,70.00,0.24
414,794763086,-0.0381,0.9385,0.6279,-19.88,69.45,0.24
415,794768088,-0.0293,0.9268,0.6338,-17.80,68.84,0.49
416,794773086,-0.0190,0.9219,0.6274,-15.85,68.35,0.91
417,794778087,-0.0254,0.9287,0.6089,-13.72,67.50,1.34
418,794783086,-0.0288,0.9292,0.6104,-11.52,66.83,1.89
419,794788089,-0.0303,0.9141,0.6143,-9.09,66.22,2.26
420,794793086,-0.0264,0.8955,0.6108,-6.59,65.55,3.05
421,794798087,-0.0352,0.8921,0.6157,-3.96,64.57,3.84
422,794803086,-0.0312,0.8892,0.6270,-1.16,63.96,4.63
423,794808087,-0.0317,0.8916,0.6328,1.95,63.23,5.55
424,794813086,-0.0317,0.8896,0.6255,5.24,62.38,6.46
425,794818085,-0.0298,0.8906,0.6338,8.60,61.65,7.32
426,794823085,-0.0259,0.8862,0.6328,11.83,60.79,8.35
427,794828087,-0.0259,0.8857,0.6372,15.00,60.00,9.33
428,794833086,-0.0269,0.8848,0.6265,18.11,59.15,10.43
429,794838087,-0.0244,0.8813,0.6270,20.73,58.29,11.46
430,794843086,-0.0249,0.8779,0.6279,23.11,57.38,12.56
431,794848630,-0.0293,0.8794,0.6221,25.55,56.16,13.84
432,794853087,-0.0234,0.8804,0.6206,26.95,55.30,14.88
433,794858086,-0.0239,0.8833,0.6274,28.48,54.70,16.04
434,794863085,-0.0249,0.8848,0.6328,29.82,53.84,17.26
435,794868086,-0.0278,0.8906,0.6450,30.91,53.35,18.66
436,794873088,-0.0288,0.9058,0.6455,31.65,53.05,20.00
437,794878087,-0.0356,0.9155,0.6548,32.32,53.11,21.16
438,794883087,-0.0381,0.9189,0.6572,32.74,53.05,22.44
439,794888087,-0.0435,0.9219,0.6675,33.17,53.41,23.41
440,794893087,-0.0381,0.9326,0.6685,33.35,53.66,24.39
441,794898086,-0.0415,0.9395,0.6689,33.23,54.09,25.30
442,794903087,-0.0498,0.9434,0.6743,32.93,54.82,26.10
443,794908088,-0.0498,0.9419,0.6689,32.38,55.67,26.83
444,794913087,-0.0498,0.9346,0.6743,31.46,56.65,27.50
445,794918129,-0.0503,0.9404,0.6738,30.43,57.87,28.29
446,794923087,-0.0435,0.9409,0.6646,28.96,59.02,28.90
447,794928087,-0.0430,0.9468,0.6587,27.44,60.12,29.51
448,794933087,-0.0352,0.9478,0.6455,25.61,61.16,30.12
449,794938087,-0.0278,0.9429,0.6343,23.72,61.89,30.67
450,794943087,-0.0259,0.9404,0.6299,21.83,63.11,31.40
451,794948087,-0.0181,0.9463,0.6216,20.00,63.54,31.89
452,794953087,-0.0039,0.9473,0.6025,18.29,63.84,32.32
453,794958086,0.0044,0.9507,0.5972,16.95,63.90,32.80
454,794963087,0.0166,0.9536,0.5894,15.98,63.72,33.29
455,794968087,0.0283,0.9663,0.5630,15.43,63.29,33.72
456,794973087,0.0361,0.9766,0.5557,15.55,62.62,34.09
457,794978086,0.0435,0.9839,0.5439,16.16,61.83,34.51
458,794983087,0.0464,0.9834,0.5508,17.74,60.91,35.06
459,794988087,0.0503,0.9951,0.5410,19.94,60.00,35.67
460,794993196,0.0503,1.0039,0.5439,23.17,59.02,36.16
461,794998087,0.0425,1.0093,0.5522,27.26,58.05,36.95
462,795003087,0.0366,1.0151,0.5483,31.89,57.38,37.56
463,795008085,0.0317,1.0220,0.5513,37.13,56.34,38.35
464,795013086,0.0254,1.0288,0.5571,42.68,55.85,39.15
465,795018087,0.0225,1.0322,0.5596,48.23,55.18,39.94
466,795023087,0.0269,1.0303,0.5581,53.60,54.63,40.61
467,795028286,0.0342,1.0308,0.5508,58.41,53.96,41.34
468,795033087,0.0342,1.0298,0.5396,62.80,53.41,42.01
469,795038086,0.0312,1.0273,0.5371,66.34,52.99,42.74
470,795043087,0.0400,1.0327,0.5205,69.02,52.44,43.41
471,795048087,0.0562,1.0444,0.5063,70.67,51.95,44.02
472,795053087,0.0596,1.0459,0.5054,71.40,51.28,44.51
473,795058086,0.0630,1.0537,0.5005,71.10,50.91,44.94
474,795063087,0.0645,1.0610,0.4893,70.12,50.61,45.55
475,795068087,0.0625,1.0591,0.4849,68.29,50.30,45.73
476,795073087,0.0645,1.0659,0.4780,65.91,49.82,46.04
477,795078086,0.0708,1.0688,0.4653,63.11,49.33,46.22
478,795083087,0.0771,1.0737,0.4614,59.94,48.90,46.40
479,795088087,0.0859,1.0767,0.4478,56.34,48.48,46.46
480,795093087,0.0942,1.0752,0.4365,52.56,47.99,46.59
481,795098086,0.1016,1.0801,0.4302,48.72,47.44,46.52
482,795103087,0.1069,1.0781,0.4155,44.76,46.89,46.59
483,795108087,0.1138,1.0767,0.4028,40.73,46.40,46.52
484,795113087,0.1226,1.0752,0.3916,36.83,45.79,46.59
485,795118088,0.1313,1.0767,0.3862,33.23,45.06,46.46
486,795123088,0.1382,1.0693,0.3740,29.82,44.39,46.46
487,795128088,0.1514,1.0610,0.3691,26.59,43.72,46.28
488,795133087,0.1636,1.0562,0.3604,23.72,43.11,46.22
489,795138087,0.1724,1.0498,0.3486,21.16,42.32,46.10
490,795143533,0.1821,1.0474,0.3374,18.54,41.46,45.91
491,795148087,0.1885,1.0425,0.3335,17.20,40.67,45.79
492,795153086,0.1968,1.0396,0.3198,15.73,40.00,45.49
493,795158087,0.2051,1.0386,0.3105,14.82,39.15,45.30
494,795163087,0.2109,1.0332,0.3062,14.27,38.35,45.12
495,795168088,0.2148,1.0317,0.2983,14.02,37.44,44.76
496,795173087,0.2148,1.0244,0.2827,14.15,36.46,44.51
497,795178087,0.2183,1.0200,0.2656,14.27,35.67,44.27
498,795183087,0.2163,1.0146,0.2563,14.70,34.57,43.96
499,795188087,0.2163,1.0142,0.2485,15.24,33.66,43.72
500,795193087,0.2124,1.0078,0.2446,16.04,32.62,43.48
501,795198088,0.2100,1.0005,0.2402,17.01,31.83,43.23
502,795203087,0.2070,1.0000,0.2300,18.29,30.85,43.11
503,795208085,0.2051,0.9932,0.2266,19.57,30.06,42.87
504,795213085,0.1992,0.9873,0.2188,20.79,29.21,42.74
505,795218087,0.1958,0.9790,0.2124,22.13,28.41,42.56
506,795223087,0.1919,0.9727,0.2129,23.35,27.68,42.44
507,795228087,0.1885,0.9727,0.2026,24.51,27.07,42.26
508,795233087,0.1904,0.9668,0.2036,25.67,26.40,42.20
509,795238088,0.1870,0.9595,0.1963,26.83,25.73,42.20
510,795243087,0.1904,0.9590,0.2012,27.93,25.00,42.07
511,795248087,0.1919,0.9570,0.1973,28.96,24.57,41.95
512,795253087,0.1948,0.9546,0.1924,29.82,24.09,41.77
513,795258088,0.1919,0.9512,0.1919,30.67,23.66,41.71
514,795263087,0.1943,0.9468,0.1865,31.46,23.17,41.46
515,795268625,0.1978,0.9482,0.1807,32.32,22.62,41.28
516,795273087,0.1997,0.9492,0.1851,32.80,22.38,41.10
517,795278087,0.2017,0.9502,0.1865,33.48,22.07,40.91
518,795283088,0.2051,0.9458,0.1860,33.84,21.77,40.67
519,795288085,0.2051,0.9414,0.1846,34.27,21.34,40.37
520,795293087,0.2095,0.9370,0.1860,34.57,21.10,40.24
521,795298087,0.2080,0.9321,0.1865,34.94,20.79,39.94
522,795303086,0.2114,0.9312,0.1929,35.24,20.61,39.82
523,795308087,0.2119,0.9248,0.1904,35.30,20.37,39.45
524,795313085,0.2114,0.9224,0.1919,35.24,20.06,39.21
525,795318085,0.2148,0.9263,0.1895,35.12,19.88,38.84
526,795323087,0.2192,0.9248,0.1904,34.76,19.63,38.78
527,795328087,0.2271,0.9238,0.1919,34.33,19.39,38.48
528,795333086,0.2251,0.9224,0.1953,33.90,19.15,38.11
529,795338087,0.2290,0.9277,0.1895,33.35,18.78,37.80
530,795343086,0.2344,0.9302,0.1943,32.87,18.60,37.50
531,795348802,0.2417,0.9380,0.1958,32.56,18.11,37.01
532,795353087,0.2412,0.9380,0.1958,32.56,17.80,36.71
533,795358305,0.2471,0.9429,0.2036,32.74,17.50,36.34
534,795363087,0.2480,0.9478,0.2095,33.11,17.26,35.79
535,795368089,0.2505,0.9448,0.2095,33.72,16.89,35.24
536,795373086,0.2568,0.9458,0.2173,34.39,16.65,34.70
537,795378087,0.2500,0.9458,0.2217,35.30,16.46,34.21
538,795383086,0.2593,0.9492,0.2266,36.10,16.04,33.60
539,795388085,0.2554,0.9521,0.2241,37.01,15.79,32.93
540,795393087,0.2588,0.9575,0.2314,37.80,15.61,32.26
541,795398087,0.2598,0.9609,0.2280,38.54,15.49,31.46
542,795403086,0.2642,0.9624,0.2314,38.90,15.18,30.79
543,795408130,0.2666,0.9624,0.2373,39.15,15.06,29.94
544,795413085,0.2666,0.9653,0.2393,39.02,14.88,29.15
545,795418085,0.2656,0.9629,0.2393,38.72,14.51,28.48
546,795423087,0.2671,0.9609,0.2368,38.05,14.21,27.62
547,795428087,0.2686,0.9619,0.2344,37.13,13.90,26.83
548,795433086,0.2734,0.9653,0.2334,36.10,13.60,26.22
549,795438087,0.2759,0.9624,0.2354,34.82,13.29,25.43
550,795443086,0.2764,0.9668,0.2412,33.54,12.80,24.63
551,795448087,0.2773,0.9707,0.2339,32.20,12.44,23.84
552,795453086,0.2788,0.9712,0.2432,30.67,12.26,23.11
553,795458090,0.2798,0.9766,0.2397,29.27,11.77,22.26
554,795463086,0.2832,0.9761,0.2461,27.87,11.46,21.40
555,795468088,0.2837,0.9795,0.2378,26.40,11.10,20.61
556,795473537,0.2881,0.9800,0.2407,25.12,10.79,19.82
557,795478087,0.2861,0.9795,0.2461,23.84,10.61,18.78
558,795483086,0.2812,0.9810,0.2383,22.56,10.12,17.99
559,795488087,0.2822,0.9800,0.2427,21.28,9.82,17.13
560,795493090,0.2798,0.9839,0.2368,20.00,9.63,16.22
561,795498085,0.2808,0.9795,0.2339,18.72,9.21,15.43
562,795503088,0.2817,0.9756,0.2402,17.38,8.78,14.57
563,795508088,0.2817,0.9790,0.2383,16.04,8.60,13.66
564,795513088,0.2837,0.9746,0.2393,14.94,8.29,12.80
565,795518087,0.2812,0.9731,0.2334,13.84,7.99,12.07
566,795523087,0.2866,0.9697,0.2314,12.74,7.44,11.22
567,795528087,0.2837,0.9702,0.2290,11.89,7.13,10.43
568,795533087,0.2788,0.9639,0.2256,11.16,6.83,9.70
569,795538087,0.2764,0.9600,0.2241,10.43,6.40,9.15
570,795543089,0.2744,0.9570,0.2261,9.94,6.04,8.54
571,795548087,0.2759,0.9487,0.2285,9.63,5.79,7.99
572,795553087,0.2681,0.9414,0.2280,9.21,5.30,7.44
573,795558087,0.2681,0.9409,0.2251,8.78,4.94,7.01
574,795563086,0.2651,0.9331,0.2212,8.41,4.51,6.59
575,795568087,0.2642,0.9321,0.2246,8.05,4.21,6.10
576,795573086,0.2637,0.9272,0.2134,7.80,3.78,5.67
577,795578085,0.2690,0.9307,0.2163,7.50,3.54,5.30
578,795583087,0.2729,0.9331,0.2114,7.32,2.99,4.88
579,795588462,0.2715,0.9355,0.2065,7.20,2.68,4.57
580,795593087,0.2744,0.9360,0.2104,7.32,2.13,4.15
581,795598085,0.2778,0.9351,0.2109,7.50,1.65,3.84
582,795603087,0.2769,0.9399,0.2129,7.99,1.40,3.48
583,795608087,0.2808,0.9478,0.2134,8.35,0.98,3.17
584,795613086,0.2769,0.9482,0.2153,9.02,0.55,2.80
585,795618087,0.2759,0.9458,0.2188,9.63,0.12,2.62
586,795623089,0.2749,0.9473,0.2202,10.06,-0.12,2.26
587,795628087,0.2686,0.9448,0.2065,10.49,-0.67,2.07
588,795633086,0.2715,0.9414,0.2095,10.61,-0.98,1.89
589,795638087,0.2681,0.9404,0.2153,10.73,-1.34,1.71
590,795643086,0.2744,0.9424,0.2173,10.55,-1.77,1.59
591,795648087,0.2759,0.9434,0.2124,10.12,-2.20,1.40
592,795653086,0.2798,0.9468,0.2065,9.82,-2.62,1.22
593,795658087,0.2837,0.9487,0.2026,9.15,-3.23,0.85
594,795663086,0.2866,0.9541,0.2051,8.41,-3.54,0.67
595,795668463,0.2920,0.9551,0.2021,7.68,-4.02,0.49
596,795673087,0.2939,0.9575,0.1997,6.95,-4.57,0.24
597,795678087,0.3018,0.9556,0.1982,6.34,-5.12,0.06
598,795683087,0.2993,0.9604,0.1992,5.79,-5.61,-0.30
599,795688086,0.3013,0.9663,0.2012,5.49,-6.04,-0.43
600,795693087,0.3037,0.9688,0.2012,5.18,-6.71,-0.73
601,795698087,0.2988,0.9692,0.2070,5.06,-7.20,-0.91
602,795703089,0.2983,0.9678,0.2012,5.06,-7.62,-1.16
603,795708087,0.2979,0.9697,0.1953,4.88,-8.11,-1.34
604,795713088,0.2935,0.9692,0.1914,5.00,-8.66,-1.46
605,795718087,0.2930,0.9668,0.1943,5.12,-9.27,-1.59
606,795723087,0.2925,0.9688,0.1978,5.37,-9.63,-1.65
607,795728087,0.2876,0.9634,0.1919,5.49,-10.00,-1.71
608,795733087,0.2881,0.9624,0.1914,5.85,-10.49,-1.83
609,795738087,0.2856,0.9634,0.1953,5.98,-10.98,-1.83
610,795743087,0.2817,0.9629,0.1895,6.28,-11.22,-1.77
611,795748087,0.2793,0.9619,0.1890,6.52,-11.71,-1.89
612,795753087,0.2822,0.9624,0.1919,6.83,-12.20,-1.77
613,795758087,0.2759,0.9575,0.1919,7.13,-12.50,-1.71
614,795763087,0.2715,0.9575,0.1914,7.26,-12.80,-1.65
615,795768087,0.2744,0.9585,0.1846,7.32,-13.17,-1.59
616,795773087,0.2700,0.9595,0.1821,7.44,-13.35,-1.59
617,795778087,0.2700,0.9590,0.1846,7.38,-13.72,-1.52
618,795783087,0.2681,0.9634,0.1797,7.50,-13.96,-1.46
619,795788087,0.2676,0.9551,0.1816,7.50,-14.27,-1.40
620,795793088,0.2651,0.9556,0.1836,7.44,-14.57,-1.28
621,795798085,0.2622,0.9580,0.1841,7.56,-14.76,-1.22
622,795803087,0.2651,0.9600,0.1792,7.50,-15.12,-1.10
623,795808087,0.2607,0.9590,0.1841,7.56,-15.18,-0.98
624,795813086,0.2549,0.9575,0.1846,7.68,-15.43,-0.98
625,795818087,0.2646,0.9600,0.1890,7.68,-15.55,-0.79
626,795823087,0.2607,0.9600,0.1899,7.80,-15.79,-0.67
627,795828087,0.2627,0.9624,0.1914,7.87,-15.79,-0.61
628,795833088,0.2563,0.9614,0.1924,8.11,-16.04,-0.49
629,795838087,0.2622,0.9634,0.1895,8.11,-16.22,-0.43
630,795843088,0.2671,0.9678,0.1890,8.05,-16.28,-0.37
631,795848087,0.2681,0.9663,0.1890,7.87,-16.46,-0.37
632,795853088,0.2734,0.9678,0.1812,7.62,-16.71,-0.37
633,795858087,0.2700,0.9707,0.1836,7.32,-16.89,-0.37
634,795863087,0.2764,0.9766,0.1865,6.95,-17.01,-0.43
635,795868087,0.2749,0.9766,0.1812,6.65,-17.20,-0.49
636,795873088,0.2734,0.9810,0.1846,6.28,-17.26,-0.55
637,795878087,0.2725,0.9814,0.1841,6.04,-17.32,-0.61
638,795883087,0.2754,0.9829,0.1821,5.61,-17.44,-0.73
639,795888087,0.2754,0.9839,0.1909,5.24,-17.50,-0.85
640,795893088,0.2773,0.9849,0.1919,4.88,-17.62,-1.10
641,795898086,0.2778,0.9888,0.1880,4.63,-17.62,-1.16
642,795903087,0.2817,0.9863,0.1870,4.27,-17.62,-1.28
643,795908087,0.2852,0.9893,0.1870,4.02,-17.56,-1.52
644,795913088,0.2778,0.9888,0.1812,3.72,-17.68,-1.65
645,795918087,0.2778,0.9854,0.1826,3.48,-17.62,-1.77
646,795923188,0.2759,0.9849,0.1831,3.11,-17.50,-1.95
647,795928087,0.2778,0.9907,0.1831,2.68,-17.56,-2.01
648,795933087,0.2749,0.9858,0.1851,2.50,-17.44,-2.20
649,795938087,0.2749,0.9844,0.1880,2.07,-17.32,-2.38
650,795943087,0.2710,0.9824,0.1860,1.71,-17.07,-2.50
651,795948087,0.2695,0.9819,0.1841,1.28,-17.20,-2.56
652,795953087,0.2681,0.9746,0.1768,0.79,-16.95,-2.68
653,795958087,0.2622,0.9800,0.1836,0.37,-16.89,-2.80
654,795963087,0.2681,0.9790,0.1846,-0.12,-16.71,-2.80
655,795968087,0.2695,0.9766,0.1777,-0.67,-16.46,-2.93
656,795973087,0.2671,0.9741,0.1777,-1.04,-16.40,-2.99
657,795978087,0.2690,0.9736,0.1758,-1.46,-16.22,-3.05
658,795983087,0.2666,0.9712,0.1743,-1.77,-16.04,-3.11
659,795988087,0.2656,0.9736,0.1797,-1.95,-15.91,-3.11
660,795993159,0.2676,0.9683,0.1729,-2.01,-15.73,-3.11
661,795998087,0.2607,0.9658,0.1709,-2.07,-15.49,-3.17
662,796003087,0.2651,0.9658,0.1733,-1.95,-15.37,-3.17
663,796008087,0.2656,0.9639,0.1733,-1.77,-15.18,-3.11
664,796013087,0.2642,0.9663,0.1753,-1.65,-15.00,-3.11
665,796018464,0.2642,0.9644,0.1768,-1.34,-14.88,-2.93
666,796023088,0.2676,0.9653,0.1787,-1.22,-14.70,-2.93
667,796028087,0.2661,0.9697,0.1689,-1.10,-14.51,-2.93
668,796033088,0.2666,0.9604,0.1670,-1.04,-14.45,-2.87
669,796038085,0.2671,0.9604,0.1714,-1.16,-14.33,-2.74
670,796043085,0.2695,0.9604,0.1699,-1.40,-14.15,-2.56
671,796048085,0.2686,0.9600,0.1650,-1.71,-13.96,-2.62
672,796053087,0.2661,0.9590,0.1699,-2.07,-13.84,-2.50
673,796058188,0.2710,0.9600,0.1689,-2.62,-13.84,-2.32
674,796063087,0.2700,0.9624,0.1670,-2.93,-13.72,-2.20
675,796068087,0.2637,0.9580,0.1714,-3.17,-13.54,-2.20
676,796073087,0.2710,0.9570,0.1675,-3.35,-13.48,-2.20
677,796078086,0.2720,0.9585,0.1567,-3.54,-13.35,-1.95
678,796083087,0.2715,0.9585,0.1650,-3.48,-13.17,-1.95
679,796088087,0.2734,0.9590,0.1606,-3.48,-13.23,-1.89
680,796093087,0.2788,0.9624,0.1587,-3.29,-13.05,-1.77
681,796098086,0.2783,0.9600,0.1597,-2.87,-12.99,-1.71
682,796103087,0.2827,0.9624,0.1655,-2.50,-12.87,-1.59
683,796108086,0.2769,0.9673,0.1616,-2.13,-12.74,-1.40
684,796113087,0.2734,0.9644,0.1665,-1.77,-12.62,-1.40
685,796118090,0.2710,0.9634,0.1641,-1.40,-12.44,-1.28
686,796123086,0.2695,0.9619,0.1626,-1.04,-12.38,-1.10
687,796128087,0.2705,0.9634,0.1641,-0.85,-12.32,-0.91
688,796133085,0.2700,0.9609,0.1582,-0.49,-12.26,-0.73
689,796138088,0.2690,0.9683,0.1611,-0.12,-12.20,-0.67
690,796143087,0.2646,0.9658,0.1602,0.00,-12.13,-0.49
691,796148087,0.2646,0.9648,0.1514,0.06,-12.01,-0.37
692,796153086,0.2656,0.9639,0.1528,0.12,-11.95,-0.12
693,796158087,0.2656,0.9658,0.1533,0.18,-11.77,-0.06
694,796163087,0.2642,0.9668,0.1606,0.37,-11.59,0.06
695,796168087,0.2642,0.9683,0.1553,0.43,-11.59,0.12
696,796173087,0.2666,0.9688,0.1562,0.55,-11.40,0.37
697,796178087,0.2632,0.9702,0.1582,0.67,-11.16,0.43
698,796183089,0.2646,0.9658,0.1621,0.91,-11.10,0.55
699,796188086,0.2632,0.9692,0.1562,1.10,-10.73,0.67
700,796193088,0.2607,0.9741,0.1621,1.22,-10.61,0.91
701,796198087,0.2646,0.9736,0.1616,1.34,-10.49,1.04
702,796203088,0.2642,0.9736,0.1597,1.40,-10.30,0.98
703,796208086,0.2603,0.9707,0.1602,1.46,-10.24,1.10
704,796213087,0.2568,0.9746,0.1636,1.34,-9.94,1.28
705,796218087,0.2554,0.9766,0.1621,1.28,-9.82,1.40
706,796223086,0.2573,0.9766,0.1587,1.10,-9.63,1.46
707,796228087,0.2603,0.9741,0.1567,1.04,-9.39,1.59
708,796233087,0.2593,0.9761,0.1562,0.73,-9.09,1.71
709,796238087,0.2549,0.9746,0.1582,0.55,-9.02,1.83
710,796243085,0.2534,0.9683,0.1606,0.30,-8.78,1.95
711,796248089,0.2510,0.9707,0.1509,0.06,-8.60,2.07
712,796253086,0.2524,0.9746,0.1577,-0.06,-8.41,2.26
713,796258085,0.2539,0.9800,0.1543,-0.24,-8.17,2.44
714,796263087,0.2544,0.9819,0.1611,-0.43,-8.23,2.68
715,796268087,0.2568,0.9780,0.1543,-0.37,-7.99,2.80
716,796273086,0.2578,0.9790,0.1611,-0.49,-7.80,2.93
717,796278087,0.2617,0.9800,0.1616,-0.24,-7.68,2.99
718,796283085,0.2588,0.9736,0.1577,-0.12,-7.56,3.17
719,796288085,0.2593,0.9756,0.1626,-0.12,-7.32,3.23
720,796293088,0.2583,0.9775,0.1587,0.18,-7.07,3.48
721,796298093,0.2666,0.9761,0.1558,0.24,-6.95,3.48
722,796303156,0.2661,0.9766,0.1538,0.43,-6.89,3.66
723,796308774,0.2646,0.9800,0.1567,0.73,-6.59,3.90
724,796313087,0.2661,0.9775,0.1509,0.98,-6.52,3.90
725,796318090,0.2646,0.9727,0.1641,1.22,-6.28,4.02
726,796323220,0.2666,0.9692,0.1562,1.59,-6.16,4.09
727,796328178,0.2651,0.9746,0.1572,1.83,-6.16,4.27
728,796333677,0.2607,0.9727,0.1528,2.13,-5.91,4.33
729,796338087,0.2612,0.9712,0.1616,2.32,-5.79,4.39
730,796343085,0.2583,0.9653,0.1587,2.56,-5.61,4.57
731,796348087,0.2578,0.9678,0.1587,2.80,-5.37,4.70
732,796353087,0.2627,0.9668,0.1606,2.99,-5.12,4.70
733,796358087,0.2646,0.9683,0.1582,3.17,-5.06,4.94
734,796363085,0.2632,0.9678,0.1665,3.23,-4.70,4.88
735,796368087,0.2607,0.9692,0.1650,3.54,-4.70,5.00
736,796373087,0.2617,0.9697,0.1665,3.72,-4.39,5.12
737,796378085,0.2681,0.9756,0.1665,4.02,-4.21,5.18
738,796383087,0.2651,0.9766,0.1577,4.45,-4.02,5.24
739,796388086,0.2676,0.9761,0.1626,4.82,-3.72,5.18
740,796393089,0.2690,0.9785,0.1636,5.24,-3.54,5.24
741,796398085,0.2695,0.9790,0.1636,5.67,-3.35,5.18
742,796403087,0.2686,0.9741,0.1699,6.04,-3.05,5.24
743,796408086,0.2661,0.9746,0.1694,6.34,-2.74,5.06
744,796413087,0.2676,0.9707,0.1733,6.34,-2.56,5.12
745,796418085,0.2651,0.9668,0.1680,6.34,-2.32,5.12
746,796423087,0.2612,0.9634,0.1699,6.16,-2.07,5.12
747,796428086,0.2627,0.9624,0.1665,5.85,-1.77,4.94
748,796433087,0.2593,0.9595,0.1709,5.49,-1.59,4.94
749,796438085,0.2627,0.9556,0.1655,5.00,-1.46,4.88
750,796443087,0.2632,0.9521,0.1641,4.45,-1.10,4.94
751,796448085,0.2593,0.9541,0.1709,3.90,-0.98,4.88
752,796453089,0.2656,0.9585,0.1655,3.54,-0.79,4.82
753,796458515,0.2715,0.9575,0.1665,3.17,-0.61,4.76
754,796463087,0.2749,0.9609,0.1675,2.80,-0.43,4.63
755,796468086,0.2754,0.9614,0.1704,2.68,-0.24,4.45
756,796473087,0.2827,0.9644,0.1758,2.87,-0.12,4.39
757,796478085,0.2837,0.9644,0.1675,3.05,-0.12,4.27
758,796483087,0.2852,0.9634,0.1729,3.41,0.06,4.15
759,796488703,0.2930,0.9653,0.1724,4.02,0.06,3.90
760,796493087,0.2935,0.9668,0.1812,4.51,0.00,3.72
761,796498141,0.2959,0.9707,0.1704,5.06,0.06,3.48
762,796503087,0.2959,0.9731,0.1680,5.61,0.24,3.23
763,796508086,0.3022,0.9722,0.1733,6.22,0.00,2.93
764,796513089,0.3013,0.9746,0.1836,6.77,0.00,2.56
765,796518325,0.3042,0.9746,0.1748,7.07,-0.06,2.32
766,796523089,0.3003,0.9785,0.1699,7.32,0.12,2.01
767,796528091,0.2969,0.9800,0.1743,7.50,-0.06,1.65
768,796533087,0.2959,0.9771,0.1802,7.68,-0.12,1.22
769,796538085,0.2993,0.9766,0.1689,7.62,-0.06,0.98
770,796543085,0.3018,0.9751,0.1763,7.62,-0.24,0.73
771,796548087,0.2979,0.9741,0.1772,7.50,-0.37,0.43
772,796553089,0.2925,0.9731,0.1816,7.26,-0.30,0.06
773,796558086,0.2915,0.9741,0.1821,7.01,-0.30,-0.18
774,796563087,0.2939,0.9741,0.1777,6.71,-0.43,-0.37
775,796568086,0.2891,0.9722,0.1782,6.40,-0.37,-0.55
776,796573089,0.2861,0.9741,0.1729,5.98,-0.55,-0.85
777,796578085,0.2852,0.9727,0.1768,5.61,-0.55,-0.98
778,796583085,0.2847,0.9712,0.1792,5.06,-0.67,-1.16
779,796588361,0.2812,0.9707,0.1719,4.51,-0.55,-1.28
780,796593087,0.2778,0.9702,0.1719,4.21,-0.67,-1.28
781,796598086,0.2744,0.9678,0.1753,3.78,-0.67,-1.40
782,796603087,0.2700,0.9658,0.1748,3.60,-0.73,-1.46
783,796608086,0.2651,0.9629,0.1704,3.29,-0.67,-1.46
784,796613087,0.2646,0.9639,0.1733,3.17,-0.73,-1.46
785,796618085,0.2627,0.9658,0.1738,3.11,-0.85,-1.40
786,796623087,0.2642,0.9648,0.1777,3.11,-0.67,-1.34
787,796628086,0.2642,0.9688,0.1743,2.99,-0.73,-1.22
788,796633087,0.2642,0.9663,0.1733,3.17,-0.79,-1.28
789,796638086,0.2642,0.9731,0.1738,3.35,-0.85,-1.22
790,796643087,0.2622,0.9761,0.1680,3.54,-0.79,-1.04
791,796648085,0.2642,0.9771,0.1733,3.72,-0.79,-1.04
792,796653144,0.2617,0.9834,0.1738,3.96,-0.73,-1.04
793,796658089,0.2646,0.9839,0.1724,4.15,-0.85,-0.98
794,796663086,0.2651,0.9834,0.1748,4.33,-0.91,-0.98
795,796668087,0.2646,0.9844,0.1797,4.45,-0.85,-0.98
796,796673087,0.2627,0.9873,0.1743,4.51,-0.79,-0.79
797,796678086,0.2642,0.9829,0.1836,4.63,-0.91,-0.91
798,796683087,0.2656,0.9893,0.1816,4.70,-0.91,-0.85
799,796688086,0.2617,0.9917,0.1831,4.63,-0.79,-0.73
800,796693089,0.2617,0.9883,0.1851,4.70,-0.79,-0.67
801,796698286,0.2603,0.9834,0.1831,4.57,-0.73,-0.55
802,796703587,0.2651,0.9844,0.1841,4.45,-0.85,-0.49
803,796708087,0.2598,0.9824,0.1831,4.02,-0.91,-0.37
804,796713086,0.2598,0.9800,0.1826,3.72,-0.98,-0.37
805,796718379,0.2583,0.9805,0.1812,3.29,-0.91,-0.24
806,796723089,0.2539,0.9824,0.1821,2.87,-1.04,-0.06
807,796728088,0.2559,0.9790,0.1768,2.44,-1.04,0.12
808,796733087,0.2554,0.9795,0.1797,2.01,-1.28,0.24
809,796738085,0.2520,0.9707,0.1812,1.34,-1.28,0.43
810,796743087,0.2520,0.9683,0.1821,0.67,-1.40,0.67
811,796748085,0.2471,0.9653,0.1836,0.06,-1.52,0.91
812,796753087,0.2456,0.9604,0.1768,-0.55,-1.65,1.16
813,796758087,0.2422,0.9541,0.1709,-1.10,-1.89,1.46
814,796763087,0.2393,0.9546,0.1660,-1.46,-2.01,1.89
815,796768086,0.2358,0.9482,0.1724,-1.89,-2.07,2.20
816,796773087,0.2329,0.9507,0.1709,-2.26,-2.26,2.68
817,796778086,0.2373,0.9502,0.1689,-2.44,-2.56,3.11
818,796783088,0.2354,0.9507,0.1675,-2.44,-2.62,3.60
819,796788087,0.2349,0.9546,0.1704,-2.38,-2.87,4.15
820,796793088,0.2368,0.9585,0.1665,-2.20,-3.17,4.51
821,796798087,0.2358,0.9619,0.1670,-1.89,-3.23,5.06
822,796803087,0.2407,0.9653,0.1641,-1.28,-3.41,5.61
823,796808087,0.2397,0.9663,0.1782,-0.73,-3.72,6.10
824,796813087,0.2407,0.9761,0.1763,0.06,-3.90,6.52
825,796818087,0.2441,0.9766,0.1753,0.73,-4.15,7.01
826,796823116,0.2515,0.9844,0.1738,1.40,-4.33,7.38
827,796828087,0.2529,0.9849,0.1782,2.07,-4.57,7.74
828,796833088,0.2529,0.9834,0.1758,2.56,-4.82,8.11
829,796838087,0.2529,0.9849,0.1743,2.93,-5.00,8.48
830,796843087,0.2559,0.9834,0.1738,3.05,-5.24,8.90
831,796848085,0.2573,0.9893,0.1753,2.99,-5.49,9.15
832,796853085,0.2603,0.9902,0.1743,2.62,-5.73,9.45
833,796858088,0.2656,0.9941,0.1846,2.44,-5.79,9.70
834,796863087,0.2627,0.9912,0.1802,2.13,-6.10,9.88
835,796868085,0.2632,0.9902,0.1860,1.77,-6.28,10.06
836,796873087,0.2710,0.9985,0.1909,1.46,-6.52,10.30
837,796878086,0.2661,0.9917,0.1929,0.98,-6.77,10.37
838,796883087,0.2671,0.9922,0.1802,0.67,-6.89,10.43
839,796888085,0.2661,0.9863,0.1880,0.12,-7.20,10.55
840,796893089,0.2720,0.9834,0.1865,-0.43,-7.38,10.67
841,796898086,0.2725,0.9868,0.1836,-0.91,-7.68,10.73
842,796903089,0.2710,0.9868,0.1816,-1.46,-7.87,10.85
843,796908085,0.2729,0.9844,0.1816,-1.77,-7.93,10.79
844,796913087,0.2729,0.9854,0.1821,-2.13,-8.29,10.73
845,796918086,0.2749,0.9805,0.1855,-2.32,-8.41,10.79
846,796923087,0.2769,0.9771,0.1855,-2.32,-8.66,10.85
847,796928085,0.2793,0.9731,0.1816,-2.50,-8.84,10.85
848,796933087,0.2803,0.9707,0.1812,-2.44,-9.02,10.67
849,796938090,0.2793,0.9722,0.1768,-2.62,-9.27,10.73
850,796943087,0.2812,0.9697,0.1782,-2.62,-9.51,10.61
851,796948086,0.2808,0.9697,0.1821,-2.56,-9.82,10.61
852,796953085,0.2871,0.9697,0.1802,-2.44,-10.00,10.49
853,796958090,0.2891,0.9756,0.1797,-2.26,-10.12,10.37
854,796963601,0.2905,0.9736,0.1724,-2.07,-10.49,10.30
855,796968088,0.2905,0.9731,0.1733,-1.65,-10.49,10.06
856,796973097,0.2871,0.9731,0.1768,-1.52,-10.61,9.88
857,796978087,0.2910,0.9717,0.1768,-1.34,-10.85,9.63
858,796983104,0.2930,0.9707,0.1792,-1.28,-10.98,9.51
859,796988087,0.2905,0.9688,0.1748,-1.28,-11.28,9.15
860,796993086,0.2964,0.9717,0.1777,-1.46,-11.28,8.84
861,796998085,0.2998,0.9731,0.1719,-1.59,-11.40,8.54
862,797003087,0.2974,0.9722,0.1689,-2.07,-11.59,8.17
863,797008086,0.2983,0.9756,0.1797,-2.32,-11.59,7.99
864,797013087,0.3052,0.9785,0.1816,-2.62,-11.71,7.56
865,797018200,0.3057,0.9814,0.1816,-2.99,-11.77,7.20
866,797023087,0.3062,0.9790,0.1821,-3.41,-11.83,6.71
867,797028086,0.3003,0.9834,0.1729,-3.84,-11.89,6.28
868,797033087,0.3003,0.9829,0.1772,-4.45,-11.83,5.91
869,797038086,0.3027,0.9780,0.1797,-4.94,-11.83,5.43
870,797043087,0.3027,0.9771,0.1802,-5.67,-11.77,5.00
871,797048087,0.3022,0.9727,0.1792,-6.28,-11.71,4.57
872,797053086,0.2993,0.9731,0.1787,-6.89,-11.65,4.21
873,797058085,0.3013,0.9727,0.1787,-7.38,-11.52,3.72
874,797063089,0.2993,0.9717,0.1797,-7.74,-11.52,3.41
875,797068086,0.2954,0.9702,0.1763,-8.17,-11.40,2.99
876,797073085,0.2983,0.9717,0.1782,-8.41,-11.46,2.50
877,797078087,0.2959,0.9653,0.1724,-8.66,-11.46,2.13
878,797083086,0.2944,0.9668,0.1729,-8.84,-11.22,1.89
879,797088087,0.2974,0.9663,0.1646,-8.72,-11.10,1.46
880,797093087,0.2954,0.9609,0.1699,-8.60,-11.10,1.28
881,797098087,0.2920,0.9614,0.1777,-8.41,-11.04,0.98
882,797103087,0.2954,0.9609,0.1743,-8.17,-10.98,0.73
883,797108087,0.2915,0.9629,0.1685,-7.80,-10.79,0.43
884,797113088,0.2925,0.9624,0.1709,-7.44,-10.73,0.18
885,797118089,0.2891,0.9595,0.1753,-7.01,-10.67,-0.06
886,797123089,0.2900,0.9600,0.1694,-6.71,-10.55,-0.49
887,797128088,0.2886,0.9624,0.1704,-6.40,-10.37,-0.67
888,797133086,0.2905,0.9604,0.1709,-6.16,-10.24,-0.98
889,797138085,0.2910,0.9663,0.1646,-6.04,-10.12,-1.28
890,797143087,0.2910,0.9668,0.1719,-5.91,-10.06,-1.52
891,797148087,0.2920,0.9658,0.1675,-5.91,-9.88,-1.83
892,797153087,0.2876,0.9658,0.1685,-6.22,-9.76,-2.07
893,797158085,0.2822,0.9653,0.1694,-6.46,-9.45,-2.44
894,797163087,0.2817,0.9702,0.1704,-6.65,-9.27,-2.62
895,797168087,0.2832,0.9629,0.1670,-7.20,-8.96,-2.80
896,797173086,0.2808,0.9619,0.1714,-7.62,-8.78,-3.05
897,797178087,0.2808,0.9663,0.1714,-8.17,-8.54,-3.29
898,797183086,0.2817,0.9668,0.1689,-8.84,-8.35,-3.41
899,797188598,0.2827,0.9609,0.1655,-9.39,-8.17,-3.48
900,797193089,0.2798,0.9648,0.1680,-10.06,-7.74,-3.72
901,797198087,0.2881,0.9702,0.1636,-10.73,-7.56,-3.84
902,797203088,0.2876,0.9707,0.1616,-11.46,-7.38,-3.96
903,797208441,0.2886,0.9653,0.1562,-12.07,-7.20,-4.15
904,797213087,0.2910,0.9756,0.1577,-12.68,-6.89,-4.27
905,797218087,0.2930,0.9810,0.1484,-13.11,-6.59,-4.33
906,797223085,0.2920,0.9814,0.1499,-13.72,-6.59,-4.51
907,797228088,0.2920,0.9834,0.1528,-14.21,-6.28,-4.45
908,797233087,0.2856,0.9883,0.1489,-14.63,-6.04,-4.70
909,797238087,0.2935,0.9854,0.1504,-15.12,-5.79,-4.76
910,797243086,0.2920,0.9932,0.1519,-15.61,-5.55,-4.82
911,797248087,0.2891,0.9902,0.1372,-16.04,-5.30,-4.94
912,797253086,0.2915,0.9941,0.1357,-16.59,-5.12,-5.06
913,797258085,0.2920,0.9976,0.1426,-17.13,-4.94,-5.06
914,797263085,0.2886,1.0034,0.1323,-17.68,-4.57,-5.18
915,797268089,0.2852,1.0049,0.1250,-18.48,-4.39,-5.24
916,797273086,0.2886,1.0073,0.1235,-19.09,-4.02,-5.30
917,797278087,0.2900,1.0093,0.1157,-19.82,-3.78,-5.30
918,797283086,0.2920,1.0132,0.1152,-20.61,-3.60,-5.37
919,797288087,0.2939,1.0146,0.1108,-21.46,-3.35,-5.49
920,797293086,0.2881,1.0151,0.1118,-22.20,-3.11,-5.49
921,797298087,0.2930,1.0132,0.1069,-22.99,-2.99,-5.61
922,797303087,0.2969,1.0151,0.0996,-23.84,-2.93,-5.61
923,797308087,0.2925,1.0132,0.0923,-24.51,-2.74,-5.67
924,797313087,0.2915,1.0132,0.0894,-25.24,-2.62,-5.67
925,797318088,0.2896,1.0117,0.0928,-25.79,-2.56,-5.67
926,797323087,0.2935,1.0093,0.0903,-26.28,-2.50,-5.61
927,797328087,0.2905,1.0073,0.0903,-26.52,-2.62,-5.61
928,797333087,0.2935,1.0024,0.0908,-26.65,-2.50,-5.55
929,797338086,0.2930,0.9990,0.0796,-26.52,-2.50,-5.37
930,797343087,0.2930,0.9976,0.0923,-26.10,-2.62,-5.30
931,797348090,0.2886,0.9966,0.0820,-25.73,-2.62,-5.06
932,797353086,0.2871,0.9937,0.0859,-25.18,-2.74,-4.94
933,797358085,0.2852,0.9888,0.0786,-24.51,-2.68,-4.63
934,797363085,0.2905,0.9834,0.0820,-23.90,-2.80,-4.45
935,797369578,0.2861,0.9800,0.0884,-22.93,-2.80,-4.21
936,797373088,0.2896,0.9766,0.0923,-22.20,-2.87,-4.09
937,797378085,0.2856,0.9668,0.0942,-21.59,-2.80,-3.78
938,797383101,0.2803,0.9600,0.0991,-20.61,-2.93,-3.41
939,797388087,0.2798,0.9580,0.0928,-20.00,-2.93,-3.05
940,797393087,0.2808,0.9541,0.0972,-19.27,-3.05,-2.80
941,797398087,0.2832,0.9497,0.0962,-18.48,-3.17,-2.38
942,797403087,0.2793,0.9502,0.1069,-17.87,-3.17,-2.13
943,797408086,0.2856,0.9478,0.1045,-17.26,-3.17,-1.71
944,797413085,0.2812,0.9424,0.1123,-16.77,-3.41,-1.40
945,797418085,0.2817,0.9395,0.1157,-16.34,-3.41,-1.16
946,797423087,0.2832,0.9380,0.1245,-15.79,-3.41,-0.91
947,797428087,0.2788,0.9355,0.1250,-15.30,-3.41,-0.55
948,797433087,0.2817,0.9272,0.1353,-14.88,-3.60,-0.24
949,797438613,0.2817,0.9263,0.1382,-14.33,-3.60,0.00
950,797443087,0.2798,0.9272,0.1416,-13.72,-3.72,0.24
951,797448171,0.2910,0.9243,0.1445,-13.29,-3.78,0.43
952,797453087,0.2876,0.9199,0.1465,-12.93,-3.72,0.67
953,797458086,0.2915,0.9268,0.1528,-12.68,-3.96,0.79
954,797463087,0.2964,0.9277,0.1577,-12.44,-3.96,0.91
955,797468087,0.2979,0.9282,0.1548,-12.38,-3.96,1.04
956,797473087,0.3018,0.9282,0.1606,-12.44,-4.15,1.10
957,797478086,0.3096,0.9341,0.1636,-12.62,-4.27,1.16
958,797483087,0.3096,0.9385,0.1655,-12.80,-4.57,1.16
959,797488089,0.3130,0.9419,0.1636,-13.23,-4.76,1.10
960,797493087,0.3188,0.9497,0.1660,-13.66,-5.06,1.10
961,797498088,0.3247,0.9517,0.1675,-14.15,-5.30,0.91
962,797503087,0.3281,0.9595,0.1753,-14.51,-5.61,0.73
963,797508087,0.3262,0.9683,0.1802,-14.94,-5.79,0.67
964,797513087,0.3301,0.9717,0.1772,-15.24,-5.98,0.49
965,797518086,0.3291,0.9741,0.1855,-15.55,-6.22,0.24
966,797523088,0.3267,0.9702,0.1953,-15.61,-6.52,0.06
967,797528087,0.3296,0.9780,0.1938,-15.79,-6.52,-0.12
968,797533087,0.3223,0.9775,0.1982,-15.98,-6.89,-0.37
969,797538087,0.3247,0.9810,0.1934,-16.40,-7.01,-0.37
970,797543087,0.3242,0.9771,0.2012,-16.89,-7.38,-0.61
971,797548086,0.3179,0.9756,0.2021,-17.44,-7.62,-0.61
972,797553087,0.3208,0.9766,0.1973,-18.17,-7.87,-0.79
973,797558087,0.3179,0.9712,0.1943,-19.09,-8.11,-0.85
974,797563087,0.3149,0.9727,0.1943,-20.12,-8.54,-0.91
975,797568085,0.3120,0.9722,0.2021,-21.40,-8.90,-0.98
976,797573215,0.3081,0.9692,0.2051,-22.87,-9.21,-0.91
977,797578087,0.3013,0.9653,0.2056,-24.57,-9.57,-1.04
978,797583086,0.2959,0.9653,0.2104,-26.16,-10.24,-0.98
979,797588087,0.2939,0.9600,0.2178,-27.80,-10.73,-1.10
980,797593086,0.2964,0.9609,0.2227,-29.39,-11.22,-1.16
981,797598087,0.2935,0.9644,0.2314,-30.98,-11.71,-1.28
982,797603086,0.2949,0.9614,0.2485,-32.26,-12.38,-1.46
983,797608087,0.2964,0.9526,0.2559,-33.41,-12.80,-1.77
984,797613086,0.2974,0.9424,0.2588,-34.33,-13.48,-2.13
985,797618087,0.2935,0.9380,0.2705,-34.82,-14.21,-2.38
986,797623086,0.2939,0.9370,0.2812,-35.18,-14.82,-2.74
987,797628087,0.2910,0.9321,0.2910,-35.37,-15.43,-3.11
988,797633086,0.2871,0.9268,0.2988,-35.43,-16.10,-3.54
989,797638087,0.2861,0.9238,0.3037,-35.55,-16.89,-4.02
990,797643424,0.2925,0.9268,0.3101,-35.55,-17.62,-4.63
991,797648087,0.2959,0.9336,0.3062,-35.73,-18.54,-5.12
992,797653086,0.3105,0.9443,0.3003,-35.73,-19.33,-5.73
993,797658087,0.3149,0.9619,0.2969,-35.79,-20.18,-6.59
994,797663086,0.3232,0.9771,0.2964,-35.73,-21.22,-7.26
995,797668087,0.3301,0.9858,0.3003,-35.61,-22.07,-8.11
996,797673086,0.3252,0.9922,0.3076,-35.49,-22.99,-8.84
997,797678087,0.3237,1.0000,0.3179,-35.30,-23.84,-9.57
998,797683087,0.3164,0.9985,0.3218,-35.30,-24.76,-10.18
999,797688087,0.3115,1.0015,0.3286,-35.37,-25.49,-10.85
1000,797693086,0.3096,1.0005,0.3291,-35.67,-26.22,-11.34
1001,797698087,0.3027,1.0010,0.3389,-36.28,-26.89,-11.77
1002,797703086,0.3057,1.0005,0.3457,-37.13,-27.38,-12.20
1003,797708087,0.3008,1.0015,0.3428,-38.05,-27.80,-12.50
1004,797713086,0.3003,1.0000,0.3457,-38.96,-28.23,-12.68
1005,797718087,0.2983,1.0088,0.3501,-40.18,-28.54,-12.80
1006,797723087,0.2925,1.0112,0.3560,-41.16,-28.96,-12.93
1007,797728089,0.2939,1.0181,0.3618,-42.01,-29.21,-12.93
1008,797733086,0.2896,1.0181,0.3652,-42.50,-29.27,-12.80
1009,797738088,0.2856,1.0269,0.3721,-42.62,-29.39,-12.56
1010,797743086,0.2803,1.0278,0.3818,-42.44,-29.15,-12.32
1011,797748087,0.2793,1.0332,0.3877,-41.89,-28.84,-11.95
1012,797753086,0.2754,1.0376,0.3945,-41.16,-28.66,-11.46
1013,797758089,0.2671,1.0386,0.4014,-40.24,-28.17,-10.85
1014,797763086,0.2661,1.0425,0.4038,-39.02,-27.50,-10.12
1015,797768087,0.2578,1.0410,0.4111,-37.62,-26.89,-9.39
1016,797773087,0.2544,1.0439,0.4160,-36.22,-26.04,-8.54
1017,797778087,0.2505,1.0444,0.4224,-34.63,-25.30,-7.62
1018,797783086,0.2783,1.0825,0.3887,-32.99,-24.45,-6.59
1019,797788332,0.2812,1.0527,0.4258,-30.79,-23.84,-5.73
1020,797793087,0.2568,1.0322,0.4658,-29.15,-22.99,-4.70
1021,797798087,0.2192,1.0298,0.4595,-27.80,-21.83,-3.48
1022,797803088,0.2266,1.0283,0.4419,-26.34,-20.61,-2.32
1023,797808086,0.2495,1.0210,0.4419,-24.94,-19.45,-1.16
1024,797813087,0.2681,1.0283,0.4380,-23.60,-18.29,0.12
1025,797818087,0.2661,1.0371,0.4482,-22.44,-16.89,1.34
1026,797823087,0.2510,1.0366,0.4653,-21.83,-15.67,2.50
1027,797828085,0.2510,1.0298,0.4658,-21.34,-14.15,3.72
1028,797833087,0.2588,1.0176,0.4683,-20.98,-12.62,4.94
1029,797838087,0.2725,1.0093,0.4688,-20.91,-10.98,6.40
1030,797843087,0.2705,1.0073,0.4697,-21.04,-9.45,7.68
1031,797848099,0.2666,1.0063,0.4688,-21.52,-7.93,9.09
1032,797853087,0.2651,1.0024,0.4653,-21.95,-6.34,10.43
1033,797858087,0.2710,0.9927,0.4692,-22.62,-4.57,11.77
1034,797863087,0.2773,0.9849,0.4683,-22.93,-2.99,13.05
1035,797868086,0.2842,0.9785,0.4717,-23.41,-1.40,14.57
1036,797873088,0.2803,0.9648,0.4756,-23.78,0.12,15.91
1037,797878087,0.2783,0.9526,0.4756,-24.21,1.95,17.32
1038,797883087,0.2773,0.9424,0.4805,-24.51,3.54,18.72
1039,797888086,0.2822,0.9341,0.4883,-24.51,5.18,20.18
1040,797893087,0.2861,0.9287,0.4937,-24.27,7.01,21.52
1041,797898087,0.2866,0.9194,0.5015,-23.54,8.78,22.93
1042,797903087,0.2905,0.9141,0.5005,-22.74,10.49,24.21
1043,797908086,0.2939,0.9009,0.5103,-21.52,12.13,25.49
1044,797913087,0.2959,0.8921,0.5151,-20.12,13.90,26.71
1045,797918087,0.2979,0.8872,0.5186,-18.54,15.61,27.87
1046,797923087,0.2959,0.8765,0.5210,-16.77,17.20,29.02
1047,797928086,0.2964,0.8706,0.5269,-15.00,18.84,30.12
1048,797933087,0.2983,0.8672,0.5273,-13.05,20.43,31.04
1049,797938087,0.3076,0.8574,0.5376,-11.28,21.89,31.95
1050,797943087,0.3081,0.8511,0.5454,-9.63,23.35,32.74
1051,797948086,0.3086,0.8423,0.5503,-7.87,24.88,33.54
1052,797953087,0.3105,0.8354,0.5513,-6.52,26.40,34.27
1053,797958087,0.3066,0.8252,0.5547,-5.30,27.68,34.88
1054,797963087,0.3037,0.8130,0.5615,-4.15,28.90,35.49
1055,797968086,0.3027,0.8027,0.5591,-3.41,30.30,36.10
1056,797973087,0.3013,0.7944,0.5684,-2.74,31.46,36.59
1057,797978085,0.2959,0.7856,0.5605,-2.26,32.62,37.01
1058,797983087,0.2896,0.7920,0.5566,-1.77,33.60,37.44
1059,797988087,0.2939,0.7935,0.5444,-1.16,34.27,37.38
1060,797993086,0.2959,0.7568,0.5679,-0.37,34.63,37.20
1061,797998087,0.2808,0.7451,0.5723,0.49,34.94,36.95
1062,798003086,0.2402,0.8154,0.4443,1.77,33.84,35.91
1063,798008087,0.2354,0.7100,0.4985,3.84,30.79,33.90
1064,798013089,0.2236,0.6265,0.5967,6.04,27.93,32.50
1065,798018087,0.1523,0.6538,0.6304,8.35,25.61,31.28
1066,798023086,0.0898,0.7080,0.6299,10.49,24.09,29.63
1067,798028087,0.0752,0.7354,0.6675,12.20,22.87,27.26
1068,798033087,0.0771,0.7290,0.6865,12.87,22.20,24.09
1069,798038087,0.0771,0.7207,0.6919,12.26,21.95,20.43
1070,798043086,0.0645,0.6982,0.6689,10.79,21.65,16.59
1071,798048086,0.0586,0.6919,0.6528,8.78,21.04,12.80
1072,798053087,0.0684,0.6797,0.6411,6.52,20.30,9.02
1073,798058465,0.0786,0.6753,0.6484,4.33,19.57,5.55
1074,798063087,0.0874,0.6660,0.6479,2.50,18.72,2.26
1075,798068087,0.0664,0.6338,0.6538,1.40,18.17,-0.55
1076,798073087,0.1274,0.5620,0.6411,0.79,17.74,-1.89
1077,798078086,0.1621,0.5962,0.6216,0.37,17.32,-2.44
1078,798083087,0.1680,0.6650,0.6240,0.61,16.71,-3.11
1079,798088087,0.1924,0.6826,0.6411,1.83,16.71,-4.15
1080,798093087,0.2085,0.6709,0.6597,3.41,16.71,-5.18
1081,798098086,0.2202,0.6685,0.6768,5.37,17.07,-6.22
1082,798103087,0.2212,0.6694,0.6704,7.32,17.13,-7.07
1083,798108087,0.2144,0.6841,0.6729,8.78,17.38,-7.99
1084,798113087,0.2114,0.6982,0.6772,9.94,17.56,-9.15
1085,798118088,0.2114,0.7114,0.6748,10.55,17.93,-10.43
1086,798123088,0.2134,0.7207,0.6836,10.73,18.35,-11.95
1087,798128087,0.2080,0.7300,0.6851,10.61,18.66,-13.60
1088,798133088,0.2007,0.7349,0.6914,10.24,18.96,-15.49
1089,798138086,0.1914,0.7412,0.6948,9.33,19.21,-17.38
1090,798143087,0.1899,0.7490,0.6885,8.17,19.45,-19.63
1091,798148087,0.1899,0.7588,0.6938,6.77,19.57,-21.77
1092,798153087,0.1895,0.7661,0.6929,5.37,19.76,-24.21
1093,798158135,0.1797,0.7881,0.7007,4.27,20.00,-26.59
1094,798163086,0.1665,0.8101,0.7056,3.72,20.12,-29.15
1095,798168087,0.1787,0.7993,0.7061,3.60,20.24,-31.71
1096,798173086,0.1953,0.7935,0.6841,4.15,20.12,-33.60
1097,798178087,0.1797,0.8047,0.6895,5.12,19.76,-35.55
1098,798183086,0.1899,0.8032,0.6875,6.59,19.33,-37.01
1099,798188088,0.1880,0.8130,0.6831,8.35,19.02,-38.17
1100,798193087,0.2041,0.8145,0.6787,10.30,18.54,-38.96
1101,798198138,0.2104,0.8228,0.6733,12.38,17.74,-39.51
1102,798203087,0.2065,0.8320,0.6689,14.51,17.13,-39.88
1103,798208087,0.2051,0.8350,0.6602,16.34,16.34,-40.00
1104,798213087,0.1973,0.8389,0.6538,17.87,15.43,-39.70
1105,798218086,0.1909,0.8408,0.6470,19.09,14.33,-39.27
1106,798223088,0.1787,0.8525,0.6421,20.00,13.48,-38.48
1107,798228152,0.1709,0.8696,0.6289,20.49,12.44,-37.50
1108,798233087,0.1685,0.8818,0.6245,20.91,11.34,-36.34
1109,798238087,0.1680,0.8931,0.6338,21.16,10.00,-35.06
1110,798243086,0.1602,0.8999,0.6260,21.04,8.60,-33.54
1111,798248087,0.1440,0.9146,0.6191,21.16,7.32,-31.83
1112,798253086,0.1401,0.9160,0.6167,21.10,5.73,-29.88
1113,798258113,0.1338,0.9238,0.6255,21.10,4.39,-27.93
1114,798263087,0.1187,0.9341,0.6235,21.22,3.05,-25.85
1115,798268087,0.1162,0.9351,0.6348,21.28,1.89,-23.78
1116,798273087,0.1113,0.9395,0.6372,21.28,0.73,-21.77
1117,798278086,0.1064,0.9473,0.6445,20.98,-0.37,-19.88
1118,798283088,0.1094,0.9595,0.6431,20.49,-1.34,-18.17
1119,798288087,0.1094,0.9614,0.6489,19.94,-2.32,-16.34
1120,798293087,0.1211,0.9712,0.6431,19.21,-3.29,-14.82
1121,798298086,0.1309,0.9683,0.6362,18.41,-4.33,-13.48
1122,798303087,0.1494,0.9717,0.6396,17.44,-5.43,-12.13
1123,798308087,0.1611,0.9702,0.6460,16.40,-6.52,-10.91
1124,798313087,0.1680,0.9697,0.6416,15.37,-7.38,-9.76
1125,798318086,0.1787,0.9707,0.6426,14.33,-8.41,-8.66
1126,798323087,0.1919,0.9663,0.6440,13.17,-9.33,-7.56
1127,798328087,0.1992,0.9639,0.6494,12.13,-9.94,-6.59
1128,798333087,0.2017,0.9575,0.6494,11.10,-10.79,-5.55
1129,798338086,0.2080,0.9570,0.6445,10.18,-11.46,-4.63
1130,798343087,0.2134,0.9507,0.6479,9.09,-12.07,-3.78
1131,798348087,0.2183,0.9517,0.6528,8.17,-12.56,-2.93
1132,798353087,0.2173,0.9487,0.6479,7.32,-12.99,-2.13
1133,798358085,0.2144,0.9487,0.6450,6.22,-13.54,-1.46
1134,798363086,0.2168,0.9443,0.6440,5.12,-13.90,-0.91
1135,798368389,0.2158,0.9507,0.6387,4.02,-14.27,-0.37
1136,798373087,0.2207,0.9438,0.6421,3.11,-14.76,0.12
1137,798378087,0.2168,0.9375,0.6377,2.13,-15.12,0.55
1138,798383086,0.2163,0.9248,0.6387,1.28,-15.55,0.98
1139,798388089,0.2163,0.9209,0.6309,0.49,-15.98,1.46
1140,798393090,0.2095,0.9136,0.6304,-0.30,-16.40,2.07
1141,798398087,0.2065,0.9033,0.6309,-1.10,-16.71,2.74
1142,798403086,0.2075,0.9009,0.6255,-1.71,-17.13,3.35
1143,798408087,0.2021,0.8970,0.6226,-2.56,-17.38,3.96
1144,798413086,0.2007,0.8931,0.6206,-3.23,-17.74,4.57
1145,798418087,0.2002,0.8882,0.6113,-4.15,-17.93,5.24
1146,798423086,0.1968,0.8872,0.6074,-5.00,-18.17,5.85
1147,798428087,0.1953,0.8857,0.5986,-5.91,-18.17,6.34
1148,798433133,0.1919,0.8867,0.6030,-6.89,-18.35,6.95
1149,798438087,0.1919,0.8906,0.6025,-7.68,-18.41,7.44
1150,798443098,0.1909,0.8843,0.5918,-8.66,-18.29,7.99
1151,798448087,0.1914,0.8911,0.5869,-9.39,-18.35,8.48
1152,798453086,0.2002,0.8965,0.5840,-10.06,-18.23,8.90
1153,798458086,0.1855,0.8911,0.5874,-10.79,-18.11,9.27
1154,798463087,0.1963,0.8989,0.5869,-11.28,-17.99,9.82
1155,798468086,0.1978,0.8950,0.5752,-11.77,-17.80,10.18
1156,798473088,0.2017,0.9023,0.5830,-12.38,-17.68,10.55
1157,798478087,0.2070,0.9077,0.5781,-12.74,-17.62,10.79
1158,798483087,0.2065,0.9062,0.5742,-13.35,-17.50,11.16
1159,798488087,0.2100,0.9136,0.5659,-13.84,-17.32,11.46
1160,798493087,0.2163,0.9175,0.5645,-14.51,-17.07,11.65
1161,798498087,0.2153,0.9233,0.5527,-15.24,-17.13,12.01
1162,798503697,0.2192,0.9263,0.5532,-15.98,-16.77,12.13
1163,798508298,0.2222,0.9341,0.5483,-16.59,-16.65,12.44
1164,798513087,0.2207,0.9385,0.5410,-17.07,-16.40,12.56
1165,798518087,0.2183,0.9453,0.5371,-17.44,-16.22,12.80
1166,798523087,0.2173,0.9517,0.5298,-17.56,-15.85,12.99
1167,798528090,0.2231,0.9663,0.5220,-17.50,-15.73,13.23
1168,798533086,0.2256,0.9805,0.5249,-17.13,-15.30,13.35
1169,798538085,0.2231,0.9927,0.5063,-16.46,-14.94,13.54
1170,798543087,0.2222,1.0024,0.5044,-15.43,-14.76,13.84
1171,798548087,0.2280,1.0073,0.5088,-14.15,-14.51,14.02
1172,798553087,0.2344,1.0176,0.4995,-12.38,-14.09,14.33
1173,798558087,0.2339,1.0229,0.5059,-10.49,-13.78,14.76
1174,798563086,0.2358,1.0225,0.5005,-8.41,-13.35,15.37
1175,798568522,0.2358,1.0200,0.5049,-6.34,-12.74,15.79
1176,798573087,0.2368,1.0186,0.4985,-4.39,-12.26,16.46
1177,798578087,0.2324,1.0112,0.4946,-2.80,-11.71,17.20
1178,798583087,0.2300,1.0044,0.4897,-1.34,-11.10,18.05
1179,798588085,0.2300,0.9956,0.4893,-0.73,-10.49,18.90
1180,798593087,0.2324,0.9834,0.4849,-0.61,-9.63,19.70
1181,798598087,0.2236,0.9697,0.4849,-1.04,-9.15,20.49
1182,798603087,0.2256,0.9609,0.4849,-2.07,-8.23,21.16
1183,798608086,0.2192,0.9512,0.4717,-3.78,-7.26,21.83
1184,798613087,0.2139,0.9312,0.4741,-5.98,-6.59,22.32
1185,798618087,0.2104,0.9204,0.4678,-8.41,-5.98,22.80
1186,798623087,0.2139,0.9072,0.4702,-11.22,-5.18,23.23
1187,798628086,0.2095,0.8872,0.4717,-14.15,-4.57,23.78
1188,798633087,0.2046,0.8818,0.4629,-16.95,-3.96,24.09
1189,798638087,0.2036,0.8706,0.4604,-19.33,-3.48,24.21
1190,798643087,0.1978,0.8594,0.4678,-21.40,-2.99,24.27
1191,798648086,0.1978,0.8457,0.4731,-23.17,-2.56,24.33
1192,798653088,0.2002,0.8359,0.4790,-24.51,-2.13,24.33
1193,798658087,0.2036,0.8267,0.4736,-25.43,-1.83,24.15
1194,798663087,0.2095,0.8252,0.4810,-26.04,-1.52,23.78
1195,798668086,0.2061,0.8218,0.4785,-26.22,-1.10,23.35
1196,798673087,0.2139,0.8120,0.4834,-26.16,-1.04,22.99
1197,798678087,0.2178,0.8115,0.4868,-25.85,-0.98,22.38
1198,798683087,0.2222,0.8066,0.4858,-25.18,-0.85,21.77
1199,798688086,0.2285,0.8071,0.4849,-24.39,-0.98,20.98
1200,798693087,0.2397,0.8110,0.4976,-23.41,-1.10,20.30
1201,798698085,0.2441,0.8081,0.4995,-22.32,-1.10,19.33
1202,798703089,0.2593,0.8188,0.5010,-21.10,-1.28,18.29
1203,798708087,0.2681,0.8169,0.4980,-19.82,-1.59,17.20
1204,798713087,0.2720,0.8237,0.5044,-18.48,-1.89,16.10
1205,798718086,0.2778,0.8237,0.5039,-17.07,-2.20,14.76
1206,798723088,0.2827,0.8320,0.5063,-15.61,-2.56,13.66
1207,798728086,0.2832,0.8340,0.5078,-14.15,-3.05,12.44
1208,798733087,0.2881,0.8379,0.5068,-12.74,-3.48,11.22
1209,798738087,0.2959,0.8403,0.5083,-11.22,-3.72,9.88
1210,798743087,0.3003,0.8433,0.5112,-9.82,-4.27,8.72
1211,798748086,0.3027,0.8442,0.5049,-8.41,-4.63,7.44
1212,798753087,0.3037,0.8496,0.5020,-7.13,-5.18,6.28
1213,798758087,0.3101,0.8555,0.4971,-5.67,-5.55,5.18
1214,798763088,0.3125,0.8604,0.4961,-4.33,-5.98,4.21
1215,798768087,0.3115,0.8618,0.4941,-3.05,-6.34,3.17
1216,798773089,0.3086,0.8638,0.4946,-2.01,-6.65,2.44
1217,798778086,0.3086,0.8696,0.4956,-0.79,-7.07,1.52
1218,798783087,0.3081,0.8682,0.4976,0.00,-7.50,0.85
1219,798788087,0.3022,0.8672,0.4971,0.91,-7.74,0.30
1220,798793088,0.3008,0.8682,0.4941,1.52,-8.23,-0.30
1221,798798085,0.3037,0.8706,0.4922,2.07,-8.41,-0.79
1222,798803085,0.2974,0.8726,0.4917,2.50,-8.72,-1.10
1223,798808747,0.2944,0.8696,0.4834,2.80,-8.96,-1.46
1224,798813087,0.2920,0.8701,0.4834,3.11,-9.27,-1.71
1225,798818087,0.2886,0.8735,0.4844,3.29,-9.57,-1.77
1226,798823087,0.2861,0.8735,0.4819,3.35,-9.76,-1.89
1227,798828086,0.2866,0.8706,0.4819,3.41,-10.06,-1.83
1228,798833087,0.2842,0.8716,0.4746,3.35,-10.18,-1.71
1229,798838336,0.2793,0.8696,0.4824,3.29,-10.55,-1.46
1230,798843087,0.2817,0.8696,0.4722,3.23,-10.61,-1.22
1231,798848147,0.2754,0.8711,0.4717,3.11,-10.85,-0.98
1232,798853085,0.2803,0.8745,0.4702,3.11,-11.10,-0.55
1233,798858087,0.2808,0.8794,0.4761,3.17,-11.10,-0.06
1234,798863086,0.2847,0.8804,0.4722,3.29,-11.28,0.24
1235,798868507,0.2852,0.8843,0.4785,3.35,-11.28,0.61
1236,798873087,0.2900,0.8828,0.4785,3.35,-11.16,0.98
1237,798878087,0.2920,0.8828,0.4800,3.60,-11.16,1.40
1238,798883087,0.2920,0.8853,0.4795,3.66,-11.04,1.83
1239,798888086,0.2954,0.8867,0.4800,3.90,-10.91,2.26
1240,798893087,0.2993,0.8916,0.4834,4.15,-10.79,2.56
1241,798898087,0.2998,0.8892,0.4839,4.39,-10.55,3.05
1242,798903087,0.3052,0.8921,0.4810,4.76,-10.18,3.41
1243,798908088,0.3086,0.8945,0.4849,5.18,-10.00,3.72
1244,798913087,0.3125,0.8931,0.4897,5.43,-9.82,3.90
1245,798918344,0.3140,0.8906,0.4917,5.91,-9.39,4.27
1246,798923087,0.3135,0.8965,0.4897,6.22,-9.02,4.51
1247,798928087,0.3120,0.8994,0.4946,6.52,-8.72,4.76
1248,798933088,0.3164,0.8960,0.4985,6.83,-8.35,4.88
1249,798938086,0.3188,0.8950,0.4980,7.07,-7.93,5.00
1250,798943087,0.3184,0.8896,0.5078,7.20,-7.56,5.00
1251,798948087,0.3164,0.8921,0.5034,7.38,-7.01,4.94
1252,798953087,0.3188,0.8896,0.4976,7.56,-6.59,5.12
1253,798958219,0.3184,0.8906,0.4995,7.56,-6.28,5.00
1254,798963087,0.3198,0.8867,0.5020,7.74,-5.73,4.88
1255,798968087,0.3213,0.8872,0.4956,7.93,-5.18,4.88
1256,798973087,0.3252,0.8872,0.5024,8.05,-4.82,4.88
1257,798978086,0.3218,0.8872,0.5054,8.23,-4.27,4.82
1258,798983087,0.3223,0.8887,0.5112,8.48,-3.66,4.76
1259,798988087,0.3218,0.8853,0.5078,8.72,-3.17,4.63
1260,798993087,0.3193,0.8882,0.5034,8.90,-2.56,4.57
1261,798998085,0.3223,0.8882,0.5049,9.15,-2.07,4.45
1262,799003085,0.3179,0.8799,0.5015,9.33,-1.59,4.39
1263,799008089,0.3188,0.8833,0.5054,9.51,-0.85,4.27
1264,799013086,0.3184,0.8774,0.5010,9.57,-0.61,4.21
1265,799018087,0.3174,0.8779,0.5044,9.70,-0.06,4.09
1266,799023086,0.3110,0.8770,0.5005,9.57,0.37,4.09
1267,799028087,0.3066,0.8730,0.5107,9.51,0.85,4.09
1268,799033086,0.3042,0.8735,0.5083,9.21,1.22,3.90
1269,799038087,0.3047,0.8726,0.5166,8.90,1.46,3.78
1270,799043086,0.3022,0.8677,0.5073,8.60,1.89,3.66
1271,799048087,0.3057,0.8652,0.5117,8.05,2.13,3.35
1272,799053094,0.3018,0.8638,0.5146,7.50,2.32,3.17
1273,799058085,0.2993,0.8643,0.5151,6.95,2.44,3.05
1274,799063090,0.2969,0.8633,0.5220,6.22,2.68,2.87
1275,799068089,0.2983,0.8672,0.5215,5.37,2.99,2.50
1276,799073209,0.2954,0.8608,0.5151,4.39,3.35,2.26
1277,799078087,0.2993,0.8628,0.5132,3.66,3.35,2.07
1278,799083087,0.2959,0.8579,0.5117,2.80,3.60,1.95
1279,799088087,0.2949,0.8569,0.5171,2.26,3.72,1.89
1280,799093086,0.2969,0.8647,0.5103,1.89,3.90,1.83
1281,799098087,0.2944,0.8667,0.5176,1.52,3.90,1.59
1282,799103085,0.2949,0.8623,0.5308,1.22,4.09,1.40
1283,799108086,0.2896,0.8652,0.5249,1.16,4.33,1.16
1284,799113087,0.2905,0.8613,0.5298,1.10,4.51,1.10
1285,799118090,0.2900,0.8550,0.5298,1.28,4.76,1.04
1286,799123087,0.2891,0.8545,0.5293,1.59,4.82,0.98
1287,799128088,0.2896,0.8550,0.5312,2.07,5.12,0.91
1288,799133088,0.2881,0.8594,0.5371,2.50,5.24,0.85
1289,799138087,0.2837,0.8599,0.5337,3.05,5.49,0.85
1290,799143087,0.2866,0.8574,0.5366,3.60,5.67,0.91
1291,799148087,0.2900,0.8608,0.5396,4.21,6.16,0.91
1292,799153088,0.2876,0.8594,0.5366,4.57,6.40,0.85
1293,799158087,0.2871,0.8628,0.5391,5.06,6.71,0.85
1294,799163087,0.2866,0.8662,0.5376,5.43,6.95,0.85
1295,799168087,0.2876,0.8677,0.5435,5.79,7.13,0.67
1296,799173087,0.2866,0.8711,0.5435,6.10,7.56,0.73
1297,799178085,0.2891,0.8706,0.5454,6.40,7.87,0.61
1298,799183087,0.2827,0.8750,0.5518,6.65,8.11,0.55
1299,799188088,0.2793,0.8730,0.5469,6.95,8.41,0.49
1300,799193087,0.2759,0.8730,0.5464,7.13,8.78,0.43
1301,799198088,0.2754,0.8730,0.5439,7.32,9.02,0.30
1302,799203087,0.2749,0.8740,0.5513,7.56,9.33,0.37
1303,799208085,0.2773,0.8765,0.5537,7.62,9.51,0.24
1304,799213087,0.2734,0.8774,0.5547,7.68,9.70,0.30
1305,799218087,0.2710,0.8809,0.5527,7.74,9.82,0.18
1306,799223087,0.2695,0.8794,0.5483,7.68,9.94,0.24
1307,799228088,0.2700,0.8799,0.5508,7.74,10.18,0.24
1308,799233087,0.2651,0.8799,0.5522,7.62,10.30,0.18
1309,799238085,0.2617,0.8813,0.5493,7.50,10.30,0.12
1310,799243087,0.2593,0.8813,0.5527,7.32,10.24,0.12
1311,799248118,0.2598,0.8809,0.5513,7.07,10.43,0.00
1312,799253087,0.2559,0.8838,0.5537,6.89,10.18,-0.12
1313,799258087,0.2524,0.8867,0.5439,6.77,10.12,-0.24
1314,799263087,0.2529,0.8896,0.5474,6.52,10.00,-0.37
1315,799268085,0.2534,0.8901,0.5508,6.34,9.82,-0.49
1316,799273088,0.2476,0.8877,0.5488,6.04,9.63,-0.67
1317,799278386,0.2456,0.8877,0.5508,5.91,9.39,-0.67
1318,799283087,0.2446,0.8857,0.5464,5.55,9.15,-0.85
1319,799288085,0.2427,0.8833,0.5474,5.30,8.84,-1.04
1320,799293087,0.2402,0.8838,0.5483,5.06,8.60,-1.04
1321,799298089,0.2363,0.8784,0.5493,5.00,8.29,-1.16
1322,799303086,0.2280,0.8843,0.5464,4.88,7.87,-1.22
1323,799308085,0.2295,0.8828,0.5522,4.70,7.62,-1.28
1324,799313334,0.2310,0.8838,0.5435,4.63,7.20,-1.40
1325,799318089,0.2310,0.8804,0.5449,4.70,6.83,-1.59
1326,799323086,0.2280,0.8813,0.5454,4.63,6.46,-1.71
1327,799328112,0.2310,0.8760,0.5439,4.76,5.98,-1.89
1328,799333086,0.2310,0.8730,0.5449,4.88,5.61,-1.95
1329,799338087,0.2339,0.8745,0.5415,4.88,5.12,-2.01
1330,799343086,0.2310,0.8706,0.5449,5.06,4.88,-2.01
1331,799348535,0.2329,0.8706,0.5425,5.18,4.45,-2.26
1332,799353087,0.2339,0.8774,0.5435,5.37,4.09,-2.20
1333,799358087,0.2417,0.8774,0.5430,5.55,3.78,-2.26
1334,799363146,0.2368,0.8745,0.5386,5.61,3.41,-2.38
1335,799368087,0.2412,0.8765,0.5332,5.67,3.11,-2.50
1336,799373088,0.2437,0.8755,0.5410,5.67,2.80,-2.56
1337,799378087,0.2422,0.8740,0.5405,5.61,2.56,-2.62
1338,799383142,0.2466,0.8809,0.5356,5.49,2.32,-2.68
1339,799388087,0.2466,0.8804,0.5405,5.30,2.01,-2.80
1340,799393088,0.2456,0.8799,0.5366,5.18,1.83,-2.80
1341,799398087,0.2490,0.8823,0.5444,4.94,1.59,-2.93
1342,799403087,0.2495,0.8809,0.5405,4.76,1.40,-2.87
1343,799408085,0.2524,0.8784,0.5430,4.57,1.34,-2.87
1344,799413085,0.2554,0.8838,0.5454,4.45,1.10,-2.93
1345,799418136,0.2563,0.8921,0.5410,4.39,1.10,-2.87
1346,799423088,0.2598,0.8901,0.5439,4.45,0.91,-2.74
1347,799428087,0.2627,0.8926,0.5430,4.63,0.91,-2.68
1348,799433087,0.2642,0.8931,0.5420,4.82,0.73,-2.62
1349,799438087,0.2646,0.8950,0.5469,5.18,0.91,-2.50
1350,799443087,0.2661,0.8970,0.5405,5.55,0.98,-2.20
1351,799448087,0.2666,0.8999,0.5430,6.04,0.91,-2.01
1352,799453088,0.2695,0.9033,0.5488,6.65,1.04,-1.83
1353,799458087,0.2744,0.9048,0.5498,7.20,1.16,-1.59
1354,799463087,0.2749,0.9082,0.5522,7.56,1.22,-1.34
1355,799468087,0.2764,0.9165,0.5469,7.87,1.40,-1.16
1356,799473088,0.2739,0.9155,0.5513,7.93,1.46,-0.85
1357,799478087,0.2788,0.9126,0.5513,7.74,1.71,-0.85
1358,799483088,0.2832,0.9087,0.5552,7.32,1.83,-0.85
1359,799488087,0.2788,0.9072,0.5513,6.77,2.07,-0.61
1360,799493088,0.2798,0.9058,0.5439,6.04,2.32,-0.30
1361,799498087,0.2798,0.9062,0.5459,5.37,2.44,-0.12
1362,799503087,0.2749,0.9033,0.5532,4.82,2.62,0.12
1363,799508183,0.2754,0.9062,0.5498,4.27,2.87,0.49
1364,799513087,0.2764,0.9038,0.5483,3.84,2.93,0.73
1365,799518088,0.2739,0.9038,0.5469,3.54,3.29,1.10
1366,799523088,0.2705,0.9043,0.5479,3.23,3.66,1.40
1367,799528087,0.2725,0.9028,0.5527,3.05,3.90,1.89
1368,799533088,0.2666,0.9009,0.5503,2.99,4.27,2.20
1369,799538439,0.2666,0.9023,0.5503,2.99,4.51,2.56
1370,799543089,0.2681,0.9019,0.5532,3.05,4.76,2.87
1371,799548087,0.2642,0.9023,0.5435,3.17,4.94,3.11
1372,799553087,0.2642,0.8979,0.5483,3.29,5.37,3.60
1373,799558108,0.2642,0.8994,0.5435,3.54,5.85,3.72
1374,799563088,0.2622,0.9028,0.5527,3.96,6.04,4.15
1375,799568087,0.2588,0.9043,0.5503,4.39,6.59,4.27
1376,799573087,0.2563,0.8989,0.5542,4.88,7.01,4.51
1377,799578086,0.2559,0.9004,0.5518,5.37,7.38,4.63
1378,799583087,0.2563,0.8975,0.5498,5.79,7.87,4.76
1379,799588086,0.2495,0.8896,0.5518,6.22,8.41,4.82
1380,799593086,0.2485,0.8916,0.5483,6.40,8.90,4.88
1381,799598089,0.2466,0.8877,0.5444,6.71,9.39,4.82
1382,799603086,0.2456,0.8857,0.5464,6.95,9.88,5.00
1383,799608087,0.2427,0.8823,0.5449,7.01,10.55,5.00
1384,799613086,0.2417,0.8799,0.5469,7.26,11.10,5.00
1385,799618087,0.2349,0.8789,0.5483,7.50,11.52,5.18
1386,799623086,0.2319,0.8818,0.5474,7.68,12.13,5.18
1387,799628087,0.2290,0.8833,0.5400,7.80,12.74,5.12
1388,799633086,0.2290,0.8823,0.5415,8.05,13.29,5.24
1389,799638085,0.2241,0.8779,0.5435,8.23,13.96,5.24
1390,799643087,0.2266,0.8774,0.5479,8.48,14.39,5.49
1391,799648086,0.2192,0.8750,0.5474,8.54,15.12,5.49
1392,799653087,0.2163,0.8706,0.5425,8.54,15.73,5.67
1393,799658088,0.2100,0.8701,0.5352,8.48,16.22,5.79
1394,799663087,0.2085,0.8628,0.5342,8.11,16.77,6.10
1395,799668086,0.2100,0.8618,0.5361,7.74,17.44,6.34
1396,799673088,0.2114,0.8623,0.5381,7.13,17.80,6.52
1397,799678087,0.2065,0.8662,0.5303,6.59,18.29,6.71
1398,799683087,0.2090,0.8687,0.5356,6.04,18.84,6.89
1399,799688085,0.2075,0.8682,0.5415,5.49,19.45,7.01
1400,799693086,0.2134,0.8662,0.5396,5.00,19.88,7.07
1401,799698089,0.2188,0.8647,0.5405,4.63,20.18,7.07
1402,799703086,0.2085,0.8667,0.5640,4.15,20.55,7.07
1403,799708087,0.2026,0.8726,0.5415,3.66,21.16,6.95
1404,799713086,0.2188,0.8760,0.5322,3.23,21.28,6.89
1405,799718087,0.2285,0.8726,0.5352,3.11,21.52,6.89
1406,799723086,0.2388,0.8774,0.5469,3.17,21.83,6.71
1407,799728087,0.2368,0.8789,0.5479,3.23,22.01,6.52
1408,799733086,0.2397,0.8843,0.5396,3.60,22.07,6.34
1409,799738087,0.2388,0.8921,0.5435,4.09,22.13,5.98
1410,799743086,0.2407,0.8921,0.5381,4.70,21.89,5.67
1411,799748087,0.2451,0.8877,0.5405,5.61,21.77,5.24
1412,799753086,0.2500,0.8843,0.5337,6.65,21.52,4.76
1413,799758087,0.2544,0.9028,0.5337,7.50,21.04,4.39
1414,799763086,0.3013,0.8774,0.5332,8.23,20.55,3.78
1415,799768087,0.3042,0.8755,0.5234,8.54,19.63,3.35
1416,799773087,0.2983,0.8755,0.5181,8.96,18.35,2.87
1417,799778087,0.3047,0.8813,0.5098,9.57,17.01,2.32
1418,799783086,0.3076,0.8735,0.5459,10.61,15.67,1.65
1419,799788086,0.3032,0.8691,0.5356,11.65,14.33,1.16
1420,799793085,0.2891,0.8672,0.5381,12.44,12.80,0.67
1421,799798089,0.2803,0.8740,0.5513,13.29,11.59,0.12
1422,799803086,0.2793,0.8774,0.5425,13.72,10.30,-0.37
1423,799808087,0.2729,0.8779,0.5342,13.66,9.09,-0.79
1424,799813086,0.2715,0.8823,0.5293,13.29,7.74,-1.28
1425,799818087,0.2749,0.8892,0.5254,12.56,6.40,-1.71
1426,799823086,0.2778,0.8887,0.5283,11.52,4.76,-2.13
1427,799828087,0.2744,0.8945,0.5229,10.43,3.48,-2.62
1428,799833086,0.2695,0.9004,0.5337,9.15,2.26,-3.17
1429,799838087,0.2627,0.9067,0.5239,8.05,1.04,-3.66
1430,799843086,0.2598,0.9131,0.5308,6.89,-0.12,-4.15
1431,799848087,0.2573,0.9150,0.5332,5.98,-1.28,-4.63
1432,799853086,0.2598,0.9146,0.5386,5.30,-2.26,-5.00
1433,799858087,0.2563,0.9194,0.5332,4.88,-3.17,-5.49
1434,799863087,0.2544,0.9233,0.5327,4.57,-4.15,-5.85
1435,799868087,0.2539,0.9282,0.5352,4.63,-4.82,-6.22
1436,799873086,0.2524,0.9282,0.5332,4.82,-5.67,-6.65
1437,799878087,0.2476,0.9272,0.5347,5.12,-6.34,-6.95
1438,799883087,0.2378,0.9268,0.5391,5.37,-6.95,-7.20
1439,799888088,0.2417,0.9287,0.5332,5.67,-7.62,-7.44
1440,799893086,0.2300,0.9209,0.5337,5.98,-8.17,-7.62
1441,799898085,0.2271,0.9155,0.5352,6.16,-8.78,-7.74
1442,799903087,0.2231,0.9126,0.5327,6.16,-9.15,-7.74
1443,799908088,0.2139,0.9067,0.5361,6.16,-9.63,-7.80
1444,799913087,0.2119,0.9033,0.5298,5.98,-10.12,-7.80
1445,799918086,0.2100,0.9009,0.5278,5.67,-10.49,-7.74
1446,799923087,0.2104,0.8955,0.5264,5.30,-10.91,-7.74
1447,799928087,0.2080,0.8970,0.5322,4.88,-11.34,-7.56
1448,799933087,0.2070,0.8926,0.5298,4.45,-11.65,-7.26
1449,799938085,0.2065,0.8901,0.5278,3.90,-11.89,-7.20
1450,799943087,0.2046,0.8853,0.5181,3.48,-12.38,-6.95
1451,799948087,0.2065,0.8877,0.5200,3.11,-12.80,-6.65
1452,799953087,0.2031,0.8872,0.5249,2.80,-13.11,-6.22
1453,799958086,0.2026,0.8916,0.5200,2.62,-13.48,-5.91
1454,799963087,0.2061,0.8882,0.5239,2.56,-13.78,-5.55
1455,799968488,0.2046,0.8877,0.5210,2.44,-14.27,-5.06
1456,799973088,0.2075,0.8882,0.5249,2.50,-14.51,-4.70
1457,799978086,0.2046,0.8906,0.5239,2.68,-14.88,-4.21
1458,799983087,0.2046,0.8970,0.5186,3.05,-15.30,-3.72
1459,799988088,0.2070,0.8965,0.5176,3.54,-15.79,-3.23
1460,799993087,0.2065,0.8970,0.5181,4.09,-16.04,-2.74
1461,799998085,0.2070,0.9019,0.5195,4.76,-16.40,-2.26
1462,800003088,0.2080,0.9048,0.5220,5.55,-16.89,-1.65
1463,800008087,0.2051,0.9067,0.5176,6.34,-17.13,-1.10
1464,800013087,0.1997,0.9092,0.5176,7.20,-17.38,-0.43
1465,800018085,0.2017,0.9165,0.5127,8.11,-17.74,0.06
1466,800023087,0.2021,0.9160,0.5132,9.21,-18.11,0.61
1467,800028088,0.1997,0.9165,0.5103,10.18,-18.54,1.22
1468,800033087,0.1968,0.9185,0.5093,11.16,-18.72,1.89
1469,800038086,0.1938,0.9209,0.5093,12.32,-18.90,2.44
1470,800043087,0.1899,0.9229,0.5122,13.23,-19.15,2.99
1471,800048087,0.1909,0.9238,0.5117,14.21,-19.33,3.60
1472,800053087,0.1895,0.9258,0.5063,15.06,-19.39,4.21
1473,800058086,0.1880,0.9346,0.5073,16.04,-19.57,4.88
1474,800063087,0.1875,0.9346,0.5044,16.77,-19.63,5.49
1475,800068087,0.1846,0.9399,0.5112,17.56,-19.88,6.10
1476,800073087,0.1851,0.9429,0.5044,18.29,-19.82,6.71
1477,800078086,0.1851,0.9443,0.5098,18.96,-19.82,7.32
1478,800083087,0.1895,0.9517,0.5122,19.51,-19.63,7.87
1479,800088087,0.1875,0.9517,0.5054,20.00,-19.63,8.48
1480,800093088,0.1846,0.9575,0.5034,20.43,-19.39,9.02
1481,800098085,0.1885,0.9609,0.5005,20.73,-19.33,9.57
1482,800103087,0.1855,0.9565,0.5029,20.91,-19.21,10.12
1483,800108089,0.1870,0.9585,0.5020,20.98,-19.15,10.67
1484,800113086,0.1890,0.9575,0.4932,20.91,-18.72,11.16
1485,800118089,0.1875,0.9556,0.5000,20.67,-18.54,11.77
1486,800123086,0.1899,0.9507,0.4990,20.43,-18.29,12.32
1487,800128087,0.1885,0.9526,0.4961,19.94,-18.05,12.87
1488,800133087,0.1875,0.9536,0.4961,19.63,-17.68,13.41
1489,800138087,0.1904,0.9468,0.4912,18.96,-17.38,13.84
1490,800143086,0.1924,0.9463,0.4927,18.29,-17.01,14.39
1491,800148087,0.1934,0.9482,0.4902,17.44,-16.59,14.88
1492,800153086,0.1992,0.9448,0.4829,16.77,-16.34,15.37
1493,800158087,0.1997,0.9453,0.4849,15.79,-15.91,15.85
1494,800163087,0.2012,0.9429,0.4780,14.94,-15.49,16.28
1495,800168087,0.2065,0.9438,0.4829,13.90,-14.94,16.77
1496,800173086,0.2109,0.9424,0.4849,13.05,-14.63,17.26
1497,800178087,0.2173,0.9434,0.4829,12.01,-14.15,17.56
1498,800183086,0.2192,0.9448,0.4751,11.22,-13.66,17.99
1499,800188088,0.2280,0.9429,0.4795,10.37,-13.29,18.35
1500,800193087,0.2300,0.9390,0.4785,9.63,-12.87,18.66
1501,800198087,0.2339,0.9360,0.4800,8.96,-12.44,19.09
1502,800203087,0.2363,0.9331,0.4761,8.35,-12.01,19.27
1503,800208087,0.2412,0.9341,0.4722,7.87,-11.52,19.63
1504,800213088,0.2422,0.9331,0.4683,7.32,-11.22,19.82
1505,800218086,0.2510,0.9292,0.4688,6.89,-10.67,20.06
1506,800223087,0.2549,0.9292,0.4673,6.46,-10.37,20.30
1507,800228087,0.2573,0.9277,0.4634,6.10,-9.94,20.49
1508,800233087,0.2617,0.9238,0.4604,5.91,-9.63,20.67
1509,800238085,0.2705,0.9170,0.4609,5.67,-9.09,20.79
1510,800243087,0.2710,0.9146,0.4600,5.55,-8.72,20.85
1511,800248087,0.2725,0.9150,0.4639,5.49,-8.29,20.85
1512,800253087,0.2793,0.9106,0.4595,5.49,-7.99,21.10
1513,800258090,0.2837,0.9043,0.4609,5.61,-7.56,21.28
1514,800263098,0.2856,0.8999,0.4644,5.85,-7.20,21.16
1515,800268087,0.2896,0.9033,0.4644,6.16,-6.77,21.22
1516,800273087,0.2910,0.8994,0.4688,6.34,-6.46,21.28
1517,800278087,0.2964,0.8979,0.4629,6.59,-6.10,21.22
1518,800283086,0.2993,0.8970,0.4678,7.01,-5.73,21.04
1519,800288085,0.3047,0.8921,0.4624,7.13,-5.37,21.04
1520,800293087,0.3037,0.8887,0.4614,7.32,-4.94,20.85
1521,800298088,0.3091,0.8887,0.4648,7.26,-4.63,20.61
1522,800303087,0.3096,0.8799,0.4624,7.26,-4.33,20.37
1523,800308086,0.3154,0.8823,0.4634,7.13,-3.78,20.06
1524,800313088,0.3179,0.8794,0.4600,6.95,-3.60,19.82
1525,800318087,0.3203,0.8745,0.4648,6.77,-3.17,19.57
1526,800323087,0.3315,0.8711,0.4614,6.52,-2.80,19.27
1527,800328086,0.3257,0.8696,0.4600,6.22,-2.50,18.78
1528,800333088,0.3306,0.8701,0.4604,5.98,-2.26,18.48
1529,800338087,0.3252,0.8687,0.4551,5.73,-2.07,18.05
1530,800343087,0.3296,0.8643,0.4556,5.49,-1.65,17.56
1531,800348086,0.3335,0.8633,0.4556,5.30,-1.40,17.07
1532,800353087,0.3345,0.8652,0.4595,5.24,-1.04,16.65
1533,800358087,0.3408,0.8677,0.4585,5.00,-0.79,16.04
1534,800363087,0.3364,0.8633,0.4565,5.06,-0.61,15.49
1535,800368085,0.3408,0.8647,0.4521,5.00,-0.18,14.94
1536,800373087,0.3442,0.8677,0.4575,5.00,-0.12,14.39
1537,800378086,0.3462,0.8682,0.4551,5.06,0.18,13.78
1538,800383085,0.3438,0.8657,0.4570,5.06,0.43,13.11
1539,800388085,0.3486,0.8677,0.4497,5.06,0.61,12.62
1540,800393087,0.3452,0.8647,0.4512,5.00,0.91,11.89
1541,800398087,0.3408,0.8613,0.4502,5.12,1.16,11.22
1542,800403087,0.3418,0.8643,0.4565,4.88,1.28,10.67
1543,800408088,0.3403,0.8599,0.4536,4.76,1.46,10.12
1544,800413088,0.3418,0.8589,0.4531,4.70,1.71,9.57
1545,800418087,0.3413,0.8569,0.4497,4.63,1.95,8.96
1546,800423087,0.3433,0.8628,0.4507,4.57,1.89,8.35
1547,800428090,0.3418,0.8579,0.4453,4.63,2.20,7.80
1548,800433087,0.3413,0.8652,0.4521,4.63,2.44,7.38
1549,800438087,0.3423,0.8638,0.4492,4.82,2.68,6.77
1550,800443087,0.3389,0.8618,0.4570,5.00,2.80,6.16
1551,800448087,0.3394,0.8647,0.4478,5.43,3.05,5.73
1552,800453087,0.3403,0.8633,0.4609,5.55,3.23,5.24
1553,800458087,0.3374,0.8613,0.4526,5.98,3.41,4.70
1554,800463087,0.3359,0.8638,0.4517,6.22,3.60,4.33
1555,800468087,0.3359,0.8613,0.4614,6.59,3.96,3.84
1556,800473088,0.3320,0.8623,0.4546,6.95,4.09,3.54
1557,800478087,0.3330,0.8618,0.4570,7.20,4.27,3.11
1558,800483086,0.3325,0.8652,0.4521,7.44,4.39,2.74
1559,800488088,0.3296,0.8657,0.4556,7.80,4.76,2.44
1560,800493086,0.3291,0.8687,0.4521,7.99,4.88,2.01
1561,800498087,0.3306,0.8726,0.4551,8.05,5.06,1.71
1562,800503086,0.3311,0.8740,0.4565,8.11,5.18,1.34
1563,800508087,0.3320,0.8789,0.4575,8.05,5.49,0.98
1564,800513086,0.3281,0.8813,0.4541,8.11,5.61,0.61
1565,800518087,0.3301,0.8848,0.4595,8.05,5.79,0.18
1566,800523087,0.3267,0.8862,0.4570,8.05,6.04,-0.24
1567,800528087,0.3281,0.8867,0.4561,7.87,6.16,-0.43
1568,800533086,0.3232,0.8887,0.4546,7.68,6.52,-0.85
1569,800538087,0.3228,0.8896,0.4556,7.44,6.59,-1.16
1570,800543086,0.3154,0.8882,0.4580,7.13,6.65,-1.28
1571,800548087,0.3140,0.8877,0.4575,6.95,6.71,-1.71
1572,800553089,0.3115,0.8843,0.4551,6.71,7.01,-1.77
1573,800558488,0.3076,0.8877,0.4556,6.46,7.07,-2.01
1574,800563089,0.3076,0.8906,0.4590,6.34,7.13,-2.07
1575,800568087,0.3071,0.8926,0.4531,6.28,7.50,-2.26
1576,800573087,0.3086,0.8975,0.4482,6.28,7.38,-2.32
1577,800578086,0.3076,0.8979,0.4502,6.40,7.50,-2.44
1578,800583087,0.3047,0.9019,0.4570,6.59,7.68,-2.50
1579,800588087,0.3042,0.8994,0.4575,6.77,7.80,-2.56
1580,800593117,0.3052,0.9062,0.4521,6.95,7.74,-2.74
1581,800598086,0.2988,0.9009,0.4580,7.32,7.93,-2.74
1582,800603088,0.2983,0.9087,0.4590,7.38,8.05,-2.80
1583,800608086,0.2974,0.9082,0.4590,7.50,8.11,-2.80
1584,800613087,0.2979,0.9067,0.4502,7.62,8.05,-2.80
1585,800618087,0.2974,0.9048,0.4473,7.62,8.23,-2.87
1586,800623087,0.2935,0.9082,0.4526,7.62,8.29,-2.80
1587,800628087,0.2954,0.9116,0.4497,7.68,8.48,-2.87
1588,800633086,0.2915,0.9116,0.4526,7.56,8.48,-2.74
1589,800638087,0.2954,0.9111,0.4512,7.44,8.48,-2.74
1590,800643086,0.2925,0.9116,0.4517,7.38,8.54,-2.80
1591,800648087,0.2900,0.9185,0.4531,7.32,8.54,-2.87
1592,800653086,0.2905,0.9165,0.4561,7.13,8.72,-2.80
1593,800658087,0.2925,0.9214,0.4531,7.07,8.60,-2.74
1594,800663086,0.2910,0.9194,0.4541,7.07,8.66,-2.74
1595,800668087,0.2905,0.9204,0.4487,6.83,8.66,-2.62
1596,800673086,0.2905,0.9194,0.4473,6.71,8.60,-2.56
1597,800678085,0.2925,0.9253,0.4482,6.65,8.66,-2.68
1598,800683085,0.2930,0.9185,0.4526,6.52,8.48,-2.56
1599,800688087,0.2939,0.9263,0.4561,6.52,8.60,-2.50
1600,800693086,0.2920,0.9297,0.4478,6.52,8.35,-2.38
1601,800698085,0.2891,0.9287,0.4487,6.52,8.48,-2.32
1602,800703087,0.2852,0.9282,0.4521,6.46,8.41,-2.20
1603,800708086,0.2817,0.9258,0.4497,6.34,8.29,-2.13
1604,800713087,0.2852,0.9272,0.4487,6.16,8.17,-1.95
1605,800718087,0.2842,0.9307,0.4536,6.04,8.17,-1.77
1606,800723087,0.2866,0.9297,0.4473,5.79,8.05,-1.71
1607,800728156,0.2856,0.9326,0.4424,5.61,7.87,-1.52
1608,800733087,0.2881,0.9287,0.4448,5.55,7.74,-1.34
1609,800738086,0.2842,0.9336,0.4473,5.43,7.68,-1.10
1610,800743087,0.2822,0.9321,0.4458,5.43,7.38,-0.91
1611,800748087,0.2856,0.9351,0.4502,5.55,7.20,-0.61
1612,800753087,0.2842,0.9375,0.4478,5.61,7.26,-0.37
1613,800758086,0.2896,0.9341,0.4497,5.79,7.07,-0.12
1614,800763087,0.2847,0.9331,0.4478,5.85,6.77,0.18
1615,800768086,0.2861,0.9385,0.4502,5.85,6.77,0.55
1616,800773087,0.2847,0.9380,0.4473,5.79,6.52,0.98
1617,800778086,0.2852,0.9399,0.4502,5.85,6.59,1.28
1618,800783087,0.2876,0.9399,0.4551,5.55,6.34,1.59
1619,800788086,0.2930,0.9395,0.4551,5.18,6.46,1.83
1620,800793087,0.2930,0.9375,0.4585,4.76,6.16,2.13
1621,800798086,0.2925,0.9370,0.4517,4.15,6.16,2.38
1622,800803087,0.2949,0.9375,0.4507,3.48,5.91,2.68
1623,800808087,0.2920,0.9341,0.4546,2.80,5.98,2.93
1624,800813086,0.2964,0.9316,0.4473,2.01,5.67,3.29
1625,800818085,0.2979,0.9331,0.4517,1.40,5.73,3.66
1626,800823087,0.3037,0.9321,0.4507,0.79,5.43,4.02
1627,800828087,0.2993,0.9297,0.4443,0.24,5.43,4.27
1628,800833087,0.3057,0.9326,0.4424,0.12,5.30,4.63
1629,800838087,0.3018,0.9321,0.4473,-0.06,5.06,5.06
1630,800843087,0.3042,0.9292,0.4453,0.24,4.94,5.43
1631,800848086,0.3062,0.9287,0.4468,0.61,4.82,5.73
1632,800853087,0.3042,0.9243,0.4434,1.22,4.82,6.28
1633,800858086,0.3091,0.9248,0.4463,1.95,4.70,6.59
1634,800863085,0.3076,0.9312,0.4482,2.80,4.76,7.01
1635,800868087,0.3091,0.9287,0.4497,3.66,4.82,7.44
1636,800873087,0.3071,0.9326,0.4463,4.39,4.88,7.80
1637,800878087,0.3125,0.9321,0.4531,5.12,4.94,8.23
1638,800883086,0.3164,0.9341,0.4468,5.91,4.94,8.41
1639,800888088,0.3179,0.9287,0.4512,6.34,5.18,8.66
1640,800893087,0.3145,0.9277,0.4443,6.89,5.37,9.15
1641,800898087,0.3149,0.9277,0.4473,7.13,5.55,9.33
1642,800903086,0.3130,0.9248,0.4468,7.56,5.73,9.63
1643,800908087,0.3140,0.9243,0.4482,7.93,5.91,9.94
1644,800913087,0.3052,0.9214,0.4536,8.23,6.22,10.12
1645,800918087,0.3047,0.9248,0.4419,8.72,6.52,10.43
1646,800923085,0.3081,0.9214,0.4507,9.15,6.77,10.61
1647,800928087,0.3110,0.9224,0.4517,9.88,7.20,10.91
1648,800933088,0.3091,0.9258,0.4565,10.30,7.68,11.04
1649,800938087,0.3052,0.9277,0.4546,10.98,7.99,11.16
1650,800943086,0.3076,0.9229,0.4580,11.40,8.66,11.22
1651,800948087,0.3062,0.9263,0.4614,11.95,9.09,11.28
1652,800953087,0.3042,0.9248,0.4595,12.20,9.57,11.40
1653,800958087,0.3066,0.9258,0.4575,12.50,10.24,11.34
1654,800963086,0.3047,0.9258,0.4585,12.62,10.91,11.34
1655,800968087,0.3037,0.9263,0.4570,12.44,11.46,11.16
1656,800973087,0.3008,0.9219,0.4580,12.07,12.13,11.04
1657,800978087,0.3003,0.9219,0.4541,11.40,12.62,10.85
1658,800983086,0.2974,0.9160,0.4614,10.55,13.23,10.67
1659,800988087,0.2993,0.9194,0.4619,9.45,13.84,10.43
1660,800993087,0.2983,0.9204,0.4663,8.05,14.51,10.24
1661,800998087,0.3018,0.9214,0.4648,6.65,15.12,10.00
1662,801003161,0.3032,0.9248,0.4634,5.06,15.91,9.76
1663,801008087,0.3076,0.9272,0.4648,3.48,16.28,9.27
1664,801013088,0.3086,0.9355,0.4707,1.83,17.01,8.96
1665,801018087,0.3091,0.9399,0.4697,0.06,17.56,8.54
1666,801023086,0.3120,0.9438,0.4653,-1.52,18.41,7.99
1667,801028088,0.3203,0.9546,0.4658,-3.17,18.90,7.44
1668,801033087,0.3188,0.9570,0.4702,-4.76,19.45,6.95
1669,801038087,0.3164,0.9619,0.4678,-6.10,20.06,6.34
1670,801043086,0.3198,0.9648,0.4697,-7.38,20.67,5.61
1671,801048087,0.3164,0.9648,0.4678,-8.48,21.16,5.00
1672,801053087,0.3164,0.9639,0.4751,-9.45,21.83,4.45
1673,801058088,0.3198,0.9600,0.4751,-10.30,22.32,3.84
1674,801063086,0.3179,0.9604,0.4692,-11.04,22.80,3.35
1675,801068087,0.3184,0.9634,0.4673,-11.34,23.29,2.87
1676,801073087,0.3125,0.9668,0.4741,-11.52,23.78,2.38
1677,801078087,0.3135,0.9648,0.4741,-11.40,24.15,1.83
1678,801083086,0.3125,0.9653,0.4780,-11.16,24.51,1.52
1679,801088087,0.3115,0.9624,0.4731,-10.67,25.12,1.04
1680,801093087,0.3130,0.9580,0.4683,-10.12,25.55,0.79
1681,801098087,0.3164,0.9600,0.4673,-9.63,25.79,0.43
1682,801103085,0.3130,0.9556,0.4746,-9.15,26.16,0.12
1683,801108087,0.3125,0.9546,0.4678,-8.66,26.52,-0.37
1684,801113087,0.3110,0.9497,0.4692,-8.11,26.83,-0.67
1685,801118089,0.3066,0.9521,0.4629,-7.74,27.20,-0.98
1686,801123086,0.3096,0.9546,0.4595,-7.13,27.32,-1.28
1687,801128087,0.3081,0.9541,0.4629,-6.52,27.56,-1.59
1688,801133088,0.3052,0.9512,0.4595,-5.85,27.74,-1.83
1689,801138087,0.3081,0.9517,0.4570,-4.88,28.11,-2.07
1690,801143086,0.3032,0.9448,0.4570,-3.78,28.29,-2.20
1691,801148087,0.2998,0.9409,0.4556,-2.44,28.35,-2.44
1692,801153087,0.2964,0.9331,0.4517,-1.04,28.60,-2.56
1693,801158088,0.2856,0.9282,0.4531,0.49,28.84,-2.62
1694,801163086,0.2759,0.9175,0.4551,2.26,29.02,-2.62
1695,801168175,0.2690,0.9141,0.4536,4.21,29.27,-2.44
1696,801173087,0.2563,0.9072,0.4536,6.04,29.45,-2.32
1697,801178088,0.2534,0.8989,0.4609,7.99,29.82,-2.07
1698,801183086,0.2461,0.8960,0.4590,9.70,30.06,-2.07
1699,801188087,0.2397,0.8887,0.4570,11.40,30.18,-1.83
1700,801193087,0.2402,0.8818,0.4595,12.93,30.43,-1.59
1701,801198088,0.2393,0.8799,0.4575,14.09,30.61,-1.40
1702,801203086,0.2378,0.8789,0.4551,14.88,30.85,-1.34
1703,801208087,0.2402,0.8745,0.4463,15.30,30.91,-1.22
1704,801213087,0.2378,0.8784,0.4434,15.30,31.10,-1.16
1705,801218088,0.2456,0.8765,0.4346,14.88,31.16,-1.22
1706,801223086,0.2490,0.8809,0.4272,14.09,31.28,-1.28
1707,801228088,0.2690,0.8804,0.3276,13.17,30.61,-1.28
1708,801233087,0.3364,0.8638,0.0737,14.02,26.34,-1.16
1709,801238087,0.3267,0.8384,0.3535,14.82,21.77,-1.40
1710,801243086,0.3218,0.8008,0.4272,15.30,19.27,-1.52
1711,801248087,0.3032,0.8066,0.1367,17.07,13.78,-1.34
1712,801253086,0.2993,0.7524,0.2241,20.18,6.77,-0.67
1713,801258085,0.2666,0.7588,0.4004,24.02,1.22,0.37
1714,801263086,0.2065,0.7974,0.4194,28.78,-3.48,1.40
1715,801268088,0.1768,0.8364,0.4370,33.72,-7.20,1.52
1716,801273416,0.1611,0.8721,0.5283,38.29,-9.21,1.22
1717,801278087,0.1401,0.9087,0.5903,42.13,-9.70,0.37
1718,801283087,0.1436,0.9380,0.5361,45.12,-9.94,-1.10
1719,801288087,0.1582,0.9590,0.4858,46.83,-10.43,-2.93
1720,801293086,0.1719,0.9512,0.4961,47.26,-10.91,-4.94
1721,801298088,0.1860,0.9316,0.4976,46.71,-11.34,-7.07
1722,801303086,0.2056,0.8999,0.4517,45.85,-12.01,-8.48
1723,801308085,0.2109,0.8833,0.4238,44.88,-12.74,-9.02
1724,801313085,0.2061,0.8926,0.4229,43.96,-13.23,-8.66
1725,801318087,0.2329,0.7358,0.4692,43.29,-13.29,-6.71
1726,801323086,0.2241,0.8345,0.4009,42.56,-12.44,-2.13
1727,801328085,0.1479,0.9312,0.3188,42.87,-12.13,1.83
1728,801333087,0.1816,0.8716,0.3599,43.90,-12.38,6.28
1729,801338087,0.1680,0.9165,0.3047,44.82,-12.38,11.10
1730,801343085,0.1729,0.9448,0.2998,45.73,-12.93,15.73
1731,801348087,0.1797,1.0083,0.3169,46.52,-13.90,19.63
1732,801353087,0.2046,1.0732,0.3623,46.65,-15.00,22.13
1733,801358085,0.2412,1.1045,0.3906,45.61,-15.85,23.11
1734,801363086,0.2749,1.1074,0.3970,43.23,-16.95,23.23
1735,801368088,0.3003,1.1001,0.3882,39.76,-18.78,22.93
1736,801373086,0.3213,1.0840,0.3989,35.49,-21.40,22.68
1737,801378086,0.3418,1.0645,0.4146,30.43,-24.27,22.80
1738,801383089,0.3628,1.0596,0.4116,25.00,-27.38,22.93
1739,801388086,0.4014,1.0732,0.4229,19.27,-30.67,23.48
1740,801393087,0.4253,1.0732,0.4272,13.35,-33.48,24.39
1741,801398086,0.4463,1.0640,0.4302,7.62,-36.16,25.37
1742,801403087,0.4590,1.0713,0.4341,1.89,-38.54,26.52
1743,801408086,0.4453,1.0820,0.4180,-3.41,-40.61,27.80
1744,801413085,0.4443,1.0981,0.4102,-8.41,-42.56,28.72
1745,801418090,0.4458,1.1025,0.3989,-12.99,-44.45,29.57
1746,801423087,0.4482,1.0942,0.4043,-17.20,-46.28,30.24
1747,801428088,0.4741,1.0869,0.3975,-21.04,-48.05,30.67
1748,801433087,0.5103,1.0825,0.3965,-24.27,-49.70,30.91
1749,801438088,0.5454,1.0938,0.3955,-27.01,-51.34,30.55
1750,801443087,0.5801,1.1128,0.4028,-28.96,-53.23,29.76
1751,801448098,0.5918,1.1167,0.4067,-30.18,-54.94,28.48
1752,801453087,0.5791,1.0938,0.4282,-30.24,-56.52,27.32
1753,801458087,0.5586,1.0762,0.4385,-29.21,-57.62,26.46
1754,801463164,0.5459,1.0674,0.4297,-27.13,-58.78,25.98
1755,801468086,0.5425,1.0679,0.4141,-24.39,-60.00,25.67
1756,801473087,0.5405,1.0718,0.4053,-20.79,-61.22,25.73
1757,801478086,0.5469,1.0605,0.3965,-16.46,-62.62,25.79
1758,801483087,0.5376,1.0361,0.4033,-10.98,-64.02,26.28
1759,801488086,0.5674,1.0190,0.4058,-4.63,-65.24,26.95
1760,801493087,0.5898,0.9663,0.5547,3.54,-66.34,27.93
1761,801498086,0.5435,0.9780,0.5112,14.76,-67.07,28.96
1762,801503087,0.5146,1.0088,0.4097,27.13,-68.60,30.12
1763,801508086,0.5103,1.0088,0.4194,39.39,-70.00,31.28
1764,801513085,0.5225,0.9956,0.4194,51.59,-71.04,32.87
1765,801518087,0.5762,0.9658,0.3774,63.41,-72.38,34.57
1766,801523087,0.5503,0.9487,0.3604,73.90,-73.78,36.34
1767,801528088,0.5210,0.9434,0.3564,83.11,-75.18,37.99
1768,801533085,0.5308,0.9292,0.3315,91.04,-76.46,39.51
1769,801538087,0.5283,0.9106,0.2905,97.80,-77.80,40.91
1770,801543495,0.5112,0.8711,0.3037,103.48,-78.66,42.32
1771,801548092,0.5112,0.8691,0.2583,107.74,-79.63,43.84
1772,801553087,0.5132,0.8706,0.2344,110.30,-80.55,44.88
1773,801558088,0.5068,0.8315,0.2383,111.40,-81.59,46.10
1774,801563088,0.4956,0.8203,0.1919,111.22,-82.44,47.44
1775,801568088,0.4839,0.8301,0.1694,109.82,-83.48,48.60
1776,801573087,0.4712,0.8130,0.1631,107.01,-84.02,49.39
1777,801578087,0.4570,0.7998,0.1304,103.05,-84.82,50.43
1778,801583087,0.4478,0.7881,0.0923,97.62,-85.79,51.28
1779,801588088,0.4434,0.7749,0.0811,91.16,-86.71,52.01
1780,801593087,0.4365,0.7681,0.0659,84.02,-87.80,52.62
1781,801598087,0.4287,0.7583,0.0444,76.40,-88.78,53.17
1782,801603140,0.4717,0.7202,0.0869,68.66,-89.70,53.48
1783,801608088,0.5264,0.7441,0.0669,59.76,-90.00,53.72
1784,801613087,0.4673,0.7671,0.0864,50.24,-91.10,53.29
1785,801618087,0.4502,0.7393,0.1279,41.04,-92.07,52.93
1786,801623087,0.4766,0.7295,0.0879,32.93,-92.56,52.87
1787,801628087,0.4937,0.7466,0.0674,25.73,-93.11,52.74
1788,801633309,0.4839,0.7676,0.0874,19.88,-93.84,52.50
1789,801638087,0.4863,0.7847,0.0869,15.43,-93.84,52.38
1790,801643087,0.5068,0.8003,0.0771,12.44,-94.45,52.13
1791,801648088,0.5200,0.8237,0.0845,10.73,-94.63,51.95
1792,801653087,0.5312,0.8369,0.0889,10.06,-94.63,51.65
1793,801658087,0.5464,0.8496,0.0688,10.43,-94.76,51.22
1794,801663087,0.5581,0.8667,0.0537,11.52,-95.00,50.91
1795,801668088,0.5596,0.8789,0.0415,13.29,-94.94,50.61
1796,801673087,0.5581,0.8921,0.0273,15.43,-94.94,50.55
1797,801678087,0.5527,0.8994,0.0190,18.05,-94.57,50.37
1798,801683138,0.5469,0.9082,0.0117,20.79,-94.21,50.61
1799,801688087,0.5405,0.9180,0.0029,23.66,-94.09,50.73
1800,801693087,0.5376,0.9233,-0.0088,26.46,-93.54,51.10
1801,801698087,0.5249,0.9277,-0.0132,28.96,-92.80,51.52
1802,801703087,0.5107,0.9316,-0.0146,30.91,-92.68,52.07
1803,801708087,0.5098,0.9316,-0.0234,32.68,-92.26,52.50
1804,801713112,0.5088,0.9287,-0.0269,33.96,-91.40,53.11
1805,801718087,0.5293,0.9229,-0.0327,35.06,-90.91,53.72
1806,801723088,0.5435,0.9233,-0.0312,36.04,-90.30,54.09
1807,801728087,0.5645,0.9316,-0.0244,37.13,-89.39,54.51
1808,801733087,0.6011,0.9243,-0.0249,38.29,-88.29,54.88
1809,801738087,0.5845,0.9375,-0.0361,39.09,-87.13,55.18
1810,801743087,0.5542,0.9399,-0.0347,40.18,-85.67,55.43
1811,801748088,0.5356,0.9375,-0.0366,41.10,-84.09,55.73
1812,801753087,0.5151,0.9355,-0.0332,41.83,-82.01,56.10
1813,801758088,0.4990,0.9287,-0.0430,42.50,-79.94,56.46
1814,801763085,0.4922,0.9229,-0.0571,42.80,-78.11,56.95
1815,801768085,0.4878,0.9189,-0.0674,42.74,-75.85,57.62
1816,801773087,0.4927,0.9121,-0.0732,42.44,-74.02,58.11
1817,801778088,0.5103,0.9131,-0.0752,42.13,-72.01,58.48
1818,801783087,0.5132,0.9307,-0.0776,42.01,-69.88,58.78
1819,801788087,0.4365,1.0254,-0.0459,42.13,-67.80,58.72
1820,801793087,0.5142,0.9341,-0.0820,42.93,-65.79,59.15
1821,801798087,0.5532,0.9941,-0.1011,43.84,-64.09,59.39
1822,801803087,0.6021,0.9043,-0.1069,45.30,-62.26,59.82
1823,801808088,0.5625,0.9624,-0.1216,47.56,-60.55,59.94
1824,801813087,0.5566,0.9399,-0.1323,50.49,-58.78,59.63
1825,801818087,0.5801,0.9604,-0.1318,54.21,-56.71,59.39
1826,801823085,0.6040,0.9653,-0.1445,57.74,-54.63,58.72
1827,801828087,0.6450,0.9365,-0.2065,61.28,-52.62,58.23
1828,801833089,0.6631,0.9453,-0.2314,65.06,-50.85,57.80
1829,801838086,0.6729,0.9468,-0.2271,69.09,-48.84,57.20
1830,801843115,0.6763,0.9487,-0.2368,73.29,-46.71,56.71
1831,801848087,0.6914,0.9438,-0.2603,77.20,-44.33,55.98
1832,801853336,0.7061,0.9297,-0.2861,80.85,-41.77,55.55
1833,801858148,0.7104,0.9307,-0.2881,84.21,-39.33,55.06
1834,801863086,0.7183,0.9106,-0.2944,87.20,-36.46,54.63
1835,801868085,0.7363,0.8887,-0.2788,89.94,-33.48,54.33
1836,801873198,0.7397,0.8794,-0.2881,92.20,-30.43,53.90
1837,801878085,0.7339,0.8794,-0.3047,93.84,-27.13,53.54
1838,801883087,0.7520,0.8687,-0.3110,95.43,-24.09,53.35
1839,801888088,0.7744,0.8652,-0.3086,96.71,-20.67,53.41
1840,801893087,0.7974,0.8672,-0.3198,97.87,-17.13,53.35
1841,801898087,0.8081,0.8657,-0.3306,98.54,-13.66,53.48
1842,801903085,0.8101,0.8540,-0.3438,98.84,-10.43,53.78
1843,801908087,0.7925,0.8457,-0.3501,98.78,-7.07,54.15
1844,801913087,0.7725,0.8281,-0.3633,98.17,-3.66,54.45
1845,801918085,0.7568,0.8105,-0.3745,97.38,-0.30,55.18
1846,801923087,0.7334,0.7988,-0.3799,96.34,2.99,55.91
1847,801928089,0.7207,0.7920,-0.3882,95.55,6.34,56.77
1848,801933087,0.7065,0.7910,-0.4038,95.30,9.88,57.62
1849,801938087,0.6904,0.7949,-0.4194,95.37,13.23,58.60
1850,801943085,0.6836,0.8062,-0.4453,96.16,16.65,59.76
1851,801948087,0.6987,0.8071,-0.4639,97.87,20.06,61.04
1852,801953089,0.6934,0.8032,-0.4526,101.10,23.84,62.56
1853,801958086,0.6523,0.8140,-0.4966,105.24,27.68,63.84
1854,801963087,0.6138,0.7881,-0.4775,109.70,31.77,65.55
1855,801968086,0.6343,0.7710,-0.4888,114.39,36.16,67.26
1856,801973087,0.6582,0.7495,-0.5039,119.82,40.37,68.84
1857,801978087,0.6499,0.7041,-0.4907,125.79,44.88,70.43
1858,801983087,0.6152,0.7246,-0.5264,131.22,49.70,71.65
1859,801988086,0.5942,0.6636,-0.5581,136.52,54.09,72.68
1860,801993087,0.6079,0.6514,-0.5366,140.91,58.78,73.78
1861,801998086,0.6392,0.6592,-0.5586,145.06,63.66,74.45
1862,802003087,0.6387,0.6631,-0.5586,148.78,68.54,74.88
1863,802008086,0.6211,0.6392,-0.6187,151.83,73.60,74.94
1864,802013087,0.6304,0.6157,-0.6465,154.21,78.41,75.00
1865,802018086,0.6382,0.5923,-0.6470,156.28,82.99,75.30
1866,802023087,0.6138,0.6230,-0.6362,158.35,87.20,75.12
1867,802028087,0.5928,0.6074,-0.6772,160.00,92.87,74.76
1868,802033087,0.5938,0.5835,-0.6743,161.10,97.80,74.27
1869,802038086,0.5913,0.5547,-0.6841,161.65,102.62,73.54
1870,802043105,0.5825,0.5278,-0.6987,161.59,107.38,72.68
1871,802048087,0.5762,0.5098,-0.6880,160.91,111.95,71.83
1872,802053087,0.5776,0.4912,-0.6929,159.63,116.34,70.73
1873,802058086,0.5747,0.4604,-0.6953,157.56,120.37,69.51
1874,802063087,0.5791,0.4404,-0.6738,154.94,124.21,68.17
1875,802068086,0.5781,0.4307,-0.6665,151.89,127.80,66.52
1876,802073087,0.5820,0.4097,-0.6543,148.48,131.04,64.76
1877,802078087,0.5908,0.3940,-0.6274,144.51,134.33,62.80
1878,802083087,0.5977,0.3794,-0.6084,140.18,137.44,60.79
1879,802088086,0.6187,0.3618,-0.5981,135.55,140.30,58.84
1880,802093087,0.6147,0.3770,-0.5645,130.61,143.05,56.83
1881,802098086,0.6113,0.3643,-0.5630,125.18,145.85,54.45
1882,802103087,0.6196,0.3486,-0.5542,118.60,148.11,52.32
1883,802108086,0.6270,0.3340,-0.5464,111.59,150.18,50.12
1884,802113087,0.6172,0.3247,-0.5371,104.57,151.65,48.48
1885,802118087,0.6113,0.3145,-0.4897,97.32,153.05,47.01
1886,802123087,0.5977,0.2891,-0.4731,90.30,154.45,45.61
1887,802128087,0.6040,0.2666,-0.4668,83.96,155.43,44.70
1888,802133085,0.6074,0.3188,-0.4321,78.41,156.40,44.02
1889,802138087,0.6323,0.2534,-0.4673,74.09,156.52,43.78
1890,802143086,0.6597,0.2734,-0.3672,70.98,156.71,43.54
1891,802148086,0.6636,0.2866,-0.3325,68.78,157.13,43.29
1892,802153087,0.6504,0.3042,-0.3823,67.50,157.32,42.74
1893,802158087,0.6274,0.2656,-0.4863,65.85,156.52,42.32
1894,802163087,0.6675,0.3047,-0.4009,62.99,155.79,41.71
1895,802168086,0.6836,0.2510,-0.4038,59.57,155.37,41.34
1896,802173085,0.7427,0.3613,-0.2979,55.37,155.12,40.73
1897,802178087,0.7363,0.3755,-0.3198,51.40,155.30,39.51
1898,802183087,0.6978,0.3779,-0.3213,48.05,155.12,38.29
1899,802188088,0.6484,0.3477,-0.2964,45.30,154.70,37.32
1900,802193087,0.6162,0.3428,-0.3027,43.05,153.90,36.71
1901,802198088,0.5815,0.3286,-0.3149,41.52,152.87,36.65
1902,802203085,0.5542,0.3472,-0.2637,40.79,152.07,36.77
1903,802208412,0.5264,0.3359,-0.2368,40.00,150.98,37.44
1904,802213089,0.5444,0.3789,-0.2422,40.12,149.70,37.80
1905,802218086,0.5674,0.3813,-0.2407,40.43,148.35,38.17
1906,802223087,0.6460,0.3833,-0.2852,41.95,146.04,38.23
1907,802228086,0.6748,0.4902,-0.2832,44.21,142.38,37.13
1908,802233085,0.7485,0.4873,-0.1279,47.87,138.90,34.57
1909,802238641,0.8516,0.3716,-0.0381,52.80,136.89,32.68
1910,802243089,0.9409,0.3149,0.0054,58.72,135.91,32.26
1911,802248086,0.9644,0.3184,-0.0161,65.98,134.88,32.01
1912,802253087,0.9434,0.3081,-0.0923,74.88,133.05,31.59
1913,802258087,0.9053,0.3301,-0.0967,85.73,131.04,31.16
1914,802263087,0.8848,0.3320,-0.0537,98.60,129.51,30.61
1915,802268086,0.8770,0.3384,-0.0771,110.18,128.48,30.06
1916,802273085,0.8716,0.3555,-0.1001,125.55,127.07,29.21
1917,802278087,0.8706,0.3599,-0.0845,145.37,125.49,27.87
1918,802283086,0.8647,0.3682,-0.0596,161.65,124.45,26.52
1919,802288087,0.8535,0.3711,-0.0566,177.01,123.48,24.76
1920,802293089,0.8477,0.3657,-0.0674,191.28,122.26,22.80
1921,802298086,0.8364,0.3613,-0.0518,201.65,121.28,20.91
1922,802303087,0.8223,0.3501,-0.0596,215.73,119.57,18.05
1923,802308086,0.8169,0.3447,-0.0679,223.78,118.54,16.04
1924,802313087,0.8145,0.3491,-0.0620,233.90,117.01,12.99
1925,802318086,0.8120,0.3540,-0.0605,239.21,116.10,10.73
1926,802323153,0.8042,0.3574,-0.0742,244.76,114.88,7.26
1927,802328087,0.7905,0.3594,-0.0825,246.77,113.90,4.76
1928,802333087,0.7666,0.3706,-0.0840,247.13,112.68,0.98
1929,802338086,0.7456,0.3701,-0.0664,245.73,112.13,-1.34
1930,802343400,0.7119,0.3848,-0.0718,241.59,111.34,-5.18
1931,802348087,0.6890,0.3828,-0.0605,237.50,110.79,-7.68
1932,802353086,0.6694,0.3916,-0.0459,231.40,110.24,-10.61
1933,802358087,0.6440,0.3975,-0.0454,223.11,109.88,-13.90
1934,802363088,0.6245,0.4058,-0.0420,217.44,109.63,-16.10
1935,802368087,0.5903,0.4141,-0.0381,209.02,109.57,-19.15
1936,802373087,0.5684,0.4189,-0.0420,203.84,109.39,-21.22
1937,802378087,0.5562,0.4141,-0.0283,198.35,109.51,-23.60
1938,802383085,0.5449,0.4106,-0.0186,193.90,109.82,-25.91
1939,802388143,0.5229,0.4087,-0.0210,190.30,110.37,-28.66
1940,802393088,0.5054,0.4126,-0.0166,189.02,110.73,-30.24
1941,802398087,0.4883,0.4121,-0.0103,188.54,111.46,-32.38
1942,802403087,0.4717,0.4082,-0.0049,189.09,112.13,-34.57
1943,802408087,0.4629,0.4150,-0.0039,190.43,112.87,-36.95
1944,802413087,0.4526,0.4150,-0.0103,191.95,113.54,-39.33
1945,802418087,0.4492,0.4141,0.0005,193.54,114.02,-41.83
1946,802423087,0.4375,0.4219,0.0063,194.63,114.63,-44.39
1947,802428087,0.4326,0.4282,0.0151,195.00,114.88,-47.20
1948,802433087,0.4238,0.4253,0.0195,194.39,115.18,-50.00
1949,802438087,0.4189,0.4287,0.0322,192.50,115.30,-53.48
1950,802443087,0.4121,0.4287,0.0366,190.61,115.12,-55.79
1951,802448094,0.3999,0.4331,0.0474,187.20,115.06,-59.27
1952,802453085,0.3931,0.4272,0.0640,184.82,114.94,-61.52
1953,802458087,0.3828,0.4331,0.0786,181.89,114.39,-64.27
1954,802463087,0.3726,0.4272,0.0820,179.27,114.15,-66.95
1955,802468086,0.3599,0.4287,0.0791,177.26,113.48,-69.45
1956,802473087,0.3481,0.4287,0.0854,176.22,112.87,-71.95
1957,802478086,0.3389,0.4341,0.0874,176.28,112.01,-74.45
1958,802483085,0.3296,0.4375,0.0952,177.62,111.04,-77.01
1959,802488085,0.3125,0.4419,0.0923,179.82,110.12,-79.57
1960,802493089,0.2759,0.4497,0.1108,183.23,108.78,-82.74
1961,802498086,0.2568,0.4556,0.1265,185.73,107.80,-84.94
1962,802503085,0.2373,0.4507,0.1328,188.11,106.71,-87.56
1963,802508087,0.2046,0.4497,0.1484,189.39,105.30,-90.79
1964,802513087,0.1948,0.4609,0.1509,188.60,104.09,-93.54
1965,802518086,0.1899,0.4697,0.1509,186.89,102.99,-95.91
1966,802523087,0.1904,0.4756,0.1553,182.50,101.16,-99.76
1967,802528086,0.1841,0.4741,0.1587,179.21,100.06,-102.44
1968,802533085,0.1812,0.4751,0.1670,174.76,98.72,-105.67
1969,802538085,0.1938,0.4814,0.1597,170.24,97.32,-109.02
1970,802543090,0.1724,0.4834,0.1104,165.24,95.30,-112.99
1971,802548086,0.1582,0.5088,0.1582,162.50,94.15,-115.49
1972,802553086,0.1460,0.5288,0.1616,160.00,92.80,-118.78
1973,802559648,0.1543,0.5342,0.1606,157.56,91.28,-123.23
1974,802563087,0.1826,0.5356,0.1138,156.59,90.37,-125.06
1975,802568090,0.1323,0.5288,0.1699,154.15,88.72,-128.54
1976,802573087,0.1147,0.5337,0.1094,153.23,85.85,-130.91
1977,802578086,0.0430,0.5278,0.1162,153.54,85.12,-132.44
1978,802583085,0.0381,0.5786,0.1870,154.02,85.06,-134.57
1979,802588085,0.1572,0.6143,0.0947,154.88,82.74,-136.83
1980,802593089,0.1392,0.6206,0.1895,158.05,80.24,-138.78
1981,802598086,0.1230,0.6182,0.1348,160.79,78.84,-140.00
1982,802603087,0.0415,0.7036,0.1533,165.18,76.65,-142.32
1983,802608086,0.0122,0.7319,0.1709,168.41,75.43,-144.33
1984,802613087,-0.0015,0.7769,0.1406,172.93,72.74,-148.17
1985,802618086,0.0283,0.8296,0.1045,175.73,70.73,-151.16
1986,802623087,0.0928,0.8438,0.0928,179.15,67.26,-155.85
1987,802628086,0.1270,0.8296,0.0923,180.67,64.76,-158.72
1988,802633087,0.1421,0.8159,0.0601,181.95,60.18,-162.38
1989,802638086,0.1372,0.7935,0.0654,182.50,56.83,-164.39
1990,802643087,0.1060,0.7935,0.0840,183.05,52.20,-166.89
1991,802648086,0.0684,0.7954,0.0874,183.29,49.15,-168.41
1992,802653088,-0.0020,0.7949,0.0552,184.09,44.57,-169.88
1993,802658086,-0.0020,0.8047,0.0630,185.37,41.46,-170.79
1994,802663087,-0.0288,0.8320,0.0811,188.54,36.65,-171.77
1995,802668086,-0.0400,0.8291,0.0981,190.98,33.66,-172.44
1996,802673087,-0.0068,0.8496,0.1255,194.33,29.39,-173.48
1997,802678086,-0.1558,0.8794,0.1436,195.91,26.46,-174.15
1998,802683087,-0.2134,0.9556,0.1343,196.10,22.13,-175.91
1999,802688086,-0.2046,0.9194,0.1006,194.27,19.21,-177.07
2000,802693087,-0.1816,0.8677,0.0068,191.10,14.57,-177.50
2001,802698089,-0.1426,0.9297,-0.0386,187.99,7.93,-177.07
2002,802703086,-0.1548,0.9907,-0.0044,186.28,3.29,-176.71
2003,802708580,-0.2339,1.0332,0.0098,184.09,-3.90,-175.98
2004,802713087,-0.3096,1.0610,0.0156,183.05,-10.18,-175.12
2005,802718086,-0.3384,1.0728,0.0801,182.93,-15.06,-174.15
2006,802723087,-0.3901,1.1021,0.0410,183.72,-22.44,-172.87
2007,802728086,-0.4546,1.1157,0.1025,184.57,-27.56,-171.71
2008,802733089,-0.4897,1.1133,0.0957,185.98,-35.30,-169.76
2009,802738086,-0.4785,1.1196,0.0820,187.87,-40.67,-168.29
2010,802743085,-0.4937,1.1284,0.0928,191.46,-47.38,-166.40
2011,802748087,-0.5278,1.1533,0.1284,196.71,-55.30,-164.02
2012,802753087,-0.5332,1.1514,0.1416,201.71,-61.59,-162.13
2013,802758086,-0.5229,1.1719,0.1030,206.16,-66.89,-160.49
2014,802763485,-0.4878,1.2075,0.0791,213.60,-74.82,-158.11
2015,802768087,-0.4829,1.2349,0.0908,218.72,-80.06,-156.52
2016,802773087,-0.4854,1.2505,0.0752,226.40,-87.99,-154.27
2017,802778157,-0.4922,1.2637,0.0547,232.20,-94.51,-152.13
2018,802783087,-0.5210,1.2754,0.0356,237.32,-100.91,-149.63
2019,802788087,-0.5405,1.2886,0.0342,240.85,-106.04,-147.38
2020,802793286,-0.5854,1.3066,0.0205,244.70,-113.72,-143.66
2021,802798087,-0.6343,1.3115,-0.0073,246.34,-120.06,-140.00
2022,802803088,-0.6909,1.3086,-0.0322,246.40,-126.28,-135.85
2023,802808087,-0.7188,1.3188,-0.0425,245.30,-131.10,-132.20
2024,802813087,-0.7373,1.3364,-0.0776,241.46,-138.35,-126.22
2025,802818087,-0.7603,1.3467,-0.0996,237.50,-143.11,-122.07
2026,802823087,-0.7812,1.3643,-0.1289,231.34,-148.90,-116.71
2027,802828087,-0.8096,1.3701,-0.1797,222.38,-155.67,-109.88
2028,802833087,-0.8228,1.3799,-0.1919,215.67,-160.24,-105.06
2029,802838087,-0.8345,1.3950,-0.2056,206.77,-165.43,-98.90
2030,802843087,-0.8525,1.3955,-0.2197,197.01,-170.37,-92.68
2031,802848087,-0.8521,1.3823,-0.2231,187.20,-174.94,-86.16
2032,802853087,-0.8691,1.3774,-0.2280,177.26,-179.27,-79.39
2033,802858087,-0.8975,1.3652,-0.2339,167.56,-183.11,-72.44
2034,802863087,-0.9258,1.3423,-0.2378,155.98,-187.26,-63.66
2035,802868086,-0.9390,1.3242,-0.2344,148.48,-189.76,-57.62
2036,802873087,-0.9429,1.3076,-0.2573,139.70,-192.87,-49.82
2037,802878086,-0.9658,1.2832,-0.2690,131.77,-195.73,-41.95
2038,802883087,-0.9639,1.2773,-0.2974,124.63,-198.72,-33.78
2039,802888086,-0.9829,1.2588,-0.3242,118.66,-202.01,-25.67
2040,802893085,-0.9878,1.2383,-0.3423,114.02,-205.37,-17.26
2041,802898087,-0.9941,1.2148,-0.3569,110.49,-209.39,-7.07
2042,802903087,-1.0103,1.2065,-0.3765,109.63,-212.99,1.59
2043,802908087,-1.0303,1.1846,-0.3789,110.12,-215.98,8.54
2044,802913085,-1.0488,1.1592,-0.3921,112.62,-220.61,19.21
2045,802918087,-1.0684,1.1357,-0.3960,115.37,-223.66,26.40
2046,802923087,-1.0840,1.1152,-0.3872,120.00,-227.56,35.55
2047,802928087,-1.1133,1.0898,-0.3789,125.67,-231.46,44.70
2048,802933087,-1.1431,1.0635,-0.3745,131.28,-235.43,54.02
2049,802938087,-1.1777,1.0366,-0.3696,137.20,-239.33,63.41
2050,802943087,-1.2197,1.0132,-0.3726,142.87,-243.54,72.80
2051,802948087,-1.2603,0.9731,-0.3735,148.05,-247.68,82.68
2052,802953087,-1.3125,0.9727,-0.3906,152.68,-252.26,91.89
2053,802958087,-1.3193,0.9448,-0.3789,156.65,-256.83,101.28
2054,802963086,-1.3521,0.9131,-0.3608,159.63,-261.40,110.73
2055,802968087,-1.3926,0.8984,-0.3740,161.83,-265.98,120.06
2056,802973087,-1.3984,0.9043,-0.3833,164.27,-271.52,131.16
2057,802978086,-1.4766,0.8462,-0.4272,165.49,-275.55,138.29
2058,802983087,-1.5483,0.8306,-0.4043,166.46,-281.65,149.27
2059,802988086,-1.5234,0.8623,-0.4287,166.89,-285.79,156.34
2060,802993085,-1.6587,0.8159,-0.4116,166.22,-291.10,165.37
2061,802998174,-1.6558,0.7910,-0.4175,164.15,-297.44,176.16
2062,803003087,-1.7031,0.7720,-0.4453,161.65,-302.74,185.00
2063,803008086,-1.7500,0.7617,-0.4092,159.33,-307.01,192.07
2064,803013087,-1.8086,0.7534,-0.4424,156.22,-312.13,200.61
2065,803018087,-1.8701,0.7319,-0.4502,152.38,-317.20,209.15
2066,803023087,-1.9370,0.7188,-0.4624,147.38,-323.17,219.45
2067,803028086,-1.9829,0.7114,-0.4600,143.48,-326.83,226.28
2068,803033087,-2.0537,0.7036,-0.4683,137.20,-332.26,236.28
2069,803038086,-2.1069,0.7134,-0.4678,132.62,-335.55,242.68
2070,803043087,-2.1704,0.7153,-0.4731,126.95,-339.57,250.61
2071,803048086,-2.2354,0.7285,-0.4761,120.55,-343.35,258.23
2072,803053089,-2.3203,0.7358,-0.4712,112.56,-347.68,266.83
2073,803058086,-2.3472,0.7354,-0.4507,107.26,-350.49,272.44
2074,803063088,-2.4453,0.7627,-0.4790,98.90,-354.57,280.30
2075,803068086,-2.5557,0.7700,-0.4590,92.68,-357.38,285.37
2076,803073087,-2.6348,0.7651,-0.4521,84.82,-360.73,291.65
2077,803078086,-2.6846,0.7783,-0.4556,76.71,-364.27,297.80
2078,803083329,-2.7759,0.7891,-0.4365,67.13,-368.41,304.88
2079,803088087,-2.8228,0.7920,-0.4282,60.67,-371.10,309.45
2080,803093086,-2.8784,0.8125,-0.4512,52.87,-374.57,314.76
2081,803098085,-2.9204,0.8398,-0.4556,45.30,-377.99,319.88
2082,803103087,-2.9619,0.8525,-0.4727,37.93,-381.10,324.82
2083,803108087,-3.0190,0.8828,-0.5073,30.67,-384.02,329.39
2084,803113087,-3.0933,0.9507,-0.5596,22.32,-387.80,334.51
2085,803118088,-3.1128,0.9351,-0.5771,16.71,-390.37,337.93
2086,803123618,-3.1284,0.9829,-0.6191,8.78,-394.09,342.50
2087,803128087,-3.1548,1.0435,-0.6738,4.70,-396.46,345.24
2088,803133087,-3.1895,1.1016,-0.6938,1.22,-399.45,348.72
2089,803138086,-3.2065,1.1538,-0.7119,-0.79,-402.20,352.20
2090,803143086,-3.2349,1.2017,-0.7612,-2.44,-404.70,355.61
2091,803148087,-3.2461,1.2393,-0.7734,-4.09,-406.95,359.21
2092,803153086,-3.2573,1.2803,-0.8027,-5.67,-408.90,363.05
2093,803158089,-3.2671,1.3271,-0.8081,-7.74,-411.04,366.65
2094,803163087,-3.3525,1.3809,-0.8682,-9.94,-413.35,370.06
2095,803168086,-3.3745,1.4272,-0.9546,-12.80,-416.22,373.41
2096,803173218,-3.4399,1.5088,-1.0107,-16.83,-419.27,377.62
2097,803178087,-3.4419,1.5586,-1.0356,-18.90,-421.04,380.24
2098,803183087,-3.4487,1.6382,-1.1094,-19.21,-422.93,383.17
2099,803188087,-3.4673,1.7188,-1.1709,-17.50,-423.96,385.98
2100,803193087,-3.4805,1.7783,-1.2373,-13.96,-424.39,388.72
2101,803198088,-3.4736,1.8472,-1.3057,-8.35,-423.60,391.46
2102,803203087,-3.4434,1.9067,-1.3652,-0.73,-421.71,394.63
2103,803208088,-3.4346,1.9585,-1.4087,8.23,-418.23,398.11
2104,803213086,-3.4199,2.0229,-1.4785,17.68,-413.29,402.13
2105,803218087,-3.3867,2.0796,-1.5542,27.07,-406.83,406.95
2106,803223087,-3.3062,2.1470,-1.6108,36.77,-399.02,412.50
2107,803228087,-3.3271,2.1816,-1.6450,45.18,-389.88,418.48
2108,803233088,-3.3403,2.2461,-1.7827,51.46,-379.57,425.43
2109,803238087,-3.2954,2.2876,-1.7939,55.37,-367.80,433.17
2110,803243087,-3.2437,2.3271,-1.8584,56.71,-354.27,441.71
2111,803248087,-3.2104,2.3564,-1.9468,55.61,-339.82,450.73
2112,803253086,-3.2114,2.4004,-1.9829,52.56,-323.84,460.18
2113,803258087,-3.1978,2.4189,-2.0405,48.17,-306.77,469.70
2114,803263087,-3.1816,2.4375,-2.1118,41.77,-288.66,479.39
2115,803268087,-3.1479,2.4385,-2.1699,32.93,-270.67,488.90
2116,803273085,-3.1284,2.4321,-2.2070,22.07,-252.32,498.29
2117,803278089,-3.0986,2.4282,-2.2441,9.21,-234.45,507.44
2118,803283087,-3.0781,2.4380,-2.2627,-4.82,-216.46,516.16
2119,803288086,-3.0425,2.4341,-2.2554,-19.39,-199.39,524.63
2120,803293087,-3.0029,2.4302,-2.2754,-33.72,-182.74,532.80
2121,803298085,-2.9736,2.4316,-2.2886,-48.17,-167.20,540.73
2122,803303087,-2.9438,2.4155,-2.2734,-62.68,-152.74,548.60
2123,803308086,-2.9170,2.3984,-2.2534,-76.40,-139.27,556.46
2124,803313087,-2.9062,2.3545,-2.2192,-88.54,-126.95,564.33
2125,803318086,-2.9033,2.3135,-2.1963,-98.11,-115.49,571.89
2126,803323087,-2.8872,2.2681,-2.1729,-105.43,-104.88,579.57
2127,803328086,-2.8604,2.2261,-2.1558,-110.79,-94.94,586.83
2128,803333087,-2.8496,2.1875,-2.1460,-113.60,-85.30,594.09
2129,803338087,-2.8481,2.1484,-2.1323,-113.11,-76.52,601.04
2130,803343087,-2.8345,2.0977,-2.1118,-109.76,-68.23,607.87
2131,803348087,-2.8291,2.0586,-2.1079,-103.90,-59.88,614.51
2132,803353086,-2.8301,2.0444,-2.1074,-95.91,-51.71,620.79
2133,803358088,-2.8203,2.0034,-2.0967,-86.40,-43.35,626.10
2134,803363087,-2.7939,1.9390,-2.0635,-77.20,-34.94,630.43
2135,803368087,-2.7861,1.8477,-2.0601,-70.18,-26.59,634.15
2136,803373086,-2.8013,1.7544,-2.0640,-66.22,-18.48,637.68
2137,803378087,-2.8218,1.6641,-2.0767,-65.24,-10.91,640.55
2138,803383085,-2.8154,1.5620,-2.0410,-66.40,-2.56,643.48
2139,803388087,-2.8086,1.4888,-2.0068,-68.29,2.68,644.94
2140,803393087,-2.7935,1.3975,-1.9927,-71.65,8.78,646.22
2141,803398086,-2.7773,1.3096,-1.9736,-76.40,14.39,646.89
2142,803403085,-2.7534,1.2271,-1.9492,-81.04,19.15,646.95
2143,803408522,-2.7261,1.1328,-1.9360,-85.00,24.33,646.65
2144,803413087,-2.7119,1.0791,-1.9146,-86.89,27.56,645.98
2145,803418086,-2.6870,1.0103,-1.9014,-88.96,31.22,644.63
2146,803423085,-2.6479,0.9458,-1.8657,-91.04,34.39,642.68
2147,803428087,-2.6191,0.8872,-1.8496,-92.56,37.07,640.18
2148,803433086,-2.5845,0.8423,-1.8311,-93.72,39.51,636.95
2149,803438086,-2.5571,0.7798,-1.7959,-95.73,41.22,632.62
2150,803443085,-2.5889,0.6782,-1.7334,-97.68,43.23,627.87
2151,803448089,-2.6426,0.6431,-1.6792,-96.83,45.91,623.66
2152,803453086,-2.6655,0.5605,-1.6343,-93.17,49.57,619.94
2153,803458087,-2.6606,0.4819,-1.6504,-86.52,53.72,616.46
2154,803463296,-2.6338,0.4043,-1.6440,-75.49,58.90,612.44
2155,803468185,-2.6045,0.3335,-1.6191,-63.90,63.35,608.96
2156,803473090,-2.5542,0.2637,-1.5562,-53.41,67.44,606.04
2157,803478087,-2.5127,0.2266,-1.5542,-39.45,72.50,602.07
2158,803483087,-2.4990,0.2065,-1.5278,-24.02,77.87,597.68
2159,803488087,-2.4463,0.1343,-1.3770,-7.20,83.60,592.74
2160,803493087,-2.4097,0.0938,-1.4370,9.94,90.79,587.38
2161,803498087,-2.4336,0.0298,-1.4375,28.05,97.87,581.16
2162,803503085,-2.3413,-0.0225,-1.3154,45.73,106.46,574.45
2163,803508152,-2.3320,-0.0767,-1.2383,65.12,117.62,565.18
2164,803513087,-2.3159,-0.1270,-1.2432,76.95,125.61,558.23
2165,803518086,-2.2202,-0.1953,-1.2686,88.78,135.37,549.21
2166,803523087,-2.2236,-0.2334,-1.1880,98.66,144.88,539.57
2167,803528087,-2.3149,-0.2720,-1.1475,106.77,154.63,529.02
2168,803533087,-2.2954,-0.3325,-1.2031,112.50,163.84,517.80
2169,803538087,-2.2354,-0.4141,-1.1519,115.30,172.80,506.10
2170,803543087,-2.1953,-0.4766,-1.0557,115.12,181.59,493.96
2171,803548087,-2.1377,-0.5464,-1.0088,111.83,189.63,481.52
2172,803553087,-2.1279,-0.5923,-1.0674,105.61,196.46,468.54
2173,803558087,-2.1602,-0.6382,-1.0146,97.99,202.32,455.30
2174,803563087,-2.1929,-0.6997,-0.9321,89.57,208.23,442.01
2175,803568087,-2.2158,-0.7485,-0.9463,80.67,213.29,428.90
2176,803573087,-2.2295,-0.7964,-0.9189,72.20,217.74,416.16
2177,803578087,-2.2373,-0.8413,-0.8325,64.57,222.20,403.54
2178,803583087,-2.2568,-0.8789,-0.7847,57.93,226.04,391.34
2179,803588087,-2.2783,-0.9287,-0.7446,51.83,229.33,379.45
2180,803593087,-2.3008,-0.9668,-0.6685,46.16,232.56,367.99
2181,803598087,-2.3174,-1.0127,-0.5928,40.43,235.30,356.46
2182,803603087,-2.3193,-1.0552,-0.5361,34.39,237.99,345.06
2183,803608087,-2.3765,-1.0962,-0.4370,28.78,240.30,333.72
2184,803613503,-2.4116,-1.1504,-0.3218,23.35,242.87,320.18
2185,803618087,-2.4219,-1.1821,-0.2744,20.55,244.33,311.28
2186,803623087,-2.4243,-1.2163,-0.1992,18.29,246.04,300.37
2187,803628087,-2.4180,-1.2432,-0.1157,17.38,247.38,289.51
2188,803633087,-2.4155,-1.2783,-0.0825,17.38,248.41,278.84
2189,803638087,-2.4102,-1.3062,-0.0200,17.93,249.09,268.11
2190,803643087,-2.3965,-1.3477,0.0493,18.72,249.45,257.62
2191,803648087,-2.3560,-1.3813,0.1006,19.15,249.27,247.01
2192,803653087,-2.3408,-1.4233,0.1768,18.41,248.96,236.59
2193,803658087,-2.2998,-1.4634,0.2559,15.79,248.11,226.16
2194,803663087,-2.2725,-1.4995,0.3057,11.16,246.89,215.91
2195,803668087,-2.2290,-1.5317,0.3599,4.94,244.76,205.61
2196,803673087,-2.1733,-1.5640,0.3989,-1.83,241.77,195.49
2197,803678088,-2.1147,-1.5879,0.4277,-8.48,238.17,185.49
2198,803683086,-2.0386,-1.5986,0.4478,-14.51,233.78,175.73
2199,803688087,-1.9600,-1.6084,0.4658,-19.76,228.35,166.16
2200,803693088,-1.8604,-1.6177,0.4751,-23.96,222.26,156.52
2201,803698085,-1.7593,-1.6128,0.4932,-27.26,215.37,146.89
2202,803703087,-1.6289,-1.6587,0.5376,-30.55,207.93,137.07
2203,803708086,-1.4604,-1.6460,0.5352,-33.60,200.24,127.38
2204,803713085,-1.4351,-1.6157,0.4785,-35.18,191.95,117.07
2205,803718089,-1.3442,-1.6426,0.5103,-35.18,183.54,106.52
2206,803723111,-1.2568,-1.6582,0.5239,-33.35,175.18,95.85
2207,803728086,-1.1421,-1.6709,0.5010,-30.67,166.83,85.18
2208,803733089,-1.0649,-1.6689,0.5049,-27.80,157.99,74.39
2209,803738086,-0.9878,-1.6841,0.5200,-25.55,149.39,63.72
2210,803743087,-0.9395,-1.6812,0.5391,-24.51,140.79,53.11
2211,803748086,-0.7349,-1.7192,0.6235,-25.98,132.01,42.93
2212,803753087,-0.7725,-1.6611,0.5137,-31.34,123.29,33.41
2213,803758086,-0.8569,-1.5796,0.4360,-35.67,114.21,23.48
2214,803763087,-0.8125,-1.5889,0.4707,-35.61,105.37,13.84
