# skilleye imu stream v1
# device=xiao_esp32c6 imu=mpu6050 addr=0x68
# rate_hz=200 accel_range_g=16 gyro_range_dps=2000 dlpf_hz=94
# units: accel in g, gyro in deg/s, t_us in microseconds since boot (monotonic)
# no shared clock with the camera -- tap the racket once before each take
# so both recordings share a spike to align on
seq,t_us,ax,ay,az,gx,gy,gz
0,249243295,-0.0122,-1.0806,-0.1992,6.34,14.70,19.76
1,249248298,-0.0063,-1.0879,-0.2017,6.28,13.17,18.11
2,249253296,-0.0156,-1.0854,-0.1919,6.04,11.83,16.46
3,249258778,-0.0146,-1.0933,-0.2021,5.43,10.12,14.57
4,249263296,-0.0293,-1.0864,-0.2085,4.76,8.90,13.41
5,249268300,-0.0249,-1.0625,-0.1758,3.54,7.32,11.46
6,249273296,-0.0649,-1.0840,-0.2661,1.40,5.55,10.12
7,249278296,-0.0249,-1.0820,-0.1748,-0.73,4.09,9.27
8,249283297,0.0449,-1.0405,-0.1299,-2.62,3.17,7.32
9,249288493,0.0171,-1.0342,-0.1772,-4.02,2.56,5.18
10,249293294,-0.0361,-1.0176,-0.2080,-5.30,1.34,3.17
11,249298294,-0.0342,-1.0078,-0.2114,-5.79,0.24,1.16
12,249303294,-0.0259,-1.0142,-0.2002,-5.67,-0.85,-0.79
13,249308294,-0.0044,-1.0244,-0.1982,-5.30,-1.65,-2.68
14,249313695,-0.0205,-1.0239,-0.2153,-4.70,-2.62,-4.70
15,249318296,-0.0488,-1.0488,-0.2246,-4.02,-3.41,-6.04
16,249323296,-0.0557,-1.0459,-0.2148,-3.23,-4.09,-7.74
17,249328297,-0.0254,-1.0254,-0.2285,-2.20,-4.70,-9.33
18,249333296,-0.0449,-1.0215,-0.2393,-1.16,-5.49,-10.91
19,249338296,-0.0337,-1.0098,-0.2373,-0.37,-6.22,-12.44
20,249343395,-0.0425,-1.0137,-0.2471,0.43,-6.77,-14.09
21,249348296,-0.0332,-1.0166,-0.2466,0.67,-7.26,-15.18
22,249353296,-0.0459,-1.0190,-0.2500,0.91,-7.62,-16.46
23,249358294,-0.0400,-1.0205,-0.2520,0.79,-7.99,-17.62
24,249363296,-0.0410,-1.0107,-0.2500,0.37,-8.48,-19.02
25,249368296,-0.0513,-1.0103,-0.2529,-0.06,-8.78,-19.82
26,249373712,-0.0459,-1.0020,-0.2563,-0.79,-9.15,-20.98
27,249378296,-0.0312,-0.9893,-0.2661,-1.52,-9.21,-21.89
28,249383295,-0.0498,-0.9863,-0.2661,-2.56,-9.51,-22.93
29,249388295,-0.0317,-0.9756,-0.2603,-3.35,-9.88,-23.84
30,249393294,-0.0425,-0.9697,-0.2686,-4.02,-9.94,-24.76
31,249398294,-0.0215,-0.9663,-0.2686,-4.51,-10.06,-25.49
32,249403294,-0.0352,-0.9624,-0.2715,-4.94,-10.24,-26.28
33,249408295,-0.0078,-0.9482,-0.2803,-5.06,-10.61,-27.01
34,249413295,-0.0308,-0.9502,-0.2842,-5.49,-10.73,-27.62
35,249418294,-0.0059,-0.9346,-0.2866,-5.43,-10.91,-28.35
36,249423294,-0.0254,-0.9336,-0.2900,-5.37,-11.22,-28.90
37,249428294,-0.0068,-0.9248,-0.2881,-5.37,-11.46,-29.39
38,249433294,-0.0127,-0.9263,-0.2944,-5.18,-11.83,-29.88
39,249438298,0.0088,-0.9155,-0.2910,-5.37,-11.95,-30.24
40,249443296,0.0034,-0.9141,-0.2974,-5.37,-12.20,-30.67
41,249448296,0.0068,-0.9043,-0.2876,-5.67,-12.26,-30.98
42,249453295,0.0171,-0.8984,-0.3003,-5.91,-12.56,-31.22
43,249458296,0.0015,-0.9009,-0.3032,-6.10,-12.68,-31.40
44,249463296,0.0049,-0.8901,-0.3027,-6.46,-12.99,-31.65
45,249468296,0.0093,-0.8857,-0.3027,-6.71,-12.99,-31.83
46,249473296,0.0132,-0.8804,-0.3101,-7.20,-13.23,-31.95
47,249478295,0.0220,-0.8740,-0.3115,-7.38,-13.41,-32.13
48,249483298,0.0327,-0.8687,-0.3154,-7.56,-13.54,-32.26
49,249488296,0.0210,-0.8687,-0.3237,-7.74,-13.84,-32.20
50,249493335,0.0181,-0.8672,-0.3193,-7.80,-13.96,-32.20
51,249498294,0.0317,-0.8633,-0.3193,-7.99,-14.27,-32.13
52,249503294,0.0190,-0.8599,-0.3193,-7.87,-14.39,-32.13
53,249508294,0.0337,-0.8501,-0.3291,-7.68,-14.63,-31.95
54,249513399,0.0386,-0.8506,-0.3320,-7.44,-14.63,-31.89
55,249518296,0.0298,-0.8506,-0.3345,-7.20,-14.88,-31.77
56,249523406,0.0347,-0.8442,-0.3374,-6.89,-14.82,-31.71
57,249528460,0.0303,-0.8457,-0.3359,-6.71,-15.12,-31.59
58,249533367,0.0337,-0.8359,-0.3325,-6.59,-15.00,-31.34
59,249538297,0.0483,-0.8384,-0.3311,-6.71,-15.00,-31.10
60,249543296,0.0317,-0.8374,-0.3403,-6.71,-15.12,-30.85
61,249548295,0.0557,-0.8335,-0.3403,-6.89,-15.24,-30.61
62,249553296,0.0371,-0.8359,-0.3408,-7.20,-15.37,-30.30
63,249558295,0.0488,-0.8315,-0.3423,-7.44,-15.37,-29.88
64,249563296,0.0503,-0.8271,-0.3433,-7.87,-15.30,-29.51
65,249568296,0.0532,-0.8262,-0.3447,-8.35,-15.37,-29.15
66,249573296,0.0571,-0.8218,-0.3491,-8.78,-15.43,-28.66
67,249578296,0.0557,-0.8232,-0.3477,-9.21,-15.43,-28.35
68,249583296,0.0552,-0.8184,-0.3486,-9.51,-15.61,-28.11
69,249588296,0.0610,-0.8110,-0.3428,-9.94,-15.55,-27.56
70,249593295,0.0659,-0.8140,-0.3428,-9.94,-15.49,-27.26
71,249598295,0.0713,-0.8096,-0.3467,-10.00,-15.61,-26.95
72,249603294,0.0718,-0.8032,-0.3442,-9.70,-15.73,-26.59
73,249608294,0.0747,-0.8037,-0.3433,-9.27,-15.67,-26.16
74,249613294,0.0693,-0.8057,-0.3413,-8.60,-15.85,-25.91
75,249618295,0.0713,-0.8013,-0.3491,-7.68,-15.98,-25.67
76,249623296,0.0767,-0.7988,-0.3438,-6.83,-15.98,-25.24
77,249628296,0.0762,-0.7979,-0.3447,-5.91,-16.10,-24.94
78,249633299,0.0654,-0.8047,-0.3481,-5.12,-16.16,-24.57
79,249638296,0.0737,-0.7979,-0.3447,-4.39,-16.10,-24.33
80,249643297,0.0806,-0.7930,-0.3486,-3.90,-16.10,-24.02
81,249648403,0.0796,-0.7959,-0.3501,-3.54,-16.22,-23.66
82,249653296,0.0781,-0.7935,-0.3462,-3.23,-16.10,-23.35
83,249658296,0.0791,-0.7905,-0.3491,-3.05,-16.10,-22.93
84,249663296,0.0825,-0.7939,-0.3452,-3.17,-16.04,-22.74
85,249668296,0.0889,-0.7905,-0.3467,-3.23,-15.91,-22.32
86,249673296,0.0835,-0.7944,-0.3525,-3.66,-15.67,-21.83
87,249678296,0.0830,-0.7944,-0.3452,-4.15,-15.73,-21.65
88,249683296,0.0952,-0.7935,-0.3457,-4.76,-15.61,-21.16
89,249688295,0.0737,-0.8018,-0.3491,-5.61,-15.37,-20.85
90,249693297,0.0977,-0.8008,-0.3491,-6.59,-15.24,-20.37
91,249698295,0.0781,-0.8052,-0.3452,-7.62,-15.00,-19.94
92,249703294,0.0938,-0.8071,-0.3516,-8.84,-14.94,-19.45
93,249708442,0.0923,-0.8066,-0.3462,-9.82,-14.70,-18.96
94,249713295,0.1099,-0.8037,-0.3472,-10.85,-14.51,-18.41
95,249718294,0.0972,-0.8047,-0.3501,-11.77,-14.15,-17.87
96,249723294,0.1138,-0.8052,-0.3589,-12.50,-13.96,-17.26
97,249728294,0.1006,-0.8105,-0.3521,-12.99,-13.96,-16.59
98,249733294,0.1177,-0.8115,-0.3550,-13.41,-13.72,-15.85
99,249738295,0.1079,-0.8164,-0.3584,-13.48,-13.66,-15.18
100,249743296,0.1177,-0.8145,-0.3594,-13.60,-13.54,-14.39
101,249748296,0.1187,-0.8193,-0.3638,-13.54,-13.48,-13.60
102,249753296,0.1060,-0.8223,-0.3672,-13.35,-13.29,-13.05
103,249758296,0.1123,-0.8213,-0.3691,-12.93,-13.29,-12.38
104,249763296,0.1221,-0.8252,-0.3735,-12.32,-13.11,-11.59
105,249768295,0.1089,-0.8320,-0.3682,-11.59,-12.87,-10.85
106,249773504,0.1060,-0.8330,-0.3726,-10.37,-12.74,-9.94
107,249778296,0.0996,-0.8350,-0.3687,-9.09,-12.56,-9.21
108,249783296,0.1050,-0.8335,-0.3745,-8.05,-12.50,-8.60
109,249788296,0.1138,-0.8306,-0.3687,-6.65,-12.38,-7.74
110,249793296,0.1064,-0.8369,-0.3711,-5.06,-12.07,-7.13
111,249798775,0.1094,-0.8374,-0.3647,-2.99,-11.89,-6.04
112,249803296,0.1318,-0.8403,-0.3618,-1.40,-11.83,-5.24
113,249808295,0.1138,-0.8491,-0.3594,0.30,-11.77,-4.57
114,249813366,0.1240,-0.8481,-0.3589,2.32,-11.77,-3.78
115,249818294,0.1309,-0.8462,-0.3555,3.78,-11.59,-3.11
116,249823294,0.1362,-0.8491,-0.3584,5.79,-11.65,-2.13
117,249828294,0.1299,-0.8550,-0.3569,7.62,-11.89,-1.46
118,249833294,0.1343,-0.8594,-0.3496,9.27,-12.01,-0.55
119,249838294,0.1240,-0.8633,-0.3516,10.79,-12.13,0.24
120,249843296,0.1426,-0.8613,-0.3516,12.50,-12.20,1.10
121,249848786,0.1299,-0.8647,-0.3535,14.02,-12.62,1.77
122,249853295,0.1445,-0.8589,-0.3447,15.91,-12.87,2.62
123,249858294,0.1318,-0.8730,-0.3521,17.50,-13.11,3.23
124,249863294,0.1353,-0.8696,-0.3418,19.39,-13.48,3.90
125,249868294,0.1396,-0.8638,-0.3394,21.10,-13.78,4.57
126,249873294,0.1416,-0.8652,-0.3423,22.74,-14.15,5.06
127,249878294,0.1416,-0.8677,-0.3340,24.33,-14.57,5.55
128,249883294,0.1318,-0.8696,-0.3276,25.79,-15.06,6.04
129,249888294,0.1372,-0.8682,-0.3267,27.20,-15.49,6.52
130,249893295,0.1440,-0.8662,-0.3237,28.23,-15.91,6.77
131,249898294,0.1479,-0.8643,-0.3169,29.27,-16.46,7.07
132,249903294,0.1436,-0.8662,-0.3120,30.00,-16.95,7.38
133,249908294,0.1362,-0.8721,-0.3096,30.61,-17.56,7.68
134,249913294,0.1387,-0.8716,-0.3125,30.98,-17.99,7.74
135,249918294,0.1304,-0.8760,-0.3013,31.28,-18.54,7.87
136,249923294,0.1426,-0.8755,-0.2900,31.16,-19.15,8.17
137,249928294,0.1426,-0.8779,-0.2983,30.98,-19.70,8.29
138,249933294,0.1372,-0.8804,-0.3062,30.55,-20.30,8.35
139,249938294,0.1274,-0.8882,-0.3047,29.57,-21.04,8.48
140,249943294,0.1133,-0.8940,-0.2974,28.72,-21.59,8.54
141,249948294,0.1206,-0.8936,-0.2993,27.62,-22.07,8.66
142,249953296,0.1099,-0.9004,-0.2920,26.46,-22.62,8.66
143,249958296,0.1118,-0.9053,-0.2979,25.49,-23.23,8.60
144,249963296,0.0923,-0.9106,-0.2983,24.57,-23.66,8.60
145,249968296,0.0986,-0.9092,-0.2944,24.02,-24.21,8.48
146,249973296,0.0796,-0.9160,-0.2930,23.60,-24.76,8.35
147,249978296,0.1001,-0.9136,-0.2861,23.35,-25.24,8.17
148,249983294,0.0786,-0.9170,-0.2881,22.87,-25.67,7.87
149,249988294,0.0742,-0.9292,-0.2876,22.68,-26.28,7.68
150,249993296,0.0684,-0.9307,-0.2837,22.32,-26.77,7.26
151,249998296,0.0713,-0.9360,-0.2871,22.13,-27.38,6.89
152,250003295,0.0576,-0.9321,-0.2886,21.95,-27.74,6.59
153,250008294,0.0444,-0.9448,-0.2842,21.52,-28.48,5.91
154,250013296,0.0527,-0.9468,-0.2866,21.52,-28.84,5.55
155,250018632,0.0552,-0.9463,-0.2769,21.28,-29.21,4.88
156,250023296,0.0537,-0.9463,-0.2769,21.16,-29.63,4.39
157,250028581,0.0337,-0.9502,-0.2764,21.16,-29.88,3.72
158,250033296,0.0449,-0.9512,-0.2725,21.34,-30.37,3.05
159,250038295,0.0371,-0.9512,-0.2744,21.59,-30.79,2.38
160,250043295,0.0435,-0.9478,-0.2661,21.71,-31.28,1.65
161,250048294,0.0391,-0.9565,-0.2632,21.89,-31.59,0.85
162,250053294,0.0215,-0.9624,-0.2598,21.95,-32.07,-0.06
163,250058294,0.0361,-0.9653,-0.2583,21.77,-32.50,-0.91
164,250063296,0.0410,-0.9692,-0.2485,21.52,-32.99,-1.77
165,250068464,0.0332,-0.9727,-0.2544,21.34,-33.48,-2.68
166,250073296,0.0405,-0.9731,-0.2466,21.04,-33.90,-3.54
167,250078296,0.0317,-0.9780,-0.2451,20.55,-34.45,-4.51
168,250083697,0.0259,-0.9873,-0.2456,19.88,-35.12,-5.67
169,250088296,0.0317,-0.9810,-0.2510,19.51,-35.61,-6.46
170,250093296,0.0293,-0.9814,-0.2461,18.78,-36.34,-7.68
171,250098296,0.0308,-0.9873,-0.2515,18.23,-37.07,-8.60
172,250103296,0.0303,-0.9941,-0.2441,17.50,-37.80,-9.63
173,250108296,0.0156,-1.0015,-0.2529,16.71,-38.48,-10.73
174,250113320,0.0337,-1.0000,-0.2529,15.61,-39.21,-11.77
175,250118298,0.0073,-1.0151,-0.2568,14.82,-39.88,-12.80
176,250123296,0.0122,-1.0088,-0.2646,13.96,-40.67,-13.84
177,250128296,0.0186,-1.0122,-0.2676,13.05,-41.46,-15.06
178,250133296,-0.0044,-1.0190,-0.2710,12.56,-42.07,-16.04
179,250138296,-0.0093,-1.0283,-0.2700,12.26,-42.80,-17.20
180,250143296,0.0073,-1.0215,-0.2744,12.07,-43.29,-18.29
181,250148296,-0.0063,-1.0288,-0.2822,11.83,-43.90,-19.33
182,250153296,-0.0186,-1.0366,-0.2856,11.89,-44.45,-20.43
183,250158296,-0.0205,-1.0376,-0.2920,12.13,-45.18,-21.65
184,250163295,-0.0186,-1.0391,-0.2949,12.44,-45.67,-22.80
185,250168296,-0.0117,-1.0400,-0.3018,12.99,-46.34,-23.96
186,250173295,-0.0107,-1.0400,-0.3057,13.66,-46.89,-25.12
187,250178296,-0.0239,-1.0503,-0.3105,14.39,-47.44,-26.28
188,250183300,-0.0400,-1.0474,-0.3174,15.30,-47.99,-27.62
189,250188296,-0.0200,-1.0410,-0.3188,15.79,-48.17,-28.54
190,250193296,-0.0273,-1.0474,-0.3164,16.40,-48.41,-29.76
191,250198299,-0.0396,-1.0474,-0.3228,16.95,-48.72,-30.91
192,250203296,-0.0200,-1.0439,-0.3301,17.13,-48.90,-31.95
193,250208295,-0.0332,-1.0459,-0.3306,17.26,-48.96,-33.23
194,250213295,-0.0400,-1.0439,-0.3325,17.20,-48.96,-34.39
195,250218294,-0.0186,-1.0371,-0.3354,16.95,-48.78,-35.67
196,250223294,-0.0244,-1.0420,-0.3418,16.71,-48.66,-36.71
197,250228294,-0.0220,-1.0391,-0.3384,16.16,-48.54,-37.93
198,250233295,-0.0205,-1.0376,-0.3398,15.37,-47.87,-39.57
199,250238296,-0.0200,-1.0439,-0.3530,14.51,-47.56,-40.73
200,250243296,-0.0083,-1.0425,-0.3481,13.84,-47.13,-41.77
201,250248296,-0.0059,-1.0474,-0.3525,13.23,-46.65,-42.93
202,250253296,-0.0068,-1.0474,-0.3472,12.56,-46.10,-43.96
203,250258296,0.0122,-1.0444,-0.3521,12.32,-45.49,-45.00
204,250263296,0.0093,-1.0493,-0.3594,12.20,-45.06,-46.04
205,250268296,0.0181,-1.0459,-0.3579,12.44,-44.57,-47.20
206,250273296,0.0420,-1.0386,-0.3540,12.80,-44.09,-48.17
207,250278296,0.0337,-1.0425,-0.3604,13.35,-43.84,-49.27
208,250283296,0.0552,-1.0342,-0.3647,14.09,-43.29,-50.37
209,250288295,0.0586,-1.0337,-0.3643,14.76,-42.93,-51.40
210,250293294,0.0669,-1.0317,-0.3613,15.49,-42.56,-52.56
211,250298294,0.0610,-1.0298,-0.3633,16.40,-42.01,-53.66
212,250303294,0.0669,-1.0200,-0.3652,17.50,-41.40,-54.82
213,250308295,0.0806,-1.0161,-0.3613,18.78,-40.91,-55.91
214,250313296,0.0854,-1.0151,-0.3652,20.06,-40.24,-57.01
215,250318294,0.0801,-1.0186,-0.3643,21.28,-39.45,-58.11
216,250323294,0.0933,-1.0068,-0.3643,22.38,-38.66,-59.39
217,250328294,0.0859,-1.0137,-0.3613,23.23,-37.99,-60.55
218,250333294,0.0854,-1.0103,-0.3667,23.66,-37.13,-61.52
219,250338368,0.0967,-1.0044,-0.3623,23.96,-36.16,-62.44
220,250343295,0.1060,-1.0122,-0.3657,23.84,-35.18,-63.35
221,250348296,0.1201,-1.0073,-0.3643,23.78,-34.15,-64.21
222,250353296,0.1045,-1.0063,-0.3643,23.66,-33.23,-64.94
223,250358296,0.1104,-1.0029,-0.3706,23.23,-32.26,-65.49
224,250363778,0.1157,-0.9941,-0.3672,23.23,-31.28,-66.16
225,250368296,0.1235,-0.9907,-0.3682,23.41,-30.55,-66.77
226,250373295,0.1289,-0.9839,-0.3735,23.90,-29.51,-67.44
227,250378300,0.1338,-0.9819,-0.3760,24.45,-28.78,-67.87
228,250383785,0.1519,-0.9727,-0.3760,25.30,-27.93,-68.41
229,250388296,0.1475,-0.9717,-0.3716,26.40,-27.20,-69.02
230,250393296,0.1489,-0.9668,-0.3735,27.68,-26.34,-69.45
231,250398296,0.1641,-0.9526,-0.3794,28.96,-25.61,-69.88
232,250403296,0.1567,-0.9600,-0.3740,30.24,-24.82,-70.37
233,250408296,0.1514,-0.9517,-0.3813,31.46,-24.15,-70.85
234,250413297,0.1650,-0.9424,-0.3804,32.74,-23.23,-71.22
235,250418296,0.1519,-0.9468,-0.3799,33.41,-22.56,-71.52
236,250423300,0.1694,-0.9346,-0.3730,34.15,-21.77,-71.95
237,250428296,0.1807,-0.9272,-0.3896,34.82,-21.04,-72.26
238,250433296,0.1606,-0.9272,-0.3799,35.06,-20.18,-72.56
239,250438296,0.1699,-0.9155,-0.3926,35.91,-19.15,-72.87
240,250443296,0.1812,-0.9111,-0.3892,36.40,-18.60,-73.05
241,250448295,0.1738,-0.9009,-0.3936,36.89,-17.62,-73.48
242,250453294,0.1714,-0.8926,-0.3940,37.80,-16.89,-73.78
243,250458294,0.1958,-0.8809,-0.3931,38.66,-16.04,-74.09
244,250463294,0.1841,-0.8794,-0.3931,39.33,-15.37,-74.51
245,250468294,0.1841,-0.8691,-0.3979,39.94,-14.39,-74.88
246,250473295,0.1875,-0.8545,-0.3979,40.61,-13.35,-75.30
247,250478296,0.1978,-0.8506,-0.3945,40.73,-12.68,-75.61
248,250483296,0.1870,-0.8408,-0.4009,40.55,-11.83,-75.91
249,250488296,0.1958,-0.8335,-0.4014,39.94,-10.98,-76.22
250,250493296,0.2007,-0.8286,-0.3989,38.78,-9.94,-76.40
251,250498296,0.2070,-0.8257,-0.3994,37.01,-8.90,-76.83
252,250503296,0.2017,-0.8213,-0.3960,34.82,-7.99,-76.89
253,250508296,0.2051,-0.8174,-0.3960,31.83,-6.65,-76.89
254,250513296,0.2017,-0.8135,-0.4019,29.39,-5.79,-76.83
255,250518295,0.2197,-0.8071,-0.3999,26.28,-4.57,-76.59
256,250523294,0.2090,-0.7969,-0.4053,22.99,-3.66,-76.28
257,250528294,0.2134,-0.7905,-0.3955,19.88,-2.50,-75.98
258,250533294,0.2222,-0.7817,-0.3936,16.89,-1.28,-75.37
259,250538644,0.2251,-0.7686,-0.3965,14.02,0.24,-74.82
260,250543759,0.2437,-0.7573,-0.3848,12.01,1.40,-74.27
261,250548296,0.2451,-0.7466,-0.3896,10.79,2.26,-73.84
262,250553298,0.2622,-0.7329,-0.3940,9.57,3.35,-73.17
263,250558296,0.2769,-0.7202,-0.3862,8.78,4.57,-72.32
264,250563296,0.2837,-0.7144,-0.3862,8.41,5.43,-71.77
265,250568300,0.2954,-0.7021,-0.3853,7.87,6.46,-70.79
266,250573296,0.2979,-0.6953,-0.3804,7.50,7.20,-70.18
267,250578295,0.3013,-0.6880,-0.3706,6.77,7.99,-69.15
268,250583294,0.3027,-0.6797,-0.3711,5.85,8.78,-68.11
269,250588294,0.3032,-0.6768,-0.3696,4.63,9.63,-66.89
270,250593294,0.3149,-0.6675,-0.3643,3.23,10.24,-65.61
271,250598296,0.3105,-0.6626,-0.3618,1.83,11.10,-64.33
272,250603294,0.3105,-0.6514,-0.3604,0.12,11.77,-63.11
273,250608325,0.3203,-0.6406,-0.3481,-1.34,12.38,-61.65
274,250613296,0.3105,-0.6353,-0.3389,-3.41,13.29,-59.94
275,250618298,0.3086,-0.6226,-0.3369,-4.88,13.66,-58.72
276,250623295,0.3145,-0.6079,-0.3267,-6.95,14.45,-57.38
277,250628296,0.3408,-0.5615,-0.3379,-9.21,15.06,-55.61
278,250633296,0.3799,-0.5073,-0.3931,-10.61,15.24,-54.39
279,250638295,0.4478,-0.4341,-0.4531,-11.46,15.37,-53.17
280,250643380,0.5044,-0.4272,-0.5044,-12.32,15.24,-51.46
281,250648462,0.5391,-0.4385,-0.5557,-14.33,15.49,-49.70
282,250653454,0.5610,-0.4512,-0.6309,-17.62,15.30,-47.74
283,250658465,0.6963,-0.4683,-0.7383,-21.52,15.18,-45.91
284,250663412,0.7310,-0.4736,-0.6821,-26.95,15.43,-43.96
285,250668296,0.6807,-0.4473,-0.5967,-33.60,16.65,-42.13
286,250673296,0.5938,-0.4541,-0.5439,-40.79,18.23,-40.55
287,250678296,0.5347,-0.4634,-0.4805,-48.48,19.82,-38.72
288,250683756,0.4951,-0.4766,-0.3599,-55.49,21.71,-36.52
289,250688296,0.4819,-0.4136,-0.3320,-60.49,23.54,-34.57
290,250693298,0.4624,-0.4771,-0.3667,-64.27,24.57,-32.74
291,250698295,0.4414,-0.5190,-0.2759,-67.50,25.49,-30.37
292,250703296,0.4497,-0.4741,-0.1909,-70.06,27.13,-28.11
293,250708295,0.4565,-0.5244,-0.2397,-72.07,28.35,-25.73
294,250713296,0.4209,-0.5352,-0.2329,-74.15,29.09,-23.23
295,250718296,0.3999,-0.5063,-0.1973,-76.16,30.18,-20.55
296,250723294,0.3979,-0.4785,-0.1792,-77.93,31.34,-18.23
297,250728294,0.3882,-0.5151,-0.2061,-79.27,32.20,-15.91
298,250733294,0.4224,-0.5967,-0.1182,-80.37,33.05,-13.48
299,250738294,0.4414,-0.6270,-0.1211,-80.67,34.09,-10.55
300,250743294,0.4219,-0.6328,-0.1152,-79.94,34.57,-7.99
301,250748296,0.4590,-0.7378,-0.0327,-78.17,35.00,-5.00
302,250753296,0.4658,-0.7178,-0.0825,-75.30,35.55,-2.01
303,250758296,0.4121,-0.6890,-0.1440,-71.59,35.18,0.18
304,250763296,0.3896,-0.6665,-0.1499,-67.56,34.45,2.13
305,250768296,0.4165,-0.6484,-0.1733,-63.48,33.54,3.78
306,250773296,0.4526,-0.6226,-0.1782,-59.27,32.99,5.30
307,250778295,0.4863,-0.6226,-0.1680,-55.00,32.74,6.83
308,250783296,0.4829,-0.6411,-0.1655,-50.98,32.13,8.17
309,250788295,0.4932,-0.6489,-0.1826,-47.38,31.40,9.57
310,250793296,0.5020,-0.6523,-0.2046,-44.09,30.55,10.91
311,250798296,0.5029,-0.6465,-0.1953,-40.43,29.82,12.07
312,250803296,0.5005,-0.6426,-0.1709,-36.95,28.96,12.99
313,250808771,0.4839,-0.6514,-0.1807,-33.54,27.93,14.02
314,250813296,0.4888,-0.7407,-0.2764,-30.67,26.22,15.43
315,250818296,0.5146,-0.6650,-0.2632,-29.45,23.48,17.87
316,250823297,0.5591,-0.5889,-0.1826,-28.54,20.91,19.21
317,250828296,0.6211,-0.5947,-0.1621,-27.01,18.96,19.39
318,250833296,0.6211,-0.6807,-0.1997,-25.49,17.38,19.39
319,250838296,0.6157,-0.7104,-0.2461,-24.57,15.24,19.57
320,250843296,0.6162,-0.6816,-0.2861,-23.96,12.99,19.27
321,250848296,0.6216,-0.6289,-0.2749,-23.05,11.22,18.41
322,250853296,0.6357,-0.6353,-0.2808,-21.71,10.37,17.07
323,250858296,0.6680,-0.6855,-0.3643,-20.00,9.21,15.85
324,250863296,0.7051,-0.7104,-0.4277,-18.23,8.41,14.88
325,250868296,0.7334,-0.7207,-0.4512,-16.34,7.68,14.15
326,250873295,0.7485,-0.7139,-0.4624,-14.27,7.20,13.48
327,250878296,0.7124,-0.7310,-0.4937,-11.77,6.89,12.80
328,250883294,0.6265,-0.7505,-0.5112,-8.41,6.59,12.38
329,250888363,0.5542,-0.7695,-0.4805,-4.02,6.46,12.13
330,250893294,0.5073,-0.7837,-0.4624,0.73,6.40,12.07
331,250898294,0.4839,-0.8057,-0.4434,5.85,6.16,11.77
332,250903294,0.4692,-0.8267,-0.4150,10.61,6.10,11.59
333,250908294,0.4536,-0.8330,-0.3940,14.45,5.91,11.28
334,250913295,0.4390,-0.8218,-0.3877,17.74,5.85,10.79
335,250918294,0.4268,-0.8169,-0.3716,20.43,5.79,10.12
336,250923294,0.4238,-0.8184,-0.3770,22.62,5.98,9.39
337,250928294,0.4214,-0.8105,-0.3774,24.33,6.22,8.60
338,250933294,0.4429,-0.8149,-0.3877,25.55,6.52,7.68
339,250938294,0.4414,-0.8164,-0.3804,26.59,6.59,6.89
340,250943295,0.4424,-0.8135,-0.3774,27.26,7.32,5.98
341,250948294,0.4365,-0.8062,-0.3799,27.93,7.80,5.00
342,250953294,0.4351,-0.7993,-0.3853,28.66,8.54,4.02
343,250958294,0.4297,-0.7808,-0.3892,29.33,9.21,2.99
344,250963294,0.4277,-0.7710,-0.3848,29.94,9.94,1.83
345,250968294,0.4307,-0.7578,-0.3765,30.24,10.67,0.67
346,250973294,0.4321,-0.7515,-0.3643,30.73,11.46,-0.37
347,250978294,0.4370,-0.7456,-0.3765,31.10,12.13,-1.46
348,250983294,0.4321,-0.7515,-0.3623,31.28,12.80,-2.32
349,250988537,0.4287,-0.7451,-0.3706,31.59,13.23,-3.29
350,250993296,0.4390,-0.7432,-0.3628,31.46,13.66,-4.33
351,250998296,0.4141,-0.7583,-0.3496,31.40,14.15,-5.18
352,251003296,0.4082,-0.7622,-0.3486,30.91,14.51,-5.85
353,251008296,0.4141,-0.7534,-0.3477,29.88,15.06,-6.77
354,251013296,0.4243,-0.7554,-0.3423,29.15,15.30,-7.13
355,251018296,0.4351,-0.7441,-0.3398,27.62,15.85,-7.68
356,251023296,0.4292,-0.7446,-0.3467,26.04,16.28,-8.23
357,251028296,0.4429,-0.7451,-0.3374,23.72,16.95,-8.72
358,251033296,0.4331,-0.7534,-0.3428,21.95,17.20,-8.90
359,251038296,0.4517,-0.7471,-0.3521,19.70,17.68,-8.90
360,251043296,0.4521,-0.7432,-0.3438,17.32,18.35,-9.02
361,251048296,0.4556,-0.7388,-0.3496,14.51,18.84,-9.02
362,251053295,0.4565,-0.7324,-0.3564,11.71,19.39,-8.96
363,251058296,0.4644,-0.7222,-0.3516,8.66,20.00,-8.90
364,251063545,0.4707,-0.7168,-0.3501,4.82,20.79,-8.66
365,251068296,0.4834,-0.7178,-0.3403,2.26,21.16,-8.60
366,251073370,0.4800,-0.7144,-0.3433,-1.59,21.77,-8.35
367,251078529,0.4854,-0.7075,-0.3364,-4.82,22.13,-8.11
368,251083773,0.4824,-0.7241,-0.3101,-8.05,22.26,-7.80
369,251088296,0.4858,-0.7085,-0.3267,-10.61,22.44,-7.44
370,251093892,0.4790,-0.7095,-0.3110,-13.96,22.32,-7.07
371,251098296,0.4946,-0.6958,-0.3154,-15.79,22.13,-6.77
372,251103296,0.4941,-0.6992,-0.2959,-18.23,21.89,-6.16
373,251108296,0.4878,-0.7227,-0.3169,-19.57,21.46,-5.73
374,251113319,0.4941,-0.7329,-0.3184,-21.59,20.79,-4.76
375,251118298,0.5137,-0.7402,-0.2964,-22.80,20.12,-3.90
376,251123296,0.5283,-0.7461,-0.3130,-23.90,19.70,-3.17
377,251128296,0.5410,-0.7441,-0.3091,-24.70,19.02,-2.20
378,251133296,0.5488,-0.7476,-0.2954,-25.37,18.60,-1.16
379,251138296,0.5757,-0.7578,-0.2886,-25.73,18.35,-0.24
380,251143296,0.5610,-0.7739,-0.2969,-26.46,17.80,0.85
381,251148296,0.5806,-0.7725,-0.2896,-26.89,17.62,1.89
382,251153296,0.5835,-0.7773,-0.2681,-27.20,17.56,2.93
383,251158296,0.5747,-0.7739,-0.2646,-27.44,17.50,3.84
384,251163296,0.5825,-0.7637,-0.2627,-28.11,17.44,4.63
385,251168296,0.5928,-0.7720,-0.2568,-28.54,17.44,5.18
386,251173751,0.5723,-0.7612,-0.2505,-29.09,17.38,5.85
387,251178296,0.5757,-0.7510,-0.2520,-29.51,17.62,6.10
388,251183295,0.5811,-0.7393,-0.2417,-30.00,17.87,6.28
389,251188295,0.5864,-0.7412,-0.2378,-30.30,17.93,6.40
390,251193294,0.6035,-0.7324,-0.2383,-30.67,18.29,6.28
391,251198297,0.6045,-0.7319,-0.2505,-31.28,18.60,6.34
392,251203296,0.6084,-0.7378,-0.2466,-31.95,18.90,6.22
393,251208295,0.6211,-0.7349,-0.2334,-32.62,19.45,6.04
394,251213296,0.6230,-0.7388,-0.2314,-33.48,19.88,5.73
395,251218296,0.6294,-0.7393,-0.2427,-34.45,20.49,5.43
396,251223296,0.6382,-0.7422,-0.2544,-35.24,21.04,5.06
397,251228299,0.6494,-0.7446,-0.2485,-36.16,21.89,4.94
398,251233294,0.6514,-0.7495,-0.2549,-37.01,22.50,4.76
399,251238294,0.6626,-0.7515,-0.2632,-37.80,23.35,4.63
400,251243294,0.6602,-0.7554,-0.2554,-38.84,24.21,4.70
401,251248294,0.6533,-0.7632,-0.2583,-39.70,25.06,4.70
402,251253294,0.6436,-0.7861,-0.2505,-40.79,26.28,4.76
403,251258294,0.6558,-0.7861,-0.2588,-42.07,27.13,4.94
404,251263296,0.6665,-0.7720,-0.2544,-43.29,28.23,5.00
405,251268296,0.6865,-0.7676,-0.2593,-44.33,29.27,5.12
406,251273296,0.6743,-0.7749,-0.2866,-45.18,30.12,5.24
407,251278296,0.6763,-0.7793,-0.2651,-45.98,31.04,5.49
408,251283295,0.6758,-0.7842,-0.2593,-46.46,32.07,5.61
409,251288296,0.6816,-0.7812,-0.2720,-46.65,32.99,5.98
410,251293295,0.6777,-0.7749,-0.2666,-46.77,33.90,6.34
411,251298296,0.6860,-0.7705,-0.2666,-46.65,34.63,6.59
412,251303296,0.6870,-0.7676,-0.2646,-46.46,35.30,7.07
413,251308296,0.6743,-0.7754,-0.2695,-45.91,36.04,7.50
414,251313296,0.6699,-0.7773,-0.2617,-45.30,36.89,7.93
415,251318296,0.6782,-0.7739,-0.2622,-44.45,37.56,8.29
416,251323296,0.6670,-0.7729,-0.2681,-43.35,38.23,8.72
417,251328296,0.6875,-0.7671,-0.2637,-42.20,38.90,9.15
418,251333297,0.6821,-0.7749,-0.2617,-40.85,39.76,9.45
419,251338296,0.6831,-0.7764,-0.2485,-39.27,40.49,10.06
420,251343296,0.6660,-0.7847,-0.2598,-38.41,40.85,10.43
421,251348296,0.6841,-0.7695,-0.2573,-37.20,41.65,10.91
422,251353296,0.7056,-0.7632,-0.2510,-35.91,42.13,11.16
423,251358296,0.6973,-0.7612,-0.2422,-34.51,42.68,11.40
424,251363296,0.6709,-0.7656,-0.2451,-33.11,43.41,11.77
425,251368296,0.6855,-0.7598,-0.2393,-31.89,43.90,11.95
426,251373296,0.6826,-0.7554,-0.2280,-30.67,44.33,12.13
427,251378296,0.6851,-0.7534,-0.2197,-29.33,44.88,12.38
428,251383768,0.6841,-0.7471,-0.2065,-27.68,45.30,12.44
429,251388296,0.6660,-0.7466,-0.2031,-26.77,45.79,12.38
430,251393296,0.6816,-0.7368,-0.1865,-25.43,46.10,12.44
431,251398295,0.6743,-0.7373,-0.1782,-24.09,46.40,12.26
432,251403298,0.6699,-0.7339,-0.1738,-22.56,46.71,12.20
433,251408295,0.6489,-0.7368,-0.1626,-20.91,46.89,12.07
434,251413296,0.6426,-0.7305,-0.1528,-19.51,47.26,11.77
435,251418296,0.6543,-0.7227,-0.1392,-18.11,47.32,11.52
436,251423296,0.6392,-0.7202,-0.1343,-16.40,47.80,11.10
437,251428296,0.6250,-0.7212,-0.1250,-15.30,48.05,10.85
438,251433297,0.6187,-0.7183,-0.1226,-14.39,48.23,10.43
439,251438404,0.6191,-0.7188,-0.1104,-13.48,48.29,9.94
440,251443296,0.6313,-0.7119,-0.1113,-13.23,48.41,9.63
441,251448296,0.6006,-0.7178,-0.1021,-12.87,48.48,9.27
442,251453296,0.6099,-0.7080,-0.0894,-13.11,48.66,8.96
443,251458296,0.6074,-0.7085,-0.0879,-13.60,48.90,8.54
444,251463296,0.5859,-0.7085,-0.0830,-14.21,49.15,8.29
445,251468296,0.5928,-0.7036,-0.0684,-15.06,49.33,8.05
446,251473296,0.5957,-0.7104,-0.0674,-16.16,49.70,7.80
447,251478296,0.5820,-0.7124,-0.0645,-17.07,49.88,7.74
448,251483295,0.5967,-0.7109,-0.0576,-18.05,50.00,7.87
449,251488294,0.5928,-0.7129,-0.0518,-18.78,50.18,7.99
450,251493294,0.5859,-0.7188,-0.0396,-19.27,50.24,8.17
451,251498294,0.5791,-0.7202,-0.0400,-19.45,50.24,8.60
452,251503294,0.5908,-0.7202,-0.0264,-19.09,50.30,9.02
453,251508294,0.5938,-0.7202,-0.0254,-18.60,50.12,9.70
454,251513296,0.5781,-0.7295,-0.0151,-17.80,49.63,10.24
455,251518294,0.5898,-0.7319,-0.0015,-15.85,49.02,11.22
456,251523298,0.5708,-0.7378,0.0039,-14.88,48.72,11.71
457,251528296,0.5845,-0.7393,0.0078,-13.29,47.87,12.50
458,251533296,0.5742,-0.7490,0.0142,-11.46,47.50,13.35
459,251538297,0.5630,-0.7378,0.0156,-9.45,46.77,14.15
460,251543296,0.5615,-0.7524,0.0303,-7.07,45.85,15.24
461,251548628,0.5439,-0.7466,0.0342,-4.82,44.94,16.10
462,251553296,0.5742,-0.7412,0.0347,-2.32,44.33,16.89
463,251558296,0.5635,-0.7783,0.0308,0.30,43.48,17.74
464,251563296,0.5576,-0.7900,0.0273,2.62,42.68,18.66
465,251568510,0.5601,-0.7725,0.0327,4.88,41.71,19.39
466,251573296,0.5791,-0.7681,0.0405,6.77,40.91,20.06
467,251578577,0.5557,-0.7788,0.0435,8.48,39.88,20.79
468,251583296,0.5532,-0.7822,0.0518,10.12,39.09,21.46
469,251588458,0.5586,-0.7944,0.0513,11.34,38.17,22.13
470,251593409,0.5488,-0.8008,0.0508,12.50,37.20,22.93
471,251598407,0.5576,-0.8027,0.0615,13.35,36.10,23.54
472,251603296,0.5415,-0.8066,0.0552,14.09,35.18,24.15
473,251608300,0.5366,-0.8120,0.0630,14.51,34.09,24.88
474,251613296,0.5391,-0.8228,0.0645,14.39,33.05,25.55
475,251618296,0.5625,-0.8013,0.0352,13.96,31.71,26.22
476,251623412,0.5850,-0.7886,0.0645,13.48,30.30,26.71
477,251628295,0.6123,-0.7754,0.0444,12.56,29.09,27.01
478,251633554,0.6147,-0.7705,0.0396,11.40,27.50,27.50
479,251638296,0.6328,-0.7466,0.0278,10.24,25.91,27.87
480,251643356,0.6533,-0.7324,0.0347,8.66,24.33,28.29
481,251648294,0.6245,-0.7358,0.0190,7.20,22.68,28.48
482,251653294,0.6411,-0.7222,0.0146,5.61,20.79,28.78
483,251658294,0.6279,-0.7256,0.0093,4.09,19.02,28.90
484,251663294,0.6426,-0.7119,0.0107,2.80,17.13,29.09
485,251668296,0.6484,-0.7075,0.0054,1.59,15.37,29.27
486,251673296,0.6240,-0.7031,-0.0088,0.37,13.60,29.39
487,251678296,0.6323,-0.6880,-0.0171,-0.79,11.71,29.27
488,251683296,0.6240,-0.6802,-0.0161,-1.95,10.12,29.15
489,251688296,0.6113,-0.6714,-0.0234,-2.87,8.54,28.96
490,251693295,0.6274,-0.6650,-0.0264,-4.09,7.07,28.72
491,251698296,0.6284,-0.6631,-0.0273,-5.49,5.49,28.54
492,251703294,0.6191,-0.6680,-0.0234,-6.89,4.39,28.29
493,251708296,0.5815,-0.6699,-0.0229,-8.29,3.05,28.17
494,251713296,0.5601,-0.6699,-0.0293,-9.27,2.01,27.99
495,251718296,0.5625,-0.6826,-0.0288,-10.18,0.91,27.99
496,251723296,0.5522,-0.6914,-0.0171,-10.67,-0.18,28.17
497,251728296,0.5562,-0.6963,-0.0342,-10.85,-1.16,28.23
498,251733296,0.5381,-0.7085,-0.0361,-10.67,-2.26,28.35
499,251738596,0.5479,-0.7119,-0.0322,-10.12,-3.23,28.54
500,251743296,0.5337,-0.7173,-0.0400,-9.51,-4.15,28.60
501,251748765,0.5376,-0.7212,-0.0469,-8.60,-5.18,28.72
502,251753296,0.5483,-0.7227,-0.0469,-7.68,-6.10,28.90
503,251758296,0.5239,-0.7305,-0.0386,-6.77,-6.83,29.02
504,251763300,0.5269,-0.7520,-0.0552,-5.61,-7.74,29.39
505,251768296,0.5430,-0.7583,-0.0625,-4.88,-8.29,29.51
506,251773296,0.5547,-0.7515,-0.0576,-4.27,-9.02,29.57
507,251778296,0.5532,-0.7524,-0.0688,-3.84,-9.63,29.76
508,251783295,0.5391,-0.7490,-0.0747,-3.54,-10.00,29.82
509,251788294,0.5391,-0.7500,-0.0850,-3.17,-10.67,30.00
510,251793294,0.5342,-0.7539,-0.0786,-3.17,-11.04,29.82
511,251798294,0.5352,-0.7520,-0.0859,-3.17,-11.28,29.88
512,251803294,0.5117,-0.7559,-0.0854,-3.29,-11.46,29.88
513,251808294,0.5015,-0.7549,-0.0874,-3.66,-11.52,29.76
514,251813296,0.5161,-0.7437,-0.0854,-4.09,-11.40,29.70
515,251818296,0.5015,-0.7480,-0.0894,-4.51,-11.22,29.82
516,251823296,0.4995,-0.7520,-0.0874,-4.94,-10.91,29.82
517,251828296,0.4946,-0.7505,-0.1001,-5.24,-10.67,29.82
518,251833296,0.4946,-0.7549,-0.0977,-5.43,-10.30,29.76
519,251838296,0.4897,-0.7651,-0.0962,-5.67,-10.18,29.88
520,251843296,0.4775,-0.7681,-0.0991,-5.79,-9.94,29.88
521,251848295,0.4707,-0.7690,-0.0938,-5.79,-9.45,29.88
522,251853294,0.4824,-0.7729,-0.0918,-5.73,-9.21,29.94
523,251858294,0.4766,-0.7769,-0.0962,-5.55,-8.96,29.88
524,251863294,0.4766,-0.7798,-0.0864,-5.06,-8.29,30.12
525,251868294,0.4722,-0.7866,-0.0903,-4.57,-7.99,30.24
526,251873294,0.4595,-0.7988,-0.0957,-4.15,-7.56,30.18
527,251878296,0.4531,-0.8018,-0.0952,-3.66,-7.13,30.24
528,251883296,0.4507,-0.8115,-0.0835,-3.29,-6.65,30.43
529,251888296,0.4580,-0.8159,-0.0879,-3.11,-6.16,30.61
530,251893296,0.4502,-0.8281,-0.0874,-2.93,-5.61,30.61
531,251898296,0.4429,-0.8335,-0.0791,-2.80,-5.12,30.79
532,251903296,0.4429,-0.8408,-0.0854,-2.62,-4.33,30.98
533,251908295,0.4370,-0.8418,-0.0776,-2.50,-3.66,31.16
534,251913296,0.4419,-0.8491,-0.0776,-2.07,-3.05,31.46
535,251918296,0.4507,-0.8521,-0.0850,-1.65,-2.38,31.59
536,251923296,0.4341,-0.8599,-0.0874,-0.79,-1.71,31.77
537,251928296,0.4507,-0.8550,-0.0801,0.24,-1.10,32.01
538,251933296,0.4487,-0.8594,-0.0840,0.98,-0.67,32.07
539,251938296,0.4614,-0.8555,-0.0835,1.65,-0.30,32.13
540,251943296,0.4673,-0.8535,-0.0859,2.32,0.12,32.07
541,251948295,0.4702,-0.8545,-0.0923,2.50,0.30,32.13
542,251953295,0.4541,-0.8574,-0.0996,2.68,0.73,31.95
543,251958294,0.4800,-0.8457,-0.1089,2.07,0.67,31.77
544,251963294,0.4585,-0.8589,-0.1206,1.40,0.91,31.40
545,251968294,0.4619,-0.8574,-0.1230,0.12,0.79,31.16
546,251973294,0.4561,-0.8667,-0.1328,-1.83,0.61,30.61
547,251978294,0.4575,-0.8662,-0.1431,-4.09,0.61,30.37
548,251983294,0.4312,-0.8882,-0.1421,-6.89,0.30,30.18
549,251988295,0.4541,-0.8887,-0.1606,-9.63,0.37,29.82
550,251993294,0.4468,-0.8994,-0.1616,-12.26,0.06,29.63
551,251998294,0.4492,-0.9097,-0.1724,-14.51,-0.12,29.45
552,252003294,0.4287,-0.9268,-0.1777,-16.34,-0.49,29.39
553,252008294,0.4355,-0.9346,-0.1899,-17.38,-0.91,29.57
554,252013294,0.4365,-0.9521,-0.1953,-17.56,-1.34,29.70
555,252018294,0.4248,-0.9727,-0.2114,-16.65,-1.95,30.00
556,252023294,0.4302,-0.9712,-0.2197,-14.88,-2.68,30.37
557,252028294,0.4282,-0.9839,-0.2271,-12.26,-3.41,30.73
558,252033294,0.4209,-0.9805,-0.2271,-8.78,-4.27,31.04
559,252038294,0.4287,-0.9805,-0.2407,-4.45,-5.37,31.04
560,252043296,0.4062,-0.9868,-0.2505,0.55,-6.22,31.10
561,252048297,0.4214,-0.9727,-0.2510,5.91,-7.26,30.98
562,252053296,0.4028,-0.9688,-0.2622,11.59,-8.11,30.67
563,252058296,0.4199,-0.9658,-0.2705,17.50,-9.33,30.06
564,252063296,0.4043,-0.9673,-0.2759,23.05,-10.43,29.45
565,252068295,0.4307,-0.9614,-0.2729,28.54,-11.34,28.60
566,252073294,0.4189,-0.9688,-0.2881,33.66,-12.26,27.74
567,252078294,0.4473,-0.9600,-0.2866,38.05,-13.29,26.71
568,252083294,0.4385,-0.9648,-0.2886,41.83,-14.15,25.55
569,252088294,0.4531,-0.9653,-0.2925,45.00,-14.82,24.33
570,252093294,0.4795,-0.9575,-0.2935,47.56,-15.67,22.80
571,252098294,0.4785,-0.9668,-0.2983,49.27,-16.10,21.22
572,252103294,0.5093,-0.9678,-0.2944,50.12,-16.65,19.57
573,252108294,0.5322,-0.9707,-0.2930,50.37,-17.07,17.99
574,252113332,0.5356,-0.9814,-0.3018,49.94,-17.74,16.10
575,252118298,0.5654,-0.9775,-0.3110,48.84,-18.11,14.39
576,252123298,0.5737,-0.9805,-0.3179,47.20,-18.72,12.50
577,252128295,0.5742,-0.9834,-0.3198,44.82,-19.27,10.37
578,252133570,0.6074,-0.9854,-0.3379,41.89,-19.94,8.23
579,252138428,0.5952,-0.9976,-0.3496,38.41,-20.37,6.28
580,252143502,0.6211,-0.9917,-0.3574,34.45,-20.85,3.90
581,252148373,0.6099,-1.0020,-0.3667,29.88,-21.16,1.46
582,252153296,0.6211,-0.9956,-0.3765,24.94,-21.77,-0.98
583,252158295,0.6182,-0.9995,-0.3979,19.57,-22.01,-3.54
584,252163296,0.6328,-0.9941,-0.4014,13.72,-22.44,-6.16
585,252168296,0.6143,-1.0005,-0.4180,7.87,-22.50,-8.96
586,252173698,0.6191,-0.9897,-0.4321,2.01,-22.26,-11.71
587,252178296,0.5903,-0.9907,-0.4507,-3.90,-22.07,-14.63
588,252183296,0.6025,-0.9814,-0.4575,-9.70,-21.46,-17.56
589,252188296,0.5776,-0.9741,-0.4766,-15.12,-20.91,-20.85
590,252193295,0.5967,-0.9604,-0.4878,-20.18,-20.00,-23.90
591,252198301,0.5864,-0.9619,-0.5127,-25.85,-18.78,-27.68
592,252203297,0.5942,-0.9468,-0.5166,-29.51,-17.93,-30.43
593,252208295,0.5786,-0.9434,-0.5381,-33.60,-16.65,-33.66
594,252213296,0.5835,-0.9341,-0.5449,-37.26,-15.43,-36.95
595,252218296,0.5903,-0.9165,-0.5566,-41.34,-13.72,-40.73
596,252223296,0.6123,-0.9092,-0.5601,-43.60,-12.87,-43.29
597,252228296,0.6064,-0.8999,-0.5679,-46.22,-11.65,-46.46
598,252233299,0.6318,-0.8784,-0.5732,-48.96,-10.12,-50.12
599,252238296,0.6133,-0.8730,-0.5830,-50.67,-9.33,-52.50
600,252243296,0.6294,-0.8374,-0.5850,-52.32,-8.11,-55.24
601,252248296,0.6328,-0.6948,-0.6216,-54.15,-6.83,-59.02
602,252253296,0.6143,-0.9312,-0.6016,-55.73,-6.28,-60.55
603,252258296,0.6333,-0.8857,-0.5752,-57.93,-5.18,-62.68
604,252263296,0.6191,-0.7881,-0.5981,-60.37,-4.02,-64.70
605,252268296,0.6372,-0.6812,-0.6138,-62.68,-3.11,-66.89
606,252273296,0.6074,-0.7090,-0.6030,-65.67,-2.01,-69.21
607,252278296,0.6118,-0.6733,-0.5791,-67.50,-0.85,-70.91
608,252283296,0.5820,-0.6631,-0.5869,-70.37,0.18,-73.11
609,252288296,0.6011,-0.7837,-0.6001,-72.26,1.04,-74.33
610,252293298,0.5801,-0.7832,-0.5913,-74.09,2.44,-75.91
611,252298438,0.5801,-0.7388,-0.5918,-75.79,3.84,-77.50
612,252303296,0.5981,-0.7310,-0.5981,-77.20,5.61,-79.39
613,252308296,0.5752,-0.6362,-0.6064,-77.87,6.89,-80.67
614,252313296,0.5918,-0.6230,-0.6001,-78.48,8.48,-82.07
615,252318296,0.5884,-0.6548,-0.6069,-79.33,10.24,-83.54
616,252323295,0.5752,-0.6855,-0.6133,-80.00,11.95,-84.82
617,252328296,0.5518,-0.6885,-0.6099,-80.49,13.60,-86.16
618,252333714,0.5532,-0.6611,-0.6172,-81.10,15.79,-87.56
619,252338510,0.5317,-0.6602,-0.6143,-81.46,17.44,-88.66
620,252343296,0.5469,-0.6455,-0.6162,-81.77,19.15,-89.63
621,252348296,0.5625,-0.6348,-0.6250,-81.83,20.98,-90.43
622,252353295,0.5679,-0.6230,-0.6147,-82.07,22.26,-91.10
623,252358295,0.5625,-0.6445,-0.6157,-82.32,24.02,-91.52
624,252363294,0.5703,-0.6694,-0.6279,-82.62,25.73,-91.89
625,252368294,0.4941,-0.6831,-0.7705,-82.56,27.07,-92.01
626,252373294,0.4648,-0.6548,-0.8271,-81.16,28.17,-92.38
627,252378294,0.5239,-0.6069,-0.8560,-78.17,30.37,-92.93
628,252383294,0.5688,-0.5586,-0.8604,-75.24,32.62,-93.96
629,252388294,0.6055,-0.5376,-0.7310,-72.93,35.24,-94.88
630,252393294,0.6021,-0.5400,-0.6870,-71.95,37.99,-95.49
631,252398294,0.5977,-0.5391,-0.6699,-71.52,40.43,-95.85
632,252403294,0.6040,-0.5127,-0.6567,-71.22,42.80,-96.04
633,252408294,0.5884,-0.4839,-0.6440,-71.04,45.37,-96.34
634,252413298,0.5986,-0.4766,-0.6421,-71.40,48.29,-96.71
635,252418298,0.6284,-0.4712,-0.6479,-72.20,50.85,-96.77
636,252423667,0.6348,-0.4663,-0.6523,-73.96,53.29,-96.65
637,252428296,0.6353,-0.4526,-0.6367,-76.46,55.61,-96.28
638,252433295,0.6235,-0.4429,-0.6245,-79.45,58.29,-95.73
639,252438298,0.6245,-0.4390,-0.6235,-82.99,60.73,-95.00
640,252443296,0.6528,-0.4297,-0.6167,-87.01,63.05,-94.09
641,252448296,0.6484,-0.4238,-0.5898,-91.10,65.30,-93.17
642,252453296,0.6748,-0.4028,-0.5728,-95.91,67.50,-92.13
643,252458297,0.6680,-0.3945,-0.5806,-100.73,69.51,-90.91
644,252463296,0.6875,-0.3730,-0.5698,-105.49,71.65,-89.63
645,252468296,0.6724,-0.3701,-0.5654,-110.12,73.72,-87.93
646,252473296,0.6729,-0.3687,-0.5640,-113.90,75.61,-85.98
647,252478300,0.6650,-0.3662,-0.5737,-117.20,77.74,-84.09
648,252483296,0.6548,-0.3613,-0.5591,-119.45,80.06,-82.20
649,252488296,0.6431,-0.3477,-0.5415,-120.85,82.62,-80.12
650,252493296,0.6294,-0.3354,-0.5234,-121.28,86.10,-78.23
651,252498296,0.6079,-0.3232,-0.5005,-120.79,87.13,-76.28
652,252503296,0.5747,-0.3135,-0.4678,-119.45,90.98,-74.39
653,252508296,0.5400,-0.3125,-0.4453,-117.44,94.39,-72.50
654,252513296,0.5142,-0.3149,-0.4106,-114.70,97.87,-70.49
655,252518296,0.4888,-0.3140,-0.3838,-111.34,101.40,-68.29
656,252523296,0.4795,-0.3140,-0.3438,-107.87,104.70,-65.98
657,252528295,0.4937,-0.2983,-0.3140,-104.02,108.23,-63.54
658,252533296,0.4644,-0.2930,-0.2886,-100.06,111.65,-60.98
659,252538296,0.4814,-0.2793,-0.2607,-96.10,114.88,-58.41
660,252543296,0.4678,-0.2778,-0.2368,-92.20,117.87,-55.49
661,252548381,0.4839,-0.2593,-0.2090,-88.29,120.43,-52.62
662,252553657,0.4878,-0.2490,-0.1919,-85.00,122.93,-49.57
663,252558296,0.4854,-0.2310,-0.1704,-81.71,125.18,-46.46
664,252563294,0.5034,-0.2124,-0.1514,-78.78,127.13,-43.05
665,252568294,0.5225,-0.1885,-0.1294,-76.04,128.96,-39.76
666,252573294,0.5181,-0.1797,-0.1230,-73.84,130.49,-36.40
667,252578294,0.5537,-0.1650,-0.1035,-71.83,131.83,-33.11
668,252583294,0.5425,-0.1587,-0.0811,-70.30,132.87,-29.39
669,252588296,0.5747,-0.1455,-0.0679,-69.27,133.78,-25.79
670,252593296,0.5791,-0.1401,-0.0527,-68.48,134.57,-21.95
671,252598296,0.5679,-0.1543,-0.0444,-68.05,135.18,-17.93
672,252603296,0.5928,-0.1543,-0.0220,-68.05,135.67,-12.68
673,252608296,0.5928,-0.1641,-0.0098,-68.29,135.79,-9.02
674,252613296,0.5967,-0.1641,0.0034,-68.90,135.98,-4.27
675,252618296,0.6162,-0.1787,0.0239,-69.63,136.22,0.85
676,252623300,0.6025,-0.1875,0.0439,-71.10,136.34,7.07
677,252628296,0.6152,-0.1880,0.0557,-72.20,136.46,11.59
678,252633295,0.6006,-0.1968,0.0640,-73.54,136.46,17.20
679,252638296,0.6001,-0.1919,0.0879,-75.24,136.52,22.93
680,252643295,0.5967,-0.1919,0.1016,-76.52,136.59,28.84
681,252648296,0.6079,-0.1797,0.1250,-77.80,136.52,34.76
682,252653359,0.6025,-0.1763,0.1406,-78.66,136.59,40.67
683,252658408,0.5801,-0.1792,0.1606,-79.51,136.71,46.52
684,252663297,0.5815,-0.1797,0.1909,-80.18,136.89,53.54
685,252668296,0.5898,-0.1851,0.1948,-80.43,136.89,58.29
686,252673296,0.5938,-0.1826,0.2163,-80.37,137.07,64.09
687,252678296,0.5850,-0.1982,0.2476,-80.30,137.01,70.18
688,252683295,0.5649,-0.1890,0.2656,-79.88,137.13,75.98
689,252688294,0.5659,-0.1855,0.2842,-78.78,137.44,81.83
690,252693294,0.5469,-0.2085,0.3101,-77.32,137.50,87.44
691,252698294,0.5444,-0.2207,0.3286,-75.67,137.80,93.23
692,252703294,0.5635,-0.2378,0.3296,-73.60,137.99,99.09
693,252708296,0.5249,-0.2402,0.3262,-70.85,137.99,104.94
694,252713405,0.5098,-0.2803,0.3799,-66.89,137.74,110.61
695,252718296,0.5361,-0.3115,0.4033,-61.71,137.99,117.62
696,252723296,0.5615,-0.3169,0.4287,-57.74,138.17,122.38
697,252728296,0.5503,-0.3022,0.4727,-52.26,138.78,127.93
698,252733295,0.5542,-0.3452,0.4756,-46.16,139.63,133.54
699,252738296,0.5806,-0.3779,0.4814,-39.63,140.30,139.15
700,252743296,0.5610,-0.4033,0.5093,-33.17,141.04,144.76
701,252748296,0.5439,-0.4204,0.5381,-26.52,141.83,150.06
702,252753296,0.5244,-0.4312,0.5293,-20.18,142.56,155.12
703,252758296,0.5122,-0.4272,0.5259,-13.90,142.87,160.00
704,252763296,0.4595,-0.4409,0.5410,-7.50,142.99,165.61
705,252768295,0.4863,-0.4541,0.5737,-3.72,143.17,169.33
706,252773295,0.4878,-0.4722,0.5718,0.43,142.93,173.90
707,252778294,0.4932,-0.4961,0.5884,4.02,142.62,178.35
708,252783294,0.4756,-0.5381,0.6138,7.13,142.20,182.80
709,252788294,0.4648,-0.5801,0.6323,10.06,141.22,187.26
710,252793295,0.4663,-0.6108,0.6597,12.68,140.00,191.65
711,252798296,0.4375,-0.6323,0.6782,15.24,138.41,195.91
712,252803296,0.4189,-0.6519,0.7051,17.38,136.34,200.12
713,252808296,0.3853,-0.6543,0.7344,19.63,133.90,204.09
714,252813296,0.3296,-0.6616,0.7666,22.38,130.49,208.35
715,252818296,0.2954,-0.6660,0.7949,24.82,127.26,211.34
716,252823296,0.2637,-0.6826,0.8286,27.38,123.66,214.09
717,252828297,0.2241,-0.7090,0.8569,30.00,119.88,216.65
718,252833296,0.1797,-0.7412,0.8872,32.93,115.85,218.84
719,252838294,0.1538,-0.7627,0.9219,35.85,111.71,220.91
720,252843294,0.1230,-0.7988,0.9541,38.90,107.20,222.93
721,252848296,0.0996,-0.8306,0.9854,41.83,102.56,224.70
722,252853296,0.0811,-0.8486,1.0029,44.63,97.80,226.34
723,252858296,0.0537,-0.8740,1.0415,47.50,93.05,228.11
724,252863296,0.0273,-0.8936,1.0889,50.30,88.54,229.45
725,252868297,0.0195,-0.9106,1.1284,52.99,84.09,230.49
726,252873296,-0.0176,-0.9409,1.1660,55.67,78.29,231.10
727,252878296,-0.0308,-0.9604,1.2095,58.17,72.56,231.52
728,252883295,-0.0771,-0.9902,1.2329,60.43,66.52,231.40
729,252888742,-0.1260,-1.0259,1.2656,62.38,60.12,231.10
730,252893296,-0.1548,-1.0557,1.2817,63.66,53.29,230.55
731,252898298,-0.1675,-1.0781,1.3115,64.21,45.91,229.70
732,252903508,-0.1938,-1.1265,1.3481,64.39,37.99,228.72
733,252908766,-0.2236,-1.1841,1.3711,63.96,29.76,227.44
734,252913296,-0.2485,-1.2393,1.3833,62.80,21.04,226.04
735,252918296,-0.2583,-1.2861,1.4160,61.40,11.89,224.45
736,252923296,-0.2671,-1.3218,1.4287,59.70,2.32,222.74
737,252928296,-0.2783,-1.3569,1.4512,57.99,-7.56,220.73
738,252933296,-0.2905,-1.3853,1.4751,56.71,-17.68,218.35
739,252938298,-0.2969,-1.4146,1.4922,55.98,-28.23,215.73
740,252943296,-0.3394,-1.4580,1.5200,55.85,-39.15,212.80
741,252948296,-0.3311,-1.4829,1.5381,56.34,-50.12,209.45
742,252953296,-0.3613,-1.5332,1.5425,57.50,-61.28,206.10
743,252958296,-0.3657,-1.5557,1.5459,59.27,-72.93,202.50
744,252963296,-0.4082,-1.5967,1.5640,61.65,-84.76,198.72
745,252968296,-0.4258,-1.6562,1.5625,64.27,-96.71,194.88
746,252973295,-0.4258,-1.6958,1.5698,67.32,-108.96,191.10
747,252978295,-0.4546,-1.7212,1.5713,70.49,-121.40,187.26
748,252983294,-0.4897,-1.7817,1.5640,73.60,-133.90,183.05
749,252988294,-0.4707,-1.7837,1.5703,76.89,-146.65,178.78
750,252993294,-0.5205,-1.8105,1.5581,79.76,-159.21,174.15
751,252998294,-0.5186,-1.8066,1.5508,82.26,-171.95,169.45
752,253003294,-0.5596,-1.8179,1.5508,84.39,-184.39,164.33
753,253008294,-0.5659,-1.8389,1.5371,85.67,-196.77,159.09
754,253013295,-0.5981,-1.8608,1.5283,86.46,-208.72,153.66
755,253018294,-0.5996,-1.8657,1.5229,86.59,-220.61,147.80
756,253023294,-0.6333,-1.8628,1.5088,86.40,-232.13,142.20
757,253028294,-0.6479,-1.8447,1.4878,86.16,-243.23,136.10
758,253033294,-0.6499,-1.8345,1.4800,85.73,-253.90,130.00
759,253038294,-0.6826,-1.8354,1.4121,85.00,-264.15,123.78
760,253043294,-0.6685,-1.8193,1.3970,84.57,-274.57,117.80
761,253048294,-0.6621,-1.8315,1.3813,84.15,-284.27,111.83
762,253053294,-0.6729,-1.8188,1.3364,84.39,-293.41,106.34
763,253058294,-0.6660,-1.8242,1.2935,85.00,-302.32,100.79
764,253063294,-0.6714,-1.8120,1.2651,86.04,-310.73,95.49
765,253068294,-0.6978,-1.8149,1.2280,87.56,-318.60,90.06
766,253073294,-0.6880,-1.7944,1.1987,89.51,-325.98,85.49
767,253078294,-0.7227,-1.7847,1.1577,91.52,-333.05,80.24
768,253083294,-0.7383,-1.7817,1.1211,94.27,-339.39,75.30
769,253088296,-0.7539,-1.7832,1.0894,97.13,-345.18,70.61
770,253093297,-0.7983,-1.7920,1.0288,100.30,-350.91,66.46
771,253098295,-0.7939,-1.7920,0.9629,104.15,-357.32,61.83
772,253103296,-0.8130,-1.8115,0.9243,106.59,-361.46,59.15
773,253108295,-0.7969,-1.8208,0.8525,109.63,-367.07,55.91
774,253113321,-0.8101,-1.8379,0.7998,111.16,-370.73,54.09
775,253118298,-0.7788,-1.8428,0.7583,112.20,-374.82,52.13
776,253123296,-0.7974,-1.8584,0.6533,112.32,-379.51,50.67
777,253128296,-0.7676,-1.8252,0.6782,111.89,-382.38,49.82
778,253133298,-0.7148,-1.8345,0.5991,110.18,-385.49,48.96
779,253138296,-0.7339,-1.8848,0.5024,107.38,-388.41,48.11
780,253143295,-0.7437,-1.8877,0.4937,103.78,-390.98,47.62
781,253148296,-0.7153,-1.8481,0.4648,99.63,-392.68,47.07
782,253153295,-0.7173,-1.8623,0.3354,94.57,-394.02,46.34
783,253158296,-0.7095,-1.7983,0.3179,88.54,-394.88,45.06
784,253163299,-0.7310,-1.7891,0.2915,82.20,-394.51,43.29
785,253168426,-0.7070,-1.7402,0.2329,75.98,-392.99,40.91
786,253173296,-0.7188,-1.7324,0.0933,70.49,-391.16,37.68
787,253178386,-0.6963,-1.6821,0.0645,66.65,-388.41,34.09
788,253183296,-0.7119,-1.7065,-0.0967,64.57,-384.88,30.06
789,253188294,-0.7275,-1.6377,-0.2754,64.94,-381.65,25.55
790,253193294,-0.7363,-1.6313,-0.3589,67.87,-378.29,20.91
791,253198294,-0.7495,-1.6113,-0.4541,72.80,-374.21,16.46
792,253203294,-0.7085,-1.5986,-0.5923,79.21,-369.94,12.32
793,253208294,-0.7114,-1.5679,-0.6509,86.46,-364.88,8.17
794,253213297,-0.7163,-1.5400,-0.7393,93.84,-358.72,4.15
795,253218296,-0.7061,-1.5059,-0.7944,100.55,-351.77,0.06
796,253223296,-0.6719,-1.4541,-0.8452,105.61,-343.90,-4.15
797,253228296,-0.6465,-1.4033,-0.9194,108.11,-335.30,-8.48
798,253233296,-0.6362,-1.3584,-0.9902,107.74,-326.04,-13.48
799,253238296,-0.6279,-1.3232,-1.0317,103.78,-313.84,-19.39
800,253243296,-0.6030,-1.2720,-1.0806,98.60,-302.93,-24.57
801,253248767,-0.5942,-1.2505,-1.1401,92.32,-292.01,-29.82
802,253253296,-0.4678,-1.2124,-1.1357,85.85,-280.55,-35.37
803,253258295,-0.4170,-1.1855,-1.1968,79.33,-268.72,-40.85
804,253263294,-0.3628,-1.1553,-1.2354,72.68,-257.26,-46.22
805,253268296,-0.4238,-1.1562,-1.2656,65.61,-245.49,-51.46
806,253273295,-0.3325,-1.0928,-1.2495,58.60,-233.66,-56.65
807,253278296,-0.3047,-1.0649,-1.2632,50.67,-221.52,-61.95
808,253283294,-0.3188,-1.0405,-1.2500,42.50,-209.57,-67.26
809,253288294,-0.2705,-1.0005,-1.2412,34.09,-197.68,-72.26
810,253293374,-0.2100,-0.9531,-1.2388,25.30,-185.85,-77.01
811,253298296,-0.2065,-0.9326,-1.2266,16.04,-174.27,-81.34
812,253303294,-0.1953,-0.8984,-1.1875,6.65,-162.87,-85.12
813,253308296,-0.1670,-0.8628,-1.1621,-2.62,-151.89,-88.48
814,253313296,-0.1504,-0.8115,-1.1230,-11.10,-141.28,-91.71
815,253318296,-0.1538,-0.7710,-1.0977,-18.48,-130.98,-94.27
816,253323723,-0.0830,-0.7231,-1.0605,-24.15,-121.22,-96.40
817,253328296,-0.0566,-0.6841,-1.0278,-28.41,-111.95,-97.99
818,253333296,-0.0493,-0.6538,-0.9956,-30.85,-103.05,-99.09
819,253338296,-0.0264,-0.6313,-0.9653,-31.34,-94.76,-99.21
820,253343295,-0.0078,-0.6182,-0.9282,-29.45,-86.71,-98.84
821,253348296,0.0000,-0.6006,-0.9072,-25.55,-79.33,-97.87
822,253353765,0.0630,-0.5654,-0.8770,-20.06,-72.44,-96.16
823,253358296,0.1055,-0.5469,-0.8262,-13.54,-66.04,-94.21
824,253363296,0.1104,-0.5352,-0.8062,-6.46,-60.12,-91.65
825,253368296,0.1758,-0.5054,-0.7896,0.79,-54.94,-88.60
826,253373298,0.2363,-0.4795,-0.7500,7.38,-49.82,-85.55
827,253378448,0.2422,-0.4731,-0.7217,12.74,-45.06,-81.95
828,253383738,0.2324,-0.4727,-0.6929,17.38,-40.85,-78.11
829,253388610,0.2617,-0.4507,-0.6699,21.10,-37.01,-74.09
830,253393296,0.3359,-0.4189,-0.6416,23.11,-33.29,-70.12
831,253398296,0.3599,-0.3984,-0.6079,23.54,-29.82,-66.28
832,253403295,0.3262,-0.3853,-0.5967,22.62,-26.65,-62.20
833,253408296,0.3447,-0.3770,-0.5693,20.98,-23.72,-58.11
834,253413296,0.3916,-0.3687,-0.5337,18.60,-21.04,-53.96
835,253418296,0.4165,-0.3657,-0.5229,15.43,-18.54,-49.76
836,253423296,0.4272,-0.3750,-0.4980,11.77,-16.16,-45.55
837,253428295,0.4409,-0.3857,-0.4751,7.87,-14.09,-41.16
838,253433725,0.4668,-0.3877,-0.4399,3.72,-12.01,-36.89
839,253438296,0.4658,-0.3882,-0.4194,0.06,-10.37,-32.74
840,253443527,0.4878,-0.3848,-0.3945,-3.35,-8.48,-28.72
841,253448296,0.5244,-0.3867,-0.3633,-6.52,-6.95,-24.88
842,253453296,0.5459,-0.3960,-0.3462,-9.09,-5.49,-20.91
843,253458296,0.5474,-0.4092,-0.3384,-11.52,-4.21,-17.20
844,253463296,0.5425,-0.4297,-0.3169,-13.60,-2.93,-13.29
845,253468296,0.5449,-0.4355,-0.2988,-15.18,-1.83,-8.72
846,253473296,0.5669,-0.4429,-0.2974,-15.91,-1.10,-5.85
847,253478296,0.5581,-0.4551,-0.2832,-16.46,-0.06,-2.26
848,253483295,0.5786,-0.4624,-0.2642,-16.71,0.85,1.28
849,253488296,0.5879,-0.4795,-0.2505,-16.83,1.77,4.76
850,253493294,0.5825,-0.4932,-0.2407,-16.89,2.62,8.23
851,253498294,0.5859,-0.5088,-0.2324,-16.77,3.41,11.34
852,253503294,0.6035,-0.5234,-0.2178,-16.83,4.09,14.51
853,253508294,0.6143,-0.5396,-0.2002,-16.89,4.63,17.56
854,253513298,0.6313,-0.5669,-0.1831,-16.95,5.24,20.55
855,253518296,0.6431,-0.5874,-0.1675,-16.95,5.61,23.29
856,253523763,0.6460,-0.6143,-0.1567,-16.59,5.91,26.46
857,253528296,0.6562,-0.6270,-0.1489,-16.34,5.98,28.23
858,253533296,0.6768,-0.6548,-0.1367,-16.10,5.91,30.55
859,253538296,0.6758,-0.6797,-0.1250,-15.85,5.98,32.50
860,253543329,0.6753,-0.7085,-0.1162,-15.91,5.91,34.15
861,253548296,0.6782,-0.7197,-0.1089,-16.16,5.67,35.73
862,253553296,0.6880,-0.7319,-0.1094,-16.71,5.43,36.89
863,253558296,0.6885,-0.7554,-0.1089,-17.56,5.24,37.87
864,253563296,0.6934,-0.7695,-0.1055,-18.54,5.12,38.66
865,253568300,0.6924,-0.7827,-0.1001,-19.82,4.94,39.21
866,253573296,0.7012,-0.7954,-0.0991,-20.85,4.88,39.45
867,253578296,0.7124,-0.8135,-0.1035,-22.26,4.82,39.70
868,253583295,0.7041,-0.8286,-0.1050,-23.60,5.00,39.57
869,253588296,0.7070,-0.8408,-0.1050,-25.06,4.94,39.39
870,253593294,0.7046,-0.8447,-0.1084,-26.59,5.12,39.02
871,253598294,0.7261,-0.8604,-0.1006,-28.05,4.94,38.60
872,253603294,0.7241,-0.8726,-0.1113,-29.39,4.82,38.05
873,253608294,0.7070,-0.8896,-0.1113,-30.43,4.88,37.32
874,253613296,0.7065,-0.8999,-0.1118,-31.46,4.63,36.59
875,253618296,0.7163,-0.9033,-0.1221,-32.26,4.45,35.79
876,253623296,0.7158,-0.9146,-0.1240,-32.99,4.15,34.76
877,253628296,0.6968,-0.9272,-0.1270,-33.48,3.78,33.60
878,253633296,0.6875,-0.9326,-0.1313,-33.60,3.60,32.62
879,253638296,0.6846,-0.9380,-0.1426,-33.72,3.35,31.46
880,253643295,0.6792,-0.9453,-0.1523,-33.41,2.93,30.24
881,253648668,0.6719,-0.9517,-0.1572,-33.11,2.62,28.72
882,253653296,0.6694,-0.9492,-0.1626,-32.80,2.44,27.68
883,253658296,0.6587,-0.9531,-0.1753,-32.62,2.01,26.28
884,253663588,0.6445,-0.9580,-0.1826,-32.56,1.89,24.70
885,253668672,0.6230,-0.9536,-0.1821,-32.50,1.89,23.23
886,253673296,0.6206,-0.9424,-0.1885,-32.44,1.83,22.07
887,253678296,0.6099,-0.9419,-0.1895,-32.62,2.01,20.24
888,253683295,0.5908,-0.9365,-0.1948,-33.05,2.01,18.78
889,253688298,0.5898,-0.9312,-0.2056,-33.60,2.01,17.26
890,253693294,0.5664,-0.9355,-0.2061,-34.33,2.01,15.85
891,253698294,0.5742,-0.9355,-0.2041,-35.43,2.01,14.57
892,253703294,0.5396,-0.9258,-0.2124,-36.95,2.13,12.87
893,253708294,0.5693,-0.9932,-0.2656,-38.11,1.83,11.52
894,253713295,0.5762,-0.9292,-0.2783,-37.01,1.22,11.04
895,253718630,0.5254,-0.8848,-0.1841,-34.33,1.04,10.24
896,253723296,0.5088,-0.8823,-0.1826,-31.22,1.10,9.63
897,253728600,0.5024,-0.8730,-0.2285,-28.17,0.91,9.02
898,253733296,0.5161,-0.8599,-0.1973,-25.06,0.30,8.60
899,253738296,0.4941,-0.8657,-0.1719,-22.01,-0.18,8.48
900,253743725,0.4805,-0.8633,-0.1714,-18.90,-0.67,8.60
901,253748296,0.5264,-0.8916,-0.1611,-17.13,-1.40,9.02
902,253753297,0.5098,-0.8154,-0.1304,-17.13,-2.01,9.57
903,253758386,0.4702,-0.7778,-0.1567,-17.62,-2.50,9.51
904,253763780,0.4546,-0.8037,-0.1963,-18.54,-3.23,9.51
905,253768296,0.4375,-0.8169,-0.1387,-20.79,-3.90,9.82
906,253773296,0.4517,-0.8013,-0.1362,-22.93,-4.15,10.43
907,253778296,0.4438,-0.7612,-0.1494,-24.88,-4.39,10.85
908,253783765,0.4243,-0.7349,-0.1523,-26.65,-4.63,11.22
909,253788296,0.3901,-0.7207,-0.1548,-28.35,-4.45,11.71
910,253793297,0.3511,-0.7070,-0.1719,-30.49,-4.51,12.13
911,253798296,0.3750,-0.7192,-0.1709,-33.05,-4.39,12.62
912,253803296,0.3760,-0.7349,-0.1797,-35.98,-3.96,13.23
913,253808299,0.3799,-0.7432,-0.1797,-39.09,-3.23,13.90
914,253813296,0.3828,-0.7500,-0.2017,-42.62,-2.62,14.63
915,253818296,0.4185,-0.7241,-0.2285,-46.46,-2.13,15.24
916,253823296,0.4067,-0.6934,-0.2251,-50.73,-1.34,15.61
917,253828296,0.4116,-0.6655,-0.2275,-54.76,-0.37,15.98
918,253833296,0.4165,-0.6538,-0.2397,-58.35,0.49,16.10
919,253838296,0.4053,-0.6445,-0.2524,-62.07,1.46,16.40
920,253843298,0.4019,-0.6372,-0.2515,-65.61,2.56,16.71
921,253848433,0.3921,-0.6357,-0.2627,-69.15,3.72,17.13
922,253853296,0.3901,-0.6113,-0.2681,-72.68,5.00,17.44
923,253858295,0.3931,-0.6206,-0.2783,-76.52,6.28,17.80
924,253863296,0.4199,-0.6094,-0.2925,-80.37,7.38,18.35
925,253868296,0.4248,-0.6035,-0.2793,-84.02,8.41,18.84
926,253873777,0.4160,-0.6196,-0.2935,-87.80,9.51,19.27
927,253878296,0.4204,-0.6152,-0.3032,-91.40,10.61,19.88
928,253883295,0.4292,-0.6118,-0.3022,-95.18,11.59,20.37
929,253888294,0.4219,-0.6074,-0.3032,-98.72,12.56,21.04
930,253893297,0.4175,-0.6025,-0.3115,-102.38,13.78,21.77
931,253898294,0.4165,-0.6060,-0.3120,-105.73,14.63,22.44
932,253903294,0.4116,-0.6030,-0.3105,-109.21,15.73,23.11
933,253908294,0.4146,-0.6064,-0.3145,-112.44,16.71,23.96
934,253913294,0.4067,-0.6128,-0.3257,-115.61,17.68,24.88
935,253918865,0.3994,-0.6138,-0.3267,-119.27,19.09,26.28
936,253923296,0.3975,-0.6147,-0.3276,-121.77,20.00,27.07
937,253928295,0.3892,-0.6084,-0.3252,-124.51,21.04,28.17
938,253933296,0.3813,-0.6025,-0.3291,-127.20,22.26,29.70
939,253938296,0.3696,-0.6045,-0.3281,-130.18,23.60,31.28
940,253943296,0.3711,-0.6035,-0.3262,-131.89,24.57,32.44
941,253948295,0.3677,-0.6030,-0.3203,-134.15,25.73,34.02
942,253953296,0.3672,-0.6069,-0.3315,-136.40,26.77,35.73
943,253958295,0.3608,-0.6001,-0.3228,-138.48,27.74,37.32
944,253963296,0.3457,-0.6035,-0.3193,-140.55,28.66,39.02
945,253968296,0.3462,-0.5972,-0.3193,-142.44,29.39,40.91
946,253973296,0.3501,-0.5923,-0.3120,-144.15,30.06,42.87
947,253978296,0.3511,-0.5854,-0.3159,-145.73,30.61,44.63
948,253983298,0.3525,-0.5830,-0.3188,-147.13,30.91,46.71
949,253988295,0.3643,-0.5811,-0.3154,-148.48,31.16,48.54
950,253993296,0.3633,-0.5806,-0.3091,-149.51,31.28,50.61
951,253998296,0.3521,-0.5752,-0.3086,-150.49,31.04,52.50
952,254003300,0.3516,-0.5649,-0.3193,-151.40,30.98,54.70
953,254008300,0.3574,-0.5542,-0.3096,-152.13,30.73,56.46
954,254013296,0.3408,-0.5513,-0.3125,-152.68,30.43,57.87
955,254018296,0.3398,-0.5503,-0.3105,-153.35,29.94,59.57
956,254023296,0.3364,-0.5474,-0.3091,-154.21,29.33,61.28
957,254028296,0.3325,-0.5483,-0.3228,-155.37,28.48,62.74
958,254033296,0.3276,-0.5576,-0.3252,-156.89,27.56,64.82
959,254038296,0.3193,-0.5625,-0.3301,-158.17,26.89,66.40
960,254043296,0.3228,-0.5747,-0.3374,-159.94,25.85,68.29
961,254048295,0.3174,-0.5815,-0.3457,-161.89,24.94,70.37
962,254053294,0.3086,-0.5972,-0.3555,-164.21,23.78,72.56
963,254058294,0.2954,-0.6133,-0.3643,-166.46,22.80,75.18
964,254063294,0.2935,-0.6279,-0.3750,-168.78,21.83,77.87
965,254068294,0.2949,-0.6421,-0.3828,-171.10,20.67,80.85
966,254073294,0.2930,-0.6489,-0.3960,-173.11,19.57,83.90
967,254078294,0.2920,-0.6582,-0.3979,-174.82,18.35,87.20
968,254083294,0.2998,-0.6582,-0.4077,-176.16,17.32,90.30
969,254088295,0.2969,-0.6616,-0.4092,-177.07,16.28,93.90
970,254093294,0.2959,-0.6567,-0.4155,-177.44,14.94,97.44
971,254098294,0.2871,-0.6484,-0.4121,-177.20,13.96,100.79
972,254103294,0.2759,-0.6436,-0.4165,-176.34,12.80,104.09
973,254108294,0.2700,-0.6382,-0.4233,-174.82,11.83,107.20
974,254113333,0.2593,-0.6216,-0.4189,-172.62,10.67,110.30
975,254118294,0.2554,-0.6240,-0.4282,-170.00,9.39,113.29
976,254123294,0.2437,-0.6162,-0.4272,-166.95,8.29,116.40
977,254128294,0.2251,-0.6162,-0.4346,-163.48,7.07,119.21
978,254133294,0.2139,-0.6167,-0.4429,-159.88,5.67,122.07
979,254138294,0.2031,-0.6182,-0.4492,-156.16,4.70,124.82
980,254143301,0.1929,-0.6118,-0.4644,-151.46,3.29,128.05
981,254148795,0.1958,-0.5996,-0.4673,-147.50,2.20,130.67
982,254153296,0.1821,-0.5898,-0.4707,-143.48,1.34,132.93
983,254158295,0.1704,-0.5913,-0.4780,-139.45,0.55,135.24
984,254163296,0.1577,-0.5928,-0.4888,-135.73,-0.18,137.32
985,254168296,0.1465,-0.5981,-0.4966,-132.26,-0.85,139.39
986,254173296,0.1343,-0.5996,-0.5054,-128.90,-1.46,141.28
987,254178296,0.1172,-0.5981,-0.5103,-125.85,-1.95,143.35
988,254183295,0.1045,-0.6084,-0.5156,-122.87,-2.44,145.37
989,254188295,0.1084,-0.6040,-0.5195,-120.18,-3.11,147.44
990,254193294,0.1113,-0.6064,-0.5259,-117.50,-3.48,149.63
991,254198298,0.1074,-0.6182,-0.5352,-115.06,-4.33,151.83
992,254203294,0.0991,-0.6255,-0.5312,-112.74,-4.88,154.27
993,254208296,0.1099,-0.6226,-0.5312,-110.43,-5.85,156.71
994,254213297,0.0952,-0.6235,-0.5249,-108.29,-6.89,159.27
995,254218296,0.1064,-0.6196,-0.5249,-106.10,-7.80,161.71
996,254223296,0.1025,-0.6289,-0.5405,-103.84,-8.96,164.39
997,254228296,0.0947,-0.6304,-0.5420,-101.40,-10.12,166.89
998,254233752,0.0820,-0.6313,-0.5425,-98.90,-11.34,169.45
999,254238296,0.0864,-0.6230,-0.5459,-96.10,-12.44,172.07
1000,254243740,0.0605,-0.6235,-0.5454,-92.93,-13.54,174.39
1001,254248296,0.0552,-0.6157,-0.5459,-89.51,-14.57,176.71
1002,254253535,0.0439,-0.6123,-0.5552,-85.67,-15.55,179.02
1003,254258296,0.0435,-0.6074,-0.5659,-81.59,-16.52,181.22
1004,254263295,0.0381,-0.6060,-0.5728,-77.01,-17.13,183.29
1005,254268296,0.0166,-0.6025,-0.5791,-72.01,-17.80,185.18
1006,254273296,0.0010,-0.6050,-0.5874,-66.77,-18.23,187.07
1007,254278296,-0.0151,-0.6045,-0.5933,-61.04,-18.35,188.90
1008,254283303,-0.0293,-0.6001,-0.6011,-55.24,-18.48,190.61
1009,254288295,-0.0513,-0.6094,-0.6055,-49.27,-18.66,192.13
1010,254293782,-0.0640,-0.6055,-0.6221,-43.54,-18.66,193.54
1011,254298296,-0.0732,-0.6006,-0.6167,-38.05,-18.60,195.12
1012,254303296,-0.0908,-0.6084,-0.6289,-32.68,-18.41,196.65
1013,254308296,-0.0972,-0.6035,-0.6279,-27.68,-18.29,198.05
1014,254313719,-0.0957,-0.6113,-0.6304,-22.93,-18.29,199.33
1015,254318296,-0.1064,-0.6250,-0.6362,-18.72,-18.35,200.85
1016,254323294,-0.1221,-0.6357,-0.6440,-14.94,-18.48,202.20
1017,254328294,-0.1143,-0.6426,-0.6548,-11.71,-18.41,203.96
1018,254333294,-0.1558,-0.6650,-0.6675,-9.15,-18.66,205.43
1019,254338294,-0.1616,-0.6641,-0.6665,-6.83,-18.60,207.07
1020,254343297,-0.1826,-0.6753,-0.6748,-4.82,-18.35,208.60
1021,254348296,-0.1997,-0.6733,-0.6763,-2.80,-17.93,210.12
1022,254353295,-0.2217,-0.6768,-0.6870,-0.67,-17.32,211.83
1023,254358296,-0.2344,-0.6860,-0.6968,0.67,-16.71,212.74
1024,254363300,-0.2681,-0.6938,-0.7075,2.38,-15.91,213.84
1025,254368296,-0.2891,-0.6992,-0.7163,3.96,-14.82,214.94
1026,254373296,-0.2993,-0.7100,-0.7222,5.24,-13.78,215.98
1027,254378296,-0.3208,-0.7153,-0.7280,6.77,-12.44,217.01
1028,254383296,-0.3218,-0.7246,-0.7319,8.41,-11.28,217.93
1029,254388296,-0.3477,-0.7324,-0.7339,10.61,-9.94,218.72
1030,254393296,-0.3638,-0.7378,-0.7344,13.96,-8.41,219.45
1031,254398296,-0.3564,-0.7344,-0.7344,16.65,-7.32,219.82
1032,254403298,-0.3608,-0.7402,-0.7373,20.55,-6.10,220.06
1033,254408295,-0.3818,-0.7432,-0.7446,25.00,-4.51,220.24
1034,254413296,-0.4111,-0.7441,-0.7485,29.88,-3.17,220.37
1035,254418296,-0.4302,-0.7520,-0.7500,35.24,-1.52,220.00
1036,254423296,-0.4424,-0.7656,-0.7642,40.61,0.18,219.94
1037,254428296,-0.4600,-0.7827,-0.7695,45.61,1.65,219.45
1038,254433296,-0.4839,-0.8159,-0.7773,50.12,3.35,219.21
1039,254438299,-0.4951,-0.8354,-0.7676,54.45,5.18,219.02
1040,254443296,-0.5195,-0.8481,-0.7739,56.83,6.65,218.90
1041,254448296,-0.5020,-0.8486,-0.7705,59.57,8.35,218.60
1042,254453297,-0.5234,-0.8623,-0.7676,62.01,10.12,218.35
1043,254458295,-0.5205,-0.8613,-0.7705,64.15,11.95,217.74
1044,254463297,-0.5493,-0.8711,-0.7651,66.04,13.90,217.20
1045,254468294,-0.5693,-0.8867,-0.7632,67.62,15.61,216.34
1046,254473296,-0.5669,-0.8916,-0.7559,68.54,17.50,215.61
1047,254478294,-0.5859,-0.9121,-0.7549,69.09,19.45,214.76
1048,254483294,-0.5796,-0.9150,-0.7524,69.09,21.16,213.90
1049,254488294,-0.5762,-0.9214,-0.7451,69.33,23.17,212.74
1050,254493294,-0.5781,-0.9170,-0.7378,69.94,24.94,211.46
1051,254498294,-0.5684,-0.9180,-0.7280,70.98,26.65,210.00
1052,254503295,-0.5767,-0.9204,-0.7280,72.44,28.48,208.35
1053,254508295,-0.6035,-0.9165,-0.7241,74.70,30.30,206.46
1054,254513296,-0.5952,-0.9087,-0.7192,77.20,32.07,204.45
1055,254518295,-0.6157,-0.9155,-0.7217,80.18,33.96,202.20
1056,254523762,-0.6006,-0.9277,-0.7085,83.60,36.22,199.57
1057,254528296,-0.6167,-0.9341,-0.6953,85.61,37.62,197.68
1058,254533296,-0.6045,-0.9312,-0.6895,87.99,39.45,195.30
1059,254538296,-0.6250,-0.9370,-0.6816,90.12,41.28,192.74
1060,254543295,-0.5962,-0.9341,-0.6660,92.32,43.11,190.37
1061,254548295,-0.6123,-0.9390,-0.6562,94.21,44.63,187.74
1062,254553294,-0.5952,-0.9297,-0.6387,95.91,46.40,185.24
1063,254558294,-0.6167,-0.9380,-0.6313,97.20,47.99,182.62
1064,254563294,-0.5913,-0.9360,-0.6191,98.48,49.33,179.94
1065,254568294,-0.6011,-0.9351,-0.6069,99.33,50.91,177.32
1066,254573294,-0.5991,-0.9331,-0.5952,100.00,52.56,174.45
1067,254578294,-0.6040,-0.9263,-0.5840,100.67,54.02,171.22
1068,254583294,-0.5815,-0.9126,-0.5654,101.16,54.82,169.02
1069,254588465,-0.5903,-0.9053,-0.5562,101.77,56.10,165.85
1070,254593906,-0.5938,-0.8921,-0.5415,102.20,57.13,163.11
1071,254598464,-0.5796,-0.8882,-0.5254,102.50,57.99,160.49
1072,254603296,-0.6079,-0.8882,-0.5137,102.68,58.78,157.68
1073,254608296,-0.5952,-0.8892,-0.5146,102.01,59.51,154.94
1074,254613297,-0.6074,-0.9004,-0.4956,100.49,60.00,152.32
1075,254618296,-0.6030,-0.9297,-0.5391,97.87,59.88,149.70
1076,254623614,-0.5850,-0.8779,-0.4268,94.51,59.94,147.20
1077,254628296,-0.5811,-0.8755,-0.4468,90.85,60.18,144.27
1078,254633296,-0.5596,-0.8862,-0.4775,87.20,60.06,141.28
1079,254638642,-0.5747,-0.8906,-0.4419,83.35,59.51,138.41
1080,254643297,-0.5596,-0.8867,-0.4248,79.39,58.96,135.55
1081,254648296,-0.5581,-0.8799,-0.4331,75.37,58.35,132.50
1082,254653409,-0.5732,-0.8794,-0.4307,71.95,57.44,129.45
1083,254658296,-0.5479,-0.8633,-0.4053,68.78,56.65,126.46
1084,254663296,-0.5635,-0.8569,-0.3950,66.16,55.85,123.41
1085,254668296,-0.5698,-0.8467,-0.4058,64.09,54.76,120.30
1086,254673296,-0.5522,-0.8394,-0.3970,62.62,53.60,117.32
1087,254678296,-0.5654,-0.8374,-0.3770,61.71,52.56,114.39
1088,254683296,-0.5640,-0.8394,-0.3711,61.40,51.40,111.40
1089,254688296,-0.5444,-0.8228,-0.3799,61.46,50.06,108.54
1090,254693296,-0.5640,-0.8213,-0.3643,61.83,49.21,105.73
1091,254698296,-0.5835,-0.8184,-0.3506,62.44,47.93,103.11
1092,254703296,-0.5835,-0.8125,-0.3584,62.80,46.89,100.43
1093,254708296,-0.5581,-0.8003,-0.3535,63.41,45.67,97.74
1094,254713296,-0.5635,-0.7983,-0.3491,63.60,44.33,95.00
1095,254718296,-0.5767,-0.8027,-0.3325,64.02,43.29,92.50
1096,254723296,-0.5493,-0.7930,-0.3457,64.15,42.01,89.39
1097,254728296,-0.5669,-0.7944,-0.3413,64.45,40.49,86.40
1098,254733296,-0.5425,-0.7783,-0.3330,64.21,39.15,85.37
1099,254738750,-0.5645,-0.7842,-0.3247,64.09,37.62,82.44
1100,254743296,-0.5557,-0.7715,-0.3325,63.66,36.16,80.00
1101,254748296,-0.5771,-0.7715,-0.3228,63.11,34.63,77.68
1102,254753663,-0.5664,-0.7646,-0.3184,62.50,32.99,75.49
1103,254758296,-0.5796,-0.7622,-0.3169,61.59,31.65,73.54
1104,254763296,-0.5713,-0.7534,-0.3223,60.49,29.70,71.28
1105,254768296,-0.5869,-0.7544,-0.3242,59.76,28.41,69.82
1106,254773296,-0.5796,-0.7485,-0.3086,58.41,26.95,68.05
1107,254778297,-0.5864,-0.7515,-0.3105,57.20,25.49,66.46
1108,254783294,-0.5889,-0.7393,-0.3140,55.49,23.96,64.82
1109,254788294,-0.5913,-0.7412,-0.3145,53.66,22.44,63.29
1110,254793294,-0.6025,-0.7349,-0.3154,51.89,20.85,61.83
1111,254798294,-0.5991,-0.7261,-0.3218,50.30,19.15,60.12
1112,254803294,-0.5835,-0.7139,-0.3032,48.78,17.50,58.72
1113,254808706,-0.5718,-0.7163,-0.3027,47.01,15.85,56.95
1114,254813296,-0.5942,-0.7168,-0.3013,45.98,14.57,55.79
1115,254818295,-0.5913,-0.7109,-0.3081,44.63,12.93,54.39
1116,254823294,-0.5869,-0.7119,-0.3096,43.17,11.40,53.11
1117,254828294,-0.6035,-0.7061,-0.3086,41.95,9.88,51.71
1118,254833294,-0.5903,-0.6987,-0.3057,40.98,8.23,50.24
1119,254838294,-0.5957,-0.7026,-0.3169,40.30,6.89,48.96
1120,254843427,-0.6099,-0.6997,-0.3140,39.76,5.43,47.68
1121,254848296,-0.6069,-0.7036,-0.3169,39.15,3.66,46.28
1122,254853296,-0.6265,-0.7075,-0.3105,38.90,2.62,45.30
1123,254858296,-0.6118,-0.6987,-0.3140,38.60,1.22,44.15
1124,254863296,-0.6226,-0.7036,-0.3193,38.35,-0.30,42.68
1125,254868296,-0.6318,-0.6968,-0.3135,38.23,-1.22,41.95
1126,254873387,-0.6211,-0.6880,-0.3188,38.35,-2.50,40.73
1127,254878296,-0.6411,-0.6958,-0.3193,38.60,-3.72,39.57
1128,254883297,-0.6250,-0.6914,-0.3140,38.84,-4.94,38.35
1129,254888295,-0.6411,-0.6914,-0.3188,39.09,-6.22,37.20
1130,254893296,-0.6348,-0.6934,-0.3115,39.51,-7.68,35.79
1131,254898296,-0.6211,-0.6899,-0.3130,39.57,-8.54,34.82
1132,254903296,-0.6338,-0.6851,-0.3145,39.76,-9.88,33.60
1133,254908296,-0.6426,-0.6870,-0.3164,39.94,-11.10,32.50
