# skilleye imu stream v1
# device=xiao_esp32c6 imu=mpu6050 addr=0x68
# rate_hz=200 accel_range_g=16 gyro_range_dps=2000 dlpf_hz=94
# units: accel in g, gyro in deg/s, t_us in microseconds since boot (monotonic)
# no shared clock with the camera -- tap the racket once before each take
# so both recordings share a spike to align on
seq,t_us,ax,ay,az,gx,gy,gz
0,105438089,-0.8823,0.3921,0.0483,-14.76,9.51,2.01
1,105442985,-0.8799,0.3906,0.0498,-13.72,8.90,1.59
2,105447981,-0.8770,0.3901,0.0469,-12.50,8.17,0.98
3,105452980,-0.8784,0.3940,0.0420,-11.40,7.56,0.49
4,105457980,-0.8804,0.3984,0.0420,-10.24,6.83,0.12
5,105462980,-0.8770,0.3955,0.0371,-9.15,6.16,-0.30
6,105467982,-0.8779,0.4028,0.0352,-7.99,5.30,-0.67
7,105472983,-0.8789,0.3965,0.0371,-6.89,4.45,-1.04
8,105477982,-0.8755,0.3984,0.0352,-5.85,3.90,-1.40
9,105482982,-0.8770,0.4043,0.0347,-4.88,3.05,-1.71
10,105487980,-0.8730,0.4028,0.0288,-3.72,2.32,-1.89
11,105493486,-0.8740,0.4033,0.0278,-2.68,1.34,-2.07
12,105497982,-0.8687,0.4048,0.0308,-1.77,0.67,-2.26
13,105502982,-0.8662,0.4038,0.0273,-0.73,0.00,-2.44
14,105507982,-0.8711,0.4062,0.0254,0.18,-0.91,-2.44
15,105512981,-0.8677,0.4062,0.0288,1.16,-1.65,-2.50
16,105517980,-0.8647,0.4116,0.0200,2.13,-2.32,-2.50
17,105522982,-0.8687,0.4087,0.0244,2.99,-3.11,-2.74
18,105527980,-0.8716,0.4131,0.0303,3.90,-3.72,-2.74
19,105532980,-0.8765,0.4199,0.0278,4.94,-4.63,-2.80
20,105537981,-0.8726,0.4155,0.0259,5.61,-5.24,-2.87
21,105542982,-0.8765,0.4175,0.0249,6.52,-5.91,-2.93
22,105547980,-0.8740,0.4209,0.0234,7.13,-6.52,-2.99
23,105552980,-0.8760,0.4233,0.0298,7.93,-7.20,-3.11
24,105557982,-0.8809,0.4248,0.0259,8.60,-7.68,-3.17
25,105562980,-0.8818,0.4292,0.0283,9.21,-8.29,-3.29
26,105567980,-0.8779,0.4307,0.0273,9.82,-8.84,-3.23
27,105573019,-0.8789,0.4312,0.0298,10.30,-9.45,-3.41
28,105577982,-0.8833,0.4351,0.0249,11.04,-9.88,-3.41
29,105582980,-0.8838,0.4336,0.0308,11.28,-10.24,-3.41
30,105587982,-0.8867,0.4365,0.0366,11.71,-10.67,-3.54
31,105592980,-0.8877,0.4380,0.0327,12.01,-11.10,-3.48
32,105597982,-0.8848,0.4370,0.0312,12.44,-11.22,-3.48
33,105602982,-0.8857,0.4414,0.0312,12.74,-11.65,-3.54
34,105607981,-0.8818,0.4385,0.0361,12.93,-12.07,-3.54
35,105612981,-0.8799,0.4404,0.0371,13.29,-12.32,-3.60
36,105617982,-0.8804,0.4370,0.0361,13.41,-12.56,-3.60
37,105622982,-0.8804,0.4453,0.0376,13.66,-12.74,-3.60
38,105627982,-0.8838,0.4468,0.0366,13.84,-12.87,-3.72
39,105632981,-0.8862,0.4507,0.0352,13.96,-13.11,-3.72
40,105637982,-0.8887,0.4502,0.0386,14.09,-13.17,-3.78
41,105643039,-0.8867,0.4521,0.0410,14.15,-13.29,-3.84
42,105647984,-0.8877,0.4517,0.0391,14.15,-13.48,-3.90
43,105652981,-0.8916,0.4517,0.0376,14.15,-13.35,-4.02
44,105657981,-0.8887,0.4517,0.0327,14.21,-13.54,-4.09
45,105662982,-0.8950,0.4546,0.0332,14.21,-13.41,-4.09
46,105667983,-0.8955,0.4595,0.0356,14.09,-13.48,-4.21
47,105672982,-0.8945,0.4570,0.0327,14.02,-13.48,-4.33
48,105677982,-0.8994,0.4595,0.0322,13.90,-13.41,-4.33
49,105682982,-0.8994,0.4595,0.0312,13.66,-13.35,-4.39
50,105687982,-0.8979,0.4624,0.0293,13.60,-13.54,-4.45
51,105692983,-0.8979,0.4619,0.0337,13.35,-13.41,-4.51
52,105697982,-0.8906,0.4634,0.0337,13.05,-13.35,-4.45
53,105702982,-0.8945,0.4604,0.0205,12.87,-13.23,-4.57
54,105707980,-0.8906,0.4590,0.0229,12.38,-13.41,-4.51
55,105712981,-0.8906,0.4590,0.0259,12.07,-13.35,-4.51
56,105717982,-0.8916,0.4570,0.0225,11.71,-13.48,-4.45
57,105722982,-0.8877,0.4561,0.0244,11.28,-13.41,-4.39
58,105728358,-0.8862,0.4580,0.0308,10.85,-13.35,-4.15
59,105732982,-0.8892,0.4590,0.0225,10.49,-13.23,-4.09
60,105737981,-0.8906,0.4575,0.0278,10.30,-13.23,-4.02
61,105743030,-0.8916,0.4570,0.0249,10.06,-13.05,-3.78
62,105747982,-0.8877,0.4585,0.0293,9.76,-12.87,-3.66
63,105752980,-0.8872,0.4517,0.0181,9.51,-12.80,-3.41
64,105757982,-0.8857,0.4507,0.0210,9.27,-12.80,-3.41
65,105762980,-0.8848,0.4551,0.0190,9.02,-12.62,-3.05
66,105767982,-0.8813,0.4536,0.0186,8.84,-12.56,-2.68
67,105773032,-0.8867,0.4561,0.0151,8.66,-12.38,-2.44
68,105778133,-0.8867,0.4526,0.0156,8.41,-12.20,-2.20
69,105782982,-0.8804,0.4531,0.0078,8.54,-12.20,-1.95
70,105788489,-0.8823,0.4507,0.0073,8.29,-12.01,-1.46
71,105792982,-0.8804,0.4502,0.0127,8.29,-11.95,-1.34
72,105797980,-0.8779,0.4463,0.0044,8.17,-11.89,-0.98
73,105803090,-0.8770,0.4507,0.0107,8.23,-11.65,-0.67
74,105807982,-0.8784,0.4507,0.0127,8.17,-11.59,-0.43
75,105812981,-0.8774,0.4517,0.0068,8.05,-11.40,-0.18
76,105817981,-0.8784,0.4473,0.0117,7.99,-11.40,0.06
77,105822980,-0.8809,0.4482,0.0054,8.05,-11.28,0.37
78,105827980,-0.8740,0.4507,0.0034,8.11,-11.04,0.79
79,105832982,-0.8799,0.4507,0.0063,7.99,-10.91,0.98
80,105837982,-0.8799,0.4507,0.0059,8.05,-10.91,1.28
81,105842981,-0.8789,0.4492,0.0044,8.05,-10.85,1.46
82,105847982,-0.8853,0.4507,0.0020,8.05,-10.79,1.77
83,105852980,-0.8809,0.4521,0.0044,7.99,-10.85,1.95
84,105857980,-0.8794,0.4526,0.0034,8.17,-10.67,2.26
85,105862984,-0.8809,0.4502,0.0005,8.29,-10.49,2.62
86,105867982,-0.8794,0.4492,0.0010,8.29,-10.49,2.80
87,105872982,-0.8809,0.4531,0.0010,8.41,-10.37,2.99
88,105877981,-0.8794,0.4497,0.0068,8.78,-10.37,3.17
89,105882983,-0.8750,0.4521,0.0049,8.96,-10.12,3.54
90,105887980,-0.8755,0.4487,0.0029,9.39,-10.06,3.72
91,105892982,-0.8789,0.4492,0.0034,9.45,-9.94,3.90
92,105897982,-0.8750,0.4502,0.0068,10.00,-9.82,4.02
93,105902980,-0.8774,0.4497,0.0063,10.06,-9.76,4.15
94,105907984,-0.8799,0.4497,0.0078,10.55,-9.70,4.33
95,105912981,-0.8843,0.4507,0.0020,10.73,-9.51,4.51
96,105917981,-0.8853,0.4536,0.0029,10.98,-9.27,4.51
97,105923023,-0.8838,0.4536,0.0020,11.28,-9.15,4.76
98,105927984,-0.8809,0.4502,0.0054,11.52,-9.09,4.82
99,105932981,-0.8843,0.4497,0.0049,11.77,-9.15,4.94
100,105937982,-0.8818,0.4478,-0.0063,12.01,-8.90,5.06
101,105942980,-0.8843,0.4478,-0.0010,12.26,-8.72,5.24
102,105947982,-0.8848,0.4517,0.0049,12.38,-8.72,5.49
103,105952981,-0.8872,0.4487,0.0059,12.56,-8.48,5.61
104,105957982,-0.8862,0.4453,0.0044,12.74,-8.48,5.61
105,105962980,-0.8833,0.4482,0.0005,12.80,-8.17,5.67
106,105967982,-0.8789,0.4463,0.0024,13.11,-7.99,5.91
107,105972982,-0.8853,0.4473,0.0049,13.17,-7.80,5.98
108,105977983,-0.8789,0.4463,0.0039,13.17,-7.68,6.10
109,105982982,-0.8784,0.4492,0.0024,13.17,-7.56,6.16
110,105987981,-0.8716,0.4434,0.0024,13.17,-7.32,6.34
111,105992982,-0.8774,0.4473,0.0059,13.23,-7.07,6.34
112,105997982,-0.8779,0.4448,0.0073,13.11,-6.89,6.46
113,106002982,-0.8799,0.4487,0.0068,13.05,-6.59,6.65
114,106007982,-0.8843,0.4478,0.0054,13.05,-6.46,6.83
115,106012982,-0.8804,0.4463,0.0093,12.93,-6.34,6.89
116,106017980,-0.8784,0.4487,0.0044,12.74,-6.10,6.95
117,106022983,-0.8823,0.4497,0.0049,12.62,-5.91,6.95
118,106028174,-0.8867,0.4424,0.0020,12.38,-5.61,7.07
119,106032982,-0.8857,0.4468,0.0103,12.26,-5.30,7.13
120,106037982,-0.8857,0.4463,0.0103,12.01,-5.18,7.20
121,106042982,-0.8853,0.4478,0.0059,11.77,-4.94,7.13
122,106047981,-0.8892,0.4429,0.0034,11.40,-4.94,7.20
123,106052982,-0.8877,0.4463,0.0015,11.10,-4.57,7.38
124,106057982,-0.8857,0.4453,0.0034,10.73,-4.33,7.26
125,106062982,-0.8882,0.4478,0.0088,10.43,-4.15,7.38
126,106067980,-0.8960,0.4468,0.0083,10.12,-4.21,7.38
127,106072983,-0.8877,0.4453,0.0103,9.76,-3.96,7.38
128,106077982,-0.8906,0.4448,0.0103,9.45,-3.72,7.38
129,106082981,-0.8940,0.4473,0.0132,9.21,-3.78,7.32
130,106087982,-0.8892,0.4482,0.0049,8.84,-3.66,7.38
131,106092980,-0.8872,0.4404,0.0083,8.54,-3.48,7.44
132,106097984,-0.8862,0.4395,0.0137,8.41,-3.35,7.50
133,106102981,-0.8857,0.4434,0.0054,8.23,-3.05,7.50
134,106108452,-0.8867,0.4438,0.0073,8.05,-3.11,7.62
135,106112982,-0.8892,0.4409,0.0103,8.05,-3.05,7.87
136,106117983,-0.8867,0.4399,0.0107,7.93,-2.74,7.93
137,106122982,-0.8931,0.4453,0.0117,7.99,-2.74,7.99
138,106128615,-0.8975,0.4414,0.0078,7.99,-2.68,8.35
139,106132982,-0.8999,0.4429,0.0112,7.99,-2.50,8.35
140,106137983,-0.8955,0.4429,0.0107,8.23,-2.50,8.41
141,106142982,-0.8965,0.4399,0.0142,8.17,-2.44,8.60
142,106147981,-0.8979,0.4414,0.0073,8.48,-2.32,8.72
143,106152982,-0.8984,0.4434,0.0093,8.60,-2.20,8.84
144,106157983,-0.8975,0.4424,0.0127,8.84,-2.26,8.96
145,106162982,-0.8965,0.4419,0.0137,8.96,-2.26,9.09
146,106167980,-0.8955,0.4380,0.0142,9.27,-2.32,9.15
147,106173014,-0.8960,0.4390,0.0166,9.51,-2.32,9.09
148,106177981,-0.8936,0.4385,0.0127,9.70,-2.38,9.21
149,106182982,-0.8936,0.4355,0.0151,10.00,-2.26,9.27
150,106187982,-0.8950,0.4331,0.0122,10.24,-2.44,9.33
151,106192983,-0.8896,0.4336,0.0151,10.43,-2.50,9.45
152,106197981,-0.8931,0.4292,0.0176,10.79,-2.56,9.51
153,106202982,-0.8965,0.4321,0.0171,10.91,-2.62,9.63
154,106207982,-0.8989,0.4351,0.0166,11.28,-2.68,9.76
155,106212983,-0.8989,0.4326,0.0181,11.59,-2.68,9.82
156,106217981,-0.9009,0.4307,0.0225,11.95,-2.87,9.88
157,106222982,-0.9023,0.4341,0.0190,12.20,-2.68,9.94
158,106227981,-0.9058,0.4321,0.0225,12.44,-2.87,9.88
159,106233796,-0.9014,0.4341,0.0254,12.87,-2.93,9.88
160,106238190,-0.9009,0.4341,0.0254,13.11,-3.05,9.82
161,106242981,-0.8975,0.4321,0.0259,13.29,-2.99,9.88
162,106247982,-0.8950,0.4321,0.0273,13.48,-2.99,9.70
163,106252981,-0.8945,0.4297,0.0288,13.60,-3.23,9.82
164,106257980,-0.8940,0.4302,0.0283,13.48,-3.29,9.76
165,106262981,-0.8950,0.4272,0.0312,13.54,-3.35,9.70
166,106267982,-0.8926,0.4258,0.0337,13.48,-3.41,9.57
167,106273008,-0.8916,0.4302,0.0322,13.41,-3.41,9.51
168,106277982,-0.8911,0.4307,0.0381,13.35,-3.66,9.51
169,106282981,-0.8936,0.4277,0.0312,13.23,-3.66,9.45
170,106287982,-0.8950,0.4268,0.0371,13.17,-3.78,9.27
171,106292982,-0.8892,0.4243,0.0361,13.05,-3.78,9.21
172,106297982,-0.8838,0.4258,0.0405,12.87,-3.84,9.09
173,106302983,-0.8833,0.4253,0.0410,12.87,-3.84,9.02
174,106307982,-0.8853,0.4272,0.0400,12.80,-4.02,8.84
175,106312984,-0.8843,0.4302,0.0361,12.68,-4.15,8.72
176,106317987,-0.8823,0.4268,0.0371,12.68,-4.15,8.54
177,106322983,-0.8813,0.4263,0.0396,12.56,-4.09,8.29
178,106327982,-0.8779,0.4312,0.0381,12.74,-4.39,8.05
179,106332982,-0.8799,0.4263,0.0439,12.93,-4.45,7.80
180,106337983,-0.8765,0.4321,0.0454,12.87,-4.63,7.50
181,106342981,-0.8721,0.4316,0.0454,13.11,-4.76,7.26
182,106347982,-0.8682,0.4312,0.0449,13.23,-4.88,6.77
183,106352985,-0.8657,0.4307,0.0356,13.54,-4.82,6.52
184,106357980,-0.8672,0.4297,0.0410,13.60,-5.00,6.28
185,106362982,-0.8652,0.4277,0.0400,13.78,-5.00,5.79
186,106367980,-0.8672,0.4326,0.0366,13.78,-5.37,5.37
187,106372982,-0.8672,0.4346,0.0337,13.78,-5.43,5.00
188,106377982,-0.8662,0.4351,0.0391,13.72,-5.79,4.39
189,106382982,-0.8638,0.4360,0.0415,13.60,-5.98,3.96
190,106387980,-0.8667,0.4370,0.0356,13.66,-6.16,3.54
191,106392982,-0.8657,0.4365,0.0391,13.54,-6.16,2.99
192,106397982,-0.8594,0.4360,0.0405,13.23,-6.46,2.38
193,106402982,-0.8564,0.4395,0.0342,13.11,-6.46,1.77
194,106407980,-0.8535,0.4395,0.0356,12.93,-6.71,1.22
195,106412982,-0.8491,0.4385,0.0322,12.74,-6.71,0.67
196,106417982,-0.8521,0.4409,0.0342,12.56,-6.95,0.06
197,106422982,-0.8442,0.4409,0.0386,12.32,-7.01,-0.67
198,106427980,-0.8398,0.4448,0.0332,12.01,-7.07,-1.16
199,106432981,-0.8394,0.4478,0.0317,11.83,-7.13,-1.83
200,106437982,-0.8389,0.4448,0.0400,11.52,-7.20,-2.50
201,106442982,-0.8374,0.4536,0.0366,11.10,-7.07,-3.05
202,106447982,-0.8418,0.4565,0.0298,10.61,-7.20,-3.60
203,106453129,-0.8423,0.4590,0.0366,10.06,-7.01,-4.15
204,106457983,-0.8403,0.4624,0.0347,9.45,-6.89,-4.63
205,106462982,-0.8413,0.4609,0.0332,8.54,-6.65,-5.00
206,106467982,-0.8413,0.4668,0.0317,7.56,-6.40,-5.30
207,106472981,-0.8438,0.4678,0.0347,6.46,-6.04,-5.55
208,106477982,-0.8472,0.4746,0.0317,5.30,-5.79,-5.73
209,106482982,-0.8491,0.4775,0.0317,3.90,-5.49,-5.98
210,106487982,-0.8496,0.4805,0.0269,2.44,-5.06,-5.91
211,106492981,-0.8472,0.4849,0.0264,0.79,-4.82,-5.98
212,106497983,-0.8462,0.4849,0.0259,-0.67,-4.51,-5.91
213,106503060,-0.8438,0.4883,0.0249,-2.26,-4.21,-5.79
214,106507982,-0.8457,0.4932,0.0195,-3.78,-3.72,-5.73
215,106512982,-0.8447,0.5015,0.0215,-5.37,-3.11,-5.73
216,106517982,-0.8462,0.5015,0.0200,-6.89,-2.62,-5.55
217,106522981,-0.8433,0.5103,0.0166,-8.11,-2.38,-5.43
218,106527982,-0.8467,0.5186,0.0073,-9.57,-1.95,-5.37
219,106533065,-0.8535,0.5229,0.0112,-10.79,-1.34,-5.24
220,106537980,-0.8428,0.5332,0.0054,-12.20,-0.79,-5.06
221,106542982,-0.8535,0.5391,0.0083,-13.54,-0.37,-4.88
222,106547981,-0.8521,0.5454,0.0107,-14.94,0.18,-4.57
223,106552982,-0.8535,0.5542,0.0093,-16.34,0.91,-4.21
224,106557980,-0.8525,0.5596,0.0073,-17.62,1.52,-3.72
225,106562982,-0.8574,0.5645,0.0024,-18.96,2.32,-3.17
226,106567981,-0.8569,0.5762,-0.0005,-20.49,3.29,-2.68
227,106572982,-0.8516,0.5908,-0.0029,-21.83,3.96,-2.01
228,106577980,-0.8477,0.6030,-0.0015,-23.35,4.82,-1.59
229,106582982,-0.8462,0.6138,-0.0063,-25.24,5.73,-0.79
230,106587981,-0.8477,0.6279,-0.0127,-27.26,6.46,0.06
231,106592982,-0.8423,0.6348,-0.0137,-29.70,7.20,0.98
232,106597980,-0.8374,0.6479,-0.0269,-32.20,8.11,1.89
233,106602982,-0.8340,0.6641,-0.0366,-34.63,8.96,3.05
234,106607981,-0.8306,0.6724,-0.0352,-37.26,9.82,4.33
235,106612982,-0.8335,0.6929,-0.0322,-39.70,10.79,5.55
236,106617980,-0.8345,0.7017,-0.0410,-41.77,11.65,6.95
237,106622984,-0.8354,0.7124,-0.0420,-43.66,12.68,8.48
238,106627981,-0.8296,0.7285,-0.0601,-45.37,13.60,9.94
239,106632982,-0.8276,0.7407,-0.0615,-46.77,14.63,11.59
240,106637981,-0.8242,0.7534,-0.0620,-47.87,15.67,13.35
241,106642982,-0.8232,0.7676,-0.0645,-48.66,16.77,15.06
242,106647982,-0.8130,0.7788,-0.0703,-49.21,17.99,16.89
243,106652982,-0.8105,0.7944,-0.0791,-49.45,19.09,18.84
244,106657980,-0.8057,0.8062,-0.0884,-49.57,20.24,20.85
245,106662982,-0.8052,0.8188,-0.0859,-49.51,21.46,23.05
246,106667981,-0.8057,0.8345,-0.1030,-49.45,22.87,25.12
247,106672984,-0.8022,0.8472,-0.1055,-49.82,24.15,27.38
248,106677980,-0.7983,0.8569,-0.1118,-50.06,25.55,29.70
249,106682982,-0.7993,0.8701,-0.1230,-50.24,26.89,32.20
250,106687981,-0.7949,0.8828,-0.1265,-50.43,28.41,34.94
251,106692982,-0.8003,0.8896,-0.1318,-50.61,29.88,37.50
252,106697980,-0.7998,0.8994,-0.1377,-50.49,31.16,39.82
253,106702982,-0.8013,0.9106,-0.1421,-49.94,33.11,43.17
254,106707981,-0.8037,0.9180,-0.1436,-49.76,34.27,45.61
255,106712984,-0.8027,0.9268,-0.1514,-49.02,35.85,48.54
256,106717980,-0.8086,0.9399,-0.1558,-47.99,37.80,51.59
257,106722980,-0.8096,0.9492,-0.1626,-47.01,39.45,54.63
258,106727982,-0.8110,0.9565,-0.1626,-45.91,41.10,57.74
259,106732983,-0.8140,0.9619,-0.1685,-45.00,43.05,60.98
260,106737982,-0.8081,0.9717,-0.1689,-44.33,44.82,64.15
261,106742980,-0.8062,0.9785,-0.1802,-44.09,46.71,67.26
262,106747982,-0.8027,0.9839,-0.1812,-44.27,48.54,70.37
263,106752982,-0.7964,0.9941,-0.1924,-44.76,50.49,73.48
264,106757982,-0.7910,0.9927,-0.1934,-45.67,52.38,76.52
265,106762981,-0.7891,1.0039,-0.2021,-46.65,54.09,79.39
266,106767983,-0.7837,1.0103,-0.2070,-47.99,56.16,82.26
267,106772982,-0.7764,1.0142,-0.2095,-49.39,58.05,85.12
268,106777982,-0.7754,1.0176,-0.2104,-50.85,59.82,87.56
269,106782980,-0.7759,1.0171,-0.2158,-52.26,61.34,89.94
270,106787984,-0.7729,1.0166,-0.2256,-53.54,62.99,92.32
271,106792982,-0.7725,1.0254,-0.2285,-54.51,64.27,94.82
272,106797982,-0.7622,1.0215,-0.2236,-55.18,65.67,97.01
273,106802981,-0.7544,1.0283,-0.2358,-55.67,67.01,99.21
274,106807982,-0.7466,1.0356,-0.2393,-55.91,68.11,101.28
275,106812980,-0.7476,1.0381,-0.2422,-56.22,69.09,103.23
276,106817983,-0.7397,1.0454,-0.2461,-56.10,69.88,105.06
277,106822984,-0.7344,1.0542,-0.2427,-56.04,70.67,106.83
278,106827981,-0.7246,1.0591,-0.2529,-55.67,71.40,108.29
279,106832982,-0.7231,1.0615,-0.2568,-55.43,72.01,109.88
280,106837980,-0.7192,1.0640,-0.2637,-54.76,72.50,111.34
281,106842985,-0.7144,1.0698,-0.2705,-54.02,72.74,112.80
282,106847982,-0.7168,1.0708,-0.2695,-53.11,73.17,114.33
283,106853468,-0.7144,1.0732,-0.2788,-51.89,73.41,116.22
284,106857980,-0.7178,1.0786,-0.2798,-50.91,73.60,117.56
285,106862980,-0.7134,1.0781,-0.2837,-49.51,73.96,119.27
286,106867982,-0.7129,1.0854,-0.2871,-48.11,74.15,121.04
287,106873274,-0.6997,1.0811,-0.2871,-46.46,74.39,122.87
288,106877982,-0.6919,1.0879,-0.2949,-44.82,74.76,124.76
289,106882981,-0.6914,1.0957,-0.2993,-43.05,74.94,126.59
290,106887982,-0.6880,1.1069,-0.3008,-41.10,75.18,128.35
291,106892980,-0.6904,1.1113,-0.3032,-39.45,75.49,130.12
292,106897982,-0.6860,1.1182,-0.3081,-37.87,75.73,131.89
293,106902983,-0.6802,1.1255,-0.3110,-36.40,75.73,133.66
294,106908049,-0.6860,1.1284,-0.3193,-35.12,75.98,135.37
295,106913516,-0.6865,1.1372,-0.3232,-34.45,76.16,137.07
296,106917983,-0.6812,1.1431,-0.3320,-33.96,76.28,138.90
297,106922982,-0.6836,1.1421,-0.3340,-33.96,76.40,140.61
298,106927983,-0.6875,1.1431,-0.3457,-34.21,76.46,142.50
299,106932982,-0.6851,1.1445,-0.3452,-34.82,76.34,144.33
300,106937983,-0.6851,1.1455,-0.3555,-35.61,76.52,146.22
301,106942982,-0.6875,1.1489,-0.3613,-36.22,76.59,148.05
302,106947982,-0.6855,1.1558,-0.3599,-36.83,76.65,150.06
303,106952982,-0.6929,1.1562,-0.3711,-37.07,76.89,151.83
304,106957983,-0.6953,1.1602,-0.3735,-37.26,76.83,153.60
305,106962982,-0.6953,1.1709,-0.3848,-37.20,77.01,155.43
306,106967982,-0.6948,1.1763,-0.3970,-36.77,77.01,157.26
307,106972982,-0.6958,1.1826,-0.4004,-36.22,76.95,158.78
308,106977982,-0.6997,1.1865,-0.4150,-35.49,77.20,160.37
309,106982982,-0.6992,1.1890,-0.4238,-34.57,77.13,161.95
310,106987982,-0.6934,1.1924,-0.4292,-33.54,77.20,163.48
311,106992980,-0.6963,1.1895,-0.4277,-32.38,77.07,164.94
312,106997982,-0.6963,1.1855,-0.4399,-31.46,77.20,166.34
313,107002982,-0.6953,1.1802,-0.4595,-30.73,77.20,167.80
314,107007982,-0.6953,1.1807,-0.4619,-30.06,77.07,169.21
315,107012982,-0.6909,1.1694,-0.4771,-29.51,77.20,170.49
316,107017982,-0.6885,1.1660,-0.4824,-28.84,77.20,171.65
317,107022982,-0.6895,1.1631,-0.4956,-27.99,77.20,172.99
318,107027982,-0.6816,1.1621,-0.5039,-26.71,77.13,174.15
319,107032982,-0.6763,1.1567,-0.5181,-24.88,77.13,175.12
320,107037982,-0.6714,1.1582,-0.5317,-22.50,77.01,176.10
321,107042980,-0.6748,1.1582,-0.5435,-19.39,77.20,177.07
322,107047983,-0.6758,1.1611,-0.5522,-15.61,77.32,177.93
323,107052982,-0.6733,1.1641,-0.5620,-11.16,77.68,178.41
324,107057982,-0.6699,1.1655,-0.5698,-6.71,78.05,178.78
325,107062982,-0.6768,1.1772,-0.6123,-2.50,78.23,179.02
326,107067981,-0.6602,1.1528,-0.5845,0.18,78.60,179.02
327,107072982,-0.6318,1.1514,-0.6118,3.17,78.84,179.09
328,107077981,-0.6108,1.1357,-0.6157,5.61,79.33,179.15
329,107082982,-0.6113,1.1143,-0.6147,7.62,79.94,179.15
330,107087981,-0.6211,1.1099,-0.6411,9.39,80.55,179.21
331,107092982,-0.6221,1.0938,-0.6460,11.22,81.10,179.27
332,107097982,-0.6216,1.0835,-0.6567,13.23,81.59,179.51
333,107102982,-0.6064,1.0562,-0.6748,15.67,81.83,179.70
334,107107981,-0.5713,1.0430,-0.7065,17.74,82.68,180.00
335,107112980,-0.6001,1.0630,-0.7051,20.37,82.62,180.00
336,107117984,-0.6221,1.0742,-0.7095,23.11,83.29,179.82
337,107122983,-0.6294,1.0713,-0.7217,27.07,84.76,179.63
338,107127982,-0.6191,1.0498,-0.7197,31.83,84.02,179.33
339,107132980,-0.6025,1.0464,-0.7207,36.83,85.67,179.15
340,107137982,-0.5874,1.0342,-0.7383,42.38,85.79,178.90
341,107142982,-0.5947,1.0244,-0.7461,48.60,85.85,178.60
342,107147981,-0.6069,1.0137,-0.7490,55.00,88.48,178.60
343,107152980,-0.6274,1.0151,-0.7549,61.59,90.00,178.41
344,107157982,-0.6235,0.9995,-0.7612,68.60,91.77,178.35
345,107162982,-0.6201,0.9907,-0.7739,75.85,93.72,178.05
346,107167982,-0.6104,0.9829,-0.7773,83.23,95.79,177.87
347,107172981,-0.6030,0.9717,-0.7769,90.37,98.17,177.56
348,107177982,-0.6006,0.9712,-0.7827,97.50,100.49,177.26
349,107182981,-0.5947,0.9678,-0.7866,104.51,103.11,176.59
350,107187983,-0.5815,0.9956,-0.8047,111.28,105.49,175.79
351,107192984,-0.5698,0.9297,-0.7725,117.38,108.11,174.94
352,107197982,-0.5615,0.9429,-0.8013,123.60,110.85,174.15
353,107202981,-0.5518,0.9409,-0.7905,128.72,113.72,172.99
354,107207982,-0.5420,0.9297,-0.7822,134.21,116.83,171.89
355,107212981,-0.5327,0.9204,-0.7871,139.27,119.94,170.55
356,107217984,-0.5156,0.9033,-0.7856,143.78,123.29,169.15
357,107222981,-0.4985,0.8984,-0.7798,147.74,126.77,167.74
358,107227982,-0.4731,0.8911,-0.7817,151.16,130.37,166.16
359,107233386,-0.4482,0.8911,-0.7866,154.21,134.02,164.39
360,107237983,-0.4229,0.8896,-0.7871,156.95,137.50,162.50
361,107242981,-0.4087,0.9004,-0.7817,159.15,141.16,160.61
362,107247984,-0.3950,0.8970,-0.7861,161.46,144.94,158.41
363,107253243,-0.3940,0.8950,-0.7847,163.90,148.60,156.65
364,107257982,-0.3770,0.9023,-0.7749,165.67,152.44,154.88
365,107262981,-0.3672,0.8989,-0.7808,167.44,156.16,152.93
366,107267984,-0.3525,0.8926,-0.7686,168.90,159.70,151.28
367,107272981,-0.3340,0.8853,-0.7578,170.43,163.23,149.63
368,107277982,-0.3130,0.8794,-0.7476,171.77,166.65,147.93
369,107283428,-0.2920,0.8755,-0.7471,173.41,169.82,146.28
370,107287982,-0.2744,0.8730,-0.7334,175.30,172.99,144.33
371,107292981,-0.2466,0.8730,-0.7310,178.11,175.79,142.26
372,107297982,-0.2144,0.8706,-0.7280,181.52,178.84,140.18
373,107302981,-0.1943,0.8696,-0.7153,185.91,181.28,137.87
374,107307982,-0.1802,0.8765,-0.7124,191.46,183.96,135.49
375,107312981,-0.1680,0.8838,-0.7051,197.80,186.40,132.87
376,107317982,-0.1606,0.8809,-0.6929,205.24,188.84,130.30
377,107322981,-0.1475,0.8765,-0.6675,213.11,191.04,127.50
378,107327982,-0.1313,0.8604,-0.6479,221.10,193.29,124.76
379,107332981,-0.1118,0.8428,-0.6338,228.54,195.30,122.07
380,107337982,-0.0938,0.8218,-0.6074,235.61,197.20,119.15
381,107342981,-0.0737,0.8003,-0.5835,241.77,198.96,116.16
382,107347982,-0.0581,0.7822,-0.5601,247.20,200.67,112.93
383,107352981,-0.0391,0.7612,-0.5254,251.46,202.07,109.70
384,107357982,-0.0215,0.7432,-0.4985,254.45,203.48,106.22
385,107362980,0.0015,0.7227,-0.4790,256.04,204.51,102.38
386,107367981,0.0161,0.7148,-0.4482,256.16,205.37,98.54
387,107372984,0.0322,0.6948,-0.4150,254.94,206.16,94.33
388,107377981,0.0503,0.6807,-0.3931,252.44,206.95,90.49
389,107382981,0.0688,0.6709,-0.3589,248.84,207.44,86.28
390,107387982,0.0845,0.7065,-0.2705,244.02,207.99,82.01
391,107393383,0.0972,0.8115,-0.1265,237.32,208.96,77.50
392,107397982,0.1118,0.9390,0.0933,227.93,210.43,72.87
393,107402981,0.1958,0.8286,0.1294,215.67,212.32,69.57
394,107407982,0.2485,0.7910,0.0586,201.77,213.29,67.56
395,107412981,0.2231,0.7085,0.0483,188.17,213.41,65.18
396,107417984,0.2871,0.6270,0.1650,176.83,213.90,62.99
397,107422981,0.2383,0.6748,0.1260,166.52,213.96,60.49
398,107427982,0.2559,0.6396,0.0728,156.71,213.78,58.05
399,107432981,0.3169,0.6328,0.0508,148.60,213.17,56.46
400,107437982,0.3433,0.6074,0.0415,142.74,212.56,55.24
401,107442981,0.3193,0.5732,0.0044,139.15,211.52,54.09
402,107447984,0.2939,0.5522,-0.0303,137.74,210.61,53.29
403,107452980,0.2690,0.5259,-0.0781,137.80,209.09,51.95
404,107457983,0.2690,0.4980,-0.1665,139.94,207.13,50.85
405,107462981,0.2896,0.4673,-0.2451,144.15,204.76,49.82
406,107467984,0.3086,0.4624,-0.3408,150.12,201.83,48.72
407,107472981,0.3022,0.4570,-0.3418,156.71,198.72,47.62
408,107477982,0.3188,0.4487,-0.3696,164.09,195.79,46.46
409,107482981,0.3564,0.4536,-0.3892,170.79,192.80,45.18
410,107487982,0.3975,0.4722,-0.3530,176.89,189.76,43.96
411,107492981,0.4604,0.4839,-0.3115,181.71,186.95,42.38
412,107497982,0.5186,0.5083,-0.2964,184.82,184.45,40.91
413,107502981,0.5752,0.5288,-0.2378,186.28,181.83,39.27
414,107507982,0.6030,0.5674,-0.2261,185.98,179.39,37.62
415,107512980,0.6128,0.5864,-0.1802,184.51,176.95,35.67
416,107517982,0.6201,0.6040,-0.1440,181.83,174.45,33.84
417,107522982,0.6211,0.6206,-0.1226,178.60,172.32,32.32
418,107527982,0.6162,0.6182,-0.1235,175.06,169.94,30.67
419,107532981,0.6216,0.6289,-0.0874,171.65,167.74,29.27
420,107537984,0.6357,0.6226,-0.0918,168.23,165.79,27.99
421,107542981,0.6328,0.6113,-0.1040,165.12,163.66,26.89
422,107547982,0.6250,0.6021,-0.1108,162.93,161.46,25.91
423,107552981,0.6260,0.5962,-0.1060,162.01,159.27,25.24
424,107557982,0.6357,0.6006,-0.1260,161.95,157.13,24.45
425,107562981,0.6646,0.5986,-0.1226,163.29,154.76,23.84
426,107567984,0.6870,0.5933,-0.1226,166.16,152.74,23.23
427,107572981,0.6904,0.5928,-0.1260,170.06,150.37,22.56
428,107577982,0.6968,0.6021,-0.1143,175.06,148.23,21.89
429,107582981,0.6924,0.6016,-0.1167,181.16,145.79,21.22
430,107587982,0.6919,0.5967,-0.1084,187.56,143.41,20.55
431,107592981,0.7002,0.6309,-0.0962,193.96,141.10,19.57
432,107597982,0.6514,0.5552,-0.1201,199.57,138.72,18.78
433,107602981,0.5977,0.5649,-0.0713,205.24,136.40,18.29
434,107607984,0.5947,0.5796,-0.0669,211.16,134.21,17.80
435,107612981,0.5938,0.6294,-0.0439,216.52,132.13,17.07
436,107617982,0.6338,0.6147,-0.0381,221.10,130.18,15.85
437,107622981,0.6050,0.6270,0.0039,224.57,128.54,14.57
438,107627984,0.5977,0.5762,-0.0371,227.07,126.83,13.23
439,107632981,0.6064,0.5786,-0.0132,228.96,125.30,12.20
440,107637982,0.6030,0.5659,-0.0435,230.24,123.84,11.10
441,107642981,0.6260,0.5474,-0.0337,231.04,122.44,10.12
442,107647986,0.6050,0.5874,-0.0039,231.71,121.22,9.45
443,107652980,0.5879,0.5562,-0.0537,232.74,119.63,8.41
444,107657980,0.6045,0.5498,-0.0679,233.72,118.11,7.56
445,107662983,0.6196,0.5703,-0.0010,235.06,116.83,6.95
446,107668003,0.5996,0.5376,-0.0630,236.22,115.55,6.22
447,107672982,0.6113,0.5635,-0.0518,237.56,114.02,5.49
448,107677982,0.5767,0.5405,-0.0479,238.41,112.93,5.00
449,107682982,0.5864,0.5386,-0.0273,238.90,111.95,4.33
450,107687982,0.5688,0.5459,-0.0518,238.90,110.98,4.02
451,107692982,0.5850,0.5327,-0.0464,238.17,109.88,3.17
452,107697982,0.5703,0.5557,-0.0337,236.83,109.02,2.68
453,107702980,0.5850,0.5342,-0.0283,234.88,108.29,1.71
454,107707980,0.5718,0.5366,-0.0640,232.32,107.26,1.04
455,107712982,0.5928,0.5356,-0.0322,229.39,106.59,-0.06
456,107717980,0.5669,0.5039,-0.0830,225.49,105.61,-0.85
457,107722982,0.5303,0.5425,-0.0581,221.95,104.39,-1.77
458,107727983,0.5166,0.5308,-0.0913,216.95,103.23,-2.87
459,107732981,0.5205,0.6123,-0.0630,212.32,102.07,-3.78
460,107737982,0.5493,0.5586,-0.1240,206.89,101.16,-5.12
461,107743480,0.5669,0.5991,-0.0571,202.26,100.06,-5.98
462,107747982,0.5737,0.5156,-0.1064,197.13,99.02,-7.26
463,107753467,0.5542,0.6035,-0.0996,192.20,97.99,-8.48
464,107757982,0.5098,0.5298,-0.0957,187.07,97.01,-9.94
465,107762981,0.5073,0.6035,-0.0195,183.05,96.28,-11.10
466,107768002,0.4561,0.5342,-0.1182,178.96,95.67,-13.11
467,107772981,0.4565,0.5977,-0.0220,175.98,95.06,-14.51
468,107777982,0.4644,0.5596,-0.0215,172.68,95.06,-16.52
469,107782980,0.4937,0.6436,0.0195,171.04,94.51,-18.17
470,107787983,0.4819,0.6758,0.0479,168.96,94.51,-20.79
471,107792982,0.4678,0.6777,0.0005,168.17,94.27,-22.99
472,107797981,0.5142,0.6221,0.0190,167.80,93.29,-25.12
473,107803364,0.5010,0.5620,0.0679,166.89,92.87,-26.52
474,107807982,0.4551,0.5498,0.0830,166.22,92.62,-27.56
475,107813500,0.4336,0.5767,0.0625,166.10,92.13,-29.70
476,107817982,0.4062,0.6704,0.0688,166.59,91.52,-31.40
477,107822981,0.3945,0.6704,0.0186,166.59,90.43,-33.84
478,107827982,0.4092,0.6543,0.0166,167.44,88.78,-36.16
479,107832980,0.4155,0.6353,0.0317,168.66,87.50,-38.60
480,107837982,0.4136,0.6304,0.0356,171.04,85.49,-41.04
481,107842982,0.4360,0.6367,0.0371,174.09,85.30,-43.54
482,107847981,0.4146,0.6631,0.0249,178.72,84.76,-46.22
483,107852982,0.4316,0.6880,0.0430,184.02,82.68,-49.02
484,107857982,0.4243,0.6763,0.0513,189.21,81.28,-52.13
485,107862981,0.4180,0.6782,0.0361,194.02,79.70,-55.06
486,107868147,0.3857,0.6763,0.0269,198.23,77.99,-58.29
487,107872982,0.3687,0.6787,0.0327,202.07,76.04,-61.52
488,107877982,0.3613,0.6792,0.0493,205.55,74.21,-65.00
489,107882982,0.3237,0.6421,0.0010,209.09,72.20,-68.29
490,107887981,0.3496,0.6631,0.0664,213.35,70.37,-71.89
491,107892982,0.3628,0.6436,0.1089,216.83,68.84,-75.30
492,107897983,0.3296,0.6401,0.0718,219.88,67.20,-78.72
493,107902981,0.3389,0.6299,0.0708,222.99,65.43,-82.13
494,107907982,0.3276,0.6074,0.0933,224.63,63.54,-85.55
495,107912982,0.3003,0.6523,0.0859,226.59,61.59,-88.90
496,107917982,0.3169,0.6362,0.0229,228.35,59.63,-92.44
497,107922984,0.3286,0.6216,0.0127,229.33,57.13,-95.61
498,107927982,0.3018,0.6387,0.0449,230.18,54.94,-98.72
499,107932982,0.2539,0.6113,0.0391,230.06,52.80,-101.89
500,107937984,0.2676,0.5967,-0.0117,230.06,50.18,-104.76
501,107942982,0.2827,0.6128,-0.0225,230.85,47.56,-107.07
502,107947982,0.2612,0.6182,-0.0161,231.77,44.94,-109.57
503,107952981,0.2397,0.6226,-0.0200,232.80,42.13,-112.01
504,107957982,0.2202,0.6245,-0.0166,233.96,39.33,-114.21
505,107962981,0.2114,0.6245,-0.0103,235.12,36.52,-116.34
506,107967983,0.2178,0.6240,-0.0317,236.22,33.78,-118.29
507,107972980,0.2251,0.6304,-0.0449,237.32,30.73,-120.30
508,107977984,0.2183,0.6523,-0.0596,238.35,27.68,-122.50
509,107982981,0.2358,0.6489,-0.0630,239.21,24.70,-124.45
510,107987982,0.2314,0.6670,-0.0908,239.63,21.59,-126.52
511,107992981,0.2119,0.6753,-0.0977,239.45,18.78,-128.66
512,107997982,0.2339,0.6602,-0.1372,238.72,16.10,-130.67
513,108002982,0.2798,0.6904,-0.1543,237.87,13.48,-132.68
514,108007982,0.3062,0.7114,-0.1748,236.71,11.16,-134.82
515,108012980,0.3081,0.7236,-0.1904,235.73,8.84,-136.95
516,108017982,0.2808,0.7319,-0.1895,234.76,6.65,-139.09
517,108022982,0.2461,0.7349,-0.1997,233.72,4.70,-141.22
518,108027982,0.2246,0.7402,-0.2109,232.68,2.56,-143.17
519,108032981,0.2095,0.7539,-0.2266,231.59,0.79,-145.37
520,108037982,0.2153,0.7642,-0.2378,230.00,-1.28,-147.44
521,108042981,0.2114,0.7881,-0.2666,228.17,-3.17,-149.63
522,108047982,0.2075,0.8193,-0.3159,225.91,-5.06,-152.07
523,108052981,0.2007,0.8560,-0.3433,223.66,-7.26,-154.39
524,108057982,0.1890,0.8760,-0.3496,221.28,-9.33,-156.83
525,108062981,0.1899,0.9058,-0.3623,219.09,-11.46,-159.45
526,108067982,0.1758,0.9341,-0.3613,217.13,-13.11,-161.95
527,108072981,0.1709,0.9673,-0.3687,215.67,-15.00,-164.51
528,108077981,0.1387,0.9937,-0.3643,214.76,-16.71,-167.13
529,108082984,0.0972,1.0234,-0.3657,213.90,-18.29,-169.70
530,108087981,0.0620,1.0513,-0.3726,213.66,-19.88,-172.26
531,108092982,0.0474,1.0977,-0.3223,212.93,-20.98,-174.76
532,108097982,0.0034,1.0640,-0.3306,211.28,-22.07,-177.13
533,108102980,0.0068,1.1099,-0.3462,209.39,-23.17,-179.15
534,108107984,-0.0332,1.1484,-0.3647,207.20,-24.39,-181.16
535,108112981,-0.0547,1.1777,-0.3872,204.88,-25.85,-183.17
536,108117980,-0.0732,1.2104,-0.3711,202.20,-27.01,-184.57
537,108122982,-0.0986,1.2266,-0.3750,199.27,-28.17,-185.73
538,108127984,-0.1392,1.2637,-0.3628,196.40,-29.27,-186.40
539,108132981,-0.1758,1.2861,-0.3682,193.05,-30.37,-186.95
540,108137982,-0.2031,1.3081,-0.3384,189.82,-31.46,-187.07
541,108142981,-0.2129,1.3608,-0.3359,187.20,-32.32,-186.59
542,108147982,-0.2173,1.3076,-0.3052,182.99,-33.17,-186.10
543,108152980,-0.2920,1.3403,-0.3623,177.26,-34.15,-185.12
544,108157982,-0.3535,1.3887,-0.3271,171.28,-35.37,-183.90
545,108162982,-0.3560,1.4458,-0.3755,164.15,-36.89,-182.32
546,108167982,-0.3901,1.4492,-0.3398,156.10,-38.41,-180.24
547,108172981,-0.3887,1.4810,-0.2979,147.38,-39.76,-177.62
548,108177982,-0.4434,1.4648,-0.2749,137.87,-41.10,-175.00
549,108182982,-0.4790,1.4648,-0.2925,127.80,-42.32,-171.52
550,108187983,-0.4658,1.4878,-0.2974,117.20,-43.90,-167.87
551,108192984,-0.4902,1.4990,-0.3096,106.77,-45.30,-164.02
552,108197982,-0.4775,1.5054,-0.2617,98.23,-46.16,-160.98
553,108202980,-0.4692,1.4902,-0.2734,87.74,-47.44,-156.71
554,108207984,-0.4575,1.5142,-0.2998,77.93,-48.84,-152.13
555,108212981,-0.4434,1.5352,-0.2144,68.90,-50.18,-147.44
556,108217980,-0.4575,1.5386,-0.2119,61.16,-51.04,-142.44
557,108222981,-0.4771,1.5747,-0.3457,53.96,-52.74,-137.13
558,108227982,-0.4561,1.5723,-0.2129,48.35,-54.57,-131.89
559,108232981,-0.4619,1.5776,-0.1440,43.78,-55.73,-126.22
560,108237982,-0.4663,1.6016,-0.2852,39.88,-57.93,-120.43
561,108243086,-0.4468,1.6001,-0.1870,37.44,-60.30,-114.57
562,108247982,-0.4883,1.5669,-0.0566,35.91,-62.01,-108.60
563,108252982,-0.4478,1.6050,-0.1670,34.33,-64.45,-102.62
564,108257984,-0.4761,1.5825,-0.1060,33.41,-67.32,-96.46
565,108262982,-0.5142,1.5605,-0.0356,31.46,-69.94,-90.00
566,108267982,-0.4780,1.5405,-0.0156,30.24,-73.05,-83.41
567,108272981,-0.5034,1.5303,-0.0859,29.27,-76.52,-76.77
568,108277982,-0.4907,1.5278,-0.0015,28.54,-80.67,-70.00
569,108282982,-0.5054,1.5151,-0.0020,28.96,-84.63,-63.11
570,108287982,-0.4810,1.5288,-0.0117,29.76,-89.63,-56.10
571,108292981,-0.5068,1.5024,0.0029,31.77,-94.51,-49.02
572,108297982,-0.4917,1.4863,0.0308,34.63,-99.63,-41.65
573,108302981,-0.4878,1.4702,0.0405,38.90,-105.06,-34.21
574,108307982,-0.4766,1.4526,0.0405,44.15,-110.85,-26.52
575,108312981,-0.4663,1.4541,0.0332,50.67,-116.95,-18.78
576,108317982,-0.4878,1.4307,0.0498,57.99,-123.78,-11.04
577,108322982,-0.4858,1.4268,0.1030,65.00,-130.49,-2.80
578,108327982,-0.5781,1.3408,0.1436,69.76,-137.07,5.49
579,108332981,-0.4873,1.3242,0.1001,72.62,-144.33,13.78
580,108337982,-0.5229,1.3271,0.0483,76.28,-151.95,21.83
581,108342981,-0.5532,1.3008,0.0981,80.24,-159.76,30.00
582,108347982,-0.5557,1.2686,0.1167,84.45,-167.50,38.29
583,108352981,-0.5640,1.2529,0.0923,88.96,-175.18,46.52
584,108358076,-0.5923,1.2373,0.0659,93.48,-183.17,54.70
585,108362981,-0.6343,1.2168,0.0679,97.32,-191.10,62.93
586,108367982,-0.6812,1.1982,0.0459,100.49,-198.90,71.22
587,108372981,-0.7212,1.1758,0.0371,102.44,-206.59,79.39
588,108377982,-0.7661,1.1533,0.0229,103.41,-214.15,87.07
589,108383556,-0.8301,1.1274,0.0059,103.54,-222.80,96.65
590,108387982,-0.8779,1.1133,-0.0068,102.87,-228.41,102.80
591,108392981,-0.9370,1.0903,-0.0210,101.40,-235.18,110.37
592,108397982,-0.9937,1.0679,-0.0415,99.21,-241.83,117.74
593,108402982,-1.0508,1.0474,-0.0640,96.46,-248.17,124.82
594,108407982,-1.1104,1.0352,-0.0752,93.05,-254.57,131.83
595,108412980,-1.1646,1.0117,-0.0962,89.51,-260.73,138.66
596,108417982,-1.2197,0.9897,-0.1226,85.43,-267.13,145.30
597,108422980,-1.2769,0.9678,-0.1362,81.28,-273.41,151.65
598,108427980,-1.3286,0.9492,-0.1494,76.77,-279.76,157.93
599,108432982,-1.3813,0.9272,-0.1753,72.26,-286.16,164.15
600,108437982,-1.4370,0.9102,-0.1924,67.80,-292.56,169.82
601,108442982,-1.4961,0.8872,-0.2085,63.29,-298.84,175.43
602,108447981,-1.5532,0.8770,-0.2231,58.90,-305.37,180.98
603,108452984,-1.6211,0.8608,-0.2500,54.70,-311.89,185.98
604,108457981,-1.6958,0.8418,-0.2705,51.04,-318.54,190.98
605,108463422,-1.7627,0.8350,-0.2847,47.50,-325.24,195.55
606,108467982,-1.8369,0.8301,-0.2979,44.51,-331.89,200.00
607,108472981,-1.9092,0.8237,-0.3071,42.01,-338.29,204.21
608,108477983,-1.9868,0.8169,-0.3203,39.88,-345.12,208.23
609,108482981,-2.0581,0.8198,-0.3330,38.11,-351.46,212.07
610,108487984,-2.1270,0.8232,-0.3477,36.65,-357.99,215.79
611,108492981,-2.1992,0.8271,-0.3569,35.24,-364.45,219.33
612,108497982,-2.2593,0.8247,-0.3569,34.02,-370.79,222.93
613,108502981,-2.3247,0.8184,-0.3721,32.80,-377.13,226.52
614,108507982,-2.3813,0.8179,-0.3687,31.22,-383.35,229.94
615,108512981,-2.4434,0.8237,-0.3726,29.21,-389.45,233.35
616,108517982,-2.5137,0.8164,-0.3872,26.77,-395.43,236.77
617,108522980,-2.5698,0.8218,-0.3896,24.27,-401.40,240.18
618,108527980,-2.6392,0.8286,-0.3994,21.22,-407.20,243.35
619,108532982,-2.7085,0.8311,-0.4102,18.17,-412.93,246.46
620,108537982,-2.7788,0.8408,-0.4141,14.82,-418.35,249.57
621,108542982,-2.8667,0.8447,-0.4136,11.40,-423.41,252.26
622,108547982,-2.9390,0.8550,-0.4180,7.56,-428.54,254.82
623,108552982,-3.0059,0.8447,-0.4170,3.35,-433.29,257.07
624,108557982,-3.0776,0.8779,-0.3989,-1.59,-437.80,259.09
625,108562982,-3.1396,0.9077,-0.3896,-6.71,-442.07,260.73
626,108567982,-3.2148,0.9307,-0.4009,-12.20,-446.16,262.13
627,108572982,-3.2656,0.9380,-0.3716,-18.60,-450.24,263.23
628,108577982,-3.2949,0.9316,-0.3911,-24.63,-453.11,263.96
629,108582981,-3.3477,0.9629,-0.4155,-32.56,-456.95,264.39
630,108587982,-3.4312,1.0264,-0.4517,-40.43,-461.04,264.45
631,108592982,-3.5396,1.0708,-0.4492,-48.66,-465.06,264.15
632,108597982,-3.5786,1.1099,-0.5034,-56.65,-469.51,263.48
633,108602981,-3.5996,1.1479,-0.5234,-63.84,-473.66,262.62
634,108607982,-3.6230,1.1934,-0.5415,-70.55,-477.62,261.28
635,108612981,-3.6543,1.2593,-0.5776,-76.95,-481.34,259.82
636,108617982,-3.7222,1.3291,-0.6172,-82.74,-485.30,257.93
637,108622982,-3.7729,1.3809,-0.6611,-87.87,-489.09,256.10
638,108627980,-3.8096,1.4502,-0.6987,-92.32,-492.50,254.02
639,108632981,-3.8462,1.5342,-0.7437,-95.98,-495.61,252.26
640,108637982,-3.8774,1.6167,-0.7881,-98.41,-498.29,250.43
641,108642981,-3.9263,1.6992,-0.8218,-99.70,-500.43,248.66
642,108647982,-3.9570,1.7754,-0.8579,-99.15,-501.95,247.50
643,108652981,-3.9868,1.8481,-0.9014,-96.65,-502.50,246.59
644,108657982,-4.0088,1.9277,-0.9541,-92.26,-502.50,246.16
645,108662981,-4.0225,2.0171,-1.0068,-85.61,-501.65,246.28
646,108667982,-4.0347,2.1079,-1.0703,-76.89,-500.12,246.95
647,108672982,-4.0234,2.1943,-1.1230,-66.65,-497.87,248.41
648,108677982,-3.9766,2.2329,-1.1411,-55.91,-494.57,250.79
649,108682981,-3.9658,2.3022,-1.1870,-46.65,-490.00,254.27
650,108687985,-3.9395,2.3379,-1.2466,-38.90,-484.76,258.84
651,108692984,-3.8433,2.3198,-1.2612,-31.52,-477.07,266.04
652,108697982,-3.7974,2.4399,-1.2217,-29.27,-471.04,270.98
653,108702983,-3.8394,2.4478,-1.3594,-31.83,-463.35,277.99
654,108707982,-3.8550,2.4512,-1.4502,-38.48,-456.34,285.55
655,108712980,-3.7397,2.4551,-1.4663,-47.07,-449.21,293.41
656,108717982,-3.6396,2.4766,-1.5107,-56.65,-441.83,301.34
657,108722981,-3.6318,2.4829,-1.5620,-66.46,-434.70,308.96
658,108727983,-3.5913,2.5278,-1.6240,-76.65,-427.68,316.22
659,108732980,-3.5454,2.5479,-1.6807,-86.16,-421.16,323.23
660,108737980,-3.4858,2.5625,-1.6997,-94.94,-415.18,329.94
661,108742982,-3.4419,2.5684,-1.7280,-103.41,-409.57,336.40
662,108747985,-3.3862,2.5522,-1.7334,-111.83,-404.15,342.62
663,108752981,-3.3501,2.5620,-1.7554,-119.88,-399.02,348.72
664,108757982,-3.3037,2.5630,-1.7681,-127.20,-394.21,354.94
665,108762981,-3.2622,2.5488,-1.7686,-132.99,-389.51,361.10
666,108767982,-3.2158,2.5400,-1.7744,-137.26,-384.70,367.68
667,108772981,-3.1763,2.5396,-1.7734,-139.70,-379.70,374.51
668,108777982,-3.1318,2.5117,-1.7852,-140.49,-374.76,381.65
669,108782981,-3.0869,2.4922,-1.7959,-140.43,-370.12,389.02
670,108787983,-3.0479,2.4673,-1.8032,-140.00,-365.18,396.65
671,108793200,-2.9883,2.4438,-1.8110,-138.90,-360.37,404.70
672,108797984,-2.9517,2.4341,-1.8525,-137.26,-355.79,412.74
673,108802981,-2.9385,2.4272,-1.8711,-135.37,-351.16,421.22
674,108807982,-2.9165,2.4092,-1.8813,-132.93,-346.71,429.88
675,108812981,-2.8984,2.3872,-1.8896,-130.06,-342.07,438.78
676,108817982,-2.8926,2.3682,-1.9219,-126.77,-337.38,447.93
677,108822983,-2.8779,2.3408,-1.9326,-122.93,-332.44,457.26
678,108827981,-2.8730,2.3169,-1.9658,-118.11,-327.68,466.89
679,108832980,-2.8584,2.2729,-1.9829,-112.38,-322.56,476.65
680,108837982,-2.8374,2.2271,-2.0015,-104.82,-317.32,486.52
681,108842982,-2.8584,2.1621,-1.9897,-95.79,-311.71,496.40
682,108847982,-2.8672,2.0723,-2.0215,-85.85,-305.73,506.22
683,108852982,-2.7998,1.9736,-2.0488,-75.49,-299.33,515.79
684,108857982,-2.8667,1.8838,-2.0479,-66.04,-292.32,525.18
685,108862982,-2.8521,1.7666,-2.0981,-56.77,-285.12,534.21
686,108867982,-2.8174,1.6465,-2.1060,-48.60,-277.44,542.87
687,108873442,-2.8970,1.5259,-2.1050,-42.99,-269.82,550.73
688,108877982,-2.8945,1.4312,-2.1455,-39.15,-262.01,557.99
689,108882981,-2.8516,1.3184,-2.1729,-37.38,-254.21,564.15
690,108887983,-2.8667,1.2271,-2.1260,-37.74,-246.52,569.63
691,108892980,-2.8403,1.1099,-2.1523,-40.61,-238.96,574.09
692,108897983,-2.8662,1.0244,-2.1440,-45.00,-231.89,577.68
693,108902982,-2.8120,0.9453,-2.1440,-50.00,-224.82,580.61
694,108907981,-2.8232,0.8638,-2.1187,-54.82,-217.50,582.80
695,108912982,-2.8013,0.7686,-2.1182,-58.84,-210.30,584.21
696,108917982,-2.7588,0.6836,-2.1030,-60.61,-202.93,585.37
697,108922982,-2.7837,0.6211,-2.0518,-59.82,-195.06,586.46
698,108927982,-2.7666,0.5513,-2.0630,-55.49,-186.04,587.26
699,108932980,-2.7417,0.4868,-2.0562,-48.66,-178.17,588.11
700,108937980,-2.7158,0.4131,-2.0093,-32.13,-164.70,588.84
701,108942984,-2.6914,0.3350,-1.9771,-13.78,-151.59,589.63
702,108947981,-2.6440,0.2881,-1.9561,2.20,-139.76,590.24
703,108952982,-2.5903,0.2114,-1.8911,22.74,-123.90,590.61
704,108957982,-2.4253,0.1006,-1.9561,41.52,-107.38,590.85
705,108962980,-2.4907,0.0938,-1.9072,60.61,-90.00,590.06
706,108967984,-2.6201,-0.0054,-1.8638,81.46,-71.83,588.23
707,108972981,-2.5293,-0.1055,-1.8809,101.77,-52.87,586.28
708,108977982,-2.4565,-0.1646,-1.8125,120.00,-33.11,583.84
709,108982981,-2.4482,-0.2363,-1.7397,134.63,-12.80,580.18
710,108987982,-2.4185,-0.2974,-1.7002,145.91,7.26,575.79
711,108992981,-2.3770,-0.3721,-1.6426,153.17,27.07,570.67
712,108998027,-2.3345,-0.4434,-1.5698,155.98,46.16,564.94
713,109002982,-2.3091,-0.5190,-1.5229,154.63,64.51,558.54
714,109007982,-2.2935,-0.5903,-1.4692,149.21,81.34,551.77
715,109012981,-2.2837,-0.6455,-1.4150,140.79,96.77,544.82
716,109017982,-2.2759,-0.7041,-1.3691,129.09,110.73,537.50
717,109023008,-2.2798,-0.7412,-1.2920,117.80,123.29,530.37
718,109027984,-2.2988,-0.7739,-1.1997,104.88,134.88,523.23
719,109033034,-2.2666,-0.8252,-1.1138,91.59,145.06,516.46
720,109037980,-2.2617,-0.8418,-1.1616,77.74,153.72,509.63
721,109042981,-2.3252,-0.8486,-1.1650,64.27,160.43,503.29
722,109047982,-2.3960,-0.8716,-1.0444,51.10,166.71,496.89
723,109052983,-2.4194,-0.9004,-1.0029,38.96,172.32,490.12
724,109057984,-2.3999,-0.9448,-0.9888,28.72,177.26,483.11
725,109062984,-2.3906,-0.9722,-0.9229,19.27,182.44,474.27
726,109067982,-2.3916,-0.9946,-0.8652,14.63,185.73,468.11
727,109072981,-2.3901,-1.0337,-0.8374,11.28,189.45,460.43
728,109077982,-2.3604,-1.0786,-0.7427,10.43,192.99,452.62
729,109082981,-2.3438,-1.1040,-0.7134,11.77,196.52,444.63
730,109087982,-2.3301,-1.1470,-0.6719,15.30,200.06,436.22
731,109092981,-2.3394,-1.1812,-0.5938,19.63,203.60,427.50
732,109097982,-2.3340,-1.2339,-0.4937,24.33,207.26,418.66
733,109102982,-2.3306,-1.2642,-0.4824,28.17,210.61,409.76
734,109107982,-2.3218,-1.2891,-0.4551,31.77,213.66,400.49
735,109112980,-2.3110,-1.3057,-0.3472,34.27,217.07,389.21
736,109117982,-2.2803,-1.3374,-0.2832,34.88,219.39,381.65
737,109122982,-2.2686,-1.3867,-0.2036,33.17,221.46,372.13
738,109127981,-2.2461,-1.3623,-0.2070,29.39,222.93,362.50
739,109132982,-2.2065,-1.3945,-0.1377,24.33,223.48,352.68
740,109137981,-2.1963,-1.4204,-0.0444,18.05,223.72,342.74
741,109142984,-2.1533,-1.4478,-0.0239,11.22,223.23,332.50
742,109147981,-2.1470,-1.4580,0.0073,4.51,222.01,322.26
743,109153333,-2.0762,-1.4692,0.0854,-1.10,220.24,311.95
744,109157982,-2.0327,-1.4795,0.1211,-5.55,217.87,301.40
745,109162982,-1.9941,-1.5083,0.1333,-8.72,214.70,291.16
746,109167982,-1.9312,-1.5254,0.1699,-10.61,210.79,280.79
747,109172982,-1.9136,-1.5430,0.1851,-11.28,206.52,270.43
748,109177982,-1.8613,-1.5889,0.2202,-9.57,201.59,260.06
749,109182982,-1.7607,-1.5869,0.2183,-6.10,196.34,249.70
750,109187984,-1.7202,-1.5703,0.2305,-1.34,190.61,238.78
751,109192982,-1.6309,-1.5645,0.2832,4.45,184.94,227.44
752,109197981,-1.5522,-1.5796,0.2661,11.59,178.96,215.79
753,109202982,-1.4741,-1.5684,0.2568,19.27,172.68,203.78
754,109207982,-1.4238,-1.6177,0.2837,27.56,166.04,191.40
755,109212982,-1.3281,-1.6211,0.2983,35.55,159.27,179.02
756,109217981,-1.2534,-1.6089,0.3188,43.05,152.38,166.10
757,109222982,-1.1782,-1.5962,0.3418,49.51,145.24,152.87
758,109227981,-1.1362,-1.6045,0.3408,55.24,138.17,139.51
759,109232982,-1.1064,-1.6113,0.3452,60.30,130.43,126.28
760,109237981,-1.0757,-1.6147,0.3481,64.57,122.56,113.17
761,109242984,-1.0542,-1.6216,0.3579,68.41,114.57,100.18
762,109247981,-1.0254,-1.6230,0.3594,71.65,106.04,86.77
763,109252982,-1.0117,-1.6201,0.3472,74.82,97.68,74.45
764,109257981,-0.9614,-1.6328,0.3545,78.23,89.39,61.83
765,109262982,-0.9395,-1.6494,0.3813,80.91,81.22,49.15
766,109267981,-0.9238,-1.6743,0.4111,83.41,72.32,36.52
767,109272984,-0.9004,-1.7021,0.4238,85.30,63.96,24.09
768,109277981,-0.8921,-1.7314,0.4238,87.13,55.73,11.71
769,109282982,-0.8813,-1.7539,0.4502,88.96,47.50,-0.79
770,109287981,-0.8652,-1.7754,0.4507,91.10,39.70,-13.29
771,109292982,-0.8535,-1.7783,0.4526,93.54,31.95,-25.85
772,109297981,-0.8530,-1.7715,0.4312,96.65,24.51,-38.29
773,109302980,-0.8286,-1.7510,0.4185,99.88,17.26,-50.55
774,109307984,-0.8203,-1.7012,0.4004,102.68,10.06,-62.20
775,109312982,-0.8115,-1.6597,0.3818,104.27,4.45,-71.16
776,109317982,-0.8052,-1.5962,0.3618,105.49,-2.44,-81.59
777,109322982,-0.8013,-1.5264,0.3306,105.67,-9.02,-91.22
778,109327982,-0.7915,-1.4487,0.3022,104.70,-15.49,-99.57
779,109332982,-0.7832,-1.3784,0.2764,102.87,-21.52,-107.20
780,109337982,-0.7695,-1.3057,0.2524,100.55,-27.26,-113.84
781,109342982,-0.7612,-1.2432,0.2271,97.38,-32.44,-119.88
782,109347982,-0.7666,-1.1797,0.1836,93.78,-37.01,-125.12
783,109352980,-0.7773,-1.1455,0.1572,90.18,-41.16,-129.76
784,109357982,-0.7837,-1.1152,0.1411,86.16,-44.88,-133.60
785,109362982,-0.7788,-1.0913,0.1294,82.01,-48.11,-137.01
786,109367983,-0.7617,-1.0679,0.1221,77.87,-50.61,-140.18
787,109372982,-0.7461,-1.0498,0.1147,74.21,-52.93,-143.23
788,109377981,-0.7271,-1.0361,0.1108,70.98,-54.94,-145.98
789,109382982,-0.7124,-1.0181,0.1001,68.54,-56.46,-148.54
790,109387981,-0.7026,-1.0088,0.0869,66.59,-57.74,-150.85
791,109392982,-0.6929,-0.9912,0.0859,65.49,-58.96,-152.68
792,109397981,-0.6870,-0.9844,0.0703,64.82,-59.88,-154.39
793,109402981,-0.6719,-0.9731,0.0640,64.76,-60.91,-155.73
794,109407982,-0.6631,-0.9639,0.0581,65.06,-61.52,-156.46
795,109412984,-0.6523,-0.9517,0.0522,66.04,-62.01,-157.20
796,109417981,-0.6377,-0.9385,0.0474,67.20,-62.44,-157.68
797,109422982,-0.6230,-0.9233,0.0430,68.29,-62.74,-158.11
798,109427981,-0.6113,-0.9150,0.0337,68.90,-62.99,-158.54
799,109432982,-0.5996,-0.9043,0.0273,69.27,-63.05,-158.72
800,109437981,-0.5845,-0.8979,0.0200,68.96,-62.93,-158.78
801,109442982,-0.5771,-0.8921,0.0205,67.87,-63.11,-158.66
802,109447981,-0.5649,-0.8843,0.0171,66.22,-62.99,-158.72
803,109453057,-0.5532,-0.8770,0.0146,64.15,-62.93,-158.60
804,109457980,-0.5400,-0.8721,0.0137,61.71,-62.74,-158.41
805,109462982,-0.5229,-0.8706,0.0156,59.27,-62.44,-158.23
806,109467981,-0.5068,-0.8730,0.0176,57.01,-61.95,-157.87
807,109472980,-0.4858,-0.8750,0.0225,55.12,-61.77,-157.38
808,109477984,-0.4648,-0.8799,0.0190,53.78,-61.40,-156.95
809,109482981,-0.4404,-0.8804,0.0366,53.17,-61.10,-156.40
810,109487982,-0.4087,-0.8833,0.0308,53.35,-60.79,-155.73
811,109492982,-0.3872,-0.8853,0.0415,54.27,-60.49,-155.00
812,109497982,-0.3594,-0.8853,0.0493,55.79,-60.24,-154.51
813,109502980,-0.3345,-0.8838,0.0469,57.99,-60.12,-153.84
814,109507980,-0.3110,-0.8843,0.0493,60.43,-59.94,-153.17
815,109512980,-0.2905,-0.8823,0.0571,62.87,-59.94,-152.74
816,109517982,-0.2749,-0.8828,0.0620,64.88,-60.00,-152.26
817,109522982,-0.2515,-0.8853,0.0659,66.46,-60.06,-151.89
818,109527982,-0.2310,-0.8848,0.0752,67.32,-60.55,-151.59
819,109532982,-0.2109,-0.8867,0.0776,67.74,-60.61,-151.40
820,109537982,-0.1914,-0.8926,0.0942,67.74,-60.85,-151.34
821,109542980,-0.1743,-0.8911,0.0938,67.62,-61.04,-151.22
822,109547983,-0.1606,-0.8853,0.1006,67.56,-61.16,-151.22
823,109552982,-0.1475,-0.8862,0.1074,67.44,-61.16,-151.28
824,109557981,-0.1392,-0.8843,0.1133,67.62,-61.10,-151.22
825,109562980,-0.1338,-0.8828,0.1147,67.87,-61.04,-151.28
826,109567984,-0.1191,-0.8809,0.1304,68.54,-61.16,-151.16
827,109572982,-0.1011,-0.8745,0.1284,69.63,-61.10,-151.10
828,109577982,-0.0869,-0.8755,0.1426,71.10,-61.34,-151.34
829,109582982,-0.0728,-0.8696,0.1436,72.99,-61.40,-151.40
830,109587982,-0.0552,-0.8682,0.1504,74.76,-61.34,-151.65
831,109593336,-0.0420,-0.8633,0.1602,76.65,-61.65,-151.89
832,109597982,-0.0239,-0.8613,0.1729,78.11,-61.71,-152.20
833,109602981,-0.0122,-0.8647,0.1748,79.27,-61.95,-152.62
834,109607984,0.0054,-0.8633,0.1753,80.06,-62.13,-153.17
835,109613565,0.0127,-0.8589,0.1777,80.73,-62.26,-153.60
836,109617982,0.0078,-0.8481,0.1826,80.91,-62.50,-154.21
837,109622982,-0.0303,-0.8628,0.1816,81.46,-62.68,-154.88
838,109627982,0.0161,-0.8477,0.1865,82.32,-62.80,-155.49
839,109632982,0.0264,-0.8354,0.1777,83.23,-63.05,-156.22
840,109637982,0.0430,-0.8267,0.1821,84.33,-63.23,-156.89
841,109642982,0.0508,-0.8179,0.1943,85.49,-63.29,-157.50
842,109647982,0.0562,-0.8159,0.2021,86.59,-63.48,-158.05
843,109652982,0.0718,-0.8145,0.2148,87.38,-63.54,-158.60
844,109657982,0.0806,-0.8125,0.2246,87.87,-63.78,-158.96
845,109662982,0.0981,-0.8003,0.2402,87.87,-64.02,-159.45
846,109667982,0.1177,-0.7954,0.2446,87.62,-64.15,-160.06
847,109672982,0.1318,-0.7817,0.2480,87.13,-64.27,-160.73
848,109677982,0.1538,-0.7891,0.2432,86.52,-64.45,-161.40
849,109682983,0.1548,-0.7603,0.2593,85.98,-64.63,-161.95
850,109687982,0.1685,-0.7583,0.2749,85.06,-64.76,-162.80
851,109693067,0.1797,-0.7588,0.2759,83.60,-64.94,-163.48
852,109697982,0.1860,-0.7612,0.2817,82.80,-65.12,-163.90
853,109702982,0.2046,-0.7495,0.2881,81.28,-65.37,-164.51
854,109707982,0.2231,-0.7378,0.2944,80.24,-65.73,-165.18
855,109712982,0.2305,-0.7280,0.2964,78.96,-65.91,-165.85
856,109717983,0.2339,-0.7222,0.2983,77.68,-66.28,-166.52
857,109722982,0.2451,-0.7153,0.3052,76.22,-66.77,-167.07
858,109727982,0.2402,-0.6748,0.2891,75.12,-67.13,-167.56
859,109732982,0.2153,-0.6992,0.3018,74.15,-67.80,-168.17
860,109737982,0.2725,-0.7310,0.4268,72.74,-68.17,-168.78
861,109742982,0.3169,-0.6401,0.1733,73.17,-68.78,-168.23
862,109747982,0.2871,-0.5625,0.3545,73.78,-69.57,-168.41
863,109752982,0.3286,-0.6694,0.3838,74.33,-70.00,-169.15
864,109757984,0.3604,-0.6763,0.2349,76.10,-71.28,-169.33
865,109762982,0.3467,-0.6543,0.3530,77.68,-72.44,-169.70
866,109768078,0.3628,-0.5742,0.3535,79.51,-73.05,-170.18
867,109772984,0.3706,-0.5864,0.3076,80.79,-74.21,-170.73
868,109777981,0.3726,-0.5981,0.3237,81.52,-75.43,-171.28
869,109782982,0.3774,-0.5996,0.3237,82.07,-76.40,-171.59
870,109787981,0.3833,-0.5752,0.3008,82.44,-77.50,-172.13
871,109792982,0.3877,-0.5552,0.2983,82.62,-78.60,-172.44
872,109797981,0.4023,-0.5425,0.3115,82.80,-79.63,-172.74
873,109802980,0.4111,-0.5337,0.3203,82.62,-80.67,-172.93
874,109807983,0.4404,-0.5210,0.3208,81.83,-81.59,-173.05
875,109813274,0.4746,-0.5088,0.3242,80.18,-82.32,-173.23
876,109817982,0.5063,-0.4976,0.3291,78.23,-83.17,-173.48
877,109822983,0.5273,-0.4912,0.3242,76.34,-83.72,-173.66
878,109827982,0.5435,-0.4878,0.3198,74.51,-84.27,-173.96
879,109832981,0.5532,-0.4839,0.3047,72.93,-84.76,-174.33
880,109837982,0.5596,-0.4849,0.2930,71.52,-85.37,-174.82
881,109842982,0.5596,-0.4849,0.2842,70.37,-85.55,-175.24
882,109847982,0.5493,-0.4829,0.2715,69.51,-85.73,-175.73
883,109852981,0.5562,-0.4590,0.2739,69.02,-85.79,-176.52
884,109857982,0.5718,-0.4590,0.2705,68.48,-86.04,-177.20
885,109862982,0.5713,-0.4585,0.2729,67.44,-86.16,-177.74
886,109867982,0.5742,-0.4351,0.2617,65.61,-86.10,-178.35
887,109872981,0.5786,-0.4263,0.2539,63.35,-86.16,-179.15
888,109877982,0.5703,-0.4014,0.2500,60.18,-86.10,-179.76
889,109882981,0.5259,-0.3735,0.2300,56.52,-86.10,-180.43
890,109887984,0.5361,-0.3633,0.2148,52.20,-86.04,-181.10
891,109892981,0.5542,-0.3491,0.2202,47.87,-86.04,-181.77
892,109897983,0.5444,-0.3232,0.2227,43.72,-85.55,-182.26
893,109902981,0.5532,-0.3047,0.2227,40.18,-84.82,-183.05
894,109907982,0.5610,-0.2871,0.2207,37.07,-83.96,-183.66
895,109912981,0.5669,-0.2705,0.2197,34.57,-82.99,-184.33
896,109917982,0.5713,-0.2627,0.2100,32.38,-81.83,-184.94
897,109922983,0.5718,-0.2446,0.2104,30.79,-80.67,-185.67
898,109927982,0.5796,-0.2280,0.2036,29.45,-79.57,-186.22
899,109932981,0.5854,-0.2119,0.1880,28.23,-78.29,-186.83
900,109937982,0.5986,-0.1890,0.1860,27.01,-77.20,-187.62
901,109942982,0.5615,-0.1152,0.1460,25.43,-76.16,-188.54
902,109947982,0.5923,-0.1260,0.1470,22.99,-75.30,-189.57
903,109952981,0.6104,-0.1069,0.1348,20.06,-74.39,-190.30
904,109957982,0.6138,-0.0801,0.1045,17.13,-73.72,-191.16
905,109962982,0.6201,-0.0591,0.1104,14.02,-72.93,-192.01
906,109967982,0.6338,-0.0273,0.0781,10.61,-72.32,-192.93
907,109972982,0.6323,-0.0044,0.0562,6.89,-71.83,-193.66
908,109978072,0.6348,0.0166,0.0532,3.48,-71.34,-194.39
909,109982982,0.6304,0.0352,0.0527,0.30,-70.55,-195.06
910,109987981,0.6279,0.0464,0.0444,-1.95,-69.70,-195.55
911,109993465,0.6240,0.0713,0.0527,-3.72,-68.54,-195.91
912,109997983,0.6191,0.0879,0.0400,-4.82,-67.32,-196.40
913,110002982,0.6118,0.1050,0.0361,-5.37,-66.04,-196.65
914,110007982,0.6021,0.1260,0.0254,-5.18,-64.39,-196.77
915,110012980,0.5942,0.1519,0.0259,-4.70,-62.93,-197.13
916,110017983,0.5967,0.1709,0.0059,-3.96,-61.40,-197.44
917,110022982,0.5825,0.1860,0.0088,-3.29,-59.70,-197.68
918,110027983,0.5732,0.2173,0.0020,-2.74,-58.17,-197.80
919,110032981,0.5630,0.2412,-0.0186,-2.38,-56.77,-198.05
920,110037982,0.5586,0.2622,-0.0205,-2.07,-55.49,-198.23
921,110043434,0.5479,0.2798,-0.0229,-2.07,-53.66,-198.35
922,110047982,0.5371,0.3013,-0.0298,-2.07,-52.50,-198.35
923,110052982,0.5337,0.3252,-0.0361,-2.32,-50.85,-198.41
924,110057982,0.5322,0.3379,-0.0474,-2.68,-49.39,-198.60
925,110062980,0.5161,0.3501,-0.0430,-3.05,-47.68,-198.66
926,110067983,0.5039,0.3638,-0.0449,-3.60,-46.10,-198.54
927,110072982,0.4946,0.3813,-0.0483,-3.96,-44.57,-198.66
928,110077981,0.4790,0.3975,-0.0430,-4.15,-42.93,-198.48
929,110082982,0.4722,0.4097,-0.0469,-4.39,-41.16,-198.54
930,110087981,0.4590,0.4307,-0.0527,-4.76,-39.70,-198.48
931,110092984,0.4526,0.4443,-0.0537,-5.00,-37.93,-198.78
932,110097989,0.4414,0.4595,-0.0508,-5.30,-36.46,-198.96
933,110102980,0.4229,0.4761,-0.0552,-5.43,-34.76,-199.09
934,110107982,0.3999,0.4927,-0.0537,-6.22,-33.29,-199.15
935,110112982,0.3853,0.5117,-0.0537,-6.89,-31.59,-199.45
936,110117982,0.3755,0.5239,-0.0425,-7.87,-29.88,-199.70
937,110122980,0.3779,0.5435,-0.0532,-8.90,-28.35,-199.94
938,110127984,0.3862,0.5684,-0.0562,-9.94,-26.95,-200.43
939,110132982,0.3960,0.5850,-0.0610,-11.16,-25.61,-201.10
940,110137981,0.4043,0.5947,-0.0601,-12.32,-24.45,-201.77
941,110142982,0.3931,0.6016,-0.0576,-13.35,-23.23,-202.20
942,110147981,0.3872,0.6064,-0.0488,-14.15,-22.20,-202.74
943,110152982,0.3721,0.6064,-0.0454,-14.63,-21.22,-203.35
944,110157981,0.3545,0.6089,-0.0376,-14.51,-20.37,-203.84
945,110162982,0.3452,0.6113,-0.0308,-14.02,-19.51,-204.39
946,110167981,0.3335,0.6133,-0.0264,-12.68,-18.41,-205.06
947,110172984,0.3330,0.6265,-0.0273,-11.10,-17.56,-205.91
948,110177981,0.3369,0.6440,-0.0229,-9.09,-16.95,-206.95
949,110182983,0.3403,0.6567,-0.0298,-7.07,-16.16,-207.99
950,110187982,0.3384,0.6729,-0.0317,-5.43,-15.73,-209.33
951,110192984,0.3325,0.6880,-0.0303,-4.09,-15.37,-210.55
952,110197981,0.3276,0.7056,-0.0386,-3.11,-14.94,-211.89
953,110202980,0.3203,0.7202,-0.0332,-2.07,-14.51,-213.23
954,110207984,0.3130,0.7241,-0.0352,-1.28,-14.21,-214.51
955,110212982,0.2954,0.7305,-0.0327,-0.30,-14.15,-215.73
956,110217982,0.2856,0.7339,-0.0317,0.91,-13.96,-216.95
957,110222981,0.2661,0.7314,-0.0273,2.32,-13.72,-218.23
958,110227982,0.2520,0.7300,-0.0239,4.09,-13.48,-219.39
959,110232983,0.2271,0.7227,-0.0151,6.16,-13.23,-220.67
960,110237982,0.2124,0.7202,-0.0088,8.54,-13.05,-221.83
961,110242981,0.1968,0.7104,-0.0020,11.34,-12.99,-223.29
962,110247982,0.1733,0.7178,0.0034,14.09,-12.74,-224.57
963,110252982,0.1582,0.7393,-0.0132,16.71,-12.80,-226.16
964,110257984,0.1445,0.7563,-0.0107,18.72,-12.80,-227.68
965,110263283,0.1377,0.7778,-0.0146,20.18,-12.87,-229.27
966,110267982,0.1274,0.8018,-0.0166,20.67,-13.11,-230.55
967,110272982,0.1235,0.8350,-0.0278,20.49,-13.48,-232.07
968,110277981,0.1182,0.8594,-0.0312,19.57,-13.72,-233.17
969,110282982,0.1162,0.8770,-0.0312,18.41,-13.96,-234.57
970,110287981,0.1104,0.8960,-0.0269,17.38,-14.15,-235.61
971,110292982,0.1011,0.9072,-0.0327,16.46,-14.27,-236.77
972,110297981,0.0923,0.9121,-0.0244,16.04,-14.27,-237.68
973,110303461,0.0718,0.9165,-0.0156,15.85,-14.33,-238.60
974,110307982,0.0532,0.9155,-0.0122,16.22,-14.02,-239.63
975,110312982,0.0366,0.9233,-0.0122,17.07,-13.66,-240.55
976,110317982,0.0288,0.9521,-0.0093,18.23,-13.72,-241.77
977,110322981,0.0347,0.9756,-0.0137,19.88,-13.66,-243.23
978,110327982,0.0312,1.0015,-0.0156,21.34,-13.35,-244.39
979,110332983,0.0068,1.0337,-0.0205,22.32,-13.48,-245.49
980,110337982,-0.0190,1.0605,-0.0298,22.93,-13.41,-246.28
981,110342981,-0.0518,1.0938,-0.0332,23.23,-13.17,-246.95
982,110347982,-0.0850,1.1338,-0.0293,23.23,-13.05,-247.32
983,110352982,-0.1069,1.1675,-0.0322,22.93,-12.80,-247.74
984,110357983,-0.1245,1.2017,-0.0347,22.26,-12.62,-247.93
985,110363225,-0.1431,1.2300,-0.0400,21.46,-12.20,-247.93
986,110367981,-0.1611,1.2578,-0.0425,20.37,-11.89,-247.93
987,110372984,-0.1724,1.2725,-0.0483,19.33,-11.52,-247.99
988,110377981,-0.1938,1.2817,-0.0508,18.23,-11.16,-247.87
989,110382980,-0.2183,1.2935,-0.0493,17.62,-11.04,-247.68
990,110387984,-0.2388,1.2886,-0.0503,17.38,-10.67,-247.62
991,110392981,-0.2534,1.2876,-0.0532,17.38,-10.61,-247.44
992,110397982,-0.2725,1.2954,-0.0552,17.87,-10.30,-247.26
993,110402982,-0.2891,1.2998,-0.0542,18.29,-10.30,-246.95
994,110407982,-0.3184,1.3057,-0.0532,18.35,-10.06,-246.46
995,110412981,-0.3574,1.3154,-0.0522,17.93,-9.94,-245.61
996,110417982,-0.4028,1.3389,-0.0693,16.89,-9.70,-244.82
997,110422981,-0.4346,1.3687,-0.0737,15.24,-9.76,-243.72
998,110427983,-0.4619,1.3916,-0.0723,13.23,-9.76,-242.44
999,110433111,-0.4907,1.4170,-0.0830,10.55,-9.76,-240.61
1000,110437983,-0.5195,1.4341,-0.0894,8.96,-9.51,-239.09
1001,110442981,-0.5449,1.4478,-0.0889,7.20,-9.27,-237.26
1002,110447982,-0.5693,1.4536,-0.0767,5.91,-9.02,-235.12
1003,110452982,-0.5952,1.4551,-0.0732,5.24,-8.48,-232.87
1004,110457982,-0.6167,1.4604,-0.0713,5.06,-7.93,-230.37
1005,110462981,-0.6377,1.4463,-0.0527,5.37,-7.38,-228.05
1006,110467982,-0.6509,1.4351,-0.0454,6.22,-6.77,-225.49
1007,110472982,-0.6611,1.4214,-0.0347,7.20,-6.04,-223.11
1008,110477982,-0.6724,1.3999,-0.0322,7.99,-5.24,-220.37
1009,110482981,-0.6865,1.3867,-0.0293,8.48,-4.76,-217.80
1010,110487982,-0.6997,1.3760,-0.0366,8.23,-4.45,-215.00
1011,110492982,-0.7163,1.3667,-0.0371,7.32,-4.09,-212.07
1012,110497982,-0.7358,1.3608,-0.0425,5.61,-3.78,-209.09
1013,110502980,-0.7563,1.3604,-0.0620,3.66,-3.66,-205.67
1014,110507982,-0.7837,1.3628,-0.0654,0.91,-3.48,-201.65
1015,110512982,-0.7964,1.3613,-0.0659,-0.91,-3.48,-198.90
1016,110517981,-0.8179,1.3589,-0.0713,-2.80,-3.35,-195.37
1017,110522982,-0.8359,1.3608,-0.0679,-4.33,-3.17,-191.77
1018,110527981,-0.8521,1.3535,-0.0664,-5.37,-2.74,-188.29
1019,110532980,-0.8657,1.3457,-0.0713,-6.04,-2.32,-184.09
1020,110537982,-0.8701,1.3350,-0.0659,-6.04,-2.20,-181.28
1021,110542984,-0.8750,1.3262,-0.0698,-5.85,-2.01,-177.68
1022,110547982,-0.8711,1.3086,-0.0723,-5.30,-1.95,-174.27
1023,110552982,-0.8662,1.2935,-0.0732,-4.27,-1.83,-170.91
1024,110557982,-0.8672,1.2749,-0.0703,-2.93,-1.89,-167.50
1025,110562982,-0.8638,1.2568,-0.0737,-1.22,-1.83,-164.21
1026,110567982,-0.8613,1.2363,-0.0688,0.67,-2.20,-160.98
1027,110572982,-0.8604,1.2168,-0.0703,2.80,-2.44,-157.80
1028,110577982,-0.8604,1.2021,-0.0688,4.88,-2.87,-154.76
1029,110582982,-0.8574,1.1860,-0.0698,7.13,-3.29,-151.83
1030,110587982,-0.8647,1.1753,-0.0674,9.45,-3.90,-149.09
1031,110592982,-0.8682,1.1587,-0.0649,11.77,-4.45,-146.52
1032,110597982,-0.8760,1.1528,-0.0625,14.15,-4.88,-144.15
1033,110602982,-0.8789,1.1426,-0.0586,16.28,-5.43,-141.89
1034,110607982,-0.8809,1.1235,-0.0591,18.23,-6.04,-139.82
1035,110612982,-0.8726,1.1050,-0.0586,20.06,-6.83,-137.87
1036,110617982,-0.8682,1.0947,-0.0635,21.59,-7.50,-135.98
1037,110622982,-0.8711,1.0776,-0.0586,22.68,-8.23,-134.27
1038,110627982,-0.8745,1.0640,-0.0688,23.54,-9.09,-132.56
1039,110632982,-0.8687,1.0498,-0.0664,24.21,-10.00,-131.10
1040,110637982,-0.8647,1.0298,-0.0762,24.27,-11.10,-129.57
1041,110642983,-0.8604,1.0181,-0.0742,24.09,-12.07,-128.11
1042,110647982,-0.8584,1.0068,-0.0654,23.66,-13.11,-126.59
1043,110652980,-0.8579,0.9927,-0.0698,23.23,-14.09,-125.18
1044,110657982,-0.8623,0.9819,-0.0688,22.68,-15.18,-123.84
1045,110662982,-0.8711,0.9736,-0.0679,22.20,-16.34,-122.62
1046,110667981,-0.8726,0.9629,-0.0703,21.83,-17.13,-121.28
1047,110672982,-0.8745,0.9521,-0.0708,21.71,-17.99,-120.00
1048,110677982,-0.8667,0.9458,-0.0654,21.77,-19.02,-118.96
1049,110682986,-0.8667,0.9355,-0.0669,21.95,-19.82,-117.87
1050,110687983,-0.8604,0.9238,-0.0601,22.20,-20.61,-116.83
1051,110692983,-0.8643,0.9204,-0.0645,22.44,-21.22,-115.67
1052,110697999,-0.8647,0.9121,-0.0649,22.74,-22.01,-114.63
1053,110702982,-0.8652,0.9043,-0.0625,23.17,-22.56,-113.48
1054,110707981,-0.8652,0.8945,-0.0649,23.54,-23.35,-112.20
1055,110712980,-0.8672,0.8843,-0.0620,24.09,-23.84,-110.85
1056,110717980,-0.8628,0.8745,-0.0669,24.51,-24.33,-109.15
1057,110722984,-0.8696,0.8628,-0.0630,24.76,-24.88,-107.50
1058,110727981,-0.8716,0.8608,-0.0649,25.12,-25.24,-105.73
1059,110732984,-0.8784,0.8540,-0.0649,25.30,-25.67,-103.78
1060,110738063,-0.8848,0.8467,-0.0684,25.43,-26.22,-102.01
1061,110742987,-0.8799,0.8384,-0.0645,25.61,-26.52,-100.12
1062,110747981,-0.8823,0.8311,-0.0664,26.04,-26.95,-98.23
1063,110752982,-0.8779,0.8262,-0.0703,26.10,-27.44,-96.28
1064,110757983,-0.8760,0.8203,-0.0684,26.52,-27.74,-94.45
1065,110762983,-0.8711,0.8120,-0.0615,26.83,-27.93,-92.80
1066,110767982,-0.8691,0.8096,-0.0615,27.13,-28.35,-91.16
1067,110772980,-0.8706,0.8047,-0.0630,27.44,-28.66,-89.33
1068,110777980,-0.8711,0.7964,-0.0698,27.99,-29.27,-87.56
1069,110782980,-0.8682,0.7871,-0.0630,28.48,-29.57,-85.67
1070,110787980,-0.8672,0.7759,-0.0625,28.96,-29.88,-83.54
1071,110792984,-0.8682,0.7715,-0.0688,29.45,-30.37,-82.07
1072,110797981,-0.8618,0.7632,-0.0645,30.00,-30.73,-80.12
1073,110802980,-0.8584,0.7539,-0.0669,30.55,-31.10,-78.29
1074,110807980,-0.8550,0.7505,-0.0669,31.16,-31.34,-76.46
1075,110812980,-0.8545,0.7471,-0.0635,31.89,-31.89,-74.76
1076,110817980,-0.8535,0.7378,-0.0640,32.62,-32.26,-72.99
1077,110822980,-0.8516,0.7295,-0.0625,33.35,-32.74,-71.22
1078,110827984,-0.8438,0.7227,-0.0615,34.21,-33.11,-69.45
1079,110832981,-0.8394,0.7144,-0.0581,35.06,-33.41,-67.68
1080,110837982,-0.8364,0.7065,-0.0615,35.79,-33.96,-66.04
1081,110842984,-0.8418,0.6973,-0.0645,36.65,-34.21,-64.27
1082,110847980,-0.8413,0.6958,-0.0605,37.38,-34.70,-62.56
1083,110852982,-0.8384,0.6895,-0.0601,37.99,-34.94,-60.85
1084,110857980,-0.8354,0.6836,-0.0542,38.66,-35.37,-59.27
1085,110862984,-0.8320,0.6782,-0.0537,39.27,-35.49,-57.50
1086,110867980,-0.8306,0.6729,-0.0576,39.57,-35.67,-55.61
1087,110872982,-0.8271,0.6685,-0.0605,40.00,-35.85,-53.90
1088,110877980,-0.8276,0.6650,-0.0591,40.43,-36.22,-52.13
1089,110882980,-0.8286,0.6567,-0.0581,40.61,-36.16,-50.37
1090,110887984,-0.8281,0.6519,-0.0547,40.85,-36.28,-48.78
1091,110892982,-0.8237,0.6475,-0.0571,40.98,-36.28,-47.01
1092,110897982,-0.8223,0.6406,-0.0542,41.22,-36.40,-45.49
1093,110902982,-0.8232,0.6362,-0.0552,41.28,-36.34,-43.60
1094,110907982,-0.8203,0.6289,-0.0557,41.40,-36.40,-42.01
1095,110912982,-0.8213,0.6226,-0.0557,41.52,-36.28,-40.37
1096,110918040,-0.8262,0.6201,-0.0576,41.52,-36.22,-38.66
1097,110922983,-0.8267,0.6147,-0.0508,41.65,-36.16,-36.95
1098,110927982,-0.8271,0.6094,-0.0474,41.77,-35.85,-35.24
1099,110932982,-0.8276,0.6064,-0.0454,41.71,-35.85,-33.48
1100,110937982,-0.8286,0.5972,-0.0483,42.01,-35.67,-31.89
1101,110943223,-0.8291,0.5942,-0.0503,42.01,-35.49,-30.18
1102,110947982,-0.8315,0.5918,-0.0479,42.13,-35.30,-28.60
1103,110952982,-0.8296,0.5854,-0.0449,42.07,-35.06,-27.20
1104,110957982,-0.8291,0.5786,-0.0508,42.20,-34.82,-25.55
1105,110962983,-0.8306,0.5713,-0.0542,42.32,-34.57,-23.96
1106,110967982,-0.8267,0.5635,-0.0557,42.20,-34.27,-22.44
1107,110973703,-0.8306,0.5576,-0.0488,42.50,-33.66,-20.49
1108,110977982,-0.8286,0.5527,-0.0479,42.56,-33.48,-19.33
1109,110982980,-0.8330,0.5493,-0.0488,42.74,-33.05,-17.62
1110,110987982,-0.8418,0.5410,-0.0405,42.68,-32.74,-16.04
1111,110992984,-0.8403,0.5361,-0.0430,42.74,-32.13,-14.39
1112,110997981,-0.8413,0.5332,-0.0444,42.50,-31.59,-12.74
1113,111002982,-0.8423,0.5303,-0.0420,42.26,-31.10,-11.16
1114,111007981,-0.8481,0.5225,-0.0342,41.83,-30.49,-9.45
1115,111012984,-0.8472,0.5225,-0.0342,41.71,-30.12,-7.93
1116,111017981,-0.8535,0.5166,-0.0327,41.28,-29.51,-6.34
1117,111022980,-0.8564,0.5166,-0.0356,40.85,-28.90,-4.88
1118,111027982,-0.8516,0.5127,-0.0347,40.43,-28.23,-3.29
1119,111032982,-0.8472,0.5059,-0.0239,40.00,-27.56,-1.89
1120,111037981,-0.8423,0.4976,-0.0288,39.76,-26.95,-0.43
1121,111042982,-0.8389,0.4946,-0.0337,39.33,-26.22,0.85
1122,111047981,-0.8398,0.4893,-0.0269,38.84,-25.55,2.20
1123,111052984,-0.8462,0.4888,-0.0210,38.41,-25.00,3.60
1124,111057981,-0.8506,0.4844,-0.0264,37.99,-24.27,4.76
1125,111062982,-0.8525,0.4800,-0.0264,37.50,-23.66,6.04
1126,111067981,-0.8506,0.4756,-0.0283,36.89,-23.11,7.50
1127,111072982,-0.8521,0.4697,-0.0190,36.40,-22.38,8.48
1128,111077981,-0.8535,0.4644,-0.0229,35.79,-21.71,9.76
1129,111082980,-0.8569,0.4634,-0.0215,35.24,-21.10,10.98
1130,111087980,-0.8672,0.4575,-0.0215,34.70,-20.61,12.07
1131,111092982,-0.8667,0.4580,-0.0151,34.15,-20.12,13.23
1132,111097981,-0.8726,0.4546,-0.0244,33.60,-19.45,14.15
1133,111102984,-0.8765,0.4497,-0.0195,32.93,-18.90,15.12
1134,111107981,-0.8740,0.4497,-0.0200,32.44,-18.48,16.10
1135,111113574,-0.8711,0.4463,-0.0151,31.89,-17.80,17.01
1136,111117983,-0.8701,0.4414,-0.0176,31.40,-17.44,17.93
1137,111122981,-0.8726,0.4414,-0.0132,30.98,-16.89,18.72
1138,111127983,-0.8779,0.4385,-0.0171,30.61,-16.34,19.57
1139,111132982,-0.8813,0.4336,-0.0156,30.30,-15.73,20.30
1140,111137982,-0.8828,0.4326,-0.0161,30.00,-15.30,20.85
1141,111142981,-0.8867,0.4312,-0.0098,29.76,-14.82,21.59
1142,111147982,-0.8843,0.4282,-0.0166,29.45,-14.15,22.32
1143,111152983,-0.8911,0.4277,-0.0093,29.21,-13.66,23.05
1144,111157982,-0.8911,0.4277,-0.0205,28.84,-13.11,23.60
1145,111162982,-0.8970,0.4233,-0.0039,28.35,-12.44,24.21
1146,111167982,-0.8994,0.4219,-0.0127,27.93,-11.83,24.82
1147,111172982,-0.8984,0.4229,-0.0107,27.44,-11.46,25.24
1148,111177982,-0.8965,0.4229,-0.0122,26.95,-10.91,25.85
1149,111182982,-0.8960,0.4180,-0.0059,26.40,-10.30,26.28
1150,111187982,-0.8970,0.4209,-0.0073,25.91,-9.76,26.95
1151,111192986,-0.8960,0.4180,-0.0024,25.43,-9.21,27.20
1152,111197982,-0.9058,0.4165,-0.0044,25.00,-8.60,27.68
1153,111202982,-0.9150,0.4111,-0.0098,24.70,-7.99,28.11
1154,111207982,-0.9170,0.4146,-0.0020,24.33,-7.50,28.66
1155,111212980,-0.9209,0.4106,0.0000,24.09,-6.71,29.09
1156,111217982,-0.9185,0.4058,0.0015,23.72,-6.16,29.51
1157,111222983,-0.9253,0.4072,0.0029,23.29,-5.37,29.94
1158,111227982,-0.9272,0.4053,0.0024,22.99,-4.57,30.55
1159,111233012,-0.9312,0.4048,-0.0005,22.62,-3.90,30.91
1160,111237982,-0.9404,0.4048,0.0005,22.07,-3.11,31.52
1161,111243369,-0.9404,0.4023,0.0034,21.52,-2.38,32.07
1162,111247982,-0.9414,0.4004,0.0049,21.10,-1.89,32.26
1163,111252983,-0.9395,0.3970,0.0049,20.55,-1.16,32.62
1164,111257982,-0.9316,0.3960,0.0112,20.06,-0.49,33.11
1165,111262982,-0.9341,0.3921,0.0078,19.39,0.24,33.35
1166,111267982,-0.9316,0.3916,0.0107,18.90,0.79,33.60
1167,111272982,-0.9336,0.3926,0.0151,18.35,1.46,33.96
1168,111277982,-0.9380,0.3931,0.0088,17.99,1.95,34.15
1169,111282982,-0.9424,0.3916,0.0127,17.50,2.56,34.21
1170,111287982,-0.9414,0.3877,0.0190,16.95,3.17,34.33
1171,111292980,-0.9409,0.3823,0.0122,16.71,3.78,34.45
1172,111297982,-0.9404,0.3833,0.0220,16.34,4.33,34.63
1173,111302983,-0.9414,0.3828,0.0117,15.98,4.76,34.63
1174,111307982,-0.9399,0.3804,0.0171,15.73,5.55,34.63
1175,111312980,-0.9370,0.3818,0.0186,15.43,5.91,34.51
1176,111317982,-0.9385,0.3848,0.0181,15.06,6.34,34.45
1177,111322984,-0.9385,0.3779,0.0210,14.70,6.89,34.27
1178,111327981,-0.9385,0.3760,0.0269,14.21,7.32,33.96
1179,111332984,-0.9355,0.3779,0.0229,13.60,7.62,33.78
1180,111337981,-0.9302,0.3711,0.0239,13.17,8.05,33.54
1181,111342982,-0.9307,0.3677,0.0264,12.62,8.35,33.29
1182,111347981,-0.9336,0.3687,0.0283,12.07,8.84,32.99
1183,111353021,-0.9385,0.3696,0.0332,11.65,9.15,32.62
1184,111357982,-0.9409,0.3667,0.0312,11.10,9.33,32.26
1185,111362981,-0.9429,0.3706,0.0249,10.61,9.63,31.89
1186,111367984,-0.9414,0.3687,0.0317,10.06,9.82,31.34
1187,111372984,-0.9341,0.3691,0.0342,9.70,10.24,30.85
1188,111377981,-0.9282,0.3706,0.0425,9.45,10.49,30.37
1189,111382984,-0.9219,0.3647,0.0371,9.02,10.85,29.76
1190,111387981,-0.9165,0.3657,0.0332,8.60,11.16,29.27
1191,111392980,-0.9238,0.3657,0.0322,8.23,11.22,28.54
1192,111397982,-0.9175,0.3667,0.0352,7.87,11.40,27.87
1193,111402981,-0.9185,0.3701,0.0366,7.44,11.59,27.13
1194,111407983,-0.9185,0.3667,0.0381,6.89,11.83,26.40
1195,111412982,-0.9194,0.3604,0.0361,6.52,12.01,25.73
1196,111417982,-0.9160,0.3647,0.0381,6.16,11.89,24.94
1197,111422984,-0.9131,0.3608,0.0386,5.67,12.07,24.21
1198,111427981,-0.9116,0.3643,0.0391,5.30,12.07,23.35
1199,111432980,-0.9136,0.3618,0.0391,4.88,12.07,22.62
1200,111437982,-0.9131,0.3647,0.0312,4.51,12.20,21.77
1201,111442982,-0.9160,0.3667,0.0332,4.21,12.20,20.91
1202,111447982,-0.9131,0.3677,0.0366,3.78,12.07,20.00
1203,111452982,-0.9072,0.3647,0.0327,3.54,11.83,19.21
1204,111457983,-0.9033,0.3652,0.0327,3.54,11.89,18.29
1205,111462982,-0.9004,0.3652,0.0371,3.41,11.65,17.44
1206,111467981,-0.8955,0.3652,0.0415,3.66,11.71,16.52
1207,111472982,-0.9019,0.3652,0.0391,3.84,11.40,15.73
1208,111477981,-0.8970,0.3721,0.0337,4.09,11.34,14.94
1209,111482982,-0.8975,0.3687,0.0332,4.39,11.16,14.09
1210,111487981,-0.8994,0.3691,0.0400,4.63,11.04,13.23
1211,111492980,-0.8936,0.3682,0.0386,4.94,10.91,12.32
1212,111497982,-0.8926,0.3667,0.0317,5.18,10.67,11.52
1213,111502983,-0.8960,0.3662,0.0386,5.37,10.49,10.61
1214,111507982,-0.8975,0.3672,0.0356,5.55,10.18,9.88
1215,111512981,-0.9009,0.3716,0.0361,5.67,10.06,9.02
1216,111517982,-0.9106,0.3687,0.0332,5.67,9.94,8.29
1217,111522982,-0.9106,0.3735,0.0381,5.61,9.51,7.38
1218,111527982,-0.9009,0.3721,0.0415,5.55,9.45,6.59
1219,111532981,-0.8999,0.3701,0.0337,5.37,9.15,5.79
1220,111538049,-0.8896,0.3711,0.0332,5.18,8.84,5.00
1221,111542983,-0.8970,0.3760,0.0342,5.24,8.54,4.45
1222,111547980,-0.8965,0.3760,0.0332,4.76,8.48,3.66
1223,111552981,-0.8936,0.3843,0.0371,4.39,8.23,2.80
1224,111557982,-0.8970,0.3799,0.0400,3.96,7.93,2.07
1225,111562983,-0.8960,0.3809,0.0352,3.60,7.62,1.28
1226,111567982,-0.8965,0.3843,0.0312,3.11,7.20,0.67
1227,111572981,-0.8936,0.3838,0.0239,2.68,7.13,0.00
1228,111577982,-0.8887,0.3853,0.0332,2.26,6.71,-0.67
1229,111582982,-0.8916,0.3843,0.0391,1.71,6.40,-1.28
1230,111587982,-0.8960,0.3857,0.0352,1.46,6.28,-1.83
1231,111592980,-0.9014,0.3911,0.0381,1.16,5.98,-2.38
1232,111597984,-0.9043,0.3945,0.0396,1.04,5.85,-3.11
1233,111602982,-0.9043,0.3945,0.0303,0.91,5.49,-3.66
1234,111607982,-0.9009,0.3931,0.0327,0.91,5.30,-4.15
1235,111612981,-0.8965,0.3950,0.0415,0.98,5.06,-4.82
1236,111617982,-0.8955,0.3979,0.0332,1.04,4.70,-5.24
1237,111623026,-0.8896,0.3979,0.0269,1.22,4.63,-5.85
1238,111627982,-0.8936,0.4033,0.0288,1.52,4.39,-6.28
1239,111632983,-0.8911,0.4048,0.0278,1.77,4.15,-6.83
1240,111637982,-0.8906,0.4077,0.0308,2.01,3.90,-7.32
1241,111642981,-0.8960,0.4087,0.0278,2.07,3.48,-7.80
1242,111647982,-0.8955,0.4111,0.0278,2.32,3.11,-8.35
1243,111653109,-0.8970,0.4170,0.0249,2.50,3.05,-8.78
1244,111657982,-0.8916,0.4087,0.0264,2.62,2.50,-9.02
1245,111662983,-0.8945,0.4102,0.0269,2.93,2.32,-9.27
1246,111667982,-0.8950,0.4097,0.0288,3.11,2.13,-9.63
1247,111672982,-0.8945,0.4160,0.0308,3.35,1.65,-9.82
1248,111677982,-0.8979,0.4199,0.0264,3.78,1.52,-10.18
1249,111682981,-0.9019,0.4229,0.0269,4.02,1.28,-10.37
1250,111687982,-0.9072,0.4258,0.0205,4.39,1.22,-10.61
1251,111692983,-0.9048,0.4248,0.0259,4.76,0.85,-10.91
1252,111697982,-0.9028,0.4316,0.0244,5.18,0.73,-10.91
1253,111703305,-0.9043,0.4351,0.0229,5.67,0.61,-11.22
1254,111707982,-0.9004,0.4385,0.0176,6.28,0.49,-11.22
1255,111712981,-0.9053,0.4404,0.0234,7.01,0.24,-11.46
1256,111717982,-0.9014,0.4399,0.0190,7.56,0.12,-11.65
1257,111722983,-0.8984,0.4438,0.0190,8.17,0.12,-11.71
1258,111727982,-0.9004,0.4419,0.0171,8.72,-0.12,-11.77
1259,111732981,-0.9004,0.4404,0.0132,9.02,-0.30,-11.71
1260,111737982,-0.9009,0.4458,0.0176,9.39,-0.37,-11.77
1261,111742983,-0.8984,0.4438,0.0078,9.70,-0.49,-11.59
1262,111747982,-0.8994,0.4443,0.0103,9.76,-0.67,-11.52
1263,111752980,-0.8950,0.4487,0.0166,9.94,-0.98,-11.40
1264,111757983,-0.8940,0.4434,0.0122,10.06,-1.10,-11.28
1265,111762985,-0.8955,0.4517,0.0098,10.00,-1.22,-11.16
1266,111767981,-0.8882,0.4507,0.0098,9.94,-1.22,-11.10
1267,111772982,-0.8896,0.4546,0.0103,9.82,-1.40,-10.98
1268,111777981,-0.8892,0.4575,0.0112,9.45,-1.52,-10.91
1269,111782982,-0.8940,0.4546,0.0078,9.02,-1.52,-10.85
1270,111787981,-0.8940,0.4609,0.0127,8.60,-1.71,-10.79
1271,111792982,-0.8901,0.4609,0.0107,7.93,-1.89,-10.67
1272,111797981,-0.8892,0.4580,0.0112,7.38,-2.07,-10.61
1273,111802980,-0.8862,0.4609,0.0127,6.59,-2.32,-10.55
1274,111807984,-0.8833,0.4585,0.0034,5.98,-2.32,-10.49
1275,111812982,-0.8833,0.4595,0.0098,5.37,-2.68,-10.24
1276,111817981,-0.8823,0.4561,0.0103,4.70,-2.99,-10.18
1277,111822984,-0.8848,0.4575,0.0068,4.09,-2.99,-9.88
1278,111827981,-0.8838,0.4565,0.0068,3.60,-3.41,-9.57
1279,111833104,-0.8828,0.4595,0.0063,3.11,-3.72,-9.27
1280,111837982,-0.8804,0.4585,0.0020,2.74,-3.90,-9.02
1281,111842982,-0.8799,0.4609,0.0063,2.56,-4.09,-8.72
1282,111847982,-0.8804,0.4600,0.0103,2.20,-4.21,-8.48
1283,111852982,-0.8799,0.4604,0.0098,2.13,-4.51,-8.35
1284,111857982,-0.8760,0.4600,0.0068,2.20,-4.70,-7.99
1285,111862982,-0.8789,0.4609,0.0068,2.26,-4.94,-7.74
1286,111867982,-0.8804,0.4609,0.0015,2.44,-5.30,-7.56
1287,111872983,-0.8750,0.4624,0.0059,2.56,-5.37,-7.20
1288,111877982,-0.8774,0.4595,0.0029,2.80,-5.55,-7.01
1289,111882982,-0.8799,0.4570,0.0063,3.17,-5.73,-6.71
1290,111887982,-0.8760,0.4600,0.0000,3.48,-5.98,-6.28
1291,111892982,-0.8750,0.4639,0.0054,3.78,-6.16,-6.10
