# skilleye imu stream v1
# device=xiao_esp32c6 imu=mpu6050 addr=0x68
# rate_hz=200 accel_range_g=16 gyro_range_dps=2000 dlpf_hz=94
# units: accel in g, gyro in deg/s, t_us in microseconds since boot (monotonic)
# no shared clock with the camera -- tap the racket once before each take
# so both recordings share a spike to align on
seq,t_us,ax,ay,az,gx,gy,gz
0,238492542,-0.5479,-0.8999,-0.2300,6.22,4.70,39.33
1,238497951,-0.5610,-0.8965,-0.2314,8.72,4.27,38.90
2,238502499,-0.5688,-0.8975,-0.2310,11.10,3.96,38.54
3,238507499,-0.5781,-0.8926,-0.2378,13.48,3.66,38.05
4,238512499,-0.5762,-0.8970,-0.2432,15.55,3.11,37.50
5,238517498,-0.5767,-0.8906,-0.2446,17.56,2.74,37.01
6,238522783,-0.5815,-0.8926,-0.2393,19.15,2.38,36.40
7,238527499,-0.5684,-0.8887,-0.2480,20.55,1.95,35.98
8,238532500,-0.5693,-0.8877,-0.2490,21.77,1.59,35.24
9,238538115,-0.5571,-0.8789,-0.2495,22.44,1.16,34.51
10,238542501,-0.5537,-0.8770,-0.2480,23.05,1.04,33.60
11,238547499,-0.5488,-0.8696,-0.2466,23.41,0.55,32.50
12,238552499,-0.5439,-0.8652,-0.2451,23.41,0.43,31.28
13,238557499,-0.5435,-0.8589,-0.2422,23.41,0.30,29.88
14,238562499,-0.5347,-0.8501,-0.2388,23.11,0.00,28.54
15,238567499,-0.5332,-0.8462,-0.2437,22.80,-0.06,27.13
16,238572499,-0.5288,-0.8423,-0.2446,22.26,-0.06,25.49
17,238577498,-0.5259,-0.8379,-0.2422,21.89,-0.24,24.09
18,238582635,-0.5205,-0.8335,-0.2451,21.22,-0.43,22.56
19,238587499,-0.5132,-0.8320,-0.2476,20.73,-0.49,21.46
20,238592498,-0.5078,-0.8374,-0.2446,19.76,-0.98,19.63
21,238597563,-0.5049,-0.8320,-0.2510,18.84,-1.28,18.23
22,238602497,-0.4990,-0.8325,-0.2485,17.93,-1.52,17.13
23,238607497,-0.4951,-0.8320,-0.2529,16.52,-1.95,15.49
24,238612497,-0.4941,-0.8306,-0.2544,15.49,-2.26,14.39
25,238617499,-0.4907,-0.8271,-0.2607,13.96,-2.87,12.74
26,238622501,-0.4922,-0.8276,-0.2720,12.80,-3.54,11.46
27,238627498,-0.4995,-0.8257,-0.2686,11.89,-4.02,10.43
28,238632499,-0.5005,-0.8232,-0.2769,10.79,-4.76,8.66
29,238637500,-0.5054,-0.8213,-0.2676,10.12,-5.37,7.32
30,238642499,-0.5151,-0.8193,-0.2759,9.76,-6.10,5.73
31,238647499,-0.5259,-0.8188,-0.2788,9.76,-6.77,4.15
32,238652500,-0.5366,-0.8193,-0.2886,9.82,-7.56,2.74
33,238657500,-0.5410,-0.8130,-0.2852,10.30,-8.29,1.04
34,238662649,-0.5508,-0.8140,-0.2988,10.91,-9.09,-0.37
35,238667499,-0.5557,-0.8125,-0.3003,11.40,-9.70,-1.59
36,238672499,-0.5688,-0.8115,-0.3071,12.50,-10.79,-3.41
37,238677498,-0.5728,-0.8086,-0.3022,13.23,-11.65,-5.00
38,238682499,-0.5757,-0.8042,-0.3042,13.84,-12.56,-6.46
39,238687499,-0.5815,-0.8013,-0.3174,14.27,-13.54,-7.93
40,238692655,-0.5806,-0.8013,-0.3218,14.33,-14.57,-9.27
41,238697499,-0.5825,-0.7983,-0.3179,14.33,-15.24,-10.55
42,238702501,-0.5815,-0.7920,-0.3169,13.72,-16.52,-12.07
43,238707499,-0.5835,-0.7900,-0.3188,12.68,-17.44,-13.29
44,238712499,-0.5801,-0.7900,-0.3110,11.71,-18.23,-14.33
45,238717499,-0.5820,-0.7837,-0.3159,9.88,-19.39,-15.79
46,238722499,-0.5786,-0.7783,-0.3159,8.29,-20.12,-16.77
47,238727499,-0.5762,-0.7739,-0.3135,5.24,-21.16,-18.17
48,238732504,-0.5708,-0.7734,-0.3096,2.44,-21.83,-19.33
49,238737586,-0.5659,-0.7661,-0.3164,-0.61,-22.80,-20.43
50,238742728,-0.5625,-0.7656,-0.3130,-4.02,-23.35,-21.59
51,238747500,-0.5605,-0.7554,-0.3042,-6.77,-24.09,-22.50
52,238752499,-0.5557,-0.7466,-0.3013,-10.24,-24.76,-23.60
53,238757499,-0.5527,-0.7461,-0.3042,-13.35,-25.43,-24.76
54,238762499,-0.5518,-0.7378,-0.3037,-17.20,-26.22,-26.04
55,238767499,-0.5493,-0.7373,-0.3008,-19.39,-26.83,-27.01
56,238772499,-0.5503,-0.7339,-0.3013,-22.50,-27.68,-28.29
57,238777499,-0.5527,-0.7290,-0.2969,-24.88,-28.23,-29.45
58,238782499,-0.5522,-0.7310,-0.2969,-26.52,-28.78,-30.24
59,238787863,-0.5518,-0.7334,-0.3008,-28.48,-29.76,-31.28
60,238792500,-0.5552,-0.7300,-0.3027,-29.82,-30.18,-31.95
61,238797501,-0.5522,-0.7280,-0.2988,-31.16,-30.98,-32.80
62,238802499,-0.5522,-0.7261,-0.3018,-32.50,-31.89,-33.90
63,238807499,-0.5542,-0.7251,-0.2988,-33.48,-32.62,-34.63
64,238812642,-0.5483,-0.7227,-0.2964,-34.94,-33.48,-35.67
65,238817499,-0.5454,-0.7246,-0.3022,-36.10,-34.09,-36.40
66,238822499,-0.5518,-0.7280,-0.3052,-37.50,-34.94,-37.32
67,238827498,-0.5518,-0.7300,-0.3052,-39.57,-35.73,-38.11
68,238832895,-0.5518,-0.7412,-0.3120,-42.50,-36.77,-39.21
69,238837500,-0.5518,-0.7520,-0.3003,-44.82,-37.44,-39.88
70,238842498,-0.5537,-0.7539,-0.3013,-47.99,-38.23,-40.79
71,238847702,-0.5620,-0.7539,-0.3008,-51.89,-38.96,-41.89
72,238852501,-0.5640,-0.7603,-0.3037,-54.39,-39.70,-42.62
73,238857956,-0.5693,-0.7739,-0.3091,-57.99,-40.37,-43.90
74,238862499,-0.5693,-0.7739,-0.3125,-60.06,-40.73,-44.70
75,238867499,-0.5776,-0.7861,-0.3110,-63.05,-41.10,-45.91
76,238872499,-0.5801,-0.7891,-0.3179,-64.63,-41.46,-46.71
77,238877499,-0.5884,-0.7949,-0.3145,-66.34,-41.71,-47.74
78,238882711,-0.5933,-0.8018,-0.3198,-68.05,-41.89,-48.78
79,238887501,-0.5972,-0.8022,-0.3198,-68.96,-41.83,-49.70
80,238892497,-0.5972,-0.8027,-0.3120,-69.94,-41.83,-50.73
81,238897499,-0.5977,-0.8066,-0.3140,-70.67,-41.89,-51.77
82,238902499,-0.6016,-0.8091,-0.3198,-71.34,-41.65,-52.80
83,238907498,-0.6001,-0.8066,-0.3193,-71.83,-41.52,-53.72
84,238912497,-0.5859,-0.8096,-0.3081,-72.56,-41.46,-54.94
85,238917499,-0.5825,-0.8193,-0.3179,-73.41,-40.85,-55.73
86,238922498,-0.6108,-0.8237,-0.3169,-74.27,-40.79,-56.65
87,238928184,-0.6318,-0.8193,-0.3223,-74.76,-40.37,-57.74
88,238932499,-0.6353,-0.8179,-0.3247,-74.88,-40.12,-58.48
89,238937499,-0.6143,-0.8140,-0.3154,-74.45,-39.63,-59.63
90,238942500,-0.6045,-0.8188,-0.3223,-73.90,-39.39,-60.43
91,238947498,-0.6021,-0.8228,-0.3169,-72.74,-38.84,-61.34
92,238952705,-0.5933,-0.8291,-0.3203,-71.04,-38.23,-62.32
93,238957499,-0.5972,-0.8398,-0.3179,-69.88,-37.87,-62.74
94,238962596,-0.5938,-0.8457,-0.3237,-67.87,-37.38,-63.35
95,238967930,-0.5908,-0.8525,-0.3188,-65.79,-36.83,-63.66
96,238972499,-0.5815,-0.8540,-0.3184,-64.02,-36.52,-64.09
97,238977499,-0.5781,-0.8589,-0.3154,-61.59,-36.10,-64.33
98,238982498,-0.5737,-0.8574,-0.3223,-58.17,-35.43,-64.82
99,238987499,-0.5737,-0.8608,-0.3237,-55.85,-35.00,-65.24
100,238992500,-0.5698,-0.8608,-0.3169,-52.62,-34.45,-65.91
101,238997904,-0.5537,-0.8677,-0.3296,-49.02,-33.72,-66.71
102,239002499,-0.5747,-0.8696,-0.3208,-46.59,-33.35,-67.26
103,239007499,-0.6064,-0.8677,-0.3359,-43.17,-32.80,-67.93
104,239012498,-0.5991,-0.8711,-0.3369,-39.57,-32.26,-68.66
105,239017501,-0.5654,-0.8760,-0.3247,-35.98,-31.65,-69.27
106,239022497,-0.5771,-0.8882,-0.3320,-32.32,-31.28,-69.94
107,239027501,-0.5874,-0.8901,-0.3418,-27.13,-30.73,-70.73
108,239032500,-0.5776,-0.8945,-0.3369,-24.82,-30.37,-71.10
109,239037498,-0.5596,-0.8921,-0.3398,-20.98,-30.12,-71.34
110,239042870,-0.5454,-0.8989,-0.3389,-16.34,-29.45,-71.95
111,239047499,-0.5337,-0.9033,-0.3442,-13.29,-29.09,-72.20
112,239052498,-0.5278,-0.9067,-0.3472,-9.51,-28.72,-72.56
113,239057502,-0.5195,-0.9121,-0.3525,-5.85,-28.29,-72.74
114,239062654,-0.5059,-0.9131,-0.3599,-1.52,-27.80,-72.93
115,239067499,-0.5024,-0.9126,-0.3657,1.46,-27.38,-73.11
116,239072502,-0.4922,-0.9194,-0.3667,5.55,-26.59,-73.48
117,239077501,-0.4824,-0.9175,-0.3730,8.11,-26.22,-73.72
118,239082500,-0.4736,-0.9243,-0.3774,10.98,-25.49,-74.15
119,239087498,-0.4609,-0.9287,-0.3853,13.66,-24.57,-74.63
120,239092746,-0.4556,-0.9307,-0.3911,16.16,-23.35,-75.43
121,239097499,-0.4517,-0.9292,-0.3950,17.68,-22.62,-75.98
122,239102499,-0.4453,-0.9351,-0.4087,19.15,-21.65,-76.59
123,239107499,-0.4448,-0.9380,-0.4111,20.61,-20.43,-77.44
124,239112499,-0.4380,-0.9409,-0.4282,22.26,-19.15,-78.23
125,239117500,-0.4346,-0.9370,-0.4321,23.11,-18.29,-78.90
126,239122499,-0.4336,-0.9399,-0.4404,24.39,-17.44,-79.63
127,239127499,-0.4351,-0.9375,-0.4385,25.49,-16.22,-80.61
128,239132669,-0.4302,-0.9346,-0.4468,26.65,-15.18,-81.71
129,239137499,-0.4277,-0.9341,-0.4629,27.56,-14.39,-82.56
130,239142499,-0.4277,-0.9346,-0.4609,28.48,-13.23,-83.66
131,239147499,-0.4292,-0.9351,-0.4575,29.33,-11.77,-85.06
132,239152499,-0.4316,-0.9346,-0.4595,29.57,-10.55,-85.91
133,239157499,-0.4272,-0.9365,-0.4614,29.88,-9.45,-87.07
134,239162617,-0.4136,-0.9380,-0.4658,29.63,-7.62,-88.41
135,239167743,-0.4092,-0.9414,-0.4629,29.02,-5.98,-89.45
136,239172500,-0.4048,-0.9399,-0.4717,28.23,-4.57,-90.30
137,239177499,-0.4058,-0.9468,-0.4727,26.40,-2.32,-91.52
138,239182499,-0.4058,-0.9478,-0.4761,24.82,-0.73,-92.38
139,239187499,-0.4043,-0.9492,-0.4829,22.38,1.28,-93.17
140,239192499,-0.4087,-0.9497,-0.4883,19.76,3.35,-94.21
141,239197503,-0.3984,-0.9521,-0.4917,16.89,5.43,-95.18
142,239202498,-0.4038,-0.9531,-0.5000,14.02,7.50,-95.98
143,239207497,-0.3999,-0.9521,-0.5132,11.22,9.76,-96.95
144,239212497,-0.3936,-0.9551,-0.5352,8.54,11.71,-97.87
145,239217501,-0.3862,-0.9604,-0.5347,6.04,13.78,-98.72
146,239222498,-0.3418,-0.9536,-0.5073,3.54,15.67,-99.57
147,239227788,-0.3535,-0.9673,-0.5459,0.43,18.23,-100.43
148,239232500,-0.3691,-0.9653,-0.5493,-1.34,20.00,-100.91
149,239237499,-0.3989,-0.9663,-0.5469,-2.87,21.95,-101.52
150,239242499,-0.4009,-0.9678,-0.5718,-3.72,24.21,-101.95
151,239247499,-0.4023,-0.9565,-0.5820,-3.84,26.59,-102.50
152,239252499,-0.3926,-0.9531,-0.5693,-3.17,28.29,-102.80
153,239257499,-0.3701,-0.9390,-0.5654,-1.95,30.79,-103.35
154,239262500,-0.3511,-0.9346,-0.5654,-0.85,32.56,-103.66
155,239267499,-0.3320,-0.9292,-0.5552,0.91,35.00,-103.96
156,239272561,-0.3149,-0.9219,-0.5479,2.87,37.32,-104.27
157,239277769,-0.2954,-0.9131,-0.5386,5.06,40.18,-104.63
158,239282499,-0.2896,-0.9033,-0.5513,6.71,42.07,-104.76
159,239287499,-0.2681,-0.8931,-0.5488,8.54,44.33,-104.88
160,239292498,-0.2480,-0.8901,-0.5493,10.06,46.65,-105.06
161,239297499,-0.2290,-0.8887,-0.5469,11.46,48.72,-105.00
162,239302498,-0.2163,-0.8887,-0.5527,12.32,50.79,-105.00
163,239307499,-0.2031,-0.8877,-0.5532,13.05,52.74,-104.76
164,239312498,-0.1919,-0.8887,-0.5566,13.41,54.70,-104.51
165,239317812,-0.1782,-0.8892,-0.5688,13.84,56.89,-103.96
166,239322499,-0.1748,-0.8872,-0.5645,14.45,58.23,-103.54
167,239327499,-0.1567,-0.8921,-0.5757,15.24,59.76,-103.05
168,239332499,-0.1499,-0.8862,-0.5786,16.22,61.28,-102.44
169,239337693,-0.1338,-0.8774,-0.5737,17.50,62.99,-101.65
170,239345495,-0.1128,-0.8691,-0.5640,18.84,65.18,-100.73
171,239347500,-0.1079,-0.8691,-0.5610,19.02,65.43,-100.61
172,239352729,-0.0977,-0.8574,-0.5576,19.76,67.07,-100.00
173,239357498,-0.0923,-0.8486,-0.5586,20.00,68.05,-99.63
174,239362499,-0.0835,-0.8457,-0.5542,20.06,69.51,-99.15
175,239367927,-0.0752,-0.8281,-0.5391,19.82,71.10,-98.90
176,239372499,-0.0728,-0.8198,-0.5332,19.57,72.20,-98.66
177,239377499,-0.0664,-0.8071,-0.5327,18.90,73.66,-98.54
178,239382499,-0.0708,-0.8047,-0.5288,18.23,74.70,-98.41
179,239387500,-0.0684,-0.7969,-0.5098,16.89,76.10,-98.35
180,239392499,-0.0654,-0.7930,-0.5137,15.85,77.01,-98.23
181,239397499,-0.0669,-0.7993,-0.5073,14.09,78.05,-98.11
182,239402617,-0.0610,-0.8037,-0.5078,11.65,79.33,-97.80
183,239407546,-0.0601,-0.8105,-0.5093,9.82,80.06,-97.50
184,239412514,-0.0356,-0.8076,-0.5317,7.32,80.73,-97.07
185,239417649,-0.0264,-0.7959,-0.5225,3.84,81.40,-96.59
186,239422499,-0.0190,-0.7935,-0.5039,1.59,82.07,-96.22
187,239427499,-0.0098,-0.7979,-0.5015,-1.16,82.93,-95.73
188,239432499,0.0020,-0.7944,-0.4946,-3.84,83.35,-94.94
189,239437499,0.0107,-0.7881,-0.5098,-6.28,83.84,-94.27
190,239442499,0.0200,-0.7832,-0.5044,-8.60,84.33,-93.48
191,239447836,0.0220,-0.7783,-0.5103,-11.16,84.45,-92.62
192,239452499,0.0166,-0.7725,-0.5020,-12.87,85.49,-92.13
193,239457499,0.0156,-0.7729,-0.5024,-15.30,85.85,-91.46
194,239462500,0.0083,-0.7744,-0.4810,-17.74,85.85,-90.79
195,239467499,-0.0034,-0.7661,-0.4863,-20.37,85.85,-90.12
196,239472590,0.0024,-0.7568,-0.4775,-23.29,87.01,-89.51
197,239477710,0.0127,-0.7588,-0.4868,-26.95,88.60,-88.72
198,239482499,0.0088,-0.7490,-0.4785,-29.51,89.09,-87.99
199,239487499,0.0068,-0.7554,-0.4736,-32.74,90.06,-87.13
200,239492499,0.0054,-0.7583,-0.4688,-35.67,90.91,-86.04
201,239497499,0.0068,-0.7500,-0.4517,-38.23,91.77,-84.76
202,239502499,0.0132,-0.7427,-0.4463,-40.06,92.68,-83.48
203,239507497,0.0186,-0.7261,-0.4419,-41.10,93.41,-81.89
204,239512499,0.0181,-0.7163,-0.4438,-40.85,93.84,-80.67
205,239517499,0.0166,-0.6860,-0.4360,-39.51,94.15,-79.27
206,239522499,0.0601,-0.6694,-0.4331,-37.74,94.33,-77.93
207,239527499,0.0308,-0.6582,-0.4414,-35.24,93.84,-76.46
208,239532498,0.0024,-0.6235,-0.4561,-31.89,92.99,-75.12
209,239537497,-0.0005,-0.5674,-0.4502,-27.80,92.07,-73.90
210,239542497,0.0239,-0.5107,-0.4360,-23.29,91.16,-73.17
211,239548070,0.0601,-0.4434,-0.4258,-18.05,89.63,-72.26
212,239552499,0.0771,-0.4136,-0.4229,-14.94,88.48,-71.77
213,239557499,0.0762,-0.4102,-0.4053,-10.91,87.13,-70.67
214,239562499,0.0737,-0.4131,-0.3760,-8.60,85.55,-69.76
215,239567499,0.0684,-0.4839,-0.3569,-6.16,85.18,-68.35
216,239572615,0.0786,-0.5010,-0.3379,-3.78,83.72,-66.59
217,239577781,0.1016,-0.5767,-0.3506,0.06,82.56,-64.70
218,239582499,0.1021,-0.6313,-0.2979,3.23,81.83,-63.35
219,239587499,0.1230,-0.5913,-0.2676,7.50,81.59,-62.07
220,239592499,0.1479,-0.5146,-0.2505,12.87,81.28,-61.52
221,239597703,0.1411,-0.4688,-0.1899,20.18,80.30,-61.34
222,239602499,0.1006,-0.4697,-0.1382,25.37,79.82,-60.91
223,239607502,0.0942,-0.5229,-0.1743,33.41,78.48,-59.45
224,239612499,0.1113,-0.5312,-0.1377,38.78,77.07,-58.17
225,239617499,0.1582,-0.5229,-0.0801,45.67,75.61,-56.65
226,239622499,0.2207,-0.5093,-0.0879,53.90,73.60,-55.06
227,239627499,0.2583,-0.5205,-0.0923,59.09,71.95,-54.02
228,239632499,0.3120,-0.5298,-0.0029,65.00,70.30,-52.38
229,239637499,0.3501,-0.5435,-0.0059,69.39,68.72,-50.73
230,239642642,0.3247,-0.5469,-0.0654,72.99,66.83,-48.66
231,239647499,0.2983,-0.5317,-0.0801,75.67,64.45,-46.77
232,239652499,0.2783,-0.5181,-0.0615,77.50,62.32,-44.88
233,239657693,0.2646,-0.5210,-0.0566,78.84,59.45,-42.68
234,239662499,0.2637,-0.5327,-0.0771,79.09,57.56,-40.98
235,239667598,0.2505,-0.5347,-0.0859,78.84,55.55,-38.90
236,239672561,0.2427,-0.5459,-0.0830,77.68,53.54,-36.52
237,239677498,0.2505,-0.5586,-0.1021,75.43,51.46,-33.78
238,239682499,0.2754,-0.5513,-0.1011,70.98,49.09,-30.37
239,239687499,0.2793,-0.5513,-0.1030,67.13,47.56,-27.87
240,239692499,0.2383,-0.5469,-0.0791,59.94,45.67,-24.21
241,239697499,0.2485,-0.5293,-0.0923,54.51,44.76,-21.77
242,239702499,0.2808,-0.5073,-0.1069,47.07,43.54,-18.78
243,239707526,0.3145,-0.5015,-0.0859,39.27,42.13,-15.85
244,239712500,0.3384,-0.5073,-0.0762,31.28,40.79,-12.74
245,239717498,0.3623,-0.5161,-0.0996,23.23,39.63,-9.57
246,239722928,0.3730,-0.5215,-0.1074,14.09,37.87,-5.49
247,239727499,0.3716,-0.5259,-0.0938,8.17,36.52,-2.62
248,239732499,0.3760,-0.5410,-0.0801,1.22,34.76,1.10
249,239737498,0.3730,-0.5557,-0.0864,-4.88,32.93,5.06
250,239742640,0.3838,-0.5654,-0.0820,-10.55,31.04,9.21
251,239747497,0.4092,-0.5698,-0.0659,-15.73,29.21,13.72
252,239752503,0.4385,-0.5366,-0.0869,-20.37,27.20,18.05
253,239757498,0.4624,-0.5020,-0.0693,-24.63,24.94,21.83
254,239762500,0.4873,-0.4707,-0.1123,-28.23,22.38,25.18
255,239768042,0.5142,-0.4424,-0.0625,-31.40,19.39,28.29
256,239772499,0.5288,-0.4404,-0.0195,-32.80,17.56,30.24
257,239777499,0.5327,-0.4536,-0.0493,-33.23,14.82,32.32
258,239782499,0.5474,-0.4673,-0.0527,-32.62,11.89,34.45
259,239787499,0.5425,-0.4946,-0.0449,-30.61,8.23,37.01
260,239792499,0.5415,-0.5122,-0.0234,-28.78,5.61,38.66
261,239797499,0.5381,-0.5327,-0.0566,-26.04,1.89,40.91
262,239802498,0.5327,-0.5381,-0.0630,-23.05,-2.26,43.17
263,239807499,0.5210,-0.5576,-0.0645,-20.24,-6.52,45.55
264,239812499,0.5156,-0.5693,-0.0186,-17.56,-10.73,47.56
265,239817497,0.4932,-0.5889,-0.0420,-15.30,-14.82,49.57
266,239822498,0.4761,-0.6113,-0.0635,-13.29,-18.66,51.46
267,239827497,0.4604,-0.6284,-0.0376,-11.77,-22.38,53.48
268,239832497,0.4570,-0.6328,-0.0430,-10.61,-25.85,55.30
269,239837497,0.4668,-0.6367,-0.0669,-10.12,-29.33,56.95
270,239842497,0.4878,-0.6484,-0.0732,-10.30,-32.38,58.35
271,239847497,0.5054,-0.6440,-0.0918,-11.52,-35.30,59.45
272,239852567,0.5190,-0.6533,-0.1104,-14.02,-38.72,60.49
273,239857501,0.5337,-0.6646,-0.1284,-16.40,-40.85,60.85
274,239862499,0.5308,-0.6860,-0.1479,-20.98,-43.72,61.28
275,239867499,0.5117,-0.7124,-0.1528,-24.51,-45.79,61.28
276,239872497,0.5239,-0.7490,-0.1885,-29.70,-48.17,61.34
277,239877499,0.5396,-0.7954,-0.2080,-35.67,-50.67,61.40
278,239882690,0.5425,-0.8491,-0.2358,-44.02,-53.60,61.34
279,239887498,0.5264,-0.8706,-0.2471,-49.76,-55.37,61.28
280,239892855,0.5083,-0.9121,-0.2637,-58.54,-57.32,60.67
281,239897499,0.4888,-0.9683,-0.2871,-63.96,-58.17,60.06
282,239902499,0.4736,-1.0229,-0.3213,-70.18,-59.02,59.15
283,239907499,0.4551,-1.0728,-0.3809,-75.73,-59.76,58.17
284,239912499,0.4019,-1.0815,-0.3643,-82.26,-59.94,56.34
285,239917499,0.4365,-1.1602,-0.4536,-87.13,-59.82,54.76
286,239922499,0.5044,-1.2485,-0.5449,-92.56,-60.55,52.50
287,239927499,0.5498,-1.2769,-0.5884,-94.82,-60.55,50.67
288,239932499,0.5586,-1.2754,-0.6235,-96.10,-60.12,48.05
289,239937499,0.5425,-1.2593,-0.6602,-96.28,-59.02,44.51
290,239942499,0.5254,-1.2573,-0.7090,-96.40,-57.56,40.61
291,239947499,0.5273,-1.2798,-0.7202,-96.89,-55.49,36.10
292,239952539,0.5352,-1.2988,-0.7529,-97.87,-52.99,31.16
293,239957642,0.5391,-1.2983,-0.7617,-99.21,-49.70,25.85
294,239962499,0.5430,-1.2827,-0.8423,-99.76,-46.10,20.24
295,239967500,0.4736,-1.2544,-0.8647,-100.73,-42.50,14.09
296,239972499,0.4443,-1.2261,-0.8691,-102.68,-38.35,7.74
297,239977499,0.4873,-1.1855,-0.9189,-105.85,-32.56,-0.18
298,239982499,0.5298,-1.1514,-0.9443,-108.17,-28.35,-5.61
299,239987499,0.5620,-1.1157,-0.9902,-111.40,-22.93,-12.50
300,239992499,0.5923,-1.0903,-1.0308,-115.06,-17.32,-19.27
301,239997498,0.6104,-1.0508,-1.0850,-119.09,-11.16,-25.98
302,240002667,0.6270,-1.0151,-1.1289,-123.17,-4.45,-32.44
303,240007499,0.6294,-0.9883,-1.1602,-127.13,2.38,-38.72
304,240012499,0.6016,-0.9736,-1.1890,-131.22,10.67,-45.91
305,240017499,0.5542,-0.9653,-1.2183,-133.35,16.46,-50.24
306,240022499,0.5234,-0.9438,-1.2275,-135.91,25.30,-56.34
307,240027499,0.5229,-0.9272,-1.2300,-136.65,31.52,-60.12
308,240032499,0.5352,-0.8872,-1.2314,-135.98,40.67,-65.24
309,240037499,0.5283,-0.8687,-1.2300,-134.02,48.29,-68.90
310,240042499,0.5039,-0.8584,-1.2139,-131.89,54.27,-71.59
311,240047574,0.4863,-0.8491,-1.2007,-128.41,61.89,-74.39
312,240052756,0.4746,-0.8267,-1.1738,-123.60,70.67,-77.13
313,240057499,0.4614,-0.8125,-1.1528,-120.12,76.59,-78.66
314,240062499,0.4521,-0.8008,-1.1392,-115.43,84.33,-80.00
315,240067808,0.4243,-0.7778,-1.0947,-109.39,92.20,-81.22
316,240072499,0.4165,-0.7588,-1.1035,-104.94,97.80,-81.71
317,240077499,0.4185,-0.7319,-1.0757,-99.27,104.57,-82.01
318,240082917,0.4072,-0.7168,-1.0332,-92.87,112.26,-81.95
319,240087499,0.3896,-0.7188,-1.0005,-88.90,117.38,-81.59
320,240092499,0.3760,-0.6953,-1.0137,-84.02,123.84,-80.79
321,240097949,0.3926,-0.6641,-0.9766,-78.54,131.22,-79.27
322,240102499,0.3867,-0.6582,-0.9097,-75.43,136.04,-78.23
323,240107498,0.3647,-0.6333,-0.9126,-72.13,141.65,-76.46
324,240112499,0.3672,-0.6128,-0.9077,-69.70,147.20,-74.45
325,240117500,0.3599,-0.6011,-0.8262,-68.29,152.50,-72.13
326,240122499,0.3447,-0.5747,-0.8120,-67.56,157.87,-69.70
327,240127498,0.3472,-0.5493,-0.8154,-67.68,162.87,-66.95
328,240132499,0.3374,-0.5366,-0.7480,-68.29,167.62,-64.15
329,240137497,0.3027,-0.5322,-0.6807,-69.51,173.29,-60.37
330,240142499,0.2905,-0.5117,-0.6504,-70.30,177.20,-57.56
331,240147499,0.2935,-0.4800,-0.6553,-71.52,181.71,-54.33
332,240152499,0.2842,-0.4512,-0.6011,-72.74,185.85,-50.85
333,240157514,0.2676,-0.4424,-0.5425,-73.78,190.18,-47.26
334,240162798,0.2471,-0.4214,-0.5093,-75.06,194.70,-42.80
335,240167499,0.2354,-0.4072,-0.5088,-75.85,197.62,-39.88
336,240172906,0.2256,-0.3989,-0.4512,-76.83,202.01,-35.30
337,240177499,0.2153,-0.3955,-0.4170,-77.32,204.82,-32.20
338,240182499,0.2017,-0.3867,-0.3877,-77.87,208.35,-28.35
339,240187499,0.1890,-0.3735,-0.3511,-78.29,211.65,-24.39
340,240192967,0.1743,-0.3608,-0.3081,-78.60,215.43,-19.63
341,240197503,0.1738,-0.3545,-0.2759,-78.72,217.93,-16.40
342,240202499,0.1699,-0.3535,-0.2559,-79.02,221.10,-12.26
343,240207500,0.1504,-0.3535,-0.2222,-79.45,224.02,-7.99
344,240212854,0.1294,-0.3398,-0.1875,-80.30,227.32,-2.99
345,240217499,0.1221,-0.3276,-0.1660,-80.67,229.51,0.43
346,240222499,0.1113,-0.3213,-0.1377,-81.52,232.56,5.55
347,240227499,0.1118,-0.3159,-0.1196,-81.95,234.57,8.96
348,240232915,0.0972,-0.3096,-0.0898,-82.62,237.20,14.15
349,240237499,0.0801,-0.3032,-0.0737,-83.11,238.90,17.50
350,240242499,0.0645,-0.3052,-0.0435,-83.54,241.10,22.68
351,240247499,0.0620,-0.2944,-0.0176,-83.78,242.44,26.22
352,240252499,0.0605,-0.2856,-0.0020,-83.78,244.02,30.24
353,240257563,0.0571,-0.2778,0.0288,-83.60,245.49,34.33
354,240262499,0.0493,-0.2695,0.0547,-83.11,246.83,38.23
355,240267584,0.0449,-0.2793,0.0845,-82.44,248.17,42.07
356,240272644,0.0386,-0.2749,0.1006,-81.16,249.15,45.91
357,240277499,0.0234,-0.2783,0.1235,-79.82,250.24,49.76
358,240282499,0.0137,-0.2764,0.1489,-77.99,251.34,53.54
359,240287500,0.0151,-0.2803,0.1685,-75.91,251.89,57.13
360,240292664,0.0117,-0.2969,0.1899,-73.60,252.62,60.85
361,240297499,0.0098,-0.3105,0.2236,-71.10,253.17,64.63
362,240302566,0.0107,-0.3247,0.2451,-68.54,253.66,68.48
363,240307499,0.0107,-0.3452,0.2695,-66.04,254.02,72.50
364,240312499,0.0142,-0.3647,0.2896,-63.66,254.15,76.52
365,240317595,0.0186,-0.3789,0.3145,-61.46,254.21,80.61
366,240322666,0.0181,-0.3784,0.3672,-58.96,254.09,84.63
367,240327499,0.0430,-0.4014,0.3740,-56.22,253.66,88.29
368,240332499,0.0771,-0.4058,0.4033,-52.62,253.29,93.11
369,240337499,0.0840,-0.4189,0.4370,-50.18,252.80,96.04
370,240342499,0.0898,-0.4312,0.4448,-47.13,252.01,99.82
371,240347499,0.0889,-0.4365,0.4600,-44.02,250.85,103.48
372,240352498,0.0830,-0.4497,0.4834,-41.22,249.57,107.13
373,240357499,0.0723,-0.4600,0.5068,-38.35,248.11,110.79
374,240362499,0.0601,-0.4717,0.5356,-35.61,246.71,114.45
375,240367499,0.0435,-0.4873,0.5601,-33.35,245.30,118.05
376,240372501,0.0474,-0.5039,0.5874,-31.65,243.90,121.71
377,240377684,0.0469,-0.5215,0.6094,-30.91,242.38,125.18
378,240382499,0.0420,-0.5327,0.6255,-31.16,241.16,128.72
379,240387503,0.0005,-0.5625,0.6558,-33.05,239.33,132.80
380,240392499,-0.0063,-0.5718,0.6792,-35.24,238.05,135.43
381,240397499,0.0005,-0.5859,0.7153,-39.02,236.59,138.60
382,240402670,-0.0146,-0.5903,0.7197,-43.78,235.30,141.65
383,240407499,-0.0356,-0.5962,0.7256,-49.27,233.35,144.57
384,240412499,-0.0645,-0.6123,0.7441,-55.00,231.28,147.50
385,240417498,-0.0776,-0.6318,0.7788,-60.55,228.66,150.43
386,240422499,-0.0957,-0.6548,0.8213,-66.40,225.30,154.09
387,240427499,-0.0986,-0.6714,0.8628,-69.51,222.56,156.46
388,240432500,-0.1025,-0.6929,0.9355,-72.20,219.15,159.51
389,240437497,-0.1196,-0.7065,0.9941,-73.54,215.43,162.44
390,240442497,-0.1587,-0.7188,1.0376,-73.60,211.40,165.30
391,240447651,-0.2012,-0.7363,1.0923,-72.68,206.77,167.93
392,240452499,-0.2354,-0.7490,1.1504,-71.34,201.89,170.43
393,240457499,-0.2803,-0.7461,1.1890,-69.70,196.77,172.50
394,240462499,-0.3770,-0.7490,1.2676,-67.44,190.24,174.88
395,240467499,-0.4487,-0.7427,1.3486,-65.98,185.79,175.98
396,240472986,-0.5605,-0.7642,1.4414,-64.02,178.90,177.80
397,240477499,-0.6250,-0.7876,1.4697,-62.87,174.21,178.96
398,240482499,-0.7065,-0.8184,1.5269,-61.34,167.99,180.00
399,240487501,-0.8081,-0.8496,1.5903,-59.76,161.22,181.46
400,240492772,-0.8813,-0.8853,1.6572,-57.62,154.02,182.93
401,240497499,-0.9185,-0.9438,1.7290,-54.76,146.04,184.76
402,240502517,-0.9546,-1.0117,1.7930,-50.43,137.44,187.01
403,240507579,-0.9795,-1.0820,1.8696,-44.51,127.80,189.76
404,240512707,-1.0747,-1.1177,1.9741,-36.59,117.32,192.50
405,240517499,-1.1929,-1.1226,2.0737,-25.55,105.98,195.18
406,240522499,-1.2466,-1.1528,2.2056,-11.89,93.29,197.44
407,240527701,-1.3691,-1.1802,2.2764,3.78,80.61,199.27
408,240532499,-1.5146,-1.1782,2.3970,20.91,66.77,200.67
409,240537499,-1.6250,-1.1592,2.5664,38.48,52.44,201.40
410,240542639,-1.7134,-1.1582,2.7041,54.57,37.32,201.89
411,240547499,-1.7979,-1.1562,2.8315,68.72,22.32,202.38
412,240552499,-1.8770,-1.1733,3.0420,83.11,3.17,203.23
413,240557499,-1.9692,-1.1777,3.1543,90.49,-10.61,204.33
414,240562499,-2.0635,-1.1670,3.2715,98.11,-30.00,206.40
415,240567618,-2.1245,-1.1665,3.3999,104.21,-52.13,209.76
416,240572637,-2.1841,-1.1665,3.5591,108.90,-77.38,214.63
417,240577499,-2.2764,-1.1689,3.6797,111.95,-105.79,221.16
418,240582499,-2.3271,-1.2036,3.7998,113.48,-137.01,229.33
419,240587499,-2.4561,-1.1860,3.8599,114.15,-171.46,238.96
420,240592499,-2.6089,-1.1577,3.9507,115.73,-208.23,249.63
421,240597499,-2.7930,-1.1694,4.0420,119.63,-254.76,263.54
422,240602499,-2.9478,-1.1831,4.0659,123.96,-286.65,273.35
423,240607499,-3.1895,-1.2622,4.0586,132.38,-336.16,289.51
424,240612499,-3.4141,-1.3525,4.0298,139.15,-370.12,301.71
425,240617499,-3.5693,-1.4321,4.0854,150.61,-412.56,318.72
426,240622498,-3.7612,-1.5518,4.0039,162.93,-455.06,337.87
427,240627689,-4.0278,-1.6777,3.9629,173.90,-497.44,359.39
428,240632499,-4.2646,-1.8184,3.9258,184.57,-539.15,383.17
429,240637499,-4.6704,-1.9976,3.8125,199.33,-587.74,413.41
430,240642499,-4.9219,-2.1162,3.6665,211.77,-618.78,434.45
431,240647499,-5.4082,-2.2974,3.5908,230.61,-655.24,461.04
432,240652685,-5.6978,-2.4507,3.4194,250.30,-688.54,487.44
433,240657499,-5.9087,-2.6470,3.3242,272.20,-719.57,513.35
434,240662499,-6.1768,-2.8794,3.0605,292.68,-745.91,538.78
435,240667500,-6.5190,-3.0259,2.8042,308.41,-767.44,562.93
436,240672632,-6.8389,-3.1875,2.6450,316.10,-785.79,584.88
437,240677499,-7.0181,-3.3901,2.4497,313.78,-802.13,604.57
438,240682499,-7.1597,-3.6235,2.1167,301.77,-815.98,621.16
439,240687499,-7.1597,-3.9204,1.8833,282.80,-827.62,634.63
440,240692499,-7.0391,-4.4399,1.8794,260.85,-833.90,646.34
441,240697499,-7.0615,-4.3276,1.2563,240.00,-839.09,654.51
442,240702981,-7.1763,-4.1621,1.0635,217.13,-841.34,655.30
443,240707499,-7.2676,-4.0557,0.9595,197.62,-840.24,649.21
444,240712499,-7.3130,-4.3086,0.8179,163.29,-834.21,635.00
445,240717499,-7.4092,-4.2031,0.2476,118.41,-825.00,611.40
446,240722499,-7.0371,-4.2026,-0.0688,64.33,-812.01,576.46
447,240727499,-6.6670,-4.3110,-0.5210,6.83,-793.54,529.94
448,240732499,-6.2427,-4.5576,-1.2642,-47.56,-771.34,474.57
449,240737637,-5.9185,-4.7227,-1.6973,-101.65,-750.55,413.35
450,240742498,-5.4927,-4.6504,-2.0049,-160.49,-730.73,347.13
451,240747499,-5.1650,-4.5391,-2.2769,-221.83,-708.29,276.65
452,240752499,-4.8921,-4.3779,-2.5562,-277.93,-684.33,203.29
453,240757778,-4.5601,-4.1978,-2.7729,-322.13,-658.41,128.78
454,240762499,-4.1553,-4.0288,-2.9292,-351.46,-629.45,55.61
455,240767499,-3.6597,-3.8467,-2.9629,-369.57,-590.73,-27.01
456,240772499,-3.3682,-3.6406,-2.9565,-374.82,-562.32,-77.93
457,240777499,-3.0972,-3.3530,-2.9141,-374.70,-524.57,-136.71
458,240782643,-2.8379,-3.0610,-2.8730,-366.10,-485.12,-189.63
459,240787499,-2.6782,-2.7773,-2.8223,-347.32,-444.76,-235.98
460,240792499,-2.4653,-2.5039,-2.7700,-319.39,-404.45,-275.24
461,240797666,-2.2441,-2.2690,-2.7373,-283.84,-364.70,-307.26
462,240802499,-2.0801,-2.0718,-2.6958,-240.98,-325.91,-331.89
463,240807499,-1.8633,-1.8672,-2.6333,-181.34,-283.11,-352.44
464,240812499,-1.7036,-1.7354,-2.5645,-138.66,-256.40,-361.46
465,240817499,-1.4819,-1.5664,-2.5024,-73.11,-219.51,-368.78
466,240822499,-1.3618,-1.4702,-2.4326,-29.94,-197.38,-370.18
467,240827501,-1.2520,-1.3350,-2.3320,21.22,-172.20,-368.84
468,240832499,-1.1064,-1.2163,-2.2183,66.83,-149.76,-364.88
469,240837582,-0.9819,-1.0962,-2.0859,104.09,-129.45,-359.02
470,240842499,-0.8740,-0.9907,-1.9688,131.22,-111.40,-351.65
471,240847648,-0.7568,-0.8926,-1.8574,148.60,-95.30,-343.48
472,240852499,-0.6792,-0.8135,-1.7534,156.46,-80.61,-334.76
473,240857499,-0.5430,-0.7271,-1.6514,156.04,-67.44,-325.79
474,240862499,-0.4834,-0.6191,-1.5601,148.90,-55.18,-316.52
475,240867499,-0.4385,-0.5649,-1.4556,137.13,-43.96,-307.26
476,240872500,-0.3711,-0.4868,-1.3530,122.68,-33.41,-297.80
477,240877499,-0.3511,-0.4341,-1.3008,107.38,-23.54,-288.41
478,240882893,-0.2739,-0.3286,-1.1592,87.26,-12.38,-277.32
479,240887499,-0.2036,-0.2573,-1.0991,74.57,-5.61,-269.88
480,240892499,-0.0605,-0.2754,-0.9507,60.67,2.80,-260.00
481,240897664,-0.1836,-0.2676,-0.9141,47.13,10.61,-249.51
482,240902499,0.0142,-0.2354,-0.8267,36.34,17.62,-238.90
483,240907499,0.2041,-0.2212,-0.6597,28.11,24.63,-227.80
484,240912499,0.1440,-0.1211,-0.6606,20.37,30.61,-216.46
485,240917694,0.1582,-0.1074,-0.6323,15.85,35.55,-205.06
486,240922499,0.2461,-0.0391,-0.5029,14.82,39.94,-193.23
487,240927501,0.1914,0.0576,-0.4639,14.45,43.96,-181.46
488,240932557,0.3525,0.0615,-0.4463,14.63,46.46,-170.30
489,240937499,0.4116,-0.0063,-0.3516,16.04,48.48,-158.66
490,240942499,0.3613,-0.0366,-0.3242,18.72,50.06,-146.95
491,240947676,0.3262,-0.0400,-0.3193,22.38,50.49,-135.43
492,240952499,0.3672,0.0015,-0.2881,26.16,50.37,-124.33
493,240957503,0.4097,0.0332,-0.2344,30.06,49.63,-111.95
494,240962499,0.4248,0.0781,-0.2197,32.07,49.15,-104.21
495,240967499,0.4321,0.0864,-0.1978,33.66,47.99,-95.12
496,240972539,0.4551,0.0850,-0.1665,34.27,46.77,-86.59
497,240977654,0.4761,0.0845,-0.1465,33.96,45.06,-78.60
498,240982499,0.5020,0.0845,-0.1206,32.56,43.35,-71.16
499,240987499,0.5200,0.0874,-0.1011,30.06,41.40,-64.27
500,240992961,0.5386,0.0854,-0.0708,25.49,38.84,-56.71
501,240997499,0.5522,0.0859,-0.0459,21.59,37.01,-52.07
502,241002499,0.5635,0.0801,-0.0361,15.67,34.70,-46.65
503,241007499,0.5698,0.0752,-0.0156,8.90,32.26,-41.52
504,241012499,0.5889,0.0791,0.0142,0.18,29.57,-35.91
505,241017499,0.5830,0.0708,0.0225,-6.22,27.74,-32.32
506,241022498,0.5713,0.0576,0.0386,-14.63,25.79,-28.05
507,241027497,0.5596,0.0444,0.0698,-22.93,23.72,-23.90
508,241032499,0.5542,0.0317,0.0889,-31.34,22.13,-20.00
509,241037499,0.5576,0.0288,0.1055,-38.96,20.67,-16.10
510,241042499,0.5713,0.0239,0.1187,-45.79,19.57,-12.44
511,241047498,0.5732,0.0059,0.1338,-51.40,18.66,-8.78
512,241052858,0.5757,-0.0039,0.1411,-55.37,17.93,-5.30
513,241057499,0.5850,-0.0200,0.1489,-57.74,17.07,-1.83
514,241062499,0.6040,-0.0396,0.1680,-58.60,16.28,1.46
515,241067499,0.6294,-0.0532,0.1792,-58.05,15.43,4.76
516,241072502,0.6509,-0.0698,0.1885,-55.43,14.15,8.35
517,241077499,0.6592,-0.0767,0.1997,-53.05,13.11,10.73
518,241082499,0.6802,-0.0981,0.2085,-48.84,11.22,13.84
519,241087499,0.6909,-0.1050,0.2148,-45.91,10.06,15.98
520,241092499,0.6934,-0.1045,0.2114,-42.44,8.23,18.35
521,241097543,0.7119,-0.0977,0.2168,-38.78,6.28,20.24
522,241102878,0.7134,-0.1396,0.2261,-34.51,4.09,22.07
523,241107499,0.7144,-0.1567,0.2334,-32.20,2.62,23.54
524,241112499,0.7119,-0.1782,0.2217,-29.63,0.12,25.49
525,241117499,0.7153,-0.1611,0.2026,-28.54,-1.83,26.89
526,241122500,0.7183,-0.1655,0.2173,-28.48,-4.09,28.48
527,241127604,0.7251,-0.1772,0.2163,-29.27,-6.22,30.18
528,241132499,0.7295,-0.1899,0.2236,-31.22,-8.35,31.77
529,241137498,0.7305,-0.1973,0.2354,-33.96,-10.37,33.29
530,241142608,0.7222,-0.2026,0.2466,-37.26,-12.07,34.76
531,241147502,0.7241,-0.2056,0.2549,-42.01,-13.78,36.22
532,241152499,0.7183,-0.2080,0.2456,-45.43,-15.12,37.20
533,241157499,0.7271,-0.2183,0.2495,-50.67,-16.59,38.78
534,241162499,0.7285,-0.2222,0.2539,-54.21,-17.44,39.82
535,241167499,0.7397,-0.2300,0.2407,-58.72,-18.78,41.22
536,241172498,0.7461,-0.2388,0.2241,-63.11,-19.94,42.62
537,241177881,0.7568,-0.2427,0.2109,-68.29,-21.34,44.39
538,241182499,0.7661,-0.2598,0.1895,-71.52,-22.50,45.73
539,241187500,0.7749,-0.2705,0.1719,-75.37,-23.96,47.56
540,241192760,0.7764,-0.2827,0.1597,-79.09,-25.61,49.51
541,241197502,0.7754,-0.2832,0.1528,-82.50,-27.13,51.59
542,241202498,0.7729,-0.2827,0.1567,-85.61,-28.72,53.41
543,241207701,0.7710,-0.2759,0.1553,-88.48,-29.94,55.37
544,241212980,0.7676,-0.2710,0.1602,-91.34,-31.04,57.44
545,241217499,0.7676,-0.2729,0.1479,-92.93,-31.52,58.78
546,241222499,0.7554,-0.2788,0.1450,-94.76,-32.38,60.73
547,241227499,0.7451,-0.2871,0.1353,-95.79,-32.62,61.95
548,241232499,0.7441,-0.3022,0.1216,-96.59,-33.29,63.66
549,241237499,0.7397,-0.3179,0.1084,-96.89,-33.84,65.61
550,241242501,0.7432,-0.3379,0.1060,-96.77,-34.39,67.44
551,241247553,0.7422,-0.3496,0.0962,-96.22,-35.00,69.39
552,241252701,0.7397,-0.3662,0.0889,-95.24,-35.55,71.40
553,241257499,0.7383,-0.3857,0.0732,-94.02,-36.16,73.54
554,241262499,0.7368,-0.3989,0.0571,-92.26,-36.95,76.04
555,241267499,0.7251,-0.4097,0.0522,-90.91,-37.56,77.93
556,241272498,0.7217,-0.4146,0.0449,-89.15,-38.23,80.00
557,241277499,0.7197,-0.4214,0.0327,-87.32,-38.78,82.20
558,241282499,0.7188,-0.4331,0.0049,-85.18,-39.63,85.18
559,241287499,0.7134,-0.4375,0.0068,-84.15,-40.37,87.07
560,241292501,0.6870,-0.4463,0.0156,-82.74,-40.85,88.48
561,241297498,0.6777,-0.4473,0.0059,-81.59,-41.40,90.98
562,241302499,0.6650,-0.4492,0.0103,-80.55,-41.77,92.87
563,241307498,0.6528,-0.4512,-0.0034,-79.94,-41.95,94.82
564,241312499,0.6504,-0.4390,-0.0034,-79.76,-42.20,96.59
565,241317499,0.6489,-0.4346,0.0020,-79.70,-42.26,98.11
566,241322498,0.6528,-0.4355,-0.0054,-79.51,-42.20,99.39
567,241327497,0.6450,-0.4424,-0.0073,-79.33,-42.20,100.79
568,241332498,0.6519,-0.4897,-0.0166,-78.90,-42.32,102.38
569,241337500,0.6504,-0.4902,-0.0347,-78.66,-42.56,103.48
570,241342499,0.6362,-0.4937,-0.0591,-78.48,-43.05,104.94
571,241347526,0.6289,-0.5024,-0.0605,-78.48,-43.41,106.34
572,241352499,0.6538,-0.6060,-0.0601,-78.78,-43.96,107.93
573,241357579,0.6250,-0.5898,-0.0972,-81.04,-44.15,109.63
574,241362716,0.5806,-0.5742,-0.1279,-84.02,-44.45,110.85
575,241367499,0.5591,-0.5728,-0.1216,-87.74,-44.57,111.71
576,241372499,0.5474,-0.5957,-0.1011,-92.26,-43.84,112.74
577,241377499,0.5464,-0.5938,-0.0903,-94.94,-42.99,113.35
578,241382499,0.4858,-0.6211,-0.0918,-97.99,-42.38,114.27
579,241387498,0.4741,-0.6572,-0.1104,-100.85,-42.07,115.30
580,241392499,0.4736,-0.6729,-0.1255,-103.11,-41.77,116.34
581,241397497,0.4810,-0.6885,-0.1499,-104.63,-41.65,117.50
582,241402499,0.4927,-0.6870,-0.1621,-105.67,-41.65,118.54
583,241407499,0.4541,-0.6895,-0.2041,-105.67,-41.77,119.39
584,241412801,0.4497,-0.6846,-0.2100,-104.76,-41.65,120.12
585,241417499,0.4409,-0.6870,-0.2031,-103.11,-41.34,120.55
586,241422499,0.4272,-0.6968,-0.2075,-100.91,-41.34,120.73
587,241427977,0.4087,-0.7139,-0.2236,-98.11,-40.98,120.91
588,241432499,0.4019,-0.7114,-0.2354,-96.04,-40.67,120.98
589,241437499,0.3896,-0.7158,-0.2354,-93.23,-40.24,120.91
590,241442498,0.3779,-0.7236,-0.2559,-90.37,-39.63,120.67
591,241447701,0.3623,-0.7329,-0.2808,-87.62,-38.90,120.37
592,241452499,0.3555,-0.7422,-0.2964,-85.30,-38.11,120.12
593,241457499,0.3496,-0.7466,-0.2969,-83.48,-37.13,119.76
594,241462498,0.3506,-0.7603,-0.3115,-82.20,-36.10,119.33
595,241467797,0.3452,-0.7642,-0.3252,-81.59,-35.06,119.02
596,241472499,0.3472,-0.7710,-0.3262,-81.52,-33.84,118.78
597,241477498,0.3389,-0.7686,-0.3286,-82.32,-32.62,118.60
598,241482501,0.3369,-0.7603,-0.3413,-83.60,-31.34,118.60
599,241487723,0.3296,-0.7505,-0.3369,-85.30,-30.18,118.60
600,241492499,0.3345,-0.7402,-0.3384,-87.38,-28.96,118.72
601,241497499,0.3345,-0.7349,-0.3350,-90.12,-27.87,119.02
602,241502501,0.3281,-0.7349,-0.3325,-92.13,-27.26,119.27
603,241507498,0.3193,-0.7344,-0.3374,-94.70,-26.59,119.63
604,241512513,0.3076,-0.7422,-0.3462,-97.32,-26.10,119.88
605,241517498,0.2886,-0.7275,-0.3477,-99.76,-25.79,120.18
606,241522855,0.2764,-0.7153,-0.3545,-102.20,-25.67,120.37
607,241527499,0.2690,-0.7046,-0.3604,-104.51,-25.30,120.43
608,241532499,0.2559,-0.7061,-0.3682,-107.32,-25.24,120.43
609,241537499,0.2407,-0.7075,-0.3706,-109.27,-25.18,120.55
610,241542498,0.2300,-0.7188,-0.3784,-111.89,-25.18,120.49
611,241547499,0.2227,-0.7319,-0.3921,-114.76,-25.18,120.30
612,241552499,0.2173,-0.7456,-0.3999,-117.74,-24.94,120.37
613,241557499,0.1987,-0.7510,-0.4053,-120.79,-25.00,120.37
614,241562499,0.1978,-0.7603,-0.4160,-124.39,-25.12,120.24
615,241567499,0.1997,-0.7666,-0.4272,-126.77,-25.24,120.06
616,241572499,0.2007,-0.7861,-0.4365,-130.24,-25.67,120.06
617,241577499,0.2036,-0.8003,-0.4482,-132.50,-26.04,120.18
618,241582498,0.2070,-0.8174,-0.4502,-135.55,-26.46,120.49
619,241587648,0.2095,-0.8281,-0.4575,-138.41,-27.20,121.04
620,241592499,0.2090,-0.8413,-0.4580,-141.10,-27.74,121.77
621,241597901,0.2114,-0.8486,-0.4531,-143.11,-28.23,122.50
622,241602499,0.2065,-0.8491,-0.4629,-144.45,-28.60,123.35
623,241607498,0.2012,-0.8477,-0.4688,-144.57,-29.27,124.21
624,241612502,0.1958,-0.8442,-0.4707,-143.90,-29.70,125.00
625,241617497,0.1904,-0.8364,-0.4761,-142.13,-30.24,125.85
626,241622497,0.1807,-0.8335,-0.4756,-139.33,-30.73,126.65
627,241627497,0.1626,-0.8325,-0.4951,-135.98,-31.28,127.44
628,241632498,0.1558,-0.8311,-0.4902,-132.13,-31.83,128.29
629,241637497,0.1484,-0.8311,-0.4951,-127.99,-32.44,128.84
630,241642497,0.1445,-0.8442,-0.5059,-123.72,-32.74,129.70
631,241647633,0.1440,-0.8438,-0.5137,-119.39,-33.23,130.43
632,241652727,0.1372,-0.8481,-0.5156,-115.18,-33.54,131.28
633,241657499,0.1245,-0.8481,-0.5220,-110.98,-33.66,132.26
634,241662499,0.1201,-0.8530,-0.5322,-106.95,-33.78,133.05
635,241667498,0.1167,-0.8511,-0.5356,-103.29,-33.96,134.02
636,241672500,0.1094,-0.8540,-0.5400,-99.76,-34.02,135.12
637,241677988,0.1104,-0.8516,-0.5405,-95.67,-34.15,136.52
638,241682499,0.1079,-0.8442,-0.5439,-93.11,-34.15,137.44
639,241687498,0.1006,-0.8315,-0.5361,-89.88,-34.21,138.72
640,241692499,0.0933,-0.8213,-0.5366,-86.95,-34.15,139.88
641,241697498,0.0835,-0.8042,-0.5332,-83.96,-34.15,141.04
642,241702596,0.0718,-0.7847,-0.5234,-81.28,-34.15,142.07
643,241707498,0.0596,-0.7666,-0.5171,-78.66,-34.21,143.17
644,241712929,0.0488,-0.7593,-0.5122,-76.16,-34.51,144.33
645,241717499,0.0483,-0.7427,-0.5059,-73.96,-35.00,145.49
646,241722693,0.0488,-0.7354,-0.4927,-72.13,-35.61,146.83
647,241727499,0.0449,-0.7480,-0.5044,-70.98,-36.71,148.48
648,241732958,0.0400,-0.7690,-0.5283,-70.61,-38.05,150.30
649,241737499,0.0479,-0.8057,-0.5361,-71.77,-39.57,152.56
650,241742499,0.0439,-0.8325,-0.5464,-74.39,-41.10,154.70
651,241747501,0.0435,-0.8604,-0.5547,-77.99,-42.62,157.07
652,241752498,0.0312,-0.8760,-0.5630,-81.89,-43.90,159.33
653,241757595,0.0117,-0.8628,-0.5698,-85.37,-45.12,161.34
654,241762658,-0.0083,-0.8682,-0.5825,-87.99,-45.98,162.93
655,241767499,-0.0283,-0.8735,-0.5889,-89.70,-46.95,164.27
656,241772960,-0.0425,-0.8735,-0.5898,-90.12,-47.80,165.37
657,241777499,-0.0566,-0.8696,-0.5938,-89.51,-48.66,166.04
658,241782499,-0.0811,-0.8638,-0.5952,-87.74,-49.51,166.65
659,241787501,-0.1055,-0.8525,-0.5894,-84.94,-50.18,167.07
660,241792499,-0.1362,-0.8359,-0.5874,-80.98,-50.91,167.50
661,241797785,-0.1602,-0.8218,-0.5913,-76.22,-51.83,167.87
662,241802499,-0.1729,-0.8101,-0.5811,-70.55,-52.80,168.17
663,241807501,-0.1782,-0.7964,-0.5630,-63.96,-53.90,168.60
664,241812498,-0.1953,-0.7827,-0.5610,-57.13,-55.24,169.15
665,241817832,-0.1968,-0.7803,-0.5537,-49.88,-55.98,169.76
666,241822564,-0.2070,-0.7778,-0.5430,-42.74,-57.13,170.55
667,241827498,-0.2173,-0.7793,-0.5527,-36.40,-57.93,171.40
668,241832604,-0.2310,-0.7812,-0.5527,-30.85,-58.54,172.32
669,241837499,-0.2490,-0.7764,-0.5474,-26.77,-58.54,173.05
670,241842498,-0.2681,-0.7773,-0.5547,-24.21,-58.48,173.66
671,241847499,-0.2886,-0.7720,-0.5488,-23.23,-57.87,174.21
672,241852550,-0.3062,-0.7695,-0.5518,-23.48,-56.77,174.45
673,241857648,-0.3257,-0.7632,-0.5620,-24.39,-55.61,174.82
674,241862499,-0.3481,-0.7607,-0.5615,-26.16,-54.57,175.00
675,241867499,-0.3677,-0.7563,-0.5620,-28.23,-53.41,175.43
676,241872503,-0.3828,-0.7466,-0.5615,-30.79,-52.32,175.79
677,241877499,-0.3906,-0.7432,-0.5581,-32.87,-51.46,176.22
678,241882499,-0.3916,-0.7358,-0.5566,-34.94,-51.04,176.77
679,241887499,-0.3994,-0.7339,-0.5552,-36.46,-50.49,177.50
680,241892498,-0.4053,-0.7329,-0.5571,-37.56,-50.43,178.35
681,241897720,-0.4141,-0.7378,-0.5649,-37.93,-50.49,179.39
682,241902633,-0.4297,-0.7417,-0.5645,-37.74,-50.85,180.55
683,241907499,-0.4385,-0.7407,-0.5718,-37.01,-51.28,181.77
684,241912844,-0.4551,-0.7451,-0.5742,-35.85,-51.71,183.05
685,241917499,-0.4741,-0.7485,-0.5776,-33.96,-52.13,184.21
686,241922498,-0.4888,-0.7534,-0.5991,-31.65,-52.74,185.37
687,241927500,-0.5117,-0.7637,-0.6108,-29.09,-53.23,186.59
688,241932497,-0.5361,-0.7705,-0.6265,-26.22,-53.72,187.87
689,241937499,-0.5620,-0.7798,-0.6396,-23.54,-54.45,189.15
690,241942498,-0.5845,-0.7783,-0.6470,-20.79,-55.18,190.55
691,241947499,-0.6021,-0.7817,-0.6509,-18.29,-55.67,192.01
692,241952501,-0.6162,-0.7788,-0.6538,-15.85,-56.59,193.48
693,241957499,-0.6328,-0.7710,-0.6455,-13.41,-57.01,194.82
694,241962499,-0.6562,-0.7583,-0.6528,-11.22,-57.87,196.10
695,241967498,-0.6748,-0.7549,-0.6445,-8.96,-58.23,197.56
696,241972499,-0.6943,-0.7456,-0.6436,-6.89,-58.96,198.84
697,241977497,-0.7134,-0.7349,-0.6353,-4.70,-59.51,200.24
698,241982895,-0.7256,-0.7261,-0.6343,-2.87,-60.06,201.52
699,241987499,-0.7363,-0.7163,-0.6309,-1.40,-60.43,202.50
700,241992498,-0.7568,-0.7090,-0.6235,-0.24,-60.30,203.41
701,241997499,-0.7734,-0.6987,-0.6245,0.61,-59.88,203.84
702,242002503,-0.7939,-0.6934,-0.6172,1.28,-59.39,204.15
703,242007499,-0.8198,-0.6826,-0.6147,1.89,-58.60,204.27
704,242012498,-0.8408,-0.6719,-0.6108,2.38,-57.62,204.21
705,242017772,-0.8560,-0.6665,-0.6147,3.05,-56.40,203.90
706,242022499,-0.8677,-0.6553,-0.6177,3.72,-55.30,203.54
707,242027499,-0.8726,-0.6450,-0.6201,4.51,-54.33,202.99
708,242032498,-0.8848,-0.6353,-0.6318,5.43,-53.11,202.32
709,242037909,-0.8994,-0.6211,-0.6328,6.22,-52.01,201.28
710,242042499,-0.9199,-0.6079,-0.6387,7.07,-50.79,200.24
711,242047499,-0.9390,-0.5981,-0.6484,8.35,-49.70,199.02
712,242052499,-0.9478,-0.5977,-0.6411,9.76,-48.60,197.68
713,242057499,-0.9580,-0.5845,-0.6538,11.10,-47.38,196.04
714,242062702,-0.9761,-0.5840,-0.6572,12.32,-46.16,194.45
715,242067499,-0.9976,-0.5747,-0.6660,13.72,-44.76,192.50
716,242072499,-1.0103,-0.5693,-0.6611,15.49,-43.11,190.49
717,242077943,-1.0210,-0.5688,-0.6694,17.20,-41.34,188.35
718,242082499,-1.0264,-0.5659,-0.6650,18.84,-39.39,186.10
719,242087965,-1.0298,-0.5654,-0.6660,20.24,-37.32,183.78
720,242092499,-1.0342,-0.5693,-0.6606,21.34,-35.06,181.46
721,242097929,-1.0288,-0.5698,-0.6587,22.13,-32.56,179.09
722,242102499,-1.0312,-0.5762,-0.6616,22.62,-30.24,176.89
723,242107499,-1.0327,-0.5781,-0.6533,22.80,-27.68,174.94
724,242112499,-1.0259,-0.5747,-0.6621,22.87,-25.12,172.56
725,242117500,-1.0200,-0.5757,-0.6562,22.80,-23.41,171.16
726,242122499,-1.0190,-0.5757,-0.6558,22.87,-21.59,169.57
727,242127499,-1.0073,-0.5684,-0.6582,23.05,-20.00,168.05
728,242132778,-0.9985,-0.5649,-0.6533,23.48,-18.29,166.71
729,242137499,-0.9863,-0.5649,-0.6499,24.21,-16.95,165.43
730,242142499,-0.9790,-0.5664,-0.6470,25.06,-15.67,164.27
731,242147499,-0.9771,-0.5605,-0.6426,26.34,-14.45,163.35
732,242152499,-0.9731,-0.5640,-0.6416,27.68,-13.17,162.44
733,242157500,-0.9731,-0.5625,-0.6387,29.21,-12.20,161.65
734,242162499,-0.9648,-0.5635,-0.6372,31.04,-10.91,161.04
735,242167831,-0.9570,-0.5625,-0.6382,33.05,-10.00,160.43
736,242172499,-0.9497,-0.5562,-0.6431,35.37,-9.02,159.88
737,242177499,-0.9341,-0.5513,-0.6367,38.11,-8.17,159.33
738,242182831,-0.9292,-0.5449,-0.6396,41.46,-7.38,158.78
739,242187499,-0.9253,-0.5356,-0.6499,45.30,-6.65,158.11
740,242192499,-0.9204,-0.5244,-0.6533,49.70,-5.91,157.44
741,242197503,-0.9170,-0.5146,-0.6572,54.33,-5.18,156.65
742,242202499,-0.9175,-0.5044,-0.6631,59.15,-4.27,155.61
743,242207499,-0.9141,-0.4971,-0.6621,64.33,-3.48,154.51
744,242212713,-0.9077,-0.4858,-0.6592,69.51,-2.13,153.23
745,242217499,-0.9023,-0.4800,-0.6519,74.82,-0.73,151.59
746,242222498,-0.8618,-0.4761,-0.6616,79.63,1.16,149.88
747,242227497,-0.9043,-0.4756,-0.6577,84.39,2.44,148.17
748,242232497,-0.9380,-0.4507,-0.6621,89.70,4.27,146.22
749,242237497,-0.9297,-0.4419,-0.6655,95.37,6.22,144.02
750,242242497,-0.8921,-0.4346,-0.6558,101.22,8.05,141.71
751,242247498,-0.8525,-0.4341,-0.6436,107.13,10.06,139.21
752,242252499,-0.8218,-0.4297,-0.6494,112.87,12.13,136.46
753,242257498,-0.8037,-0.4272,-0.6362,118.23,13.90,133.78
754,242262499,-0.7847,-0.4297,-0.6284,123.35,15.85,131.10
755,242267499,-0.7725,-0.4224,-0.6187,127.87,17.80,128.29
756,242272722,-0.7529,-0.4194,-0.6201,132.68,19.88,125.49
757,242277499,-0.7402,-0.4087,-0.6147,136.83,21.46,122.56
758,242282499,-0.7241,-0.4092,-0.5962,140.67,23.29,119.57
759,242287499,-0.7100,-0.4033,-0.6011,144.02,25.06,116.52
760,242292499,-0.7017,-0.4019,-0.5977,146.95,26.59,113.41
761,242297501,-0.6968,-0.4019,-0.5864,149.51,28.17,110.30
762,242302499,-0.6919,-0.3984,-0.5874,151.46,29.63,107.20
763,242307514,-0.6875,-0.3989,-0.5806,152.93,30.91,104.15
764,242312640,-0.6782,-0.3970,-0.5776,154.09,32.20,100.91
765,242317499,-0.6768,-0.3970,-0.5728,154.76,33.29,97.80
766,242322500,-0.6758,-0.3960,-0.5688,154.88,34.27,94.70
767,242327499,-0.6719,-0.3965,-0.5732,154.70,35.06,91.46
768,242332933,-0.6743,-0.3950,-0.5586,153.78,35.85,88.11
769,242337499,-0.6733,-0.3979,-0.5591,152.62,36.40,85.67
770,242342499,-0.6758,-0.3965,-0.5591,150.98,36.83,82.50
771,242347497,-0.6768,-0.3975,-0.5630,148.84,36.95,79.51
772,242352501,-0.6689,-0.3999,-0.5571,146.22,37.20,76.52
773,242357563,-0.6694,-0.3979,-0.5493,143.29,37.26,73.60
774,242362516,-0.6685,-0.3975,-0.5508,139.94,37.13,70.73
775,242367499,-0.6709,-0.3984,-0.5435,136.34,37.13,67.80
776,242372662,-0.6719,-0.4023,-0.5449,132.20,36.77,65.00
777,242377499,-0.6733,-0.3960,-0.5498,128.17,36.52,62.32
778,242382499,-0.6763,-0.3945,-0.5430,123.66,35.85,59.51
779,242387499,-0.6729,-0.3975,-0.5425,118.96,35.24,56.83
780,242392499,-0.6714,-0.4004,-0.5298,114.09,34.76,54.21
781,242397499,-0.6650,-0.4009,-0.5352,108.90,33.90,51.71
782,242402570,-0.6675,-0.4077,-0.5298,103.60,33.17,49.15
783,242407499,-0.6699,-0.4048,-0.5298,98.11,32.38,46.59
784,242412499,-0.6685,-0.4067,-0.5264,92.56,31.46,44.09
785,242417684,-0.6699,-0.4048,-0.5298,87.01,30.43,41.59
786,242422499,-0.6675,-0.3984,-0.5293,81.71,29.45,39.09
787,242427499,-0.6650,-0.3965,-0.5220,76.89,28.35,36.59
788,242432651,-0.6553,-0.3989,-0.5195,72.13,27.20,34.02
789,242437499,-0.6514,-0.4004,-0.5200,67.80,26.16,31.52
790,242442499,-0.6440,-0.3979,-0.5171,63.48,24.94,29.09
791,242447702,-0.6382,-0.3994,-0.5210,59.45,23.66,26.59
792,242452499,-0.6328,-0.3999,-0.5181,55.67,22.38,24.21
793,242457499,-0.6279,-0.3926,-0.5122,52.07,20.98,21.71
794,242462499,-0.6250,-0.3892,-0.5122,48.78,19.51,19.33
795,242468010,-0.6191,-0.3901,-0.5078,45.43,18.11,17.07
796,242472500,-0.6079,-0.3940,-0.5093,42.07,16.59,14.76
797,242477499,-0.6084,-0.3936,-0.4990,38.90,14.94,12.56
798,242482499,-0.6099,-0.3936,-0.5034,35.91,13.41,10.30
799,242487499,-0.6099,-0.3901,-0.5010,32.87,11.83,8.11
800,242492499,-0.6172,-0.3857,-0.5068,29.88,10.18,5.98
801,242497499,-0.6167,-0.3838,-0.5073,26.95,8.60,3.90
802,242502499,-0.6128,-0.3872,-0.5083,24.15,7.07,1.95
803,242507499,-0.6123,-0.3877,-0.5044,21.65,5.55,-0.06
804,242512678,-0.6123,-0.3867,-0.5059,19.15,3.96,-2.07
805,242517499,-0.6172,-0.3789,-0.5049,16.95,2.44,-4.02
806,242522498,-0.6240,-0.3774,-0.5078,15.00,0.98,-5.98
807,242527505,-0.6304,-0.3701,-0.5044,13.29,-0.37,-7.93
808,242532499,-0.6392,-0.3691,-0.5054,11.83,-1.77,-10.00
809,242537497,-0.6348,-0.3652,-0.5083,10.37,-3.17,-12.38
810,242542499,-0.6353,-0.3628,-0.5073,9.51,-4.27,-13.96
811,242547499,-0.6382,-0.3579,-0.5122,8.60,-5.30,-16.04
812,242552674,-0.6333,-0.3599,-0.5103,7.68,-6.46,-18.05
813,242557499,-0.6367,-0.3525,-0.5068,6.89,-7.68,-20.12
814,242562499,-0.6411,-0.3486,-0.5088,5.91,-8.84,-22.07
815,242567500,-0.6401,-0.3525,-0.5117,4.94,-10.00,-24.15
816,242572499,-0.6479,-0.3467,-0.5112,3.96,-11.16,-26.16
817,242577499,-0.6519,-0.3418,-0.5234,2.62,-12.26,-28.11
818,242582499,-0.6665,-0.3384,-0.5352,1.28,-13.23,-30.24
819,242587503,-0.6719,-0.3296,-0.5234,-0.24,-14.33,-32.26
820,242592499,-0.6733,-0.3311,-0.5278,-1.83,-15.49,-34.33
821,242597648,-0.6729,-0.3262,-0.5293,-3.78,-16.65,-36.22
822,242602499,-0.6689,-0.3218,-0.5283,-5.85,-17.44,-38.35
823,242607499,-0.6704,-0.3184,-0.5283,-8.11,-18.48,-40.24
824,242612499,-0.6680,-0.3203,-0.5210,-10.30,-19.21,-42.20
825,242617499,-0.6768,-0.3130,-0.5215,-12.56,-19.94,-44.21
826,242622500,-0.6792,-0.3110,-0.5273,-14.76,-20.55,-45.98
827,242627982,-0.6782,-0.3047,-0.5229,-16.77,-21.16,-47.87
828,242632499,-0.6841,-0.3071,-0.5278,-18.90,-21.77,-49.57
829,242637499,-0.6938,-0.3052,-0.5356,-20.85,-22.26,-51.40
