# skilleye imu stream v1
# device=xiao_esp32c6 imu=mpu6050 addr=0x68
# rate_hz=200 accel_range_g=16 gyro_range_dps=2000 dlpf_hz=94
# units: accel in g, gyro in deg/s, t_us in microseconds since boot (monotonic)
# no shared clock with the camera -- tap the racket once before each take
# so both recordings share a spike to align on
seq,t_us,ax,ay,az,gx,gy,gz
0,115254515,0.3472,0.8936,0.0249,14.51,7.38,6.16
1,115259519,0.3447,0.8833,0.0229,14.70,8.17,6.16
2,115264518,0.3413,0.8804,0.0142,14.88,9.15,5.91
3,115269514,0.3477,0.8818,0.0215,14.82,10.06,5.61
4,115274516,0.3501,0.8823,0.0210,14.57,10.91,5.30
5,115279716,0.3501,0.8926,0.0229,13.96,11.89,5.00
6,115284516,0.3501,0.8989,0.0215,13.48,12.62,4.82
7,115289515,0.3501,0.9072,0.0112,12.74,13.48,4.57
8,115294514,0.3496,0.9160,0.0220,11.83,14.09,4.45
9,115299518,0.3545,0.9243,0.0195,11.10,14.88,4.33
10,115304515,0.3608,0.9287,0.0342,10.18,15.55,4.39
11,115309516,0.3721,0.9355,0.0371,9.39,16.28,4.51
12,115314516,0.3848,0.9419,0.0435,8.60,16.89,4.63
13,115319555,0.3926,0.9404,0.0605,7.56,17.44,5.00
14,115324516,0.3960,0.9399,0.0791,6.59,18.05,5.30
15,115329516,0.4023,0.9375,0.1011,5.12,18.35,5.91
16,115334514,0.4238,0.9385,0.1226,3.35,18.66,6.28
17,115339516,0.4404,0.9346,0.1401,1.40,18.96,6.89
18,115344515,0.4487,0.9419,0.1626,-0.61,19.09,7.26
19,115349639,0.4639,0.9390,0.1904,-2.99,19.27,7.87
20,115354579,0.4653,0.9365,0.2085,-5.30,19.15,8.48
21,115359518,0.4526,0.9351,0.2300,-8.17,19.09,9.21
22,115364518,0.4390,0.9326,0.2456,-10.30,18.84,9.70
23,115369515,0.4141,0.9268,0.2646,-12.87,18.60,10.43
24,115374516,0.3921,0.9170,0.2407,-15.30,18.11,11.40
25,115379516,0.3628,0.9282,0.2451,-17.50,17.50,12.44
26,115384516,0.3550,0.9141,0.2476,-19.39,17.20,13.48
27,115389515,0.3442,0.9165,0.2358,-20.55,16.89,14.88
28,115394518,0.3257,0.9189,0.2354,-21.52,16.52,16.46
29,115399514,0.3188,0.9229,0.2266,-22.01,15.85,18.05
30,115404514,0.3174,0.9209,0.2251,-22.26,15.55,19.70
31,115409516,0.3188,0.9243,0.2227,-21.95,15.18,21.59
32,115414516,0.3218,0.9229,0.2202,-21.46,14.63,23.35
33,115419516,0.3325,0.9160,0.2256,-20.79,14.15,25.06
34,115424517,0.3496,0.9043,0.2349,-20.00,13.60,26.83
35,115429516,0.3740,0.8989,0.2349,-19.57,13.17,28.29
36,115434517,0.4019,0.8921,0.2344,-19.21,12.74,29.39
37,115439514,0.4277,0.8901,0.2490,-19.21,12.26,30.30
38,115444517,0.4600,0.8936,0.2490,-19.02,11.83,30.79
39,115450043,0.4961,0.8979,0.2578,-19.51,11.22,30.98
40,115454516,0.5229,0.9028,0.2646,-19.70,11.16,30.73
41,115459515,0.5596,0.9038,0.2651,-20.00,10.61,30.12
42,115464516,0.5850,0.9111,0.2749,-20.37,10.37,29.27
43,115469514,0.6123,0.9214,0.2905,-20.43,9.94,28.23
44,115474516,0.6270,0.9238,0.2920,-20.30,9.70,27.26
45,115479514,0.6367,0.9243,0.2876,-19.70,9.45,26.22
46,115484515,0.6436,0.9214,0.2925,-18.66,9.15,25.18
47,115489516,0.6523,0.9209,0.3003,-17.20,8.90,24.27
48,115494514,0.6636,0.9214,0.2998,-15.37,8.54,23.48
49,115499515,0.6709,0.9199,0.3047,-13.11,8.48,22.99
50,115504514,0.6772,0.9087,0.3057,-10.61,8.11,22.38
51,115509516,0.6870,0.9043,0.3052,-7.74,8.05,22.07
52,115514517,0.6958,0.8936,0.3081,-4.63,7.80,21.59
53,115519517,0.7061,0.8940,0.3047,-1.40,7.80,21.22
54,115524516,0.7192,0.8916,0.2993,1.65,7.68,20.73
55,115529516,0.7295,0.8857,0.2974,4.45,7.56,20.18
56,115534517,0.7397,0.8784,0.2974,7.07,7.32,19.82
57,115539516,0.7529,0.8726,0.3057,9.02,7.20,19.27
58,115544515,0.7578,0.8638,0.3057,10.73,7.26,18.72
59,115549516,0.7646,0.8530,0.3115,11.83,7.20,18.23
60,115554516,0.7710,0.8330,0.3130,12.20,7.20,17.62
61,115559516,0.7744,0.8101,0.3145,11.89,7.20,17.32
62,115564515,0.7690,0.7866,0.3301,10.91,7.32,17.01
63,115569516,0.7637,0.7642,0.3330,9.27,7.32,16.77
64,115574516,0.7622,0.7373,0.3438,6.89,7.32,16.40
65,115579517,0.7559,0.7153,0.3560,4.02,7.38,16.16
66,115584515,0.7583,0.6914,0.3701,0.30,7.50,15.67
67,115589516,0.7588,0.6758,0.3877,-3.96,7.74,15.18
68,115594517,0.7612,0.6621,0.4014,-8.66,7.68,14.76
69,115599514,0.7686,0.6543,0.4043,-13.90,7.80,14.02
70,115604514,0.7729,0.6504,0.4058,-19.63,7.80,13.17
71,115609514,0.7764,0.6543,0.4048,-25.30,7.74,12.32
72,115614516,0.7812,0.6685,0.4048,-31.28,7.68,11.28
73,115619517,0.7856,0.6836,0.3848,-36.95,7.50,10.18
74,115624516,0.7949,0.7070,0.3760,-42.01,7.50,9.02
75,115629518,0.7827,0.7026,0.3726,-46.28,7.38,8.17
76,115634516,0.7788,0.7158,0.3560,-49.70,7.32,7.38
77,115639516,0.7690,0.7446,0.3540,-52.20,7.50,6.71
78,115644517,0.7695,0.7271,0.3877,-54.02,7.87,5.91
79,115649515,0.7754,0.7178,0.3999,-54.82,8.17,5.37
80,115654516,0.7773,0.7231,0.4116,-55.00,8.66,4.94
81,115659515,0.7808,0.7246,0.4233,-54.27,9.39,4.76
82,115664516,0.7812,0.7236,0.4292,-52.68,10.18,4.63
83,115669514,0.7886,0.7202,0.4448,-50.37,10.98,4.45
84,115674516,0.7856,0.7114,0.4473,-47.68,11.83,4.51
85,115679515,0.7871,0.7017,0.4136,-45.06,12.62,4.70
86,115684516,0.7729,0.6963,0.4429,-42.80,13.72,5.06
87,115689516,0.7583,0.6973,0.4604,-41.46,14.63,5.91
88,115694516,0.7480,0.7070,0.3765,-41.16,15.43,6.65
89,115699514,0.7725,0.7432,0.4463,-41.77,16.52,7.32
90,115704539,0.8066,0.7612,0.3857,-41.10,16.71,7.07
91,115709516,0.8091,0.7666,0.3667,-40.49,16.04,6.71
92,115714516,0.8198,0.8584,0.4287,-39.45,16.16,5.98
93,115719514,0.8335,0.8057,0.4619,-37.26,16.04,5.12
94,115724983,0.8149,0.7554,0.4985,-33.96,14.94,4.33
95,115729516,0.8184,0.6831,0.4038,-31.71,14.02,4.21
96,115734516,0.7954,0.6797,0.4834,-28.84,13.54,4.27
97,115739516,0.7793,0.6895,0.5151,-25.98,13.54,4.39
98,115744519,0.7646,0.6885,0.4531,-23.11,13.17,4.82
99,115749670,0.7568,0.6851,0.4331,-20.55,12.68,5.37
100,115754517,0.7446,0.6748,0.4746,-18.05,12.32,5.85
101,115759516,0.7334,0.6611,0.4541,-15.85,12.20,6.40
102,115764515,0.7256,0.6582,0.4004,-13.90,11.59,7.13
103,115769516,0.7031,0.6562,0.4048,-12.13,10.91,7.87
104,115774515,0.6846,0.6592,0.4351,-10.37,10.55,8.60
105,115779517,0.6719,0.6597,0.4082,-8.78,10.06,9.39
106,115784516,0.6562,0.6538,0.3921,-7.20,9.39,10.30
107,115789516,0.6450,0.6489,0.4150,-5.79,9.15,11.16
108,115794515,0.6313,0.6465,0.4272,-4.45,8.90,12.20
109,115799516,0.6304,0.6436,0.4043,-3.48,8.54,13.29
110,115804516,0.6226,0.6323,0.4043,-2.62,7.93,14.33
111,115809517,0.6172,0.6367,0.4106,-2.07,7.80,15.37
112,115814515,0.6167,0.6348,0.4087,-1.77,7.38,16.40
113,115819516,0.6133,0.6338,0.3979,-1.77,7.20,17.44
114,115824516,0.6011,0.6362,0.4014,-1.83,6.89,18.41
115,115829517,0.5981,0.6396,0.3984,-2.07,6.77,19.45
116,115834515,0.5967,0.6426,0.4014,-2.50,6.40,20.24
117,115839516,0.5967,0.6509,0.3906,-2.80,6.16,21.04
118,115844516,0.5991,0.6582,0.4014,-3.35,6.16,21.71
119,115849516,0.5972,0.6660,0.4067,-3.60,5.79,22.44
120,115854517,0.6001,0.6714,0.3955,-3.66,5.73,22.99
121,115859516,0.5938,0.6724,0.3989,-3.78,5.61,23.60
122,115864516,0.5967,0.6743,0.4072,-3.66,5.73,24.02
123,115869516,0.5957,0.6772,0.4121,-3.41,5.67,24.51
124,115874515,0.5967,0.6792,0.4116,-3.23,5.73,24.88
125,115879516,0.5967,0.6855,0.4077,-2.74,5.85,25.12
126,115884516,0.6006,0.6865,0.4106,-2.13,5.91,25.37
127,115889516,0.6006,0.6865,0.4136,-1.52,6.10,25.55
128,115894515,0.6055,0.6831,0.4102,-0.98,6.22,25.85
129,115899516,0.6079,0.6841,0.4146,-0.24,6.40,26.04
130,115904517,0.6104,0.6855,0.4214,0.18,6.71,26.16
131,115909516,0.6157,0.6914,0.4170,0.67,6.95,26.22
132,115914515,0.6250,0.6914,0.4150,0.79,7.07,26.22
133,115919535,0.6270,0.6914,0.4185,0.85,7.38,26.22
134,115924516,0.6333,0.6914,0.4180,0.91,7.32,26.04
135,115929878,0.6377,0.6938,0.4165,0.61,7.62,25.85
136,115934518,0.6392,0.7002,0.4155,0.49,7.62,25.67
137,115939514,0.6382,0.6992,0.4155,0.12,7.93,25.55
138,115944516,0.6455,0.6924,0.4194,-0.18,8.11,25.24
139,115949515,0.6494,0.6958,0.4165,-0.37,8.17,25.00
140,115954517,0.6470,0.6953,0.4209,-0.55,8.41,24.76
141,115959647,0.6514,0.6963,0.4175,-0.85,8.60,24.39
142,115964516,0.6548,0.6992,0.4155,-1.04,8.66,24.02
143,115969514,0.6602,0.6948,0.4136,-1.28,8.54,23.60
144,115974516,0.6626,0.6963,0.4136,-1.46,8.66,23.23
145,115979515,0.6626,0.6948,0.4165,-1.65,8.72,22.68
146,115984516,0.6655,0.6938,0.4165,-1.77,8.72,22.13
147,115989514,0.6665,0.6899,0.4087,-1.95,8.78,21.59
148,115994516,0.6665,0.6890,0.4019,-2.13,8.72,21.10
149,115999514,0.6724,0.6812,0.4058,-2.44,8.48,20.55
150,116004516,0.6782,0.6787,0.4062,-2.74,8.29,20.00
151,116009515,0.6729,0.6714,0.3984,-3.23,8.17,19.45
152,116014516,0.6704,0.6709,0.3945,-3.60,7.74,19.02
153,116019514,0.6719,0.6685,0.3950,-3.84,7.38,18.35
154,116024516,0.6724,0.6626,0.3877,-3.90,7.20,17.99
155,116029516,0.6680,0.6655,0.3838,-3.96,6.65,17.44
156,116034514,0.6621,0.6694,0.3916,-3.72,6.46,16.77
157,116039516,0.6572,0.6650,0.3857,-3.17,6.04,16.46
158,116044515,0.6514,0.6616,0.3862,-2.56,5.91,16.04
159,116049516,0.6470,0.6636,0.3857,-1.77,5.49,15.55
160,116054515,0.6455,0.6597,0.3892,-0.67,5.43,15.37
161,116059516,0.6387,0.6592,0.3857,0.61,5.00,15.00
162,116064516,0.6348,0.6602,0.3843,1.52,4.94,14.63
163,116069516,0.6299,0.6621,0.3813,2.80,4.70,14.45
164,116074515,0.6206,0.6562,0.3804,4.02,4.63,14.21
165,116079516,0.6123,0.6509,0.3833,5.18,4.45,14.15
166,116084516,0.6084,0.6494,0.3838,6.34,4.39,14.09
167,116089519,0.6040,0.6499,0.3867,7.50,4.51,14.02
168,116094515,0.6030,0.6567,0.3838,8.35,4.57,13.90
169,116099632,0.6060,0.6616,0.3833,9.39,4.51,13.84
170,116104518,0.6079,0.6665,0.3799,10.18,4.51,13.78
171,116109515,0.6128,0.6768,0.3877,10.85,4.57,13.54
172,116114518,0.6128,0.6807,0.3853,11.46,4.39,13.41
173,116119516,0.6162,0.6797,0.3765,12.07,4.45,13.05
174,116124516,0.6167,0.6851,0.3745,12.38,4.33,12.80
175,116129515,0.6201,0.6792,0.3823,12.50,4.27,12.50
176,116135014,0.6182,0.6768,0.3833,12.38,4.27,12.26
177,116139516,0.6226,0.6782,0.3901,12.20,4.21,12.01
178,116144515,0.6240,0.6787,0.3848,11.95,3.96,11.77
179,116149516,0.6274,0.6792,0.3857,11.52,3.84,11.52
180,116154516,0.6343,0.6870,0.3843,11.22,3.60,11.28
181,116159516,0.6401,0.6875,0.3887,10.67,3.60,10.91
182,116164516,0.6509,0.6953,0.3936,10.18,3.29,10.49
183,116169516,0.6533,0.6929,0.4009,9.63,3.23,10.00
184,116174516,0.6592,0.7012,0.3945,9.33,2.99,9.63
185,116179516,0.6655,0.7070,0.4053,9.02,2.74,9.02
186,116184516,0.6621,0.7036,0.4033,8.78,2.44,8.48
187,116189516,0.6611,0.7012,0.4092,8.66,2.32,7.93
188,116194520,0.6631,0.6953,0.4160,8.78,2.07,7.32
189,116199517,0.6592,0.6938,0.4258,9.15,1.83,6.59
190,116204516,0.6572,0.6875,0.4268,9.51,1.71,6.28
191,116209516,0.6572,0.6807,0.4414,10.12,1.65,5.79
192,116214516,0.6553,0.6748,0.4419,10.73,1.40,5.37
193,116219516,0.6528,0.6704,0.4502,11.59,1.28,4.82
194,116224516,0.6567,0.6675,0.4507,12.56,1.16,4.45
195,116229516,0.6587,0.6689,0.4546,13.66,1.16,3.96
196,116234517,0.6548,0.6655,0.4634,14.82,0.91,3.41
197,116239514,0.6543,0.6641,0.4639,15.98,0.98,2.99
198,116244516,0.6523,0.6592,0.4644,17.50,0.98,2.56
199,116249516,0.6470,0.6582,0.4736,18.96,0.91,2.01
200,116254515,0.6411,0.6528,0.4712,20.49,0.79,1.46
201,116259516,0.6348,0.6528,0.4727,22.13,0.85,1.10
202,116264516,0.6274,0.6475,0.4785,23.78,0.79,0.73
203,116269516,0.6226,0.6411,0.4844,25.37,0.61,0.49
204,116274516,0.6123,0.6333,0.4814,26.83,0.73,0.12
205,116279524,0.6108,0.6221,0.4878,28.35,0.73,-0.12
206,116284516,0.6011,0.6138,0.4756,29.39,0.85,-0.30
207,116289515,0.5996,0.6108,0.4849,30.55,0.79,-0.37
208,116294516,0.5933,0.6089,0.4854,31.34,0.91,-0.43
209,116299514,0.5840,0.6055,0.4834,32.13,0.91,-0.55
210,116304516,0.5796,0.6064,0.4907,32.93,1.16,-0.49
211,116309515,0.5767,0.5957,0.4893,33.41,1.10,-0.49
212,116314516,0.5684,0.5957,0.4961,34.02,1.22,-0.49
213,116319516,0.5679,0.5957,0.4937,34.57,1.46,-0.55
214,116324514,0.5659,0.5908,0.4917,34.88,1.65,-0.24
215,116329516,0.5610,0.5913,0.4956,35.55,1.71,-0.06
216,116334515,0.5620,0.5938,0.4985,35.91,2.01,0.06
217,116339562,0.5664,0.5947,0.4990,36.34,2.38,0.18
218,116344516,0.5654,0.5942,0.5034,36.77,2.56,0.24
219,116349516,0.5674,0.6006,0.5049,36.95,2.80,0.30
220,116354516,0.5703,0.6035,0.5098,37.32,3.23,0.43
221,116359516,0.5762,0.6069,0.5156,37.56,3.66,0.49
222,116364516,0.5825,0.6143,0.5146,37.62,3.96,0.49
223,116369516,0.5903,0.6196,0.5186,37.74,4.27,0.55
224,116374516,0.5972,0.6274,0.5220,37.80,4.70,0.30
225,116379516,0.6079,0.6421,0.5190,37.87,5.06,0.24
226,116384516,0.6177,0.6475,0.5293,37.93,5.67,0.06
227,116389516,0.6279,0.6572,0.5376,37.93,5.85,-0.37
228,116394517,0.6367,0.6709,0.5283,37.80,6.28,-0.85
229,116399516,0.6465,0.6865,0.5361,37.68,6.89,-1.28
230,116404516,0.6582,0.7007,0.5371,37.62,7.07,-1.83
231,116409516,0.7290,0.7207,0.5498,37.68,7.62,-2.44
232,116414516,0.6333,0.7578,0.5410,37.56,8.23,-3.41
233,116419516,0.6494,0.7432,0.5503,37.44,8.66,-4.63
234,116424516,0.6899,0.7397,0.5464,36.71,8.96,-5.49
235,116429516,0.7021,0.7461,0.5522,35.85,9.27,-6.46
236,116434516,0.7168,0.7700,0.5415,34.70,9.51,-7.56
237,116439516,0.7163,0.7900,0.5405,33.72,9.82,-8.90
238,116444516,0.7236,0.8062,0.5518,32.62,9.88,-10.37
239,116449516,0.7559,0.8169,0.5576,31.59,10.00,-11.71
240,116454515,0.7456,0.8281,0.5576,30.12,10.24,-13.05
241,116459516,0.7227,0.8408,0.5474,28.78,10.24,-14.39
242,116464516,0.7197,0.8252,0.5405,27.44,10.37,-15.85
243,116469516,0.7383,0.8081,0.5479,25.79,10.49,-17.07
244,116474516,0.7339,0.8125,0.5547,24.15,10.85,-18.17
245,116479516,0.7207,0.8174,0.5464,22.20,10.67,-19.27
246,116484516,0.7163,0.8198,0.5288,20.18,10.67,-20.24
247,116489516,0.7090,0.8213,0.5308,18.23,10.79,-21.22
248,116494516,0.6997,0.8120,0.5254,15.98,10.91,-21.95
249,116499516,0.6855,0.7993,0.5181,13.90,11.10,-22.56
250,116504516,0.6699,0.7939,0.5112,11.83,10.91,-23.05
251,116509516,0.6577,0.7886,0.5127,9.63,10.98,-23.29
252,116514517,0.6450,0.7764,0.5044,7.62,11.10,-23.60
253,116519514,0.6387,0.7729,0.4985,5.67,11.22,-23.60
254,116524584,0.6235,0.7661,0.4844,3.78,11.10,-23.41
255,116529516,0.6172,0.7573,0.4844,1.95,11.16,-23.17
256,116534515,0.6108,0.7505,0.4751,0.49,11.34,-22.68
257,116539516,0.6006,0.7456,0.4707,-0.85,11.10,-22.26
258,116544516,0.5996,0.7437,0.4692,-1.83,11.34,-21.77
259,116549516,0.5967,0.7480,0.4717,-2.50,11.28,-20.98
260,116554515,0.5933,0.7505,0.4673,-2.87,11.28,-20.49
261,116559516,0.5967,0.7534,0.4648,-2.87,11.22,-19.63
262,116564517,0.5874,0.7534,0.4668,-2.56,11.40,-18.84
263,116569516,0.5962,0.7583,0.4634,-2.13,11.22,-17.99
264,116574516,0.5947,0.7598,0.4600,-1.22,11.28,-17.20
265,116579516,0.5967,0.7627,0.4619,-0.12,11.34,-16.34
266,116584516,0.5928,0.7607,0.4619,1.10,11.46,-15.55
267,116589516,0.5923,0.7627,0.4624,2.32,11.40,-14.57
268,116594516,0.5933,0.7661,0.4551,3.78,11.59,-13.66
269,116599516,0.5942,0.7671,0.4585,5.18,11.52,-12.74
270,116604516,0.5957,0.7676,0.4541,6.71,11.52,-11.71
271,116609516,0.5947,0.7764,0.4517,8.35,11.52,-10.73
272,116614516,0.5928,0.7749,0.4629,9.88,11.59,-9.88
273,116619517,0.5962,0.7744,0.4526,11.34,11.71,-8.90
274,116624515,0.5967,0.7764,0.4570,12.62,11.83,-7.93
275,116629517,0.5977,0.7793,0.4565,13.90,11.77,-7.01
276,116634516,0.5947,0.7812,0.4502,14.94,11.83,-6.22
277,116639515,0.5947,0.7856,0.4551,15.79,11.95,-5.37
278,116644516,0.5967,0.7852,0.4595,16.40,11.95,-4.63
279,116649515,0.5913,0.7842,0.4507,16.95,12.01,-3.96
280,116654516,0.5884,0.7856,0.4570,17.20,12.13,-3.23
281,116659515,0.5928,0.7856,0.4614,17.38,12.07,-2.38
282,116664516,0.5962,0.7861,0.4629,17.32,12.13,-1.83
283,116669515,0.5942,0.7861,0.4565,16.95,12.13,-1.28
284,116674517,0.5981,0.7876,0.4551,16.59,12.07,-0.67
285,116679515,0.5986,0.7876,0.4634,16.04,12.07,-0.24
286,116684516,0.5986,0.7915,0.4609,15.55,12.07,0.30
287,116689514,0.6045,0.7896,0.4653,14.76,11.95,0.67
288,116694515,0.6035,0.7866,0.4619,13.96,12.01,1.16
289,116699516,0.6050,0.7847,0.4634,12.99,11.89,1.46
290,116704516,0.6030,0.7832,0.4614,12.07,11.89,1.89
291,116709515,0.6025,0.7852,0.4663,11.16,11.77,2.26
292,116714516,0.6089,0.7817,0.4673,10.30,11.65,2.56
293,116719516,0.6074,0.7822,0.4658,9.39,11.59,2.93
294,116724516,0.6064,0.7847,0.4688,8.72,11.46,3.23
295,116729515,0.6074,0.7852,0.4707,7.99,11.52,3.60
296,116734516,0.6104,0.7900,0.4688,7.56,11.34,3.78
297,116739515,0.6128,0.7930,0.4751,7.26,11.28,4.02
298,116744516,0.6108,0.7939,0.4771,7.01,11.34,4.39
299,116749514,0.6138,0.7988,0.4736,6.89,11.10,4.57
300,116754518,0.6113,0.7959,0.4766,6.83,10.98,4.76
301,116759517,0.6118,0.7988,0.4736,6.65,10.91,4.82
302,116764516,0.6147,0.8022,0.4727,6.65,10.85,5.18
303,116769516,0.6118,0.7964,0.4717,6.65,10.73,5.43
304,116774516,0.6128,0.7925,0.4634,6.65,10.43,5.61
305,116779516,0.6094,0.7954,0.4673,6.52,10.30,5.79
306,116784516,0.6113,0.7939,0.4644,6.40,10.00,5.98
307,116789516,0.6079,0.7983,0.4619,6.40,9.76,6.22
308,116794516,0.6035,0.7944,0.4648,6.28,9.57,6.46
309,116799516,0.5933,0.7949,0.4580,6.16,9.21,6.65
310,116804516,0.5947,0.7930,0.4561,6.16,9.15,6.83
311,116809516,0.5923,0.7881,0.4546,6.10,8.78,7.32
312,116814516,0.5918,0.7881,0.4507,6.04,8.48,7.56
313,116819516,0.5864,0.7930,0.4453,5.91,8.29,7.80
314,116824517,0.5825,0.7866,0.4419,6.04,8.05,8.17
315,116829516,0.5781,0.7817,0.4463,5.98,7.68,8.54
316,116834519,0.5757,0.7793,0.4429,5.91,7.44,8.96
317,116839592,0.5718,0.7749,0.4390,5.73,6.95,9.33
318,116844516,0.5718,0.7769,0.4365,5.49,6.71,9.57
319,116849516,0.5679,0.7773,0.4395,5.18,6.28,10.06
320,116854516,0.5679,0.7725,0.4404,4.70,6.22,10.43
321,116859516,0.5645,0.7720,0.4336,4.27,5.91,10.73
322,116864515,0.5630,0.7695,0.4326,3.84,5.49,11.22
323,116869516,0.5605,0.7705,0.4287,3.54,4.94,11.52
324,116874516,0.5562,0.7759,0.4307,3.05,4.76,11.59
325,116879516,0.5591,0.7759,0.4253,2.80,4.39,12.01
326,116884516,0.5576,0.7729,0.4302,2.50,4.02,12.20
327,116889516,0.5562,0.7749,0.4268,2.38,3.72,12.44
328,116894516,0.5562,0.7744,0.4238,2.26,3.41,12.62
329,116899516,0.5566,0.7754,0.4243,2.26,3.17,12.80
330,116904516,0.5581,0.7729,0.4292,2.20,2.74,12.99
331,116909516,0.5557,0.7720,0.4282,2.32,2.38,13.17
332,116914517,0.5557,0.7729,0.4326,2.50,2.13,13.17
333,116919516,0.5586,0.7778,0.4312,2.50,1.77,13.29
334,116924516,0.5659,0.7720,0.4355,2.50,1.46,13.41
335,116929523,0.5684,0.7769,0.4268,2.44,1.22,13.48
336,116934516,0.5708,0.7744,0.4282,2.32,0.85,13.48
337,116939516,0.5737,0.7812,0.4277,2.13,0.61,13.35
338,116944516,0.5806,0.7773,0.4229,1.95,0.18,13.35
339,116949514,0.5762,0.7773,0.4194,1.65,-0.12,13.29
340,116954516,0.5806,0.7852,0.4233,1.28,-0.37,13.11
341,116959515,0.5820,0.7827,0.4131,0.79,-0.73,13.05
342,116964516,0.5854,0.7812,0.4165,0.37,-1.04,12.80
343,116969516,0.5864,0.7822,0.4199,-0.24,-1.46,12.62
344,116974516,0.5869,0.7847,0.4150,-0.79,-1.89,12.44
345,116979515,0.5938,0.7827,0.4146,-1.22,-2.26,12.20
346,116984516,0.5923,0.7842,0.4136,-1.77,-2.62,12.01
347,116989515,0.5928,0.7842,0.4131,-2.32,-3.05,11.71
348,116994516,0.5967,0.7852,0.4028,-2.68,-3.35,11.46
349,116999515,0.5957,0.7842,0.4033,-3.11,-3.84,11.16
350,117004516,0.5947,0.7817,0.4053,-3.41,-4.21,10.98
351,117009515,0.5947,0.7773,0.4009,-3.41,-4.57,10.61
352,117014516,0.5972,0.7773,0.4014,-3.54,-4.94,10.30
353,117019515,0.5977,0.7808,0.4038,-3.54,-5.12,10.12
354,117024516,0.5986,0.7769,0.3945,-3.29,-5.55,10.00
355,117029516,0.5957,0.7729,0.3984,-2.93,-5.73,9.76
356,117034516,0.5977,0.7710,0.3989,-2.62,-5.98,9.70
357,117039515,0.5942,0.7715,0.4023,-2.13,-6.22,9.51
358,117044516,0.5962,0.7651,0.4023,-1.77,-6.34,9.33
359,117049515,0.5942,0.7573,0.3970,-1.28,-6.52,9.27
360,117054517,0.5967,0.7500,0.3955,-1.04,-6.59,9.09
361,117059516,0.5957,0.7495,0.3921,-0.85,-6.77,9.09
362,117064515,0.6011,0.7451,0.3994,-0.67,-7.07,8.96
363,117069517,0.6016,0.7427,0.3945,-0.67,-7.13,8.84
364,117074516,0.6055,0.7393,0.3916,-0.85,-7.32,8.72
365,117079516,0.6123,0.7349,0.3921,-0.98,-7.44,8.66
366,117084516,0.6157,0.7324,0.3896,-1.22,-7.74,8.48
367,117089516,0.6147,0.7261,0.3911,-1.34,-7.80,8.23
368,117094517,0.6177,0.7241,0.3896,-1.77,-8.11,8.17
369,117099519,0.6187,0.7212,0.3872,-2.13,-8.17,8.05
370,117104518,0.6216,0.7188,0.3945,-2.26,-8.54,7.93
371,117109523,0.6211,0.7158,0.3877,-2.44,-8.66,7.74
372,117114517,0.6196,0.7114,0.3916,-2.50,-8.84,7.62
373,117119621,0.6206,0.7148,0.3906,-2.68,-8.84,7.62
374,117124516,0.6191,0.7114,0.3867,-2.38,-9.09,7.56
375,117129515,0.6162,0.7095,0.3838,-2.01,-9.15,7.44
376,117134516,0.6206,0.7080,0.3916,-1.65,-9.27,7.56
377,117139518,0.6177,0.7061,0.3926,-1.10,-9.27,7.38
378,117144515,0.6157,0.7061,0.3901,-0.30,-9.33,7.50
379,117149516,0.6147,0.7065,0.3926,0.43,-9.39,7.44
380,117154515,0.6152,0.7070,0.3921,1.34,-9.33,7.44
381,117159518,0.6172,0.7061,0.3882,2.26,-9.27,7.50
382,117164515,0.6128,0.7085,0.3872,3.35,-9.27,7.56
383,117169516,0.6147,0.7056,0.3882,4.27,-9.15,7.62
384,117174515,0.6157,0.7061,0.3828,5.18,-9.21,7.68
385,117179516,0.6064,0.7080,0.3877,6.10,-8.96,7.62
386,117184515,0.6055,0.7080,0.3882,7.13,-8.84,7.87
387,117189515,0.6045,0.7104,0.3921,8.05,-8.60,7.99
388,117194520,0.6035,0.7139,0.3877,8.96,-8.41,7.93
389,117199516,0.5986,0.7178,0.3828,9.63,-8.05,8.05
390,117204516,0.5972,0.7217,0.3862,10.55,-7.62,8.11
391,117209517,0.5962,0.7280,0.3833,11.28,-7.20,8.11
392,117214516,0.5967,0.7314,0.3838,11.89,-6.83,7.93
393,117219516,0.5977,0.7393,0.3931,12.62,-6.22,7.93
394,117224516,0.5996,0.7451,0.3862,13.17,-5.79,7.80
395,117229515,0.6006,0.7524,0.3975,13.66,-5.37,7.62
396,117234516,0.5986,0.7583,0.3979,14.15,-4.76,7.50
397,117239517,0.5996,0.7646,0.4043,14.45,-4.21,7.20
398,117244516,0.6045,0.7764,0.3989,14.70,-3.54,6.83
399,117249515,0.6108,0.7817,0.4038,14.82,-2.99,6.46
400,117254516,0.6074,0.7930,0.4048,14.70,-2.32,5.98
401,117259515,0.6147,0.7993,0.4048,14.33,-1.83,5.49
402,117264517,0.6118,0.8115,0.4023,13.90,-1.22,4.88
403,117269516,0.6167,0.8169,0.4019,13.29,-0.79,4.15
404,117274515,0.6143,0.8198,0.3975,12.26,-0.37,3.41
405,117279516,0.6147,0.8257,0.3877,11.10,0.18,2.74
406,117284515,0.6143,0.8247,0.3867,9.70,0.55,1.95
407,117289517,0.6055,0.8247,0.3750,8.23,1.10,1.34
408,117294559,0.6011,0.8237,0.3794,6.59,1.65,0.85
409,117299514,0.5923,0.8232,0.3760,5.00,2.13,0.30
410,117304518,0.5771,0.8154,0.3701,3.29,2.74,0.06
411,117309517,0.5747,0.8091,0.3657,1.71,3.17,-0.12
412,117314516,0.5640,0.8032,0.3652,0.24,3.78,-0.18
413,117319517,0.5542,0.8027,0.3662,-1.22,4.45,-0.06
414,117324516,0.5430,0.8032,0.3579,-2.44,5.12,0.06
415,117329518,0.5381,0.8042,0.3608,-3.48,5.49,0.43
416,117334515,0.5381,0.8071,0.3560,-4.09,6.22,0.67
417,117339516,0.5391,0.8115,0.3535,-4.57,7.01,1.10
418,117344515,0.5430,0.8145,0.3608,-4.76,7.62,1.52
419,117349518,0.5488,0.8149,0.3667,-4.57,8.05,1.95
420,117354515,0.5537,0.8169,0.3638,-4.09,8.66,2.38
421,117359514,0.5596,0.8228,0.3677,-3.05,9.21,2.93
422,117364518,0.5664,0.8252,0.3618,-2.01,9.76,3.41
423,117369516,0.5771,0.8311,0.3652,-0.37,10.43,3.96
424,117374515,0.5771,0.8403,0.3613,1.52,10.91,4.45
425,117379516,0.5776,0.8486,0.3682,3.90,11.40,4.94
426,117384515,0.5840,0.8496,0.3589,6.40,12.01,5.43
427,117389517,0.5801,0.8477,0.3687,9.09,12.68,6.04
428,117394515,0.5830,0.8462,0.3667,11.95,13.41,6.52
429,117399531,0.5796,0.8452,0.3657,15.00,14.02,7.32
430,117404515,0.5767,0.8472,0.3643,18.05,14.82,8.05
431,117409518,0.5767,0.8506,0.3594,21.28,15.43,8.72
432,117414515,0.5825,0.8545,0.3574,24.27,16.16,9.45
433,117419516,0.5889,0.8608,0.3628,27.38,16.77,10.12
434,117424515,0.6030,0.8711,0.3608,30.12,17.56,10.67
435,117429516,0.6113,0.8687,0.3564,32.80,18.23,11.16
436,117434515,0.6167,0.8706,0.3569,35.24,18.96,11.65
437,117439518,0.6265,0.8726,0.3530,37.38,19.57,12.13
438,117444515,0.6367,0.8735,0.3442,39.21,20.30,12.44
439,117449516,0.6426,0.8755,0.3389,40.73,20.85,12.93
440,117454515,0.6523,0.8730,0.3359,42.26,21.52,13.17
441,117459516,0.6582,0.8745,0.3276,43.17,22.01,13.48
442,117464515,0.6646,0.8755,0.3218,43.90,22.56,13.84
443,117469518,0.6665,0.8745,0.3081,44.51,23.05,14.21
444,117474515,0.6680,0.8721,0.3027,45.06,23.60,14.70
445,117479516,0.6660,0.8696,0.2998,45.61,24.33,15.18
446,117484515,0.6606,0.8687,0.2949,46.10,25.06,15.79
447,117489516,0.6514,0.8701,0.2979,46.71,25.98,16.46
448,117494515,0.6523,0.8696,0.2979,47.26,26.77,17.01
449,117499518,0.6533,0.8696,0.2896,47.74,27.68,17.80
450,117504515,0.6655,0.8750,0.2788,48.41,28.72,18.41
451,117509516,0.6768,0.8828,0.2729,48.90,29.45,19.02
452,117514515,0.6821,0.8784,0.2715,49.33,30.49,19.70
453,117519516,0.6870,0.8711,0.2598,49.88,31.34,20.37
454,117524515,0.6899,0.8589,0.2568,50.18,32.13,21.16
455,117529518,0.6909,0.8438,0.2456,50.43,33.05,21.95
456,117534514,0.6934,0.8359,0.2480,50.61,33.84,22.87
457,117539518,0.6846,0.8242,0.2417,50.73,34.70,23.72
458,117544515,0.6948,0.8135,0.2339,51.16,35.49,24.70
459,117549514,0.6997,0.8105,0.2271,51.40,36.28,25.79
460,117554516,0.6953,0.8047,0.2163,51.77,36.83,26.77
461,117559516,0.7051,0.8110,0.2036,52.13,37.38,27.87
462,117564515,0.7144,0.8159,0.1855,52.62,37.93,28.84
463,117569518,0.7139,0.8242,0.1763,53.23,38.48,29.88
464,117574515,0.7114,0.8257,0.1748,53.90,39.09,30.98
465,117579516,0.7124,0.8237,0.1699,54.57,39.70,32.01
466,117584515,0.7104,0.8135,0.1719,55.43,40.49,33.17
467,117589516,0.7163,0.8101,0.1763,56.52,41.28,34.45
468,117594515,0.7222,0.8140,0.1680,57.80,42.13,35.73
469,117599516,0.7271,0.8184,0.1675,59.21,43.05,37.07
470,117604515,0.7295,0.8247,0.1602,60.79,44.02,38.35
471,117609518,0.7397,0.8320,0.1519,62.74,45.06,39.57
472,117614515,0.7495,0.8330,0.1431,64.76,46.04,40.79
473,117619516,0.7529,0.8311,0.1387,66.95,47.01,41.95
474,117624515,0.7559,0.8325,0.1313,69.39,48.11,43.11
475,117629516,0.7520,0.8311,0.1255,71.95,49.02,44.33
476,117634515,0.7451,0.8291,0.1216,74.45,50.30,45.30
477,117639516,0.7656,0.8042,0.0825,77.07,51.28,46.59
478,117644515,0.8945,0.7808,-0.2100,80.43,49.94,48.11
479,117649518,1.0103,0.6816,-0.4155,83.41,42.87,50.55
480,117654515,1.0020,0.6235,0.0225,85.98,35.73,53.78
481,117659518,0.9180,0.6270,0.2324,89.15,32.93,57.38
482,117664515,0.8232,0.7109,0.2681,93.90,32.68,60.67
483,117669514,0.7529,0.8110,0.2236,99.27,33.84,62.68
484,117674517,0.7100,0.8657,0.1729,104.57,35.55,63.72
485,117679516,0.6963,0.8530,0.1123,109.09,36.65,64.21
486,117684516,0.7056,0.8184,0.0786,112.74,37.20,64.45
487,117689515,0.6934,0.7275,0.1445,115.49,38.48,65.12
488,117694516,0.6816,0.7642,0.0703,117.56,39.94,66.52
489,117699516,0.6328,0.8062,0.0430,118.90,40.73,67.50
490,117704516,0.6172,0.7876,0.0542,119.70,40.91,68.29
491,117709517,0.6099,0.7832,0.0757,119.51,41.40,69.27
492,117714516,0.6118,0.8057,0.1162,118.35,42.01,70.00
493,117719516,0.6201,0.8232,0.1133,116.40,42.68,70.37
494,117724516,0.6489,0.8164,0.1016,113.35,42.93,70.37
495,117729515,0.6743,0.8159,0.1304,109.51,42.93,70.12
496,117734516,0.6812,0.9229,0.2144,104.88,43.41,68.96
497,117739517,0.7065,0.9341,0.1899,98.54,44.33,65.73
498,117744516,0.7241,0.8408,0.1416,90.37,44.51,63.41
499,117749515,0.6499,0.8423,0.0659,82.01,43.11,61.65
500,117754516,0.6631,0.7480,0.0918,73.96,40.73,61.16
501,117759517,0.7222,0.7319,0.1494,66.89,38.48,62.07
502,117764516,0.8018,0.7354,0.1968,61.10,37.13,63.48
503,117769514,0.8574,0.7607,0.1992,56.89,36.52,65.24
504,117774518,0.8818,0.8169,0.1836,54.33,36.52,66.83
505,117779516,0.8813,0.8184,0.1670,53.17,37.07,68.11
506,117784515,0.8340,0.7637,0.1558,53.35,37.68,69.88
507,117789516,0.8267,0.7793,0.1548,55.30,38.84,71.83
508,117794515,0.8784,0.8442,0.1675,59.27,40.00,73.84
509,117799517,0.9634,0.8057,0.1050,66.59,41.22,76.16
510,117804515,0.9058,0.7397,0.0767,76.65,41.83,79.39
511,117809518,0.8916,0.7886,0.1152,87.74,43.11,82.38
512,117814515,0.8804,0.8008,0.0669,100.18,44.39,84.27
513,117819516,0.8667,0.7666,0.0225,113.41,45.61,86.34
514,117824515,0.8564,0.7480,0.0371,126.04,46.89,87.20
515,117829516,0.8672,0.7227,0.0474,140.06,48.54,88.05
516,117834515,0.9521,0.7798,-0.0234,152.99,50.06,87.44
517,117839518,1.0078,0.7676,-0.0269,164.33,51.52,89.09
518,117844515,0.9468,0.7241,-0.0093,174.33,53.54,89.51
519,117849516,0.9897,0.7139,-0.0376,183.35,55.43,89.88
520,117854515,0.9717,0.6895,-0.0703,191.28,57.01,89.76
521,117859518,0.9380,0.6558,-0.0605,198.17,58.60,89.21
522,117864515,0.9126,0.6196,-0.0244,203.35,60.30,88.66
523,117869516,0.9102,0.5854,-0.0142,207.26,62.01,87.07
524,117874515,0.9258,0.5581,-0.0186,209.57,63.96,86.46
525,117879516,0.9512,0.5312,0.0132,210.43,65.55,86.59
526,117884515,1.0347,0.5391,0.0117,209.82,67.20,85.37
527,117889516,0.9653,0.5625,0.0166,208.54,68.66,83.54
528,117894515,0.9365,0.5605,0.0073,206.65,70.12,82.13
529,117899516,0.9233,0.5527,-0.0078,204.39,71.46,80.73
530,117904515,0.9233,0.5288,-0.0073,201.83,72.99,79.70
531,117909518,0.9370,0.5283,-0.0015,199.33,74.57,78.96
532,117914515,0.9297,0.5361,-0.0225,196.59,75.98,78.35
533,117919516,0.9229,0.5366,-0.0386,193.35,77.38,77.68
534,117924515,0.9102,0.5337,-0.0283,189.88,78.78,77.13
535,117929518,0.8940,0.5166,-0.0200,186.16,80.30,76.34
536,117934515,0.8931,0.5229,-0.0337,182.38,81.77,75.73
537,117939518,0.9092,0.5117,-0.0361,178.29,83.35,75.12
538,117944515,0.9180,0.5010,-0.0361,174.09,85.61,74.57
539,117949516,0.9106,0.5000,-0.0469,169.45,85.98,73.84
540,117954515,0.8901,0.4956,-0.0688,164.94,85.79,73.11
541,117959514,0.8540,0.4922,-0.0649,160.06,85.73,72.26
542,117964514,0.7930,0.4961,-0.0791,155.30,86.22,71.22
543,117969514,0.7354,0.5469,-0.0620,150.67,87.32,69.82
544,117974514,0.6392,0.5698,-0.0601,146.10,88.23,68.23
545,117979591,0.5347,0.5376,-0.0449,142.26,88.35,67.07
546,117984518,0.4912,0.5259,-0.0928,139.27,88.48,66.59
547,117989516,0.4785,0.5322,-0.0859,137.20,88.35,66.28
548,117994515,0.5327,0.4800,-0.1172,135.79,87.13,66.22
549,117999514,0.5781,0.4546,-0.1377,135.37,86.04,66.46
550,118004516,0.6118,0.4546,-0.1528,135.67,85.49,66.52
551,118009669,0.6426,0.4229,-0.1523,136.52,85.49,66.34
552,118014516,0.6885,0.4014,-0.1084,137.56,85.61,66.40
553,118019514,0.7363,0.4170,-0.0474,138.29,85.55,65.85
554,118024517,0.7827,0.4365,0.0278,139.15,85.61,65.30
555,118029516,0.8276,0.4487,0.0483,140.49,85.61,64.76
556,118034517,0.8809,0.4370,0.0410,142.13,85.55,64.57
557,118039516,0.9727,0.4570,0.0884,145.24,85.61,64.51
558,118044515,0.9902,0.4277,0.1846,149.02,85.67,64.88
559,118049516,1.0117,0.3960,0.2368,152.87,85.61,65.24
560,118054515,1.0576,0.3901,0.3027,156.83,85.67,65.49
561,118059516,1.0591,0.3794,0.2837,161.10,85.67,65.49
562,118064515,0.9814,0.3682,0.2480,165.24,85.55,65.37
563,118069518,0.8779,0.3311,0.2280,169.02,85.55,65.24
564,118074515,0.8135,0.3110,0.1440,171.52,85.49,65.00
565,118079514,0.8091,0.3633,0.1206,174.21,85.43,64.51
566,118084517,0.8086,0.2837,0.2588,177.99,85.61,64.33
567,118089515,0.7734,0.3154,0.1924,182.13,85.85,64.15
568,118094518,0.7295,0.3325,0.0952,185.43,85.67,63.54
569,118099515,0.7476,0.3647,-0.0098,189.94,85.37,62.68
570,118104518,0.7856,0.3892,0.1660,196.65,85.30,62.93
571,118109515,0.7441,0.4199,0.1978,203.60,85.61,63.17
572,118114519,0.7104,0.4165,0.0518,209.76,85.73,62.56
573,118119516,0.7051,0.4414,0.0034,215.24,85.24,61.28
574,118124515,1.0093,0.3975,0.2095,220.18,85.55,59.76
575,118129518,1.0645,0.4761,-0.0293,226.22,85.61,59.09
576,118134515,1.0059,0.5137,-0.0728,231.34,84.33,58.17
577,118139518,0.9902,0.5361,-0.0127,235.12,82.44,57.01
578,118144515,0.9902,0.5327,-0.0522,237.93,80.61,55.49
579,118149656,0.9780,0.5083,-0.0962,239.63,78.54,53.48
580,118154516,0.9287,0.5024,-0.0400,240.30,76.65,51.28
581,118159515,0.8647,0.5244,-0.0132,239.82,74.94,49.09
582,118164514,0.8604,0.5708,-0.0728,238.35,72.50,46.65
583,118169518,0.8682,0.5996,-0.0645,235.79,69.57,44.33
584,118174515,0.8594,0.5981,0.0356,232.13,67.20,42.13
585,118179514,0.8545,0.5659,0.0405,227.74,65.43,40.37
586,118184518,0.8335,0.4912,-0.0396,222.32,63.17,39.21
587,118189517,0.8252,0.4502,-0.0283,216.65,60.85,38.72
588,118194517,0.8018,0.4419,0.0146,210.79,59.27,38.84
589,118199516,0.7974,0.4565,-0.0029,204.88,57.68,39.09
590,118204515,0.7412,0.5000,-0.0830,199.70,55.98,39.15
591,118209517,0.7271,0.5752,-0.0640,195.24,54.09,38.48
592,118214538,0.5913,0.6440,-0.0640,190.91,52.07,36.71
593,118219518,0.5356,0.6221,-0.0146,186.46,49.33,33.48
594,118224515,0.5942,0.5581,0.0303,181.71,47.13,30.85
595,118229516,0.7124,0.5151,0.0444,176.52,45.61,29.15
596,118234515,0.8271,0.4834,0.0249,171.28,44.27,28.23
597,118239516,0.9126,0.4541,-0.0312,165.67,42.99,27.99
598,118244515,0.9536,0.4131,-0.0596,160.43,42.01,27.99
599,118249516,0.9673,0.3975,-0.0571,155.73,41.71,28.60
600,118254515,0.9644,0.4048,-0.0640,152.20,42.01,29.27
601,118259516,0.9551,0.4375,-0.1094,149.94,42.50,30.06
602,118264515,0.9448,0.4346,-0.0830,149.51,43.54,30.73
603,118269516,0.9360,0.4268,-0.0825,150.49,45.06,31.59
604,118274515,0.9409,0.4351,-0.1274,153.11,46.89,32.68
605,118279514,0.9434,0.4438,-0.1514,156.52,48.48,33.48
606,118284514,0.9492,0.4429,-0.1782,163.60,50.98,34.63
607,118289518,0.9468,0.4419,-0.1953,171.59,52.93,35.67
608,118294515,0.9263,0.4399,-0.2144,181.04,55.06,36.83
609,118299516,0.9043,0.4453,-0.2202,192.20,57.44,38.05
610,118304515,0.8745,0.4575,-0.2222,204.39,60.06,39.21
611,118309516,0.8516,0.4678,-0.2319,217.38,62.62,40.06
612,118314671,0.8398,0.4697,-0.2363,230.55,65.30,40.55
613,118319518,0.8223,0.4941,-0.2373,243.54,67.93,40.49
614,118324515,0.8203,0.4917,-0.2251,255.24,70.61,39.76
615,118329516,0.8169,0.4829,-0.2485,265.12,73.11,38.60
616,118334515,0.8159,0.4775,-0.2612,272.99,75.30,36.89
617,118339518,0.8237,0.4717,-0.2515,278.54,77.44,34.76
618,118344515,0.8140,0.4551,-0.2544,281.22,79.02,32.87
619,118349516,0.8125,0.4434,-0.2339,282.07,81.59,29.70
620,118354518,0.8052,0.4316,-0.2266,279.70,84.21,26.40
621,118359516,0.7935,0.4248,-0.2324,274.82,83.96,22.74
622,118364517,0.7764,0.4160,-0.2246,267.80,85.73,18.78
623,118369684,0.7637,0.3955,-0.2271,259.15,85.91,14.45
624,118374516,0.7534,0.3828,-0.2246,251.22,88.23,11.04
625,118379515,0.7456,0.3657,-0.2134,240.61,89.51,6.59
626,118384516,0.7231,0.3457,-0.2100,229.39,90.73,2.07
627,118389519,0.7183,0.3296,-0.2095,215.98,91.40,-3.35
628,118394515,0.7031,0.3252,-0.2051,207.44,91.71,-6.95
629,118399516,0.6792,0.3198,-0.1929,197.44,92.13,-11.59
630,118404515,0.6743,0.3164,-0.1738,188.29,92.56,-16.04
631,118409516,0.6504,0.3115,-0.1846,180.12,92.56,-20.49
632,118414515,0.6260,0.3188,-0.1587,173.72,92.32,-25.00
633,118419514,0.6196,0.3242,-0.1240,167.87,92.20,-30.24
634,118424517,0.6064,0.3228,-0.1113,165.24,91.83,-33.66
635,118429515,0.5835,0.3242,-0.0874,163.23,91.59,-37.93
636,118434515,0.5688,0.3320,-0.0776,162.87,91.52,-42.01
637,118439518,0.5410,0.3413,-0.0669,163.41,91.28,-46.16
638,118444525,0.5293,0.3491,-0.0576,164.70,90.85,-50.37
639,118449518,0.5259,0.3550,-0.0459,166.22,90.55,-54.45
640,118454516,0.5190,0.3599,-0.0469,167.38,90.06,-58.66
641,118459516,0.5181,0.4097,-0.0459,168.11,89.02,-63.05
642,118464515,0.4863,0.3735,0.0259,167.99,87.80,-67.13
643,118469514,0.4834,0.3472,0.0122,167.38,87.01,-70.85
644,118474514,0.4800,0.3438,-0.0151,166.40,87.07,-74.45
645,118479518,0.4653,0.3604,0.0049,165.49,85.43,-77.80
646,118484515,0.4526,0.3887,0.0054,164.09,85.37,-81.10
647,118489514,0.4326,0.4053,-0.0034,162.56,85.43,-85.06
648,118494516,0.4170,0.4248,-0.0054,161.52,85.18,-87.56
649,118499516,0.3965,0.4263,0.0054,160.00,83.05,-90.79
650,118504516,0.3784,0.4316,0.0181,158.41,82.38,-93.60
651,118509515,0.3750,0.4351,0.0127,157.07,81.10,-96.52
652,118514517,0.3691,0.4326,0.0054,155.67,80.06,-99.27
653,118519614,0.3550,0.4438,-0.0073,154.51,78.84,-102.07
654,118524516,0.2378,0.4170,-0.0986,153.35,77.80,-103.84
655,118529515,0.2578,0.4551,-0.0342,150.85,76.65,-105.73
656,118534516,0.3315,0.4795,-0.0176,148.41,75.91,-107.80
657,118539516,0.4072,0.4961,-0.0122,146.40,75.24,-109.94
658,118544516,0.4385,0.5361,-0.0024,144.94,74.27,-112.26
659,118549515,0.4106,0.5488,0.0054,144.33,73.48,-114.70
660,118554516,0.3594,0.5854,0.0293,144.63,72.68,-117.07
661,118559516,0.3027,0.5850,0.0200,146.46,71.71,-119.76
662,118564517,0.2896,0.5928,-0.0127,149.33,70.55,-122.20
663,118569514,0.2939,0.6025,0.0571,152.80,69.70,-124.39
664,118574514,0.3008,0.6128,0.1001,156.71,69.09,-126.52
665,118579515,0.3057,0.6245,0.0659,160.43,68.48,-128.41
666,118584516,0.2979,0.6235,0.0444,164.76,67.68,-130.06
667,118589516,0.2842,0.6143,0.0898,168.78,66.59,-131.65
668,118594515,0.2720,0.6230,0.1064,172.80,65.73,-133.05
669,118599516,0.2773,0.6401,0.0864,177.13,64.39,-134.33
670,118604515,0.2681,0.6548,0.0820,181.40,62.99,-135.55
671,118609516,0.2651,0.6831,0.0908,185.79,61.22,-136.46
672,118614516,0.2573,0.6943,0.0791,190.06,58.78,-137.01
673,118619517,0.2505,0.7080,0.0610,194.15,55.73,-137.26
674,118624515,0.2285,0.7290,0.0708,197.99,52.32,-137.01
675,118629518,0.2002,0.7510,0.0908,201.22,48.78,-136.83
676,118634516,0.1753,0.7803,0.0889,204.02,44.76,-136.65
677,118639516,0.1548,0.8208,0.0566,206.16,40.18,-136.71
678,118644515,0.1445,0.8423,0.0811,207.44,35.37,-137.13
679,118649516,0.1343,0.8550,0.1025,207.74,30.18,-137.62
680,118654515,0.1196,0.8667,0.0996,206.83,24.51,-138.11
681,118659516,0.1021,0.8721,0.0806,205.61,18.66,-138.90
682,118664515,0.1006,0.8711,0.1021,204.27,12.74,-139.57
683,118669516,0.1191,0.8887,0.1001,202.93,6.71,-140.12
684,118674514,0.1289,0.9170,0.0640,202.50,1.16,-140.43
685,118679516,0.1416,0.9463,0.0303,202.62,-4.82,-140.85
686,118684516,0.1484,0.9551,0.0073,203.66,-10.61,-141.16
687,118689514,0.1523,0.9614,-0.0103,205.24,-16.34,-141.22
688,118694516,0.1562,0.9731,-0.0298,207.62,-21.83,-141.10
689,118699516,0.1528,0.9854,-0.0469,210.18,-27.07,-140.91
690,118704515,0.1250,0.9785,-0.0615,212.80,-32.20,-140.49
691,118709516,0.0977,0.9907,-0.0815,215.24,-36.95,-140.00
692,118714515,0.0767,0.9961,-0.1123,217.32,-41.77,-139.33
693,118719516,0.0566,0.9995,-0.1406,219.09,-46.34,-138.41
694,118724515,0.0288,1.0073,-0.1494,220.24,-50.61,-137.50
695,118729516,0.0010,1.0103,-0.1685,220.91,-54.94,-136.34
696,118734515,-0.0435,1.0117,-0.1621,220.85,-58.66,-135.00
697,118739516,-0.0806,1.0122,-0.1826,220.06,-62.32,-133.54
698,118744515,-0.1167,1.0278,-0.1733,218.84,-65.43,-132.01
699,118749518,-0.1440,1.0464,-0.1904,217.01,-68.48,-130.49
700,118754515,-0.1494,1.0664,-0.2275,215.06,-71.46,-129.02
701,118759516,-0.1768,1.0859,-0.2451,212.74,-74.21,-127.68
702,118764515,-0.2222,1.1001,-0.2412,209.57,-76.65,-126.10
703,118769541,-0.2573,1.1079,-0.2705,206.04,-79.02,-124.51
704,118774516,-0.2524,1.1479,-0.2642,202.80,-81.10,-122.80
705,118779516,-0.2646,1.1597,-0.2700,199.02,-82.99,-121.28
706,118784516,-0.3022,1.1582,-0.3062,194.45,-84.82,-119.57
707,118789516,-0.3354,1.1665,-0.3115,188.84,-86.83,-117.68
708,118794514,-0.3384,1.1768,-0.2827,183.17,-88.41,-115.85
709,118799514,-0.3296,1.1948,-0.3086,177.26,-89.88,-114.02
710,118804516,-0.4058,1.1724,-0.2959,169.45,-91.71,-112.20
711,118809516,-0.4253,1.1992,-0.3042,160.30,-93.41,-110.43
712,118814517,-0.4268,1.2158,-0.3462,150.55,-95.00,-108.60
713,118820041,-0.3931,1.2646,-0.3350,140.06,-97.13,-106.16
714,118824516,-0.3960,1.2798,-0.3647,132.62,-98.84,-104.57
715,118829523,-0.4204,1.2734,-0.3970,125.18,-100.85,-102.26
716,118834516,-0.4023,1.3174,-0.4331,116.34,-102.99,-99.70
717,118839516,-0.4487,1.3076,-0.3901,107.20,-105.06,-97.01
718,118844516,-0.4966,1.3159,-0.3735,98.54,-106.95,-93.96
719,118849516,-0.4639,1.3604,-0.4668,91.34,-109.02,-90.73
720,118854516,-0.5151,1.3667,-0.4336,84.21,-111.34,-87.13
721,118859516,-0.5283,1.3843,-0.4380,77.32,-113.72,-83.41
722,118864514,-0.5176,1.3926,-0.4556,71.04,-116.77,-79.33
723,118869514,-0.5269,1.4033,-0.4229,65.55,-120.00,-74.70
724,118874516,-0.5454,1.4009,-0.3799,61.34,-123.05,-69.82
725,118879516,-0.4092,1.5103,-0.3662,58.35,-126.40,-64.82
726,118884514,-0.5835,1.4023,-0.2300,52.26,-129.76,-60.06
727,118889518,-0.7168,1.3965,-0.2427,41.77,-132.93,-55.18
728,118894515,-0.7749,1.3667,-0.3135,28.17,-136.89,-50.73
729,118899514,-0.7031,1.3672,-0.3110,14.88,-141.52,-46.22
730,118904514,-0.6548,1.3887,-0.3291,4.02,-146.52,-41.46
731,118909674,-0.6772,1.3857,-0.2437,-4.02,-151.22,-36.52
732,118914516,-0.7192,1.3599,-0.2031,-10.00,-155.67,-31.28
733,118919516,-0.7661,1.3384,-0.2178,-15.00,-161.16,-24.88
734,118924517,-0.7432,1.3530,-0.2407,-17.26,-165.67,-20.55
735,118929515,-0.7251,1.3428,-0.2334,-18.72,-171.40,-14.94
736,118934596,-0.7573,1.3301,-0.2305,-18.35,-177.32,-8.90
737,118939516,-0.7876,1.3174,-0.2437,-17.01,-183.72,-2.62
738,118944515,-0.8032,1.3022,-0.2578,-14.15,-190.61,3.90
739,118949516,-0.8306,1.2935,-0.2642,-10.30,-197.99,10.67
740,118954515,-0.8555,1.2876,-0.2798,-4.88,-205.49,17.93
741,118959516,-0.8955,1.2739,-0.2642,1.89,-213.48,25.12
742,118964515,-0.9258,1.2598,-0.2510,9.27,-221.59,32.62
743,118969514,-0.9702,1.2285,-0.2134,17.07,-229.88,40.37
744,118974517,-0.9727,1.2173,-0.2466,24.51,-238.11,48.29
745,118979515,-1.0156,1.2046,-0.2603,32.01,-246.83,56.22
746,118984514,-1.0659,1.1860,-0.1968,39.63,-255.73,64.45
747,118989516,-1.1133,1.1533,-0.2246,45.98,-264.63,72.74
748,118994516,-1.1367,1.1289,-0.2183,51.89,-273.96,81.28
749,118999516,-1.1841,1.1035,-0.2075,57.56,-283.17,89.09
750,119004518,-1.2197,1.0894,-0.2197,63.17,-292.50,98.17
751,119009516,-1.2705,1.0630,-0.2168,68.54,-301.95,106.95
752,119014515,-1.3237,1.0435,-0.2065,73.29,-311.28,115.91
753,119019516,-1.3765,1.0239,-0.2183,77.56,-320.85,124.76
754,119024516,-1.4380,1.0181,-0.2383,80.85,-330.06,133.66
755,119029515,-1.5186,1.0029,-0.2510,83.05,-339.45,142.56
756,119034514,-1.5996,0.9863,-0.2710,84.02,-348.48,151.22
757,119039517,-1.6733,0.9727,-0.2979,83.66,-357.62,159.76
758,119044516,-1.7471,0.9590,-0.3193,82.01,-366.65,168.11
759,119049516,-1.8125,0.9258,-0.3320,79.70,-375.49,176.40
760,119054517,-1.8374,0.9707,-0.3823,77.87,-383.84,184.39
761,119059516,-2.0181,0.8975,-0.4062,74.63,-392.38,191.89
762,119064516,-2.1328,0.8916,-0.4395,69.39,-400.79,199.39
763,119069517,-2.1841,0.8735,-0.4336,62.99,-409.09,206.59
764,119074516,-2.2490,0.8618,-0.4429,55.91,-417.44,213.78
765,119079516,-2.3164,0.8296,-0.4443,48.48,-425.30,220.49
766,119084516,-2.3877,0.8379,-0.4824,41.28,-433.35,227.01
767,119089516,-2.5024,0.8198,-0.4932,33.72,-441.04,233.05
768,119094751,-2.4951,0.8188,-0.4980,26.89,-448.54,238.84
769,119099518,-2.6396,0.7568,-0.5503,20.12,-456.46,244.21
770,119104607,-2.7700,0.8096,-0.5723,13.72,-464.09,249.33
771,119109721,-2.8755,0.8076,-0.5605,7.62,-473.05,255.18
772,119114516,-2.9365,0.8481,-0.5791,4.76,-478.72,258.66
773,119119516,-3.0908,0.8262,-0.6230,2.07,-485.98,263.05
774,119124515,-3.2051,0.8315,-0.6299,0.49,-492.99,267.44
775,119129516,-3.2622,0.8433,-0.6333,0.37,-499.63,271.77
776,119134515,-3.2998,0.8350,-0.6372,2.01,-506.04,276.16
777,119139516,-3.3311,0.8960,-0.6411,5.85,-511.65,280.49
778,119144515,-3.4883,0.9004,-0.6548,9.82,-516.77,284.39
779,119149516,-3.6128,0.9277,-0.6807,13.66,-521.46,288.17
780,119154515,-3.6675,0.9316,-0.7080,17.93,-525.73,292.07
781,119159516,-3.7388,0.9888,-0.7808,22.38,-529.45,295.67
782,119164515,-3.8672,1.0132,-0.7549,26.34,-532.80,299.02
783,119169516,-3.8682,1.0107,-0.7769,29.94,-535.61,302.38
784,119174515,-3.8789,1.0581,-0.8013,32.99,-537.68,305.98
785,119179518,-3.9165,1.0854,-0.8213,35.49,-539.15,309.15
786,119184515,-3.9580,1.1235,-0.8472,36.95,-540.24,312.13
787,119189517,-3.9907,1.1553,-0.8916,37.62,-540.79,315.06
788,119194518,-3.9976,1.1880,-0.9224,37.56,-540.85,317.80
789,119199516,-3.9941,1.2251,-0.9399,36.34,-539.82,320.24
790,119204515,-4.0220,1.2563,-0.9683,34.21,-538.41,322.26
791,119209516,-4.0552,1.3018,-1.0425,31.10,-536.59,324.21
792,119214515,-4.0488,1.3794,-1.1021,26.89,-534.21,325.49
793,119219516,-4.0615,1.4292,-1.1289,22.07,-531.46,326.46
794,119224515,-4.0503,1.4727,-1.1646,17.87,-528.23,327.56
795,119229516,-4.0166,1.5015,-1.2261,14.27,-523.90,328.60
796,119234515,-3.9648,1.5303,-1.2583,11.46,-519.27,329.57
797,119239516,-3.9360,1.5718,-1.2837,9.39,-514.21,330.67
798,119244515,-3.8936,1.5894,-1.3276,7.68,-508.29,331.52
799,119249516,-3.8257,1.6016,-1.3647,6.95,-502.20,332.62
800,119254515,-3.7739,1.6421,-1.4282,7.38,-495.49,333.84
801,119259516,-3.7236,1.6724,-1.4761,9.57,-488.41,335.37
802,119264515,-3.6562,1.7061,-1.5356,13.17,-480.73,337.20
803,119269516,-3.5811,1.7490,-1.5830,18.60,-472.26,339.45
804,119274515,-3.4805,1.7861,-1.6133,25.91,-462.80,342.26
805,119279516,-3.3906,1.8105,-1.6621,35.00,-452.62,345.61
806,119284514,-3.3301,1.8345,-1.6875,44.21,-441.65,349.63
807,119289514,-3.2588,1.8315,-1.7222,52.87,-430.00,354.21
808,119294518,-3.1782,1.8398,-1.7485,59.57,-417.68,359.27
809,119299516,-3.1055,1.8486,-1.7700,64.70,-404.57,364.76
810,119304515,-3.0244,1.8433,-1.7881,67.87,-391.10,370.55
811,119309518,-2.9956,1.8501,-1.8027,68.78,-376.77,376.52
812,119314515,-2.9468,1.8281,-1.8232,67.38,-362.20,382.44
813,119319516,-2.8892,1.8281,-1.8564,63.54,-347.32,388.60
814,119324515,-2.8359,1.8218,-1.8779,57.56,-332.38,394.45
815,119329516,-2.8105,1.8125,-1.9258,50.06,-317.56,400.18
816,119334515,-2.7690,1.8071,-1.9751,41.59,-303.35,405.85
817,119339516,-2.7139,1.8081,-2.0332,32.38,-289.09,411.34
818,119344515,-2.6729,1.8018,-2.0776,23.84,-275.12,416.95
819,119349516,-2.6162,1.7896,-2.1182,15.98,-261.71,422.44
820,119354515,-2.5605,1.7871,-2.1323,8.41,-248.35,428.05
821,119359516,-2.5264,1.7793,-2.1509,1.22,-235.18,433.72
822,119364515,-2.5161,1.7686,-2.1562,-5.79,-222.32,439.15
823,119369519,-2.4888,1.7451,-2.1455,-11.77,-209.63,444.57
824,119374515,-2.4502,1.7300,-2.1504,-17.01,-197.26,450.06
825,119379516,-2.4082,1.7178,-2.1445,-21.89,-185.12,455.55
826,119384515,-2.3716,1.6978,-2.1240,-26.10,-173.23,460.85
827,119389514,-2.3452,1.6777,-2.0957,-29.27,-161.59,466.28
828,119394514,-2.3203,1.6528,-2.0713,-31.28,-150.30,471.59
829,119400355,-2.2837,1.6182,-2.0386,-33.11,-137.13,477.68
830,119404538,-2.2676,1.5991,-2.0176,-34.63,-128.60,481.59
831,119409514,-2.2441,1.5635,-1.9912,-37.20,-118.11,486.04
832,119414516,-2.2178,1.5166,-1.9502,-40.30,-108.17,490.00
833,119419516,-2.2031,1.4688,-1.9282,-44.27,-98.96,493.66
834,119424517,-2.1875,1.4131,-1.8984,-48.48,-90.37,496.95
835,119429515,-2.1665,1.3608,-1.8765,-52.68,-82.07,499.63
836,119434516,-2.1372,1.3076,-1.8496,-57.07,-74.27,502.07
837,119439516,-2.1162,1.2490,-1.8145,-60.61,-66.89,504.15
838,119444516,-2.0967,1.1855,-1.7783,-62.93,-60.18,506.10
839,119449515,-2.0742,1.1367,-1.7549,-64.39,-54.02,507.68
840,119454516,-2.0371,1.0840,-1.7217,-65.24,-48.41,509.09
841,119459516,-2.0073,1.0225,-1.6875,-65.85,-42.93,510.12
842,119464516,-1.9673,0.9771,-1.6685,-65.67,-37.93,510.91
843,119469771,-1.9321,0.9395,-1.6289,-64.33,-33.29,511.65
844,119474516,-1.9053,0.8896,-1.5791,-61.83,-28.78,512.07
845,119479516,-1.8730,0.8511,-1.5527,-59.39,-24.45,512.01
846,119484517,-1.8408,0.8149,-1.5215,-58.35,-20.61,511.22
847,119489515,-1.7852,0.7344,-1.4570,-59.51,-16.83,509.76
848,119494516,-1.7710,0.7002,-1.4336,-61.10,-13.35,508.23
849,119499516,-1.7207,0.6826,-1.3784,-62.50,-10.00,506.22
850,119504516,-1.6958,0.6211,-1.3765,-63.66,-6.59,504.09
851,119509516,-1.6338,0.5776,-1.3691,-64.51,-3.78,501.89
852,119514515,-1.6108,0.5371,-1.3711,-65.24,-1.04,499.63
853,119519516,-1.6030,0.5000,-1.3311,-65.12,1.65,497.50
854,119524516,-1.6011,0.4473,-1.3340,-63.78,4.21,495.49
855,119529515,-1.5444,0.4150,-1.3418,-60.79,6.52,493.60
856,119534516,-1.3989,0.4414,-1.3369,-55.55,9.09,491.83
857,119539517,-1.3218,0.3442,-1.2139,-48.05,12.13,489.88
858,119544516,-1.3491,0.3169,-1.2339,-39.27,15.73,488.05
859,119549515,-1.3755,0.2769,-1.2524,-28.90,19.51,486.34
860,119554516,-1.3853,0.2075,-1.1865,-17.44,23.78,484.57
861,119559516,-1.1646,0.1479,-1.1182,-6.28,28.72,483.11
862,119564516,-1.2871,0.1431,-1.1338,3.41,33.90,481.22
863,119569515,-1.3384,0.1084,-1.0776,11.28,39.33,478.72
864,119574516,-1.3921,0.0566,-1.0796,17.38,44.88,475.85
865,119579516,-1.4019,0.0059,-1.1211,22.32,50.24,472.87
866,119584516,-1.3838,-0.0303,-1.0928,26.71,55.73,469.63
867,119589515,-1.3955,-0.0547,-1.0688,30.37,61.71,466.10
868,119594516,-1.4155,-0.0928,-1.0850,33.17,67.74,461.95
869,119599516,-1.4141,-0.1450,-1.0757,35.49,73.72,457.44
870,119604516,-1.3809,-0.1836,-1.0337,37.32,80.18,452.62
871,119609515,-1.3428,-0.2300,-1.0068,38.41,85.73,447.38
872,119614517,-1.3159,-0.2710,-0.9907,39.63,92.20,442.07
873,119619516,-1.2690,-0.3062,-0.9849,41.04,98.60,436.59
874,119624515,-1.2153,-0.3325,-0.9492,42.68,104.45,430.73
875,119629518,-1.1694,-0.3545,-0.9204,44.94,110.12,424.63
876,119634515,-1.1377,-0.3770,-0.8911,46.95,115.61,418.66
877,119639516,-1.1289,-0.4014,-0.8564,48.66,120.91,412.56
878,119644516,-1.1240,-0.4360,-0.8345,49.88,125.73,406.46
879,119649516,-1.1162,-0.4624,-0.8145,50.85,130.43,400.55
880,119654515,-1.1240,-0.4897,-0.7998,51.71,134.94,395.06
881,119659518,-1.1226,-0.5044,-0.7954,52.26,139.02,389.33
882,119664514,-1.1206,-0.5190,-0.7842,52.99,142.68,383.66
883,119669516,-1.1206,-0.5327,-0.7622,53.78,146.28,377.93
884,119674516,-1.1289,-0.5444,-0.7417,54.88,149.76,372.07
885,119679516,-1.1343,-0.5522,-0.7275,56.10,152.99,366.40
886,119684515,-1.1460,-0.5591,-0.7144,57.56,156.28,360.49
887,119689516,-1.1582,-0.5752,-0.6924,59.02,159.39,354.51
888,119694514,-1.1816,-0.6001,-0.6782,60.00,162.32,348.84
889,119699514,-1.2026,-0.6226,-0.6631,60.91,165.12,342.99
890,119704516,-1.2056,-0.6475,-0.6357,61.22,167.93,337.13
891,119709516,-1.2153,-0.6670,-0.6123,60.98,170.37,331.22
892,119714515,-1.2285,-0.6899,-0.5771,60.30,172.74,325.24
893,119719516,-1.2407,-0.7085,-0.5522,59.09,175.12,319.09
894,119724516,-1.2500,-0.7266,-0.5239,57.38,177.44,312.93
895,119729516,-1.2661,-0.7515,-0.4946,55.24,179.51,306.40
896,119734515,-1.2871,-0.7739,-0.4678,52.93,181.59,299.88
897,119739516,-1.3042,-0.8018,-0.4399,50.12,183.60,293.29
898,119744515,-1.3208,-0.8232,-0.4121,47.20,185.49,286.77
899,119749516,-1.3286,-0.8438,-0.3857,43.84,187.07,280.18
900,119754515,-1.3281,-0.8633,-0.3584,40.43,188.72,273.60
901,119759516,-1.3193,-0.8833,-0.3071,36.83,189.82,267.07
902,119764515,-1.3032,-0.9048,-0.2734,33.29,191.16,260.61
903,119769516,-1.2603,-0.9395,-0.1772,29.21,192.07,254.09
904,119774515,-1.3008,-0.9438,-0.2021,24.09,193.11,247.50
905,119779519,-1.3149,-0.9521,-0.2656,19.45,193.29,240.85
906,119784515,-1.3711,-0.9692,-0.1968,16.28,193.60,234.70
907,119789516,-1.4277,-0.9800,-0.1431,13.96,194.39,228.72
908,119794516,-1.4424,-1.0020,-0.1455,12.13,195.37,222.99
909,119799514,-1.4629,-1.0200,-0.1206,10.61,196.28,217.20
910,119804567,-1.5044,-1.0444,-0.0889,9.33,197.01,211.71
911,119809516,-1.5205,-1.0659,-0.0659,7.74,197.74,206.34
912,119814516,-1.5308,-1.0918,-0.0430,5.91,198.41,200.91
913,119819514,-1.5483,-1.1162,-0.0088,3.66,198.96,195.91
914,119824516,-1.5674,-1.1436,0.0107,1.10,199.39,190.85
915,119829516,-1.5894,-1.1616,0.0312,-2.07,199.63,185.91
916,119834515,-1.6104,-1.1821,0.0542,-5.85,199.63,181.16
917,119839516,-1.6304,-1.2017,0.0767,-9.88,199.45,176.40
918,119844515,-1.6318,-1.2222,0.0859,-14.15,198.84,171.77
919,119849517,-1.6411,-1.2373,0.1055,-18.72,197.93,167.38
920,119854515,-1.6465,-1.2588,0.1216,-23.11,196.65,163.05
921,119859516,-1.6597,-1.2788,0.1318,-27.26,194.88,158.72
922,119864515,-1.6562,-1.2900,0.1475,-31.10,192.87,154.82
923,119869516,-1.6523,-1.3120,0.1548,-34.76,190.18,151.10
924,119874516,-1.6455,-1.3247,0.1719,-37.93,187.32,147.44
925,119879516,-1.6216,-1.3389,0.1992,-40.49,183.90,143.96
926,119884515,-1.5752,-1.3462,0.2476,-42.50,180.37,140.43
927,119889516,-1.5264,-1.3652,0.2349,-44.27,176.10,136.77
928,119894515,-1.4937,-1.3770,0.2632,-45.55,171.40,132.93
929,119899516,-1.4409,-1.3735,0.2886,-45.73,166.59,128.60
930,119904514,-1.3398,-1.4048,0.2900,-45.30,161.22,124.21
931,119909516,-1.3345,-1.3638,0.3081,-44.51,155.79,119.33
932,119914515,-1.2485,-1.3735,0.3047,-43.05,149.88,113.96
933,119919867,-1.2031,-1.3823,0.2808,-40.49,143.72,108.17
934,119924516,-1.1255,-1.3672,0.2896,-36.52,137.32,102.20
935,119929516,-1.0596,-1.4082,0.2876,-31.77,130.85,95.91
936,119934516,-1.0068,-1.4189,0.2798,-26.40,124.02,89.21
937,119939613,-0.9395,-1.4131,0.2681,-20.12,117.26,83.11
938,119944516,-0.9067,-1.4087,0.2588,-13.41,110.24,75.79
939,119949516,-0.8608,-1.4146,0.2520,-5.43,103.11,68.41
940,119954516,-0.8306,-1.4194,0.2417,3.17,96.34,60.85
941,119959514,-0.7954,-1.4204,0.2354,12.01,88.78,53.05
942,119964779,-0.7388,-1.4233,0.2476,20.91,83.11,45.12
943,119969689,-0.7295,-1.4189,0.2417,29.15,76.40,37.20
944,119974516,-0.6992,-1.4199,0.2246,36.71,69.57,29.09
945,119979516,-0.6514,-1.4473,0.2573,43.23,63.05,21.04
946,119984516,-0.6494,-1.4258,0.2515,47.38,56.83,12.93
947,119989515,-0.6406,-1.4346,0.2310,49.45,50.37,4.82
948,119994517,-0.6021,-1.4185,0.1982,50.24,43.72,-3.48
949,119999516,-0.6777,-1.3960,0.2256,50.91,37.68,-11.04
950,120004517,-0.6147,-1.4448,0.2236,52.62,32.13,-18.84
951,120009515,-0.5806,-1.4229,0.1670,55.00,26.46,-26.46
952,120014516,-0.5547,-1.4375,0.1958,57.20,20.98,-34.02
953,120019516,-0.5728,-1.4268,0.1914,59.09,15.79,-41.22
954,120024514,-0.6045,-1.3955,0.1616,60.85,10.73,-48.17
955,120029516,-0.6128,-1.3750,0.1675,63.41,5.91,-55.06
956,120034515,-0.6084,-1.3623,0.1636,66.40,1.40,-61.52
957,120039516,-0.5972,-1.3472,0.1440,69.70,-2.99,-67.56
958,120044516,-0.5615,-1.3281,0.1299,72.32,-7.50,-73.29
959,120049514,-0.6040,-1.2856,0.1494,74.02,-11.71,-78.60
960,120054516,-0.6069,-1.2686,0.1460,74.82,-15.55,-83.84
961,120059516,-0.6289,-1.2485,0.1323,74.27,-19.45,-88.72
962,120064516,-0.6343,-1.2305,0.1328,72.80,-23.05,-93.17
963,120069515,-0.6240,-1.2056,0.1191,70.73,-26.65,-97.62
964,120074516,-0.6226,-1.1787,0.1162,68.48,-30.12,-101.71
965,120079516,-0.6011,-1.1675,0.1060,66.34,-33.29,-105.67
966,120084517,-0.6143,-1.1426,0.1045,64.02,-36.28,-109.27
967,120089515,-0.6172,-1.1245,0.0908,62.32,-39.02,-112.62
968,120094516,-0.6128,-1.1113,0.0679,60.85,-41.71,-115.61
969,120099516,-0.6123,-1.0835,0.0566,59.82,-44.15,-118.11
970,120104516,-0.6084,-1.0659,0.0439,59.27,-46.46,-120.55
971,120109515,-0.5972,-1.0381,0.0283,59.21,-48.84,-122.44
972,120114517,-0.5903,-1.0156,0.0234,59.09,-50.79,-124.21
973,120119516,-0.5815,-0.9907,0.0181,58.72,-52.62,-125.67
974,120124517,-0.5728,-0.9702,-0.0015,58.11,-54.45,-126.95
975,120130054,-0.5664,-0.9482,-0.0093,57.01,-56.16,-127.87
976,120134516,-0.5605,-0.9287,-0.0171,55.67,-57.68,-128.78
977,120139516,-0.5537,-0.9058,-0.0239,53.90,-58.90,-129.63
978,120144517,-0.5469,-0.8911,-0.0249,51.71,-60.00,-130.18
979,120149515,-0.5352,-0.8726,-0.0254,49.27,-60.85,-130.79
980,120154516,-0.5239,-0.8647,-0.0312,46.71,-61.89,-131.40
981,120159516,-0.5176,-0.8481,-0.0283,43.84,-62.50,-132.01
982,120164516,-0.5063,-0.8301,-0.0317,41.04,-62.99,-132.62
983,120169515,-0.4937,-0.8154,-0.0293,38.35,-63.23,-132.99
984,120174517,-0.4790,-0.8105,-0.0327,35.85,-63.54,-133.48
985,120179516,-0.4639,-0.7979,-0.0308,33.72,-63.60,-133.78
986,120184516,-0.4541,-0.7905,-0.0303,32.07,-63.41,-134.02
987,120189516,-0.4473,-0.7778,-0.0366,30.55,-63.17,-134.21
988,120194519,-0.4326,-0.7725,-0.0356,29.15,-62.99,-134.45
989,120199516,-0.4219,-0.7769,-0.0425,28.05,-62.44,-134.51
990,120204516,-0.4097,-0.7705,-0.0488,26.95,-62.26,-134.57
991,120209516,-0.3975,-0.7754,-0.0503,26.22,-61.89,-134.63
992,120214516,-0.3853,-0.7744,-0.0586,25.61,-61.40,-134.57
993,120219516,-0.3701,-0.7778,-0.0615,25.06,-61.16,-134.63
994,120224516,-0.3628,-0.7837,-0.0630,24.82,-60.61,-134.76
995,120229514,-0.3516,-0.7944,-0.0654,24.88,-60.06,-134.70
996,120234518,-0.3438,-0.7988,-0.0669,25.18,-59.51,-134.82
997,120239516,-0.3418,-0.8096,-0.0601,25.91,-58.78,-134.88
998,120244515,-0.3374,-0.8120,-0.0649,26.89,-58.11,-134.94
999,120249516,-0.3354,-0.8198,-0.0659,28.11,-57.32,-135.12
1000,120254515,-0.3584,-0.8330,-0.0679,29.76,-56.16,-135.06
1001,120259515,-0.3521,-0.7759,-0.1157,31.95,-55.18,-135.00
1002,120264516,-0.3110,-0.8125,-0.0640,33.78,-54.63,-135.24
1003,120269516,-0.3047,-0.8198,-0.0791,34.57,-54.57,-135.85
1004,120274515,-0.2461,-0.8452,-0.0986,34.27,-55.00,-136.95
1005,120279514,-0.1548,-0.8623,-0.0439,33.05,-55.49,-138.05
1006,120284814,-0.1309,-0.8213,-0.0698,32.01,-56.04,-139.21
1007,120289586,-0.1343,-0.8467,-0.0576,30.12,-57.07,-140.73
1008,120294516,-0.0991,-0.8535,-0.0693,28.23,-58.05,-142.32
1009,120299516,-0.0684,-0.8311,-0.0444,26.22,-59.33,-144.15
1010,120304515,-0.0054,-0.8447,-0.0200,24.09,-60.24,-146.10
1011,120309516,0.0386,-0.8535,0.0073,22.07,-61.34,-147.74
1012,120314516,0.0435,-0.8354,-0.0054,19.82,-62.26,-149.51
1013,120319516,0.0742,-0.8330,-0.0117,17.38,-63.23,-151.40
1014,120324515,0.1201,-0.8350,0.0024,13.78,-64.45,-153.29
1015,120329516,0.1562,-0.8262,0.0498,8.96,-65.49,-155.37
1016,120334517,0.1826,-0.8242,0.0249,2.32,-66.59,-157.62
1017,120339516,0.1982,-0.8145,0.0293,-6.52,-67.80,-160.24
1018,120344515,0.1953,-0.8037,0.0859,-17.68,-68.90,-163.35
1019,120349516,0.1929,-0.7954,0.1240,-30.43,-69.39,-166.77
1020,120354516,0.1973,-0.7959,0.1006,-44.09,-69.82,-170.30
1021,120359516,0.1968,-0.7959,0.1270,-57.68,-70.00,-173.84
1022,120364515,0.1904,-0.7915,0.1343,-70.55,-69.39,-177.32
1023,120369516,0.2002,-0.7686,0.1372,-81.95,-68.48,-180.67
1024,120374516,0.2261,-0.7534,0.1255,-91.22,-67.50,-183.96
1025,120379516,0.2280,-0.7520,0.1421,-98.29,-65.91,-187.20
1026,120384515,0.2456,-0.7700,0.1445,-103.41,-63.78,-190.00
1027,120389516,0.3442,-0.7783,0.1392,-106.71,-61.77,-192.26
1028,120394516,0.6948,-0.7637,-0.2339,-104.76,-63.29,-194.02
1029,120399516,0.7549,-0.7158,-0.0303,-98.66,-67.07,-195.24
1030,120404515,0.6343,-0.7363,0.2510,-91.04,-68.41,-196.04
1031,120409516,0.6533,-0.7690,0.0986,-82.68,-69.63,-196.04
1032,120414516,0.6670,-0.8096,-0.1104,-74.02,-72.26,-195.79
1033,120419516,0.6167,-0.8486,0.0410,-65.43,-73.90,-195.06
1034,120424515,0.5806,-0.8540,0.1660,-57.07,-74.15,-193.78
1035,120429516,0.5933,-0.8096,-0.0537,-49.63,-75.30,-192.20
1036,120434515,0.6147,-0.7407,-0.1875,-42.62,-77.50,-190.61
1037,120439516,0.5913,-0.6875,-0.0171,-36.52,-78.54,-188.84
1038,120444516,0.5708,-0.6846,0.0308,-31.22,-78.60,-186.77
1039,120449516,0.5752,-0.7017,-0.1807,-26.83,-79.82,-184.45
1040,120454515,0.5630,-0.7231,-0.2280,-23.17,-81.46,-182.13
1041,120459516,0.5303,-0.7310,-0.0537,-20.18,-81.59,-179.51
1042,120464517,0.5156,-0.7139,-0.0503,-17.93,-81.04,-176.89
1043,120469516,0.5210,-0.6792,-0.2188,-16.10,-81.16,-174.21
1044,120474514,0.5137,-0.6284,-0.2007,-14.57,-80.98,-171.52
1045,120479515,0.4980,-0.5908,-0.0552,-13.35,-79.45,-168.90
1046,120484516,0.5068,-0.5713,-0.1025,-12.74,-77.50,-166.16
1047,120489515,0.5244,-0.5767,-0.2446,-12.13,-76.22,-163.41
1048,120494518,0.5278,-0.5825,-0.1870,-11.83,-74.94,-160.73
1049,120499515,0.5229,-0.5679,-0.0840,-11.71,-72.26,-158.05
1050,120504516,0.5327,-0.5488,-0.1699,-11.59,-69.63,-155.49
1051,120509515,0.5347,-0.5034,-0.2690,-11.65,-67.68,-153.17
1052,120514843,0.5293,-0.4565,-0.1982,-11.40,-65.12,-150.98
1053,120519516,0.5283,-0.4297,-0.1270,-11.16,-62.20,-148.84
1054,120524516,0.5537,-0.4209,-0.2070,-10.85,-59.33,-146.95
1055,120529516,0.5767,-0.4229,-0.2686,-10.73,-56.95,-144.88
1056,120534514,0.5850,-0.4268,-0.1987,-10.67,-54.09,-142.99
1057,120539517,0.6001,-0.4214,-0.1724,-10.98,-50.85,-140.85
1058,120544516,0.6240,-0.4121,-0.2495,-11.28,-48.17,-138.72
1059,120549515,0.6416,-0.3921,-0.2739,-11.65,-45.55,-136.71
1060,120554516,0.6558,-0.3750,-0.2026,-12.32,-42.44,-134.39
1061,120559515,0.6719,-0.3657,-0.2070,-13.17,-39.27,-132.44
1062,120564517,0.6987,-0.3569,-0.2891,-14.33,-36.40,-130.24
1063,120569514,0.7158,-0.3560,-0.2881,-15.37,-34.02,-128.11
1064,120574516,0.7319,-0.3560,-0.2349,-16.40,-31.10,-126.16
1065,120579515,0.7520,-0.3452,-0.2539,-17.68,-28.29,-124.09
1066,120584516,0.7690,-0.3296,-0.3164,-18.66,-25.91,-122.20
1067,120589515,0.7715,-0.3115,-0.3091,-19.57,-23.60,-120.55
1068,120594516,0.7827,-0.2974,-0.2695,-20.18,-21.04,-118.96
1069,120599515,0.7954,-0.2881,-0.3062,-20.79,-18.72,-117.44
1070,120604516,0.8091,-0.2856,-0.3447,-21.22,-16.65,-116.22
1071,120609515,0.8105,-0.2812,-0.3223,-21.46,-14.70,-114.70
1072,120614516,0.8198,-0.2822,-0.3022,-21.52,-12.56,-113.29
1073,120619516,0.8359,-0.2827,-0.3320,-21.59,-10.61,-111.71
1074,120624516,0.8462,-0.2778,-0.3442,-21.59,-9.02,-110.37
1075,120629515,0.8486,-0.2778,-0.3237,-21.77,-7.07,-108.72
1076,120634516,0.8540,-0.2695,-0.3218,-21.89,-5.24,-107.26
1077,120640030,0.8740,-0.2705,-0.3472,-22.26,-3.72,-105.73
1078,120644516,0.8896,-0.2700,-0.3579,-22.50,-2.26,-104.15
1079,120649515,0.8945,-0.2676,-0.3345,-22.80,-0.85,-102.80
1080,120654516,0.8911,-0.2617,-0.3296,-22.87,0.49,-101.34
1081,120659515,0.8931,-0.2568,-0.3501,-22.80,1.65,-100.00
1082,120664516,0.8955,-0.2500,-0.3428,-22.32,2.93,-98.72
1083,120669516,0.9053,-0.2476,-0.3105,-21.65,4.27,-97.38
1084,120674516,0.9136,-0.2549,-0.2979,-20.67,5.55,-95.85
1085,120679515,0.9326,-0.2583,-0.3086,-19.45,6.89,-94.39
1086,120684516,0.9429,-0.2632,-0.3008,-18.11,8.23,-92.68
1087,120689516,0.9468,-0.2661,-0.2817,-16.77,9.51,-91.10
1088,120694516,0.9556,-0.2598,-0.2749,-15.18,10.85,-89.27
1089,120699516,0.9697,-0.2578,-0.2827,-13.66,11.77,-87.62
1090,120704516,0.9688,-0.2539,-0.2720,-12.01,12.74,-85.85
1091,120709515,0.9683,-0.2529,-0.2637,-10.30,13.72,-84.27
1092,120714516,0.9692,-0.2466,-0.2744,-8.48,14.27,-82.68
1093,120719515,0.9619,-0.2368,-0.2788,-6.95,14.94,-81.10
1094,120724516,0.9575,-0.2300,-0.2715,-5.30,15.30,-79.63
1095,120729515,0.9492,-0.2202,-0.2549,-3.72,15.73,-78.23
1096,120734516,0.9526,-0.2139,-0.2529,-2.44,16.16,-76.95
1097,120739515,0.9644,-0.2153,-0.2412,-1.34,16.46,-75.67
1098,120744516,0.9824,-0.2119,-0.2153,-0.61,16.83,-74.21
1099,120749515,0.9990,-0.2119,-0.2085,-0.24,17.26,-72.80
1100,120754516,1.0059,-0.2104,-0.2046,-0.30,17.68,-71.40
1101,120759515,1.0146,-0.2041,-0.1992,-0.85,17.80,-69.94
1102,120764518,1.0264,-0.2036,-0.1816,-1.83,18.11,-68.48
1103,120769515,1.0283,-0.1938,-0.1802,-3.23,18.54,-66.95
1104,120774516,1.0308,-0.1899,-0.1807,-4.82,18.48,-65.43
1105,120779518,1.0342,-0.1777,-0.1895,-6.77,18.60,-64.02
1106,120784516,1.0366,-0.1694,-0.1719,-8.78,18.41,-62.44
1107,120789516,1.0376,-0.1680,-0.1709,-10.85,18.35,-60.98
1108,120794573,1.0405,-0.1577,-0.1758,-12.93,18.23,-59.39
1109,120799516,1.0337,-0.1489,-0.1729,-14.88,17.80,-57.87
1110,120804516,1.0322,-0.1377,-0.1694,-16.77,17.56,-56.40
1111,120809517,1.0278,-0.1309,-0.1631,-18.54,16.95,-54.88
1112,120814515,1.0312,-0.1265,-0.1592,-20.12,16.40,-53.41
1113,120819516,1.0278,-0.1211,-0.1567,-21.28,16.10,-52.07
1114,120824515,1.0293,-0.1187,-0.1577,-22.44,15.55,-50.55
1115,120829516,1.0371,-0.1182,-0.1504,-23.29,15.00,-48.66
1116,120834556,1.0420,-0.1152,-0.1401,-23.60,14.45,-47.32
1117,120839515,1.0449,-0.1118,-0.1357,-23.48,13.78,-46.04
1118,120844516,1.0498,-0.1138,-0.1274,-22.56,13.17,-44.33
1119,120849515,1.0513,-0.1094,-0.1328,-21.77,12.62,-42.99
1120,120854516,1.0503,-0.1040,-0.1289,-20.00,11.77,-41.40
1121,120859516,1.0435,-0.0996,-0.1274,-18.41,11.10,-40.30
1122,120864516,1.0400,-0.0957,-0.1309,-16.28,10.18,-38.84
1123,120869515,1.0342,-0.0952,-0.1260,-13.96,9.27,-37.50
1124,120874632,1.0215,-0.0864,-0.1187,-11.16,8.29,-35.79
1125,120879515,1.0142,-0.0889,-0.1274,-9.27,7.62,-34.70
1126,120884516,1.0034,-0.0923,-0.1289,-6.95,6.65,-33.29
1127,120889516,0.9956,-0.0903,-0.1221,-5.00,5.61,-31.83
1128,120894514,0.9863,-0.0903,-0.1191,-3.23,4.76,-30.30
1129,120899516,0.9795,-0.0903,-0.1162,-1.71,3.84,-28.78
1130,120904516,0.9683,-0.0869,-0.1182,-0.49,2.93,-27.20
1131,120909516,0.9585,-0.0869,-0.1147,0.49,1.89,-25.85
1132,120914517,0.9570,-0.0874,-0.1162,1.40,1.04,-24.15
1133,120919516,0.9526,-0.0903,-0.1060,1.95,0.30,-22.74
1134,120924514,0.9517,-0.0938,-0.1060,2.56,-0.61,-21.16
1135,120929514,0.9497,-0.0879,-0.1113,2.87,-1.28,-19.70
1136,120934516,0.9404,-0.0894,-0.1035,3.17,-1.95,-18.05
1137,120939515,0.9355,-0.0908,-0.0977,3.48,-2.62,-16.52
1138,120944514,0.9307,-0.0918,-0.0986,3.78,-3.11,-15.06
1139,120949516,0.9336,-0.0894,-0.1045,4.09,-3.66,-13.60
1140,120954516,0.9297,-0.0879,-0.1011,4.51,-4.39,-12.20
1141,120959515,0.9268,-0.0879,-0.1006,5.00,-4.88,-10.79
1142,120964516,0.9287,-0.0884,-0.1025,5.61,-5.55,-9.51
1143,120969515,0.9287,-0.0869,-0.1064,6.34,-6.16,-8.17
1144,120974517,0.9321,-0.0864,-0.1035,7.20,-6.71,-7.20
1145,120979543,0.9321,-0.0889,-0.1064,8.17,-7.38,-5.98
1146,120984516,0.9307,-0.0913,-0.1050,9.09,-7.99,-4.88
1147,120989515,0.9302,-0.0928,-0.1016,9.94,-8.60,-3.96
1148,120994516,0.9365,-0.0894,-0.1050,10.67,-8.96,-2.99
1149,120999515,0.9370,-0.0874,-0.1045,11.71,-9.39,-2.07
1150,121004516,0.9399,-0.0894,-0.0986,12.07,-9.88,-1.34
1151,121009516,0.9453,-0.0879,-0.0986,12.62,-10.30,-0.67
1152,121014518,0.9443,-0.0894,-0.1025,12.99,-10.73,0.12
1153,121019517,0.9497,-0.0918,-0.1079,12.93,-11.16,0.73
1154,121024514,0.9502,-0.0864,-0.1138,12.74,-11.46,1.22
1155,121029514,0.9492,-0.0859,-0.1113,12.56,-11.95,1.71
1156,121034514,0.9458,-0.0854,-0.1201,12.07,-12.20,2.01
1157,121039517,0.9453,-0.0869,-0.1250,11.77,-12.62,2.50
1158,121044515,0.9463,-0.0840,-0.1240,11.22,-12.99,2.74
1159,121049666,0.9453,-0.0806,-0.1333,10.55,-13.35,3.11
1160,121054516,0.9443,-0.0835,-0.1377,10.06,-13.60,3.11
1161,121059515,0.9468,-0.0771,-0.1382,9.63,-13.96,3.35
1162,121064516,0.9429,-0.0742,-0.1396,9.02,-14.33,3.48
1163,121069515,0.9473,-0.0693,-0.1494,8.60,-14.70,3.54
1164,121074516,0.9453,-0.0737,-0.1548,7.99,-14.76,3.90
1165,121079701,0.9453,-0.0688,-0.1523,7.20,-15.12,3.84
1166,121084516,0.9497,-0.0679,-0.1577,6.77,-15.24,3.90
1167,121089515,0.9468,-0.0679,-0.1670,6.22,-15.30,3.84
1168,121094516,0.9497,-0.0615,-0.1660,5.37,-15.30,3.90
1169,121099518,0.9463,-0.0630,-0.1738,4.63,-15.55,3.78
1170,121104516,0.9478,-0.0630,-0.1802,3.90,-15.79,3.84
1171,121109515,0.9409,-0.0635,-0.1851,2.99,-15.85,3.90
1172,121114518,0.9443,-0.0635,-0.1914,2.26,-15.98,3.84
1173,121119515,0.9409,-0.0664,-0.1924,1.59,-15.79,3.78
1174,121124518,0.9419,-0.0684,-0.1978,0.73,-15.67,3.96
1175,121129514,0.9385,-0.0718,-0.2031,-0.06,-15.73,3.96
1176,121134514,0.9375,-0.0708,-0.2056,-0.73,-15.55,4.27
1177,121139517,0.9326,-0.0728,-0.2065,-1.34,-15.37,4.33
1178,121144516,0.9282,-0.0732,-0.2056,-1.89,-15.06,4.63
1179,121149516,0.9272,-0.0762,-0.2144,-2.32,-14.63,4.88
1180,121154516,0.9214,-0.0806,-0.2139,-2.50,-14.33,5.12
1181,121159515,0.9165,-0.0786,-0.2139,-2.80,-13.78,5.55
1182,121164516,0.9121,-0.0791,-0.2207,-2.80,-13.29,5.85
1183,121169515,0.9116,-0.0786,-0.2236,-2.74,-12.62,6.28
1184,121174516,0.9121,-0.0786,-0.2266,-2.68,-12.07,6.65
1185,121179515,0.9180,-0.0835,-0.2319,-2.56,-11.65,6.95
1186,121184515,0.9268,-0.0850,-0.2314,-2.62,-11.10,7.32
1187,121189516,0.9224,-0.0884,-0.2402,-2.56,-10.49,7.74
1188,121194518,0.9282,-0.0928,-0.2432,-2.74,-10.12,8.11
1189,121199514,0.9351,-0.0923,-0.2476,-2.87,-9.76,8.54
1190,121204515,0.9365,-0.0981,-0.2490,-3.05,-9.45,8.90
1191,121209516,0.9414,-0.1006,-0.2495,-3.05,-9.27,9.33
1192,121214516,0.9419,-0.1040,-0.2524,-3.11,-8.90,9.70
1193,121219517,0.9492,-0.1055,-0.2500,-2.93,-8.78,10.00
1194,121224515,0.9531,-0.1079,-0.2598,-2.68,-8.66,10.49
1195,121229516,0.9521,-0.1084,-0.2568,-2.32,-8.41,10.73
1196,121234514,0.9536,-0.1084,-0.2583,-1.77,-8.35,11.04
1197,121239516,0.9551,-0.1138,-0.2607,-1.16,-8.17,11.40
1198,121244516,0.9512,-0.1162,-0.2607,-0.49,-8.05,11.77
1199,121249515,0.9521,-0.1191,-0.2598,0.12,-7.74,12.01
1200,121254516,0.9482,-0.1240,-0.2578,0.67,-7.62,12.26
1201,121259515,0.9438,-0.1265,-0.2593,0.98,-7.44,12.56
1202,121264516,0.9502,-0.1309,-0.2710,1.40,-7.26,12.74
1203,121269515,0.9492,-0.1357,-0.2749,1.52,-6.95,13.05
1204,121274518,0.9482,-0.1377,-0.2754,1.77,-6.89,13.23
1205,121279515,0.9497,-0.1377,-0.2773,1.95,-6.83,13.29
1206,121284516,0.9438,-0.1465,-0.2729,1.89,-6.71,13.48
1207,121289515,0.9473,-0.1548,-0.2744,1.89,-6.65,13.54
1208,121294516,0.9478,-0.1582,-0.2832,2.13,-6.46,13.48
1209,121299516,0.9424,-0.1606,-0.2793,2.20,-6.46,13.72
1210,121304516,0.9399,-0.1626,-0.2861,2.38,-6.28,13.78
1211,121309515,0.9390,-0.1704,-0.2754,2.74,-6.16,13.84
1212,121314516,0.9326,-0.1694,-0.2793,3.17,-5.73,13.90
1213,121319515,0.9292,-0.1709,-0.2759,3.72,-5.61,13.90
1214,121324516,0.9233,-0.1719,-0.2793,4.51,-5.37,13.78
1215,121329516,0.9165,-0.1802,-0.2808,5.12,-5.12,13.78
1216,121334514,0.9126,-0.1831,-0.2812,5.91,-4.63,13.84
1217,121339514,0.9126,-0.1865,-0.2803,6.65,-4.57,13.78
1218,121344516,0.9092,-0.1851,-0.2812,7.32,-4.21,13.72
1219,121349515,0.9067,-0.1895,-0.2798,7.87,-3.78,13.60
1220,121354516,0.9053,-0.1895,-0.2832,8.48,-3.48,13.41
1221,121359515,0.9028,-0.1899,-0.2817,9.02,-3.48,13.29
1222,121364516,0.8999,-0.1973,-0.2734,9.51,-2.99,13.05
1223,121369516,0.9004,-0.1929,-0.2720,9.70,-2.68,12.80
1224,121374514,0.9014,-0.1958,-0.2695,10.00,-2.44,12.56
1225,121379516,0.8984,-0.1997,-0.2754,10.00,-2.07,12.32
1226,121384516,0.8984,-0.2021,-0.2744,10.00,-1.77,12.20
1227,121389515,0.8950,-0.2007,-0.2759,10.00,-1.52,11.95
1228,121394516,0.8950,-0.2036,-0.2725,9.94,-1.22,11.71
1229,121399515,0.8975,-0.2002,-0.2622,9.82,-1.04,11.34
1230,121404663,0.8979,-0.2031,-0.2627,9.63,-0.85,10.98
1231,121409515,0.8965,-0.2002,-0.2603,9.51,-0.49,10.67
1232,121414516,0.9019,-0.2051,-0.2646,9.39,-0.30,10.18
1233,121419516,0.9014,-0.2026,-0.2598,9.27,0.00,9.70
1234,121424516,0.9023,-0.2046,-0.2588,9.15,0.06,9.33
1235,121429516,0.9062,-0.2065,-0.2598,8.96,0.18,8.84
1236,121434517,0.9097,-0.2080,-0.2515,8.78,0.55,8.41
1237,121439515,0.9087,-0.2041,-0.2524,8.60,0.67,7.87
1238,121444516,0.9106,-0.2075,-0.2490,8.48,0.91,7.26
1239,121449515,0.9092,-0.2051,-0.2520,8.23,1.04,6.71
1240,121454515,0.9160,-0.2046,-0.2568,7.87,1.04,6.28
1241,121459603,0.9146,-0.2070,-0.2451,7.62,1.22,5.67
1242,121464516,0.9160,-0.2061,-0.2505,7.26,1.28,5.30
1243,121469516,0.9180,-0.2075,-0.2471,6.71,1.34,4.70
1244,121474516,0.9204,-0.2095,-0.2412,6.28,1.34,4.21
1245,121479515,0.9175,-0.2090,-0.2432,5.55,1.52,3.72
1246,121484517,0.9170,-0.2109,-0.2471,5.00,1.52,3.11
1247,121489515,0.9170,-0.2080,-0.2412,4.33,1.71,2.62
1248,121494516,0.9150,-0.2129,-0.2422,3.72,1.71,2.01
1249,121499516,0.9194,-0.2080,-0.2393,3.11,1.77,1.52
1250,121504516,0.9209,-0.2051,-0.2344,2.56,1.77,1.04
1251,121509515,0.9136,-0.2080,-0.2339,2.01,1.65,0.61
1252,121514516,0.9175,-0.2041,-0.2373,1.34,1.65,0.12
1253,121519515,0.9180,-0.2070,-0.2432,0.79,1.59,-0.37
1254,121524518,0.9131,-0.2075,-0.2402,0.37,1.59,-0.91
1255,121529515,0.9165,-0.2056,-0.2456,-0.24,1.52,-1.28
1256,121534817,0.9131,-0.2051,-0.2422,-0.67,1.52,-1.71
1257,121539516,0.9102,-0.2007,-0.2437,-0.98,1.40,-2.07
1258,121544514,0.9116,-0.1982,-0.2451,-1.28,1.46,-2.50
1259,121549518,0.9126,-0.2002,-0.2368,-1.52,1.40,-2.80
1260,121554516,0.9116,-0.2017,-0.2471,-1.59,1.59,-3.17
1261,121559517,0.9053,-0.2002,-0.2378,-1.65,1.59,-3.48
1262,121564516,0.9072,-0.1963,-0.2422,-1.65,1.52,-3.84
1263,121569516,0.9072,-0.2012,-0.2397,-1.71,1.77,-4.09
1264,121574516,0.9019,-0.2012,-0.2368,-1.83,1.95,-4.39
1265,121579516,0.9053,-0.1978,-0.2393,-1.89,2.07,-4.57
1266,121584516,0.9038,-0.1973,-0.2437,-2.07,2.26,-4.88
1267,121589516,0.9019,-0.2007,-0.2441,-2.26,2.38,-5.00
1268,121594516,0.9038,-0.1968,-0.2451,-2.44,2.50,-5.18
1269,121599516,0.9033,-0.1948,-0.2397,-2.50,2.74,-5.18
1270,121604516,0.9014,-0.1948,-0.2427,-2.74,2.93,-5.37
1271,121609516,0.9023,-0.1919,-0.2456,-2.87,3.05,-5.61
1272,121614517,0.9058,-0.1968,-0.2417,-3.11,2.93,-5.73
1273,121619516,0.9033,-0.1968,-0.2402,-3.11,3.29,-5.79
1274,121624516,0.9053,-0.1938,-0.2319,-3.05,3.48,-6.04
1275,121629516,0.9038,-0.1895,-0.2422,-2.99,3.60,-5.98
1276,121634517,0.9092,-0.1929,-0.2402,-2.80,3.48,-6.28
1277,121639516,0.9106,-0.1875,-0.2295,-2.68,3.72,-6.28
1278,121644516,0.9092,-0.1875,-0.2383,-2.56,3.84,-6.52
1279,121649516,0.9111,-0.1875,-0.2373,-2.32,3.96,-6.59
1280,121654514,0.9082,-0.1836,-0.2378,-2.07,3.96,-6.65
1281,121659517,0.9097,-0.1851,-0.2358,-1.77,4.15,-7.07
1282,121664516,0.9097,-0.1841,-0.2354,-1.59,4.21,-7.13
1283,121669516,0.9126,-0.1812,-0.2407,-1.34,4.33,-7.20
1284,121674516,0.9160,-0.1841,-0.2329,-1.22,4.51,-7.32
1285,121679516,0.9170,-0.1787,-0.2383,-0.91,4.51,-7.44
1286,121684516,0.9204,-0.1826,-0.2349,-0.73,4.63,-7.68
1287,121689516,0.9199,-0.1792,-0.2354,-0.73,4.51,-7.80
1288,121694516,0.9194,-0.1812,-0.2324,-0.67,4.51,-7.80
1289,121699516,0.9214,-0.1768,-0.2354,-0.67,4.51,-7.99
1290,121704516,0.9199,-0.1782,-0.2412,-0.67,4.51,-8.11
1291,121709515,0.9199,-0.1738,-0.2378,-0.61,4.39,-8.17
1292,121714516,0.9224,-0.1704,-0.2412,-0.43,4.39,-8.17
1293,121719515,0.9229,-0.1738,-0.2329,-0.43,4.39,-8.35
1294,121724516,0.9238,-0.1689,-0.2363,-0.37,4.27,-8.41
1295,121729515,0.9204,-0.1685,-0.2339,-0.37,4.27,-8.41
1296,121734516,0.9199,-0.1665,-0.2397,-0.24,4.27,-8.41
1297,121739516,0.9160,-0.1636,-0.2402,-0.30,4.39,-8.48
1298,121744514,0.9194,-0.1621,-0.2363,-0.06,4.21,-8.54
1299,121749514,0.9224,-0.1631,-0.2422,0.06,4.33,-8.60
1300,121754518,0.9209,-0.1558,-0.2344,0.12,4.27,-8.66
1301,121759515,0.9233,-0.1553,-0.2349,0.24,4.27,-8.54
1302,121764514,0.9248,-0.1509,-0.2412,0.43,4.27,-8.48
1303,121769516,0.9219,-0.1548,-0.2354,0.43,4.27,-8.66
1304,121774516,0.9219,-0.1494,-0.2285,0.55,4.45,-8.48
1305,121779515,0.9253,-0.1509,-0.2314,0.67,4.39,-8.48
1306,121784586,0.9219,-0.1519,-0.2310,0.73,4.39,-8.35
1307,121789515,0.9243,-0.1450,-0.2295,0.73,4.51,-8.29
1308,121794517,0.9214,-0.1445,-0.2310,0.73,4.57,-8.23
1309,121799515,0.9219,-0.1450,-0.2261,0.73,4.76,-8.29
1310,121804516,0.9209,-0.1445,-0.2280,0.61,4.63,-8.23
1311,121809515,0.9194,-0.1421,-0.2261,0.67,4.82,-8.17
1312,121814516,0.9175,-0.1396,-0.2266,0.61,4.88,-8.17
1313,121819515,0.9175,-0.1377,-0.2227,0.55,4.88,-8.11
