# skilleye imu stream v1
# device=xiao_esp32c6 imu=mpu6050 addr=0x68
# rate_hz=200 accel_range_g=16 gyro_range_dps=2000 dlpf_hz=94
# units: accel in g, gyro in deg/s, t_us in microseconds since boot (monotonic)
# no shared clock with the camera -- tap the racket once before each take
# so both recordings share a spike to align on
seq,t_us,ax,ay,az,gx,gy,gz
0,89449785,0.5645,-0.7944,0.0757,0.85,6.22,5.12
1,89454791,0.5591,-0.7930,0.0781,-0.06,6.95,5.30
2,89459790,0.5605,-0.7900,0.0776,-1.04,7.38,5.43
3,89464787,0.5591,-0.7891,0.0757,-2.13,7.93,5.67
4,89469785,0.5615,-0.7871,0.0732,-2.93,8.48,5.79
5,89474789,0.5630,-0.7871,0.0830,-3.84,9.21,5.91
6,89479786,0.5654,-0.7827,0.0752,-4.51,10.00,6.10
7,89484785,0.5684,-0.7847,0.0742,-5.00,10.37,6.22
8,89489789,0.5757,-0.7866,0.0840,-5.49,11.16,6.40
9,89494787,0.5815,-0.7852,0.0801,-5.67,11.59,6.71
10,89499786,0.5864,-0.7847,0.0762,-5.61,12.32,6.89
11,89504787,0.5903,-0.7861,0.0820,-5.37,12.68,7.07
12,89509787,0.5977,-0.7847,0.0806,-5.00,13.23,7.20
13,89514790,0.6045,-0.7896,0.0830,-4.82,13.78,7.68
14,89519785,0.6069,-0.7905,0.0801,-4.27,14.21,7.87
15,89525399,0.6089,-0.7959,0.0815,-3.54,14.88,8.11
16,89529787,0.6064,-0.7988,0.0845,-2.87,15.37,8.48
17,89534787,0.6094,-0.8066,0.0796,-2.13,15.85,8.66
18,89539787,0.6084,-0.8154,0.0840,-1.10,16.22,9.02
19,89544786,0.6050,-0.8237,0.0898,-0.12,16.71,9.21
20,89549787,0.5996,-0.8262,0.0879,0.85,17.20,9.39
21,89554987,0.5938,-0.8359,0.0903,1.89,17.74,9.57
22,89559788,0.5850,-0.8457,0.0957,2.87,18.17,9.76
23,89564785,0.5708,-0.8467,0.0991,4.02,18.60,9.70
24,89569786,0.5625,-0.8506,0.1055,4.94,18.96,9.57
25,89574787,0.5522,-0.8501,0.0977,5.73,19.70,9.39
26,89579786,0.5405,-0.8481,0.1079,6.22,19.94,8.90
27,89584785,0.5244,-0.8501,0.1025,6.65,20.49,8.48
28,89589787,0.5249,-0.8525,0.1074,6.77,20.67,7.93
29,89594786,0.5176,-0.8467,0.1064,6.71,21.04,7.32
30,89599785,0.5146,-0.8481,0.1113,6.46,21.10,6.65
31,89604787,0.5137,-0.8413,0.1064,6.10,21.16,6.04
32,89609787,0.5166,-0.8379,0.1143,5.49,21.22,5.49
33,89614786,0.5234,-0.8345,0.1094,4.76,21.10,5.06
34,89619788,0.5244,-0.8296,0.1099,3.78,21.22,4.63
35,89624787,0.5396,-0.8237,0.1011,2.80,21.10,4.21
36,89629787,0.5474,-0.8169,0.1006,1.89,21.04,4.21
37,89634786,0.5610,-0.8120,0.1055,0.85,20.85,4.02
38,89639787,0.5664,-0.8110,0.0957,0.24,20.91,4.02
39,89644786,0.5728,-0.8047,0.0991,-0.12,20.98,4.09
40,89649785,0.5815,-0.7998,0.0913,-0.43,20.91,4.27
41,89654787,0.5869,-0.7959,0.0884,-0.18,20.73,4.27
42,89659787,0.5908,-0.7822,0.0820,0.18,20.73,4.39
43,89665070,0.5942,-0.7769,0.0850,0.85,20.85,4.39
44,89669787,0.6025,-0.7715,0.0732,1.77,20.67,4.21
45,89674787,0.6099,-0.7632,0.0781,2.80,20.73,4.15
46,89679787,0.6172,-0.7607,0.0728,3.84,20.55,4.02
47,89684786,0.6152,-0.7568,0.0757,4.88,20.43,3.96
48,89689788,0.6182,-0.7529,0.0713,5.79,20.18,3.72
49,89694787,0.6226,-0.7471,0.0693,6.52,19.94,3.72
50,89699787,0.6230,-0.7480,0.0630,7.13,19.57,3.48
51,89704786,0.6221,-0.7500,0.0713,7.44,19.21,3.41
52,89709787,0.6240,-0.7520,0.0557,7.80,18.84,3.29
53,89714787,0.6216,-0.7593,0.0557,7.99,18.29,3.11
54,89719787,0.6167,-0.7656,0.0557,7.93,17.62,2.99
55,89724785,0.6191,-0.7754,0.0562,7.68,16.89,2.87
56,89729787,0.6143,-0.7827,0.0581,6.89,16.34,2.74
57,89734787,0.6099,-0.7861,0.0635,5.67,15.67,2.50
58,89739787,0.6025,-0.7925,0.0703,3.78,15.18,2.20
59,89744788,0.5972,-0.7935,0.0786,1.16,14.70,1.89
60,89749787,0.5933,-0.8008,0.0781,-2.13,14.15,1.46
61,89754785,0.5903,-0.8018,0.0791,-5.85,13.72,0.91
62,89759787,0.5771,-0.8062,0.0913,-10.30,13.05,0.30
63,89764787,0.5742,-0.8169,0.1016,-15.06,12.50,-0.43
64,89769787,0.5679,-0.8213,0.0986,-20.37,11.83,-1.22
65,89774786,0.5693,-0.8281,0.1074,-26.04,11.16,-2.07
66,89779787,0.5659,-0.8350,0.1152,-31.71,10.43,-2.99
67,89784787,0.5649,-0.8433,0.1230,-37.68,9.63,-3.96
68,89789787,0.5620,-0.8545,0.1382,-43.54,8.96,-4.88
69,89794789,0.5581,-0.8647,0.1421,-49.39,8.23,-5.73
70,89799787,0.5503,-0.8804,0.1606,-55.00,7.62,-6.65
71,89804787,0.5386,-0.9028,0.1826,-60.18,7.13,-7.44
72,89809787,0.5234,-0.9180,0.1958,-64.57,6.71,-8.05
73,89814790,0.5112,-0.9321,0.2095,-69.15,6.46,-8.84
74,89819787,0.5005,-0.9390,0.2222,-71.34,6.46,-9.15
75,89824789,0.4946,-0.9453,0.2251,-73.29,6.34,-9.63
76,89829787,0.4878,-0.9463,0.2349,-74.39,6.28,-10.06
77,89834787,0.4824,-0.9478,0.2231,-74.39,6.16,-10.49
78,89839788,0.4766,-0.9399,0.2178,-73.29,5.98,-11.04
79,89844786,0.4712,-0.9316,0.2104,-71.40,5.91,-11.22
80,89849787,0.4692,-0.9219,0.2017,-68.48,5.73,-11.59
81,89855354,0.4727,-0.9097,0.1846,-64.15,5.18,-11.89
82,89859787,0.4805,-0.9053,0.1758,-60.73,5.00,-11.95
83,89864787,0.4922,-0.8960,0.1753,-56.22,4.88,-12.13
84,89869788,0.5083,-0.8882,0.1729,-51.28,4.76,-12.13
85,89874786,0.5288,-0.8799,0.1826,-46.22,4.76,-12.01
86,89879787,0.5483,-0.8711,0.1836,-41.34,5.37,-11.83
87,89884787,0.5610,-0.8511,0.1812,-36.77,5.98,-11.71
88,89889787,0.5679,-0.8276,0.1851,-32.50,6.95,-11.65
89,89894785,0.5610,-0.7979,0.1904,-28.48,7.93,-11.77
90,89899789,0.5576,-0.7827,0.1865,-24.27,9.02,-11.95
91,89904787,0.5479,-0.7617,0.1758,-19.94,10.00,-12.20
92,89909787,0.5479,-0.7583,0.1592,-15.30,10.79,-12.32
93,89914787,0.5532,-0.7622,0.1475,-10.06,11.65,-12.50
94,89919787,0.5669,-0.7651,0.1313,-4.33,12.01,-12.26
95,89924806,0.5845,-0.7856,0.1045,2.07,12.26,-12.07
96,89929787,0.6040,-0.8047,0.0835,9.02,12.38,-11.52
97,89934786,0.6255,-0.8154,0.0737,16.16,12.01,-10.67
98,89939787,0.6406,-0.8247,0.0498,23.11,11.22,-9.45
99,89944787,0.6455,-0.8252,0.0405,29.82,10.30,-8.29
100,89949788,0.6514,-0.8291,0.0352,35.61,9.15,-7.20
101,89954786,0.6475,-0.8232,0.0303,40.24,8.05,-6.10
102,89959787,0.6479,-0.8232,0.0298,43.05,6.71,-5.24
103,89964787,0.6426,-0.8184,0.0400,44.27,5.18,-4.57
104,89969787,0.6396,-0.8223,0.0513,43.54,4.09,-4.09
105,89974829,0.6357,-0.8188,0.0552,41.28,3.05,-3.78
106,89979787,0.6333,-0.8232,0.0654,37.32,2.07,-3.66
107,89984787,0.6357,-0.8286,0.0850,31.89,1.34,-3.84
108,89989787,0.6299,-0.8320,0.0967,25.06,0.79,-4.09
109,89994785,0.6250,-0.8345,0.1035,17.20,0.37,-4.39
110,89999785,0.6206,-0.8413,0.1123,8.54,0.06,-4.88
111,90004787,0.6074,-0.8398,0.1328,-0.73,-0.18,-5.61
112,90009786,0.5947,-0.8389,0.1421,-10.18,0.00,-6.28
113,90014787,0.5854,-0.8325,0.1514,-19.57,0.12,-7.20
114,90019787,0.5679,-0.8330,0.1592,-28.66,0.24,-8.11
115,90024830,0.5581,-0.8301,0.1660,-37.01,0.55,-9.09
116,90029787,0.5527,-0.8296,0.1646,-44.09,0.98,-10.12
117,90034788,0.5527,-0.8271,0.1704,-49.88,1.40,-11.10
118,90039787,0.5576,-0.8281,0.1670,-53.78,1.89,-12.01
119,90044787,0.5605,-0.8320,0.1636,-56.16,2.20,-12.68
120,90049787,0.5659,-0.8345,0.1499,-56.59,2.62,-13.35
121,90054785,0.5708,-0.8354,0.1406,-55.18,2.99,-13.66
122,90060213,0.5776,-0.8301,0.1392,-52.26,3.17,-13.84
123,90064787,0.5815,-0.8408,0.1250,-47.74,3.23,-13.90
124,90069786,0.5811,-0.8403,0.1221,-42.01,3.29,-13.90
125,90074789,0.5903,-0.8384,0.1128,-35.24,3.11,-13.60
126,90079788,0.5903,-0.8359,0.1001,-27.80,3.17,-13.23
127,90084876,0.5938,-0.8389,0.1016,-19.88,2.80,-13.05
128,90089786,0.5996,-0.8315,0.0918,-11.89,2.56,-12.74
129,90094785,0.6069,-0.8306,0.0835,-4.21,2.38,-12.38
130,90099785,0.6099,-0.8271,0.0869,3.05,2.26,-12.01
131,90104787,0.6108,-0.8267,0.0903,9.45,1.89,-11.83
132,90109786,0.6138,-0.8232,0.0859,14.70,1.71,-11.52
133,90114787,0.6104,-0.8193,0.0830,18.78,1.59,-11.28
134,90119789,0.6084,-0.8110,0.0820,21.59,1.46,-11.40
135,90124787,0.6040,-0.8022,0.0898,23.17,1.40,-11.46
136,90129786,0.5972,-0.7988,0.0815,23.35,1.40,-11.59
137,90134787,0.6011,-0.7935,0.0801,22.38,1.65,-11.83
138,90139786,0.6050,-0.7856,0.0859,20.43,1.59,-12.13
139,90144787,0.6016,-0.7788,0.0835,17.87,1.71,-12.50
140,90149786,0.6021,-0.7769,0.0786,14.51,1.65,-12.87
141,90154785,0.6035,-0.7749,0.0840,10.79,2.01,-13.23
142,90159787,0.6064,-0.7676,0.0869,6.89,2.07,-13.60
143,90164787,0.6045,-0.7681,0.0771,2.93,2.01,-13.96
144,90169787,0.6123,-0.7671,0.0781,-0.67,2.32,-14.21
145,90174787,0.6123,-0.7700,0.0688,-4.02,2.50,-14.33
146,90179787,0.6162,-0.7646,0.0703,-6.71,2.62,-14.39
147,90184787,0.6177,-0.7646,0.0649,-8.84,2.38,-14.27
148,90189785,0.6206,-0.7656,0.0596,-10.55,2.68,-14.27
149,90194788,0.6216,-0.7661,0.0557,-11.46,2.56,-14.15
150,90199785,0.6221,-0.7676,0.0522,-11.65,2.38,-13.78
151,90205345,0.6279,-0.7651,0.0488,-11.34,2.44,-13.41
152,90209787,0.6304,-0.7583,0.0425,-10.55,2.26,-13.05
153,90214904,0.6309,-0.7593,0.0439,-9.39,2.07,-12.50
154,90219787,0.6299,-0.7578,0.0415,-7.99,1.95,-12.07
155,90224787,0.6284,-0.7563,0.0322,-6.34,1.77,-11.71
156,90229787,0.6304,-0.7534,0.0352,-4.70,1.59,-11.16
157,90234787,0.6323,-0.7505,0.0308,-3.05,1.46,-10.49
158,90239787,0.6279,-0.7490,0.0400,-1.46,1.34,-10.12
159,90244787,0.6289,-0.7480,0.0327,-0.43,1.10,-9.82
160,90249788,0.6226,-0.7437,0.0400,0.49,0.85,-9.33
161,90254785,0.6323,-0.7368,0.0293,0.85,0.79,-9.09
162,90259785,0.6279,-0.7373,0.0342,1.04,0.49,-8.78
163,90264920,0.6387,-0.7373,0.0381,0.73,0.43,-8.54
164,90269787,0.6426,-0.7388,0.0381,0.24,0.43,-8.48
165,90274786,0.6519,-0.7363,0.0410,-0.67,0.43,-8.35
166,90279816,0.6592,-0.7368,0.0493,-2.13,0.43,-8.29
167,90284786,0.6685,-0.7363,0.0479,-3.29,0.37,-8.23
168,90289787,0.6694,-0.7354,0.0503,-4.94,0.43,-8.29
169,90294786,0.6738,-0.7373,0.0493,-6.52,0.73,-8.29
170,90299785,0.6772,-0.7393,0.0439,-8.29,0.73,-8.60
171,90304785,0.6797,-0.7417,0.0493,-9.63,0.73,-8.72
172,90309789,0.6865,-0.7505,0.0513,-10.73,0.73,-8.90
173,90314786,0.6890,-0.7524,0.0454,-11.77,0.67,-9.02
174,90319787,0.6929,-0.7563,0.0508,-12.56,0.85,-9.27
175,90324786,0.6953,-0.7563,0.0508,-13.11,0.67,-9.57
176,90329787,0.6997,-0.7588,0.0527,-13.41,0.67,-9.76
177,90334786,0.7065,-0.7617,0.0527,-13.54,0.49,-10.12
178,90339787,0.7061,-0.7690,0.0630,-13.41,0.55,-10.49
179,90344786,0.7051,-0.7695,0.0645,-13.35,0.37,-10.85
180,90349785,0.7046,-0.7705,0.0615,-12.99,0.37,-11.22
181,90354787,0.7017,-0.7769,0.0718,-12.44,0.43,-11.83
182,90359787,0.6987,-0.7852,0.0737,-12.01,0.24,-12.38
183,90364824,0.7021,-0.7847,0.0762,-11.40,0.18,-12.87
184,90369785,0.6914,-0.7910,0.0830,-10.67,0.12,-13.66
185,90374787,0.6855,-0.7910,0.0894,-9.88,-0.12,-14.45
186,90379788,0.6782,-0.7905,0.0894,-9.09,-0.24,-15.37
187,90384787,0.6685,-0.7920,0.0874,-8.17,-0.43,-16.28
188,90389787,0.6523,-0.7920,0.0918,-7.07,-0.85,-17.32
189,90394787,0.6436,-0.7900,0.0957,-6.04,-1.04,-18.54
190,90399785,0.6421,-0.7896,0.0894,-4.82,-1.46,-19.70
191,90404785,0.6367,-0.7925,0.0933,-3.41,-2.01,-20.91
192,90409786,0.6338,-0.7856,0.0889,-1.95,-2.50,-22.13
193,90414787,0.6284,-0.7886,0.0859,-0.18,-3.05,-23.41
194,90419787,0.6260,-0.7891,0.0889,1.65,-3.72,-24.51
195,90424786,0.6260,-0.7910,0.0820,3.84,-4.45,-25.73
196,90429787,0.6294,-0.7891,0.0698,5.98,-5.30,-26.77
197,90434786,0.6348,-0.7861,0.0679,8.41,-5.98,-27.68
198,90439787,0.6431,-0.7886,0.0654,10.61,-6.95,-28.48
199,90444786,0.6553,-0.7900,0.0601,12.87,-7.68,-29.27
200,90449787,0.6602,-0.7886,0.0557,15.06,-8.66,-29.82
201,90454787,0.6704,-0.7891,0.0513,17.01,-9.39,-30.06
202,90460205,0.6836,-0.7812,0.0449,18.84,-10.49,-30.37
203,90464787,0.6914,-0.7817,0.0420,19.70,-11.22,-30.49
204,90469837,0.7021,-0.7793,0.0386,20.30,-11.95,-30.55
205,90474786,0.7114,-0.7725,0.0396,20.61,-12.68,-30.37
206,90479787,0.7168,-0.7681,0.0366,20.24,-13.41,-30.24
207,90484786,0.7222,-0.7666,0.0342,19.63,-13.96,-30.06
208,90489787,0.7227,-0.7554,0.0361,18.35,-14.33,-29.82
209,90494785,0.7261,-0.7539,0.0303,16.59,-14.94,-29.57
210,90499786,0.7271,-0.7422,0.0288,14.57,-15.12,-29.21
211,90504785,0.7319,-0.7324,0.0376,12.07,-15.43,-28.90
212,90509785,0.7349,-0.7266,0.0356,9.33,-15.61,-28.54
213,90514789,0.7319,-0.7192,0.0356,6.52,-15.55,-28.17
214,90519787,0.7329,-0.7119,0.0337,3.48,-15.67,-27.93
215,90524789,0.7290,-0.7065,0.0405,0.43,-15.43,-27.62
216,90529787,0.7329,-0.6997,0.0361,-2.26,-15.24,-27.26
217,90534786,0.7285,-0.6934,0.0332,-5.06,-15.12,-26.83
218,90540089,0.7290,-0.6831,0.0342,-7.44,-14.88,-26.46
219,90544787,0.7266,-0.6733,0.0425,-9.45,-14.63,-26.10
220,90549787,0.7217,-0.6650,0.0288,-11.04,-14.27,-25.79
221,90554788,0.7188,-0.6655,0.0371,-12.07,-14.09,-25.43
222,90559786,0.7139,-0.6602,0.0288,-12.68,-13.78,-24.94
223,90564885,0.7129,-0.6543,0.0259,-12.74,-13.60,-24.57
224,90569787,0.7075,-0.6543,0.0278,-12.44,-13.23,-24.15
225,90574787,0.7100,-0.6484,0.0322,-11.65,-13.11,-23.84
226,90579787,0.7051,-0.6431,0.0229,-10.49,-13.11,-23.35
227,90584787,0.7046,-0.6436,0.0210,-9.02,-13.05,-22.99
228,90589785,0.6982,-0.6406,0.0278,-7.26,-12.68,-22.56
229,90594787,0.6963,-0.6382,0.0229,-5.43,-12.62,-22.07
230,90599787,0.6963,-0.6367,0.0181,-3.41,-12.50,-21.77
231,90604788,0.6929,-0.6333,0.0215,-1.34,-12.44,-21.34
232,90609785,0.6929,-0.6284,0.0303,0.73,-12.20,-20.98
233,90615116,0.6890,-0.6255,0.0283,2.87,-12.13,-20.55
234,90619799,0.6919,-0.6289,0.0234,4.70,-12.07,-20.18
235,90624787,0.6895,-0.6230,0.0220,6.59,-12.01,-19.70
236,90629787,0.6880,-0.6260,0.0259,8.54,-11.95,-19.33
237,90634787,0.6880,-0.6270,0.0244,10.12,-12.07,-19.02
238,90639786,0.6851,-0.6245,0.0269,11.59,-12.01,-18.54
239,90644787,0.6851,-0.6250,0.0200,12.74,-12.07,-18.11
240,90649786,0.6880,-0.6235,0.0312,13.84,-11.89,-17.62
241,90654787,0.6865,-0.6284,0.0229,14.82,-12.01,-17.20
242,90659786,0.6851,-0.6289,0.0239,15.55,-12.07,-16.71
243,90664788,0.6855,-0.6245,0.0220,16.28,-11.95,-16.22
244,90669786,0.6831,-0.6274,0.0181,16.77,-12.26,-15.79
245,90674785,0.6797,-0.6245,0.0210,17.13,-12.32,-15.37
246,90679787,0.6802,-0.6274,0.0161,17.50,-12.44,-14.94
247,90684786,0.6841,-0.6284,0.0244,17.62,-12.50,-14.39
248,90689787,0.6851,-0.6299,0.0215,17.87,-12.80,-13.84
249,90694786,0.6831,-0.6313,0.0229,17.93,-13.05,-13.29
250,90699787,0.6904,-0.6304,0.0244,18.05,-13.23,-12.87
251,90704786,0.6890,-0.6362,0.0249,18.23,-13.29,-12.26
252,90709785,0.7036,-0.6323,0.0288,18.41,-13.60,-11.71
253,90714785,0.7012,-0.6362,0.0322,18.48,-13.84,-11.10
254,90719789,0.7012,-0.6377,0.0273,18.60,-14.02,-10.49
255,90724786,0.7090,-0.6440,0.0352,18.78,-14.15,-9.76
256,90729787,0.7144,-0.6450,0.0337,19.15,-14.45,-9.09
257,90734786,0.7148,-0.6455,0.0347,19.33,-14.57,-8.48
258,90739787,0.7148,-0.6470,0.0405,19.57,-14.94,-7.80
259,90744786,0.7188,-0.6523,0.0454,19.57,-15.30,-7.07
260,90749787,0.7183,-0.6543,0.0371,19.76,-15.49,-6.59
261,90754787,0.7192,-0.6514,0.0444,19.94,-15.79,-5.79
262,90759785,0.7192,-0.6572,0.0488,20.12,-16.16,-5.18
263,90764788,0.7217,-0.6665,0.0493,20.24,-16.59,-4.63
264,90770038,0.7158,-0.6699,0.0469,20.37,-16.71,-3.96
265,90774785,0.7236,-0.6699,0.0552,20.49,-17.20,-3.41
266,90779787,0.7217,-0.6729,0.0605,20.73,-17.32,-2.68
267,90784787,0.7280,-0.6777,0.0571,20.91,-17.87,-2.07
268,90789791,0.7251,-0.6812,0.0654,21.10,-18.35,-1.46
269,90794785,0.7275,-0.6792,0.0674,21.28,-18.72,-0.91
270,90799788,0.7246,-0.6777,0.0635,21.52,-19.15,-0.37
271,90805299,0.7231,-0.6782,0.0728,21.71,-19.57,0.12
272,90809786,0.7153,-0.6753,0.0762,22.20,-20.18,0.43
273,90814787,0.7046,-0.6772,0.0786,22.50,-20.61,0.73
274,90819787,0.7036,-0.6748,0.0781,22.87,-21.04,0.85
275,90824785,0.7017,-0.6743,0.0845,23.48,-21.65,1.04
276,90829788,0.6919,-0.6743,0.0815,24.09,-22.26,1.28
277,90834786,0.6855,-0.6729,0.0874,24.70,-22.99,1.40
278,90839787,0.6826,-0.6704,0.0879,25.43,-23.48,1.46
279,90844787,0.6738,-0.6689,0.0835,26.65,-24.15,1.40
280,90849787,0.6743,-0.6670,0.0894,27.50,-24.94,1.52
281,90854787,0.6675,-0.6641,0.0859,28.96,-25.61,1.65
282,90859787,0.6655,-0.6655,0.0884,30.12,-26.34,1.59
283,90864788,0.6660,-0.6646,0.0933,31.65,-27.13,1.77
284,90869805,0.6660,-0.6611,0.0903,33.60,-27.99,1.77
285,90874787,0.6719,-0.6606,0.0913,35.55,-28.84,1.83
286,90879786,0.6699,-0.6528,0.0923,37.74,-29.63,2.01
287,90884789,0.6665,-0.6548,0.0879,40.24,-30.37,2.13
288,90889786,0.6670,-0.6504,0.0977,43.11,-31.22,2.38
289,90894787,0.6733,-0.6509,0.1021,45.06,-32.01,2.68
290,90899787,0.6738,-0.6475,0.0957,47.68,-32.68,2.87
291,90904787,0.6772,-0.6470,0.0986,50.06,-33.48,3.23
292,90909786,0.6792,-0.6450,0.0928,52.38,-34.27,3.54
293,90914787,0.6777,-0.6465,0.0957,54.39,-35.24,4.09
294,90919786,0.6885,-0.6455,0.0933,56.22,-36.16,4.57
295,90924787,0.6816,-0.6450,0.0918,57.62,-36.71,5.06
296,90929954,0.6831,-0.6509,0.0962,59.09,-37.74,5.73
297,90934788,0.6860,-0.6567,0.0913,59.63,-38.23,6.16
298,90939786,0.6885,-0.6523,0.0908,59.94,-39.27,6.83
299,90944787,0.6904,-0.6504,0.0918,59.94,-40.06,7.38
300,90949787,0.6875,-0.6523,0.0977,59.39,-40.73,7.93
301,90954788,0.6831,-0.6553,0.0938,58.48,-41.52,8.54
302,90959785,0.6885,-0.6567,0.0933,56.95,-42.56,9.21
303,90964787,0.6890,-0.6597,0.0898,55.61,-43.23,9.63
304,90969787,0.6860,-0.6572,0.0942,53.72,-43.90,10.06
305,90974787,0.6880,-0.6602,0.0972,51.71,-44.57,10.49
306,90979785,0.6880,-0.6611,0.0972,49.33,-45.18,10.91
307,90984785,0.6899,-0.6621,0.0913,47.01,-45.85,11.40
308,90989789,0.6899,-0.6641,0.1001,44.63,-46.46,11.65
309,90994786,0.6855,-0.6641,0.0986,42.13,-46.95,11.95
310,90999785,0.6904,-0.6660,0.0962,39.82,-47.56,12.07
311,91004789,0.6914,-0.6675,0.0918,37.56,-47.87,12.26
312,91010167,0.6929,-0.6719,0.0864,35.12,-48.35,12.44
313,91014787,0.6973,-0.6753,0.0942,33.84,-48.72,12.50
314,91019785,0.6899,-0.6748,0.0918,32.62,-49.09,12.50
315,91024786,0.6943,-0.6792,0.0830,31.65,-49.39,12.68
316,91029787,0.6987,-0.6787,0.0713,31.22,-49.94,12.62
317,91034787,0.6958,-0.6812,0.0732,31.04,-50.49,12.74
318,91039878,0.6938,-0.6763,0.0723,31.28,-50.61,12.68
319,91044785,0.6924,-0.6763,0.0688,31.77,-51.16,12.56
320,91050193,0.6968,-0.6758,0.0664,32.74,-51.59,12.32
321,91054787,0.6963,-0.6719,0.0654,33.54,-51.77,12.20
322,91059787,0.6997,-0.6729,0.0620,34.63,-52.13,11.89
323,91064788,0.7002,-0.6704,0.0557,35.98,-52.26,11.59
324,91069786,0.7104,-0.6694,0.0586,37.44,-52.62,11.28
325,91074787,0.7188,-0.6709,0.0552,38.90,-52.62,10.85
326,91079786,0.7178,-0.6758,0.0557,40.61,-52.93,10.37
327,91084786,0.7217,-0.6748,0.0498,42.56,-53.05,10.00
328,91089975,0.7241,-0.6753,0.0532,44.63,-53.11,9.51
329,91094886,0.7275,-0.6826,0.0493,46.46,-53.17,9.02
330,91099787,0.7349,-0.6802,0.0444,48.66,-53.23,8.54
331,91104789,0.7344,-0.6792,0.0425,50.61,-53.23,7.87
332,91109788,0.7334,-0.6846,0.0449,52.68,-53.23,7.44
333,91114787,0.7334,-0.6812,0.0371,54.45,-53.48,6.89
334,91119785,0.7388,-0.6836,0.0366,56.04,-53.48,6.34
335,91124785,0.7417,-0.6826,0.0332,57.32,-53.48,5.73
336,91130269,0.7505,-0.6802,0.0312,58.78,-53.60,4.94
337,91134787,0.7500,-0.6846,0.0288,59.33,-53.72,4.39
338,91139786,0.7598,-0.6807,0.0273,59.88,-53.60,3.72
339,91144787,0.7627,-0.6855,0.0288,60.55,-53.29,2.93
340,91149786,0.7617,-0.6841,0.0332,60.85,-53.17,2.26
341,91154787,0.7686,-0.6885,0.0317,61.22,-52.87,1.34
342,91159786,0.7725,-0.6899,0.0352,61.52,-52.56,0.61
343,91164787,0.7773,-0.6895,0.0254,61.83,-52.32,-0.30
344,91169872,0.7832,-0.6880,0.0308,62.26,-52.01,-1.04
345,91174788,0.7817,-0.6895,0.0283,62.62,-51.52,-1.95
346,91179786,0.7861,-0.6890,0.0239,63.17,-51.28,-2.80
347,91184786,0.7881,-0.6943,0.0234,63.72,-50.85,-3.72
348,91189787,0.7920,-0.6934,0.0220,64.45,-50.67,-4.70
349,91194792,0.7954,-0.6953,0.0220,65.00,-50.43,-5.43
350,91199786,0.8008,-0.6997,0.0186,65.73,-49.94,-6.10
351,91204787,0.8081,-0.7012,0.0122,66.52,-49.76,-6.83
352,91209958,0.8076,-0.7051,0.0098,67.38,-49.21,-7.56
353,91214787,0.8096,-0.7065,0.0015,68.23,-49.02,-8.23
354,91219786,0.8091,-0.7075,0.0132,68.96,-48.66,-8.78
355,91224785,0.8091,-0.7051,0.0083,69.70,-48.48,-9.57
356,91229786,0.8066,-0.7041,0.0029,70.43,-48.17,-10.30
357,91234787,0.8062,-0.7017,0.0068,70.79,-47.74,-11.16
358,91239785,0.8018,-0.7026,0.0068,70.85,-47.44,-11.83
359,91244787,0.7988,-0.7002,0.0039,70.73,-47.13,-12.74
360,91249787,0.7954,-0.7007,0.0093,70.18,-46.65,-13.66
361,91254787,0.7886,-0.6958,0.0015,69.27,-46.46,-14.63
362,91259785,0.7876,-0.6963,-0.0029,68.11,-45.98,-15.79
363,91264787,0.7861,-0.6943,-0.0049,66.83,-45.67,-16.89
364,91269787,0.7832,-0.6924,-0.0073,65.43,-45.37,-17.93
365,91274785,0.7778,-0.6890,-0.0098,63.78,-45.00,-19.02
366,91279786,0.7803,-0.6890,-0.0210,62.07,-44.70,-20.30
367,91285028,0.7764,-0.6875,-0.0229,60.12,-44.57,-21.40
368,91289788,0.7715,-0.6816,-0.0254,58.23,-44.33,-22.68
369,91294786,0.7734,-0.6816,-0.0259,56.16,-44.09,-23.90
370,91299787,0.7739,-0.6768,-0.0312,54.21,-43.90,-25.24
371,91304786,0.7690,-0.6743,-0.0347,52.50,-43.72,-26.52
372,91309787,0.7739,-0.6724,-0.0396,50.79,-43.54,-27.68
373,91314787,0.7764,-0.6714,-0.0425,49.15,-43.29,-28.84
374,91319787,0.7852,-0.6675,-0.0483,47.62,-43.05,-30.00
375,91324787,0.7949,-0.6685,-0.0498,46.16,-42.80,-31.16
376,91329807,0.7964,-0.6675,-0.0576,44.70,-42.50,-32.20
377,91334787,0.7998,-0.6694,-0.0601,43.41,-42.07,-33.23
378,91339787,0.8013,-0.6670,-0.0645,42.44,-41.83,-34.33
379,91344787,0.8022,-0.6650,-0.0708,41.59,-41.40,-35.37
380,91349787,0.7935,-0.6631,-0.0664,41.10,-41.04,-36.40
381,91354788,0.7881,-0.6582,-0.0742,40.67,-40.85,-37.38
382,91359787,0.7847,-0.6597,-0.0786,40.49,-40.49,-38.41
383,91364787,0.7988,-0.6699,-0.0850,40.24,-40.24,-39.21
384,91369787,0.8052,-0.6719,-0.0854,40.18,-39.94,-40.00
385,91374787,0.8003,-0.6729,-0.0894,39.94,-39.57,-40.73
386,91379787,0.7964,-0.6743,-0.0991,39.57,-39.45,-41.40
387,91384787,0.7974,-0.6777,-0.1064,39.33,-39.09,-42.13
388,91389787,0.8022,-0.6772,-0.1069,38.66,-38.90,-42.68
389,91394787,0.7959,-0.6792,-0.1094,37.80,-38.72,-43.41
390,91399786,0.7954,-0.6855,-0.1138,36.65,-38.54,-44.02
391,91404787,0.7974,-0.6846,-0.1084,35.24,-38.23,-44.94
392,91409786,0.7998,-0.6899,-0.1152,33.29,-37.80,-45.67
393,91414787,0.8052,-0.6880,-0.1182,31.04,-37.62,-46.52
394,91419786,0.8071,-0.6909,-0.1162,28.60,-37.44,-47.56
395,91424787,0.8101,-0.6895,-0.1094,25.61,-36.95,-48.48
396,91429785,0.8110,-0.6963,-0.1108,22.68,-36.59,-49.57
397,91434787,0.8110,-0.7104,-0.1123,19.76,-36.22,-50.67
398,91439786,0.8145,-0.7129,-0.1069,16.95,-35.73,-51.71
399,91444789,0.8154,-0.7227,-0.1060,14.63,-35.24,-52.87
400,91449785,0.8174,-0.7275,-0.1089,13.05,-35.12,-53.78
401,91454966,0.8096,-0.7393,-0.1021,11.46,-34.76,-55.18
402,91459786,0.8101,-0.7451,-0.0996,10.67,-34.39,-56.28
403,91464788,0.8218,-0.7480,-0.1045,10.00,-34.15,-57.44
404,91469786,0.8291,-0.7505,-0.1040,9.70,-33.96,-58.29
405,91474787,0.8301,-0.7578,-0.1011,9.21,-33.72,-59.45
406,91479786,0.8257,-0.7568,-0.0977,8.96,-33.41,-60.61
407,91484788,0.8242,-0.7539,-0.0942,8.72,-33.35,-61.77
408,91489785,0.8281,-0.7480,-0.1025,8.48,-33.05,-62.93
409,91494981,0.8198,-0.7397,-0.1001,8.17,-32.62,-64.51
410,91499787,0.8164,-0.7402,-0.1016,7.87,-32.62,-65.67
411,91504787,0.8145,-0.7314,-0.0913,7.26,-32.26,-67.07
412,91510274,0.8047,-0.7207,-0.0923,6.77,-32.01,-68.72
413,91514787,0.8042,-0.7158,-0.0898,6.34,-31.95,-70.00
414,91519787,0.7949,-0.7061,-0.0894,5.79,-31.65,-71.34
415,91524789,0.7920,-0.7007,-0.0957,5.18,-31.34,-72.80
416,91529785,0.7974,-0.6929,-0.0850,4.51,-31.28,-74.45
417,91534785,0.7910,-0.6880,-0.0825,3.90,-31.04,-76.10
418,91539789,0.7954,-0.6729,-0.0776,3.35,-30.79,-77.68
419,91544787,0.7935,-0.6636,-0.0859,2.62,-30.43,-79.39
420,91549786,0.7939,-0.6538,-0.0840,1.95,-30.24,-80.98
421,91554787,0.7925,-0.6396,-0.0767,1.40,-29.94,-82.44
422,91559786,0.7988,-0.6294,-0.0801,0.79,-29.82,-84.09
423,91564787,0.7944,-0.6182,-0.0752,0.49,-29.51,-85.73
424,91569786,0.7935,-0.6113,-0.0737,0.30,-29.21,-87.26
425,91574787,0.7944,-0.5957,-0.0771,0.43,-28.96,-88.60
426,91579787,0.7925,-0.5825,-0.0791,0.55,-28.90,-90.12
427,91584788,0.7944,-0.5645,-0.0918,0.98,-28.84,-91.34
428,91589786,0.7930,-0.5493,-0.0962,1.22,-28.78,-92.62
429,91594787,0.7974,-0.5376,-0.0952,1.52,-28.84,-93.96
430,91599787,0.7993,-0.5190,-0.1040,1.89,-28.96,-95.12
431,91604785,0.7905,-0.4893,-0.1108,2.32,-29.02,-96.40
432,91609787,0.7925,-0.4780,-0.1157,2.56,-29.21,-97.26
433,91614787,0.7866,-0.4536,-0.1143,2.56,-29.27,-98.29
434,91619803,0.7842,-0.4326,-0.1152,2.38,-29.51,-99.15
435,91624787,0.7852,-0.4175,-0.1226,1.95,-29.51,-100.06
436,91629786,0.7788,-0.4009,-0.1221,1.40,-29.63,-100.55
437,91634785,0.7769,-0.3857,-0.1196,0.79,-29.45,-101.04
438,91639892,0.7769,-0.3745,-0.1235,-0.12,-29.39,-101.40
439,91644786,0.7769,-0.3589,-0.1172,-0.98,-29.09,-101.28
440,91649787,0.7627,-0.3462,-0.1348,-2.07,-29.15,-101.16
441,91654788,0.7432,-0.3276,-0.1543,-3.48,-29.39,-100.79
442,91659787,0.7139,-0.3042,-0.1572,-4.57,-29.76,-100.30
443,91664787,0.6973,-0.2563,-0.1958,-5.61,-30.55,-99.94
444,91669787,0.7173,-0.2500,-0.1768,-7.13,-31.59,-100.12
445,91674787,0.6890,-0.2690,-0.1680,-8.41,-32.26,-99.82
446,91679787,0.6782,-0.2637,-0.1362,-9.39,-33.23,-99.15
447,91684787,0.6768,-0.2744,-0.1030,-10.37,-33.54,-98.29
448,91689787,0.6270,-0.3496,-0.1333,-11.04,-34.09,-96.83
449,91694785,0.6289,-0.2769,-0.1123,-10.61,-35.00,-95.00
450,91699787,0.6772,-0.2598,-0.0791,-9.45,-35.49,-93.66
451,91704788,0.6934,-0.2852,-0.0762,-8.35,-35.98,-92.01
452,91709787,0.6562,-0.2437,-0.1357,-7.87,-37.01,-90.43
453,91714787,0.6816,-0.2271,-0.0488,-7.93,-37.50,-88.90
454,91720186,0.7344,-0.2598,0.0220,-7.56,-37.87,-87.20
455,91724787,0.8389,-0.2764,0.0410,-6.34,-37.44,-85.24
456,91729787,0.8369,-0.2891,0.0210,-4.94,-37.26,-82.93
457,91734785,0.7129,-0.2559,-0.0049,-4.76,-37.07,-80.30
458,91740532,0.7178,-0.1982,-0.0400,-5.43,-37.74,-77.87
459,91744787,0.7266,-0.1943,-0.0581,-6.10,-38.11,-76.34
460,91749786,0.7593,-0.1509,-0.0889,-6.89,-39.27,-74.57
461,91754787,0.7910,-0.1333,-0.1006,-7.93,-40.67,-73.23
462,91759787,0.7954,-0.1372,-0.1055,-8.90,-42.01,-71.46
463,91764787,0.7686,-0.1416,-0.0933,-10.37,-43.48,-69.51
464,91769787,0.8530,-0.1436,-0.0938,-11.89,-44.51,-67.50
465,91774787,0.9043,-0.1641,-0.0879,-13.23,-45.91,-65.43
466,91779787,0.8945,-0.2021,-0.0581,-14.21,-46.59,-62.99
467,91784788,0.5698,-0.3584,0.1011,-14.76,-46.71,-60.00
468,91789787,0.2988,-0.4033,0.1118,-13.60,-46.40,-55.61
469,91794786,0.2700,-0.3936,0.0366,-12.26,-46.04,-50.98
470,91799786,0.3794,-0.3428,-0.0059,-11.52,-46.16,-46.71
471,91804785,0.5132,-0.2778,0.0068,-11.34,-46.71,-42.99
472,91809789,0.5981,-0.2231,-0.0566,-11.65,-47.68,-39.82
473,91814786,0.6382,-0.1938,-0.1289,-11.71,-49.21,-37.20
474,91819787,0.6152,-0.1665,-0.1445,-12.38,-51.10,-35.06
475,91824837,0.5928,-0.1509,-0.0874,-13.05,-52.87,-33.23
476,91829786,0.6045,-0.1177,-0.1143,-13.60,-54.88,-31.59
477,91834787,0.6260,-0.0791,-0.1743,-14.27,-57.01,-30.37
478,91839785,0.6230,-0.0503,-0.1255,-14.63,-59.27,-29.51
479,91844787,0.6333,-0.0176,-0.0962,-14.70,-61.10,-28.60
480,91849788,0.6855,0.0117,-0.1699,-14.94,-63.23,-28.11
481,91854787,0.6797,0.0059,-0.2153,-14.82,-65.91,-27.50
482,91859785,0.7266,-0.0059,-0.1704,-14.70,-68.05,-26.95
483,91864787,0.7900,-0.0205,-0.1509,-14.51,-70.30,-26.40
484,91869787,0.8145,-0.0366,-0.1836,-14.15,-72.44,-25.67
485,91874786,0.8149,-0.0488,-0.1675,-13.54,-74.57,-24.70
486,91879787,0.8462,-0.0508,-0.0698,-12.87,-76.10,-23.84
487,91884787,0.8950,-0.0596,-0.0161,-11.77,-77.07,-22.68
488,91889787,0.9922,-0.0508,-0.0796,-10.49,-77.99,-21.40
489,91894787,1.0747,-0.0625,-0.1294,-8.78,-79.39,-20.00
490,91899785,1.1831,-0.0825,-0.1499,-6.89,-80.55,-18.35
491,91904785,1.3271,-0.0791,-0.2261,-4.88,-82.26,-16.95
492,91909789,1.4741,-0.0654,-0.3032,-2.87,-84.51,-15.37
493,91914787,1.5581,-0.0337,-0.2861,-0.37,-86.40,-14.09
494,91919785,1.5034,0.0020,-0.1963,1.71,-87.62,-12.93
495,91924789,1.2837,-0.0352,-0.1318,3.96,-87.74,-11.77
496,91929786,1.0962,-0.1060,-0.1182,6.28,-87.38,-10.18
497,91934787,1.0132,-0.1523,-0.0938,8.48,-86.46,-7.99
498,91939785,1.0195,-0.0977,-0.1221,10.12,-85.06,-5.67
499,91945190,1.0508,-0.0137,-0.2217,11.10,-83.84,-3.96
500,91949787,1.0674,0.0317,-0.3389,11.40,-83.11,-2.87
501,91954786,1.0498,0.0732,-0.3931,11.10,-82.62,-2.20
502,91959787,1.0186,0.0928,-0.4272,10.18,-82.13,-1.65
503,91964787,1.0132,0.0913,-0.4458,8.66,-81.59,-1.28
504,91970313,1.0303,0.0737,-0.4619,6.89,-80.85,-0.85
505,91974787,1.0542,0.0547,-0.4575,4.70,-79.51,-0.43
506,91979786,1.0742,0.0610,-0.4517,2.13,-77.87,0.06
507,91984787,1.0771,0.0693,-0.4697,-0.73,-75.98,0.49
508,91989787,1.0693,0.0732,-0.4756,-4.02,-73.96,0.67
509,91994788,1.0591,0.0820,-0.4351,-7.44,-71.28,0.73
510,91999786,1.0396,0.0850,-0.4336,-10.98,-68.35,0.73
511,92004789,1.0239,0.0767,-0.4688,-14.39,-65.37,0.67
512,92009785,1.0005,0.0649,-0.4907,-17.87,-62.44,0.67
513,92014787,0.9785,0.0596,-0.4966,-20.91,-59.51,0.61
514,92019787,0.9517,0.0542,-0.5166,-23.48,-56.46,0.85
515,92024787,0.9346,0.0469,-0.5591,-25.49,-53.78,0.79
516,92029787,0.9282,0.0508,-0.5664,-27.01,-51.52,1.04
517,92034787,0.9194,0.0430,-0.5820,-28.23,-48.90,1.34
518,92039785,0.9097,0.0347,-0.6069,-28.90,-46.10,1.59
519,92044785,0.9043,0.0337,-0.6206,-28.66,-43.78,1.95
520,92049890,0.9048,0.0210,-0.6309,-27.56,-40.55,2.50
521,92054787,0.9028,0.0161,-0.6235,-26.59,-38.60,2.93
522,92059787,0.9058,0.0073,-0.6416,-24.33,-35.91,3.54
523,92064788,0.9053,-0.0054,-0.6494,-22.01,-33.48,4.27
524,92069788,0.9082,-0.0088,-0.6416,-19.27,-30.98,5.06
525,92074787,0.9023,-0.0210,-0.6372,-16.16,-28.35,5.79
526,92079787,0.9014,-0.0210,-0.6470,-12.56,-25.79,6.52
527,92084787,0.8940,-0.0273,-0.6543,-9.15,-23.41,7.44
528,92089785,0.8872,-0.0386,-0.6377,-5.55,-20.98,8.29
529,92094787,0.8901,-0.0454,-0.6426,-2.13,-18.66,9.15
530,92099786,0.8838,-0.0601,-0.6475,1.10,-16.46,10.00
531,92104787,0.8828,-0.0674,-0.6426,4.45,-14.09,10.85
532,92109785,0.8794,-0.0762,-0.6274,7.26,-11.89,11.71
533,92114786,0.8823,-0.0820,-0.6284,9.76,-9.57,12.50
534,92119788,0.8779,-0.0889,-0.6357,11.83,-7.44,13.23
535,92124815,0.8726,-0.0898,-0.6304,13.54,-5.37,14.02
536,92129787,0.8667,-0.0947,-0.6147,14.70,-3.48,14.57
537,92134787,0.8618,-0.1006,-0.6157,15.61,-1.40,15.18
538,92139787,0.8359,-0.0991,-0.6230,16.04,0.61,15.67
539,92144785,0.8418,-0.1001,-0.5986,15.91,2.50,16.04
540,92149992,0.8428,-0.1045,-0.5918,15.55,4.82,16.34
541,92154787,0.8394,-0.1069,-0.5879,15.24,6.28,16.59
542,92159785,0.8262,-0.1069,-0.5815,14.63,8.17,16.65
543,92164787,0.8135,-0.1147,-0.5664,13.60,9.88,16.83
544,92169786,0.8062,-0.1196,-0.5508,12.62,12.01,16.89
545,92174787,0.7954,-0.1226,-0.5444,11.89,13.84,16.83
546,92179787,0.7886,-0.1235,-0.5293,10.91,15.73,16.77
547,92184786,0.7700,-0.1191,-0.5225,9.94,17.56,16.83
548,92189786,0.7520,-0.1206,-0.5107,9.15,19.21,16.71
549,92194791,0.7383,-0.1177,-0.5142,8.17,21.04,16.40
550,92199787,0.7153,-0.1118,-0.5054,7.44,22.68,16.22
551,92204787,0.7061,-0.1060,-0.4932,6.71,24.15,15.79
552,92209785,0.6973,-0.1060,-0.4937,5.85,25.73,15.37
553,92214787,0.6836,-0.1011,-0.4922,5.43,27.26,15.00
554,92219786,0.6694,-0.1069,-0.4863,5.18,28.54,14.63
555,92224787,0.6548,-0.1030,-0.4810,5.00,29.76,14.15
556,92229785,0.6499,-0.1030,-0.4780,5.00,31.10,13.60
557,92234787,0.6426,-0.1040,-0.4785,5.12,32.13,13.11
558,92239786,0.6362,-0.1055,-0.4785,5.43,33.17,12.68
559,92244787,0.6260,-0.1035,-0.4756,6.10,34.02,12.26
560,92249785,0.6221,-0.1064,-0.4751,6.77,34.82,11.83
561,92254789,0.6230,-0.1064,-0.4692,7.50,35.43,11.40
562,92259786,0.6265,-0.1089,-0.4692,8.48,36.10,10.91
563,92264789,0.6274,-0.1118,-0.4658,9.45,36.77,10.49
564,92269786,0.6333,-0.1177,-0.4614,10.61,37.13,10.18
565,92274787,0.6387,-0.1177,-0.4565,11.89,37.56,9.76
566,92279785,0.6475,-0.1221,-0.4668,13.11,37.87,9.51
567,92284787,0.6582,-0.1260,-0.4639,14.27,38.11,9.27
568,92289786,0.6631,-0.1299,-0.4634,15.55,38.54,9.09
569,92294787,0.6660,-0.1328,-0.4512,16.95,38.78,9.02
570,92299785,0.6753,-0.1333,-0.4570,18.23,38.96,8.72
571,92304788,0.6821,-0.1348,-0.4507,19.51,39.39,8.54
572,92309786,0.6885,-0.1357,-0.4531,20.79,39.33,8.41
573,92314789,0.6997,-0.1328,-0.4575,21.95,39.51,8.54
574,92319787,0.7065,-0.1387,-0.4580,23.05,39.45,8.60
575,92324787,0.7212,-0.1445,-0.4497,24.21,39.39,8.60
576,92329787,0.7344,-0.1587,-0.4595,25.18,39.45,8.78
577,92334787,0.7495,-0.1694,-0.4546,26.10,39.33,9.15
578,92339787,0.7627,-0.1748,-0.4556,26.40,39.33,9.51
579,92344787,0.7808,-0.1743,-0.4487,26.46,39.15,9.88
580,92349785,0.8003,-0.1768,-0.4487,26.04,39.02,10.43
581,92354787,0.8179,-0.1719,-0.4443,25.18,38.90,10.98
582,92359787,0.8286,-0.1665,-0.4390,23.84,38.90,11.46
583,92364786,0.8408,-0.1558,-0.4380,21.95,38.78,11.89
584,92369787,0.8506,-0.1455,-0.4380,19.70,38.72,12.26
585,92374787,0.8662,-0.1406,-0.4287,17.13,38.60,12.68
586,92379785,0.8745,-0.1318,-0.4272,14.27,38.54,12.93
587,92384787,0.8838,-0.1216,-0.4233,11.46,38.48,13.17
588,92389786,0.8945,-0.1157,-0.4229,8.35,38.29,13.29
589,92394787,0.9019,-0.1157,-0.4287,5.18,38.11,13.54
590,92399787,0.9126,-0.1128,-0.4233,2.20,38.05,13.84
591,92404788,0.9214,-0.1147,-0.4189,-0.79,37.68,14.09
592,92409786,0.9263,-0.1147,-0.4204,-3.54,37.44,14.21
593,92414785,0.9336,-0.1143,-0.4214,-6.28,37.13,14.51
594,92419785,0.9434,-0.1187,-0.4224,-9.02,36.65,14.76
595,92424787,0.9468,-0.1172,-0.4111,-11.71,36.10,15.06
596,92429786,0.9492,-0.1147,-0.4072,-14.21,35.91,15.24
597,92434789,0.9531,-0.1123,-0.4009,-16.77,35.43,15.49
598,92439785,0.9585,-0.1001,-0.3945,-19.39,35.30,15.61
599,92444787,0.9653,-0.0889,-0.3926,-22.07,35.12,15.79
600,92449786,0.9692,-0.0840,-0.3887,-24.70,35.00,15.91
601,92454785,0.9722,-0.0840,-0.3804,-27.32,34.70,15.79
602,92459790,0.9741,-0.0786,-0.3750,-29.63,34.63,15.85
603,92464787,0.9771,-0.0786,-0.3672,-31.95,34.63,15.79
604,92469786,0.9741,-0.0781,-0.3589,-33.90,34.63,15.73
605,92474787,0.9736,-0.0825,-0.3540,-35.55,34.51,15.67
606,92479785,0.9688,-0.0845,-0.3486,-36.83,34.45,15.55
607,92484787,0.9683,-0.0835,-0.3438,-37.87,34.45,15.49
608,92489786,0.9624,-0.0864,-0.3467,-38.41,34.63,15.49
609,92494789,0.9546,-0.0874,-0.3477,-38.78,34.57,15.55
610,92499785,0.9482,-0.0933,-0.3433,-38.66,34.51,15.61
611,92504787,0.9429,-0.0933,-0.3423,-38.17,34.21,15.49
612,92509786,0.9414,-0.0972,-0.3384,-37.56,34.09,15.61
613,92514787,0.9409,-0.1045,-0.3369,-36.59,33.84,15.67
614,92519785,0.9380,-0.1147,-0.3413,-35.43,33.48,15.73
615,92524787,0.9331,-0.1235,-0.3354,-34.02,33.17,15.98
616,92529786,0.9370,-0.1309,-0.3315,-32.68,32.87,16.22
617,92534787,0.9351,-0.1377,-0.3247,-31.10,32.68,16.34
618,92539809,0.9336,-0.1499,-0.3223,-29.63,32.38,16.52
619,92544787,0.9365,-0.1533,-0.3125,-27.99,32.20,16.83
620,92549786,0.9414,-0.1655,-0.3076,-26.46,31.71,17.07
621,92554785,0.9365,-0.1729,-0.2969,-25.49,31.52,17.32
622,92559786,0.9399,-0.1846,-0.2891,-23.78,31.34,17.74
623,92564787,0.9453,-0.1890,-0.2773,-22.74,31.40,18.11
624,92569786,0.9541,-0.1943,-0.2676,-21.77,31.34,18.41
625,92574787,0.9624,-0.1978,-0.2656,-21.10,31.10,18.78
626,92579785,0.9668,-0.1982,-0.2588,-20.55,31.22,19.09
627,92584787,0.9688,-0.2090,-0.2446,-20.06,31.22,19.45
628,92589786,0.9663,-0.2158,-0.2451,-19.63,31.59,19.70
629,92594787,0.9717,-0.2217,-0.2373,-19.33,31.65,19.94
630,92599786,0.9673,-0.2241,-0.2271,-19.02,31.83,20.24
631,92604789,0.9648,-0.2256,-0.2197,-18.84,31.89,20.30
632,92609786,0.9565,-0.2339,-0.2124,-18.90,32.26,20.61
633,92614787,0.9531,-0.2358,-0.1968,-18.96,32.56,20.73
634,92620162,0.9492,-0.2368,-0.1934,-18.78,32.87,20.73
635,92624787,0.9434,-0.2354,-0.1807,-18.78,33.29,21.04
636,92629786,0.9385,-0.2383,-0.1694,-18.72,33.54,20.98
637,92634787,0.9302,-0.2417,-0.1621,-18.41,34.02,21.04
638,92639785,0.9224,-0.2441,-0.1509,-18.05,34.39,20.85
639,92644787,0.9185,-0.2446,-0.1411,-17.68,34.70,20.98
640,92649790,0.9185,-0.2461,-0.1377,-16.71,35.18,20.79
641,92654911,0.9053,-0.2456,-0.1333,-15.85,35.55,20.67
642,92659787,0.8823,-0.2461,-0.1255,-14.70,35.91,20.67
643,92664787,0.8921,-0.2515,-0.1250,-13.05,36.04,20.55
644,92669789,0.8833,-0.2520,-0.1128,-11.46,36.28,20.55
645,92674786,0.8877,-0.2607,-0.1143,-9.45,36.28,20.43
646,92679787,0.8911,-0.2593,-0.1108,-7.32,36.34,20.37
647,92684787,0.8774,-0.2637,-0.1030,-5.06,36.52,20.18
648,92689787,0.8628,-0.2627,-0.0957,-2.74,36.52,20.12
649,92694787,0.8652,-0.2612,-0.0889,-0.37,36.34,19.94
650,92699787,0.8672,-0.2637,-0.0884,2.07,36.22,19.94
651,92704787,0.8633,-0.2671,-0.0771,4.45,36.10,19.88
652,92709787,0.8540,-0.2681,-0.0737,6.71,35.85,19.82
653,92714787,0.8423,-0.2603,-0.0732,8.90,35.43,19.70
654,92719787,0.8325,-0.2539,-0.0679,10.98,35.43,19.51
655,92724787,0.8301,-0.2534,-0.0620,12.68,34.94,19.33
656,92729787,0.8369,-0.2510,-0.0537,14.39,34.76,19.09
657,92734788,0.8433,-0.2505,-0.0537,15.79,34.39,18.78
658,92739787,0.8506,-0.2495,-0.0430,16.83,34.21,18.41
659,92744787,0.8496,-0.2554,-0.0342,17.68,33.84,18.23
660,92749787,0.8569,-0.2598,-0.0176,18.41,33.72,18.05
661,92754785,0.8623,-0.2573,-0.0103,18.90,33.41,17.87
662,92759785,0.8667,-0.2603,-0.0054,19.45,33.11,17.68
663,92764887,0.8716,-0.2588,0.0068,19.70,33.05,17.56
664,92769787,0.8765,-0.2632,0.0034,19.76,32.93,17.56
665,92774788,0.8750,-0.2681,0.0093,19.82,32.62,17.62
666,92779787,0.8647,-0.2666,0.0151,19.76,32.38,17.56
667,92784787,0.8628,-0.2651,0.0166,19.82,32.01,17.62
668,92789787,0.8682,-0.2651,0.0195,19.51,31.83,17.74
669,92794787,0.8735,-0.2573,0.0190,19.27,31.65,18.05
670,92800135,0.8706,-0.2534,0.0171,18.84,31.28,18.11
671,92804787,0.8662,-0.2539,0.0229,18.29,31.04,18.17
672,92809787,0.8608,-0.2471,0.0210,17.56,30.55,18.35
673,92814787,0.8599,-0.2417,0.0361,16.89,30.24,18.41
674,92819786,0.8569,-0.2422,0.0391,16.16,30.06,18.48
675,92825100,0.8647,-0.2378,0.0444,15.12,29.88,18.54
676,92829787,0.8672,-0.2329,0.0503,14.39,29.76,18.60
677,92834786,0.8691,-0.2261,0.0542,13.66,29.70,18.72
678,92839787,0.8716,-0.2192,0.0562,13.23,29.63,18.72
679,92844787,0.8735,-0.2178,0.0581,12.93,29.51,18.78
680,92849787,0.8784,-0.2168,0.0601,12.99,29.51,18.78
681,92854787,0.8740,-0.2129,0.0654,13.29,29.45,18.84
682,92859787,0.8735,-0.2041,0.0610,13.96,29.27,18.78
683,92864787,0.8740,-0.1997,0.0508,15.37,29.02,18.90
684,92869786,0.8750,-0.1968,0.0474,16.77,28.78,18.90
685,92874787,0.8770,-0.1934,0.0493,18.78,28.35,18.90
686,92879785,0.8896,-0.1934,0.0410,21.22,28.17,18.90
687,92884787,0.8999,-0.1943,0.0366,24.02,27.74,18.96
688,92889786,0.8984,-0.1929,0.0210,27.38,27.26,19.02
689,92894787,0.8916,-0.1963,0.0322,30.79,26.71,19.09
690,92899786,0.8833,-0.1987,0.0317,34.57,26.10,19.15
691,92904787,0.8940,-0.2051,0.0327,38.54,25.67,19.27
692,92909785,0.9097,-0.2080,0.0293,42.50,24.88,19.33
693,92914787,0.9268,-0.2129,0.0259,46.46,24.39,19.39
694,92919879,0.9346,-0.2197,0.0288,50.30,23.84,19.51
695,92924787,0.9302,-0.2188,0.0371,53.60,23.29,19.57
696,92929786,0.9111,-0.2246,0.0264,56.46,22.99,19.70
697,92934787,0.9292,-0.2183,0.0342,58.78,22.44,19.82
698,92939786,0.9604,-0.2144,0.0542,60.61,21.83,19.82
699,92944787,0.9844,-0.2212,0.0557,62.07,21.52,19.76
700,92949785,1.0000,-0.2266,0.0464,63.48,21.34,19.76
701,92954787,0.9927,-0.2314,0.0420,64.39,20.85,19.70
702,92959787,0.9819,-0.2402,0.0405,64.63,20.30,19.76
703,92964785,0.9707,-0.2485,0.0454,64.51,19.82,19.82
704,92969785,0.9785,-0.2559,0.0420,63.90,19.33,19.88
705,92974787,1.0039,-0.2627,0.0337,63.35,18.90,20.12
706,92979786,1.0186,-0.2808,0.0312,62.62,18.17,20.30
707,92984787,1.0288,-0.2886,0.0249,61.59,17.68,20.61
708,92990071,1.0298,-0.3003,0.0303,60.61,17.01,20.91
709,92994787,1.0239,-0.3125,0.0361,59.33,16.34,21.34
710,92999786,1.0239,-0.3203,0.0405,58.17,15.67,21.89
711,93004787,1.0215,-0.3237,0.0376,56.83,14.94,22.38
712,93009849,1.0264,-0.3247,0.0195,55.24,14.27,22.74
713,93014869,1.0312,-0.3242,0.0088,53.72,13.29,23.41
714,93019786,1.0308,-0.3237,0.0103,52.20,12.26,23.66
715,93024787,1.0200,-0.3364,0.0166,50.30,11.28,24.15
716,93029798,1.0171,-0.3442,0.0171,48.35,10.24,24.57
717,93034789,1.0166,-0.3379,0.0132,46.04,9.33,25.06
718,93039786,1.0239,-0.3340,0.0093,43.54,8.35,25.37
719,93044787,1.0259,-0.3306,0.0127,40.73,7.20,25.49
720,93049785,1.0166,-0.3306,0.0103,38.11,6.22,25.79
721,93054787,1.0176,-0.3325,0.0112,35.06,5.18,25.91
722,93059787,1.0098,-0.3413,0.0171,32.32,4.15,26.10
723,93064785,1.0034,-0.3413,0.0249,29.51,3.17,26.34
724,93069785,1.0005,-0.3438,0.0200,26.65,2.20,26.28
725,93074787,0.9883,-0.3413,0.0269,23.96,1.04,26.40
726,93079786,0.9824,-0.3462,0.0283,21.65,0.06,26.28
727,93084787,0.9741,-0.3472,0.0181,19.09,-0.98,26.28
728,93089789,0.9668,-0.3486,0.0225,17.01,-2.01,26.22
729,93094787,0.9614,-0.3535,0.0229,14.88,-3.11,26.04
730,93099787,0.9609,-0.3545,0.0288,12.99,-4.15,25.98
731,93104787,0.9570,-0.3608,0.0190,11.10,-5.37,25.91
732,93109788,0.9541,-0.3667,0.0278,9.27,-6.40,25.91
733,93114787,0.9590,-0.3652,0.0229,7.62,-7.44,25.79
734,93119788,0.9531,-0.3652,0.0239,6.10,-8.54,25.73
735,93124788,0.9478,-0.3691,0.0278,4.27,-9.51,25.49
736,93130251,0.9434,-0.3687,0.0259,2.93,-10.43,25.55
737,93134789,0.9355,-0.3662,0.0308,1.22,-11.46,25.30
738,93139786,0.9292,-0.3667,0.0381,-0.24,-12.38,25.18
739,93144787,0.9238,-0.3647,0.0376,-1.28,-13.29,24.88
740,93149785,0.9175,-0.3677,0.0464,-2.44,-14.21,24.63
741,93154789,0.9194,-0.3662,0.0449,-3.72,-15.00,24.33
742,93159786,0.9102,-0.3672,0.0454,-5.24,-15.85,23.90
743,93164789,0.9019,-0.3608,0.0454,-6.04,-16.52,23.60
744,93169786,0.8994,-0.3652,0.0542,-7.01,-17.26,23.29
745,93174785,0.9004,-0.3599,0.0547,-7.74,-17.99,22.80
746,93179785,0.9023,-0.3550,0.0430,-8.66,-18.60,22.38
747,93184787,0.8984,-0.3530,0.0474,-9.27,-19.21,21.89
748,93189785,0.8936,-0.3560,0.0488,-9.76,-19.76,21.46
749,93194790,0.8882,-0.3579,0.0454,-9.88,-20.24,20.91
750,93199786,0.8823,-0.3618,0.0405,-10.12,-20.91,20.43
751,93204789,0.8857,-0.3638,0.0449,-10.12,-21.34,20.06
752,93209858,0.8984,-0.3652,0.0371,-9.94,-21.71,19.70
753,93214787,0.9062,-0.3706,0.0371,-9.63,-22.07,19.33
754,93219785,0.9111,-0.3726,0.0322,-9.21,-22.50,19.09
755,93224787,0.9028,-0.3774,0.0220,-8.60,-23.05,18.78
756,93229786,0.9028,-0.3794,0.0195,-7.93,-23.29,18.54
757,93234785,0.9146,-0.3726,0.0137,-7.26,-23.48,18.29
758,93239787,0.9165,-0.3760,0.0015,-6.52,-23.96,18.05
759,93244787,0.9136,-0.3823,-0.0024,-5.43,-24.45,17.99
760,93249787,0.9121,-0.3818,0.0034,-4.51,-24.88,17.87
761,93254787,0.9111,-0.3784,0.0029,-3.48,-25.06,17.74
762,93259787,0.9082,-0.3843,-0.0059,-2.50,-25.49,17.62
763,93264788,0.9009,-0.3896,-0.0044,-1.59,-25.61,17.62
764,93269785,0.9028,-0.3887,-0.0112,-0.67,-26.10,17.62
765,93274785,0.9043,-0.3877,-0.0093,0.24,-26.40,17.56
766,93279787,0.9028,-0.3965,-0.0117,0.79,-26.59,17.56
767,93284787,0.9058,-0.4038,-0.0112,1.46,-26.77,17.62
768,93289788,0.9053,-0.4072,-0.0078,1.71,-27.01,17.80
769,93294787,0.9136,-0.4141,-0.0127,1.71,-27.13,17.87
770,93299787,0.9102,-0.4189,-0.0059,1.89,-27.38,17.99
771,93304788,0.9102,-0.4229,-0.0068,1.46,-27.38,18.17
772,93310302,0.9136,-0.4248,-0.0083,0.85,-27.38,18.41
773,93314787,0.9146,-0.4287,-0.0103,0.24,-27.50,18.41
774,93319786,0.9092,-0.4248,-0.0117,-0.49,-27.32,18.60
775,93324787,0.9111,-0.4277,-0.0039,-1.65,-27.32,18.78
776,93329786,0.9092,-0.4248,-0.0063,-2.87,-27.32,18.84
777,93334787,0.9043,-0.4238,-0.0034,-4.21,-27.01,18.84
778,93339785,0.9009,-0.4204,-0.0093,-5.61,-26.83,18.84
779,93344785,0.8955,-0.4233,-0.0039,-6.95,-26.46,18.78
780,93349787,0.8906,-0.4233,-0.0122,-8.23,-26.34,18.78
781,93354786,0.8872,-0.4229,-0.0098,-9.57,-26.22,18.78
782,93359787,0.8828,-0.4268,-0.0068,-10.79,-25.91,18.66
783,93364787,0.8750,-0.4238,-0.0127,-11.65,-25.67,18.54
784,93369785,0.8682,-0.4238,-0.0103,-12.50,-25.43,18.29
785,93374786,0.8677,-0.4253,-0.0181,-13.05,-25.24,18.35
786,93380303,0.8628,-0.4316,-0.0156,-13.48,-25.00,18.23
787,93384787,0.8584,-0.4346,-0.0181,-13.54,-24.76,18.11
788,93389786,0.8574,-0.4336,-0.0171,-13.66,-24.51,17.99
789,93394787,0.8613,-0.4351,-0.0210,-13.41,-24.15,17.87
790,93399785,0.8569,-0.4399,-0.0259,-13.11,-23.96,17.74
791,93404787,0.8540,-0.4365,-0.0225,-12.62,-23.78,17.68
792,93409786,0.8540,-0.4434,-0.0312,-12.01,-23.48,17.62
793,93414787,0.8511,-0.4512,-0.0322,-11.34,-23.23,17.50
794,93419785,0.8477,-0.4561,-0.0396,-10.43,-22.93,17.44
795,93424787,0.8481,-0.4526,-0.0347,-9.45,-22.56,17.56
796,93429786,0.8442,-0.4551,-0.0391,-8.35,-22.26,17.50
797,93434787,0.8452,-0.4561,-0.0479,-7.26,-21.95,17.38
798,93439785,0.8433,-0.4570,-0.0518,-6.04,-21.65,17.38
799,93444792,0.8403,-0.4590,-0.0562,-4.82,-21.46,17.38
800,93449788,0.8398,-0.4595,-0.0586,-3.66,-20.85,17.32
801,93454786,0.8403,-0.4658,-0.0581,-2.56,-20.49,17.32
802,93459787,0.8408,-0.4634,-0.0615,-1.46,-20.30,17.38
803,93464786,0.8428,-0.4585,-0.0552,-0.49,-19.94,17.26
804,93469787,0.8428,-0.4658,-0.0591,0.67,-19.45,17.32
805,93474785,0.8369,-0.4658,-0.0576,1.59,-19.21,17.26
806,93479785,0.8369,-0.4678,-0.0615,2.38,-18.78,17.20
807,93484789,0.8330,-0.4668,-0.0659,3.23,-18.11,17.32
808,93489786,0.8345,-0.4717,-0.0649,4.02,-17.87,17.13
809,93494787,0.8403,-0.4668,-0.0684,4.82,-17.32,17.13
810,93499787,0.8394,-0.4683,-0.0688,5.61,-17.07,17.07
811,93504785,0.8418,-0.4727,-0.0669,6.28,-16.65,16.95
812,93509787,0.8413,-0.4751,-0.0693,7.01,-16.04,16.83
813,93514786,0.8428,-0.4795,-0.0698,7.56,-15.49,16.89
814,93519787,0.8452,-0.4751,-0.0781,8.23,-15.12,16.77
815,93524789,0.8433,-0.4751,-0.0791,8.72,-14.63,16.71
816,93529787,0.8442,-0.4727,-0.0820,9.21,-14.39,16.83
817,93534787,0.8457,-0.4780,-0.0796,9.57,-13.60,16.77
818,93539787,0.8511,-0.4810,-0.0825,10.06,-13.29,16.65
819,93544787,0.8506,-0.4873,-0.0933,10.55,-12.87,16.77
820,93549785,0.8511,-0.4868,-0.0903,10.98,-12.26,16.77
821,93554787,0.8501,-0.4858,-0.0889,11.52,-11.95,16.77
822,93559787,0.8525,-0.4834,-0.0928,11.83,-11.59,16.77
823,93564785,0.8545,-0.4849,-0.0942,12.44,-11.16,16.71
824,93569787,0.8525,-0.4849,-0.0957,12.74,-10.91,16.71
825,93574786,0.8521,-0.4844,-0.0933,13.05,-10.49,16.71
826,93579785,0.8564,-0.4834,-0.0923,13.41,-10.06,16.71
827,93584787,0.8594,-0.4844,-0.0903,13.72,-9.76,16.65
828,93589787,0.8599,-0.4863,-0.0957,14.02,-9.21,16.71
829,93594787,0.8589,-0.4805,-0.0972,14.45,-8.84,16.59
830,93599786,0.8564,-0.4800,-0.0942,14.76,-8.60,16.46
831,93604788,0.8545,-0.4722,-0.0967,15.18,-8.23,16.46
832,93609786,0.8530,-0.4751,-0.0977,15.55,-7.68,16.28
833,93614787,0.8486,-0.4702,-0.0996,15.91,-7.62,16.04
834,93619786,0.8516,-0.4707,-0.0981,16.22,-7.20,15.79
835,93624787,0.8501,-0.4653,-0.0977,16.34,-6.89,15.49
836,93629785,0.8560,-0.4663,-0.0981,16.71,-6.59,15.30
837,93634788,0.8545,-0.4731,-0.1021,16.95,-6.52,14.94
838,93639786,0.8574,-0.4614,-0.0967,17.01,-6.16,14.63
839,93644785,0.8628,-0.4653,-0.0957,17.26,-5.85,14.45
840,93649835,0.8652,-0.4727,-0.0991,17.26,-5.43,14.09
841,93654787,0.8691,-0.4712,-0.0957,17.38,-5.18,13.72
842,93659787,0.8701,-0.4727,-0.0986,17.32,-4.82,13.48
843,93664786,0.8711,-0.4756,-0.0947,17.38,-4.45,13.23
844,93669787,0.8721,-0.4771,-0.1021,17.32,-4.21,12.93
845,93674787,0.8696,-0.4761,-0.1064,17.20,-3.96,12.74
846,93679785,0.8706,-0.4761,-0.1006,17.13,-3.48,12.38
847,93684785,0.8721,-0.4756,-0.1035,17.20,-3.17,11.89
848,93689789,0.8662,-0.4771,-0.0981,17.26,-2.80,11.59
849,93694786,0.8657,-0.4756,-0.0991,17.26,-2.50,11.34
850,93699787,0.8633,-0.4805,-0.1040,17.32,-2.20,11.10
851,93704787,0.8628,-0.4790,-0.1040,17.50,-2.01,10.61
852,93709788,0.8638,-0.4731,-0.1001,17.68,-1.65,10.24
853,93714787,0.8599,-0.4800,-0.1055,17.74,-1.40,10.00
854,93719787,0.8652,-0.4824,-0.0986,18.23,-1.10,9.51
855,93724787,0.8643,-0.4805,-0.1045,18.54,-0.98,9.27
856,93729787,0.8628,-0.4805,-0.1079,18.96,-0.73,8.90
857,93734788,0.8608,-0.4829,-0.1069,19.45,-0.43,8.48
858,93739786,0.8623,-0.4795,-0.1050,19.82,-0.30,8.17
859,93744785,0.8633,-0.4810,-0.1055,20.30,-0.18,7.93
860,93749787,0.8628,-0.4888,-0.1167,20.73,-0.18,7.44
861,93754787,0.8638,-0.4912,-0.1157,20.98,0.18,7.13
862,93759786,0.8633,-0.4932,-0.1201,21.59,0.18,6.89
863,93764787,0.8579,-0.4966,-0.1182,21.77,0.30,6.71
864,93769785,0.8604,-0.5005,-0.1157,22.20,0.55,6.46
865,93774787,0.8628,-0.5034,-0.1167,22.44,0.61,6.34
866,93779786,0.8574,-0.5063,-0.1265,22.56,0.61,6.22
867,93784785,0.8569,-0.5083,-0.1284,22.62,0.67,6.04
868,93789786,0.8545,-0.5098,-0.1274,22.62,0.85,5.91
869,93794786,0.8579,-0.5156,-0.1265,22.44,0.73,5.91
870,93799787,0.8564,-0.5205,-0.1230,22.20,0.67,5.73
871,93804787,0.8579,-0.5200,-0.1250,21.71,0.67,5.67
872,93809789,0.8545,-0.5229,-0.1245,21.16,0.61,5.55
873,93814787,0.8564,-0.5293,-0.1191,20.43,0.55,5.37
874,93819787,0.8569,-0.5332,-0.1201,19.57,0.55,5.37
875,93824787,0.8574,-0.5342,-0.1235,18.66,0.55,5.37
876,93829787,0.8555,-0.5381,-0.1196,17.62,0.49,5.24
877,93834787,0.8628,-0.5405,-0.1172,16.34,0.55,5.18
878,93840076,0.8633,-0.5444,-0.1216,14.94,0.61,5.37
879,93844787,0.8599,-0.5527,-0.1133,13.72,0.49,5.30
880,93849786,0.8569,-0.5542,-0.1099,12.13,0.61,5.30
881,93854787,0.8589,-0.5591,-0.1167,10.79,0.67,5.37
882,93859786,0.8589,-0.5664,-0.1147,9.33,0.61,5.43
883,93864787,0.8589,-0.5674,-0.1216,7.93,0.61,5.55
884,93869785,0.8569,-0.5708,-0.1128,6.40,0.43,5.55
885,93874787,0.8564,-0.5669,-0.1089,4.94,0.43,5.67
886,93879786,0.8569,-0.5718,-0.1089,3.41,0.55,5.79
887,93884787,0.8569,-0.5757,-0.1064,1.95,0.43,5.91
888,93889873,0.8569,-0.5747,-0.0996,0.43,0.43,5.98
889,93895198,0.8545,-0.5767,-0.0938,-1.16,0.43,6.04
890,93899787,0.8530,-0.5752,-0.0928,-2.26,0.55,5.98
891,93904786,0.8481,-0.5723,-0.0825,-3.72,0.73,6.04
892,93909787,0.8452,-0.5688,-0.0840,-4.94,0.73,5.91
893,93914787,0.8374,-0.5630,-0.0771,-6.28,0.85,5.91
894,93919788,0.8335,-0.5566,-0.0771,-7.56,0.98,5.67
895,93924787,0.8276,-0.5527,-0.0669,-8.72,1.22,5.61
896,93929787,0.8232,-0.5415,-0.0596,-9.88,1.40,5.24
897,93934788,0.8169,-0.5361,-0.0571,-10.85,1.65,4.94
898,93939787,0.8071,-0.5308,-0.0488,-11.77,2.01,4.57
899,93944787,0.7983,-0.5186,-0.0513,-12.68,2.32,4.15
900,93949787,0.7920,-0.5137,-0.0435,-13.29,2.56,3.66
901,93954787,0.7852,-0.5024,-0.0391,-13.78,2.99,3.23
902,93959787,0.7783,-0.4922,-0.0435,-14.02,3.23,2.68
903,93964787,0.7778,-0.4849,-0.0400,-14.21,3.60,2.13
904,93969787,0.7705,-0.4780,-0.0386,-14.33,3.96,1.65
905,93974787,0.7754,-0.4731,-0.0405,-14.02,4.21,1.04
906,93979787,0.7720,-0.4648,-0.0400,-13.78,4.70,0.30
907,93984785,0.7749,-0.4668,-0.0435,-13.23,5.06,-0.12
908,93989786,0.7729,-0.4683,-0.0488,-12.44,5.18,-0.67
909,93994787,0.7783,-0.4644,-0.0449,-11.65,5.55,-1.22
910,93999787,0.7832,-0.4678,-0.0518,-10.85,5.67,-1.65
911,94004786,0.7871,-0.4663,-0.0518,-9.82,6.04,-1.95
912,94009787,0.7925,-0.4648,-0.0518,-8.72,6.28,-2.26
913,94014788,0.7964,-0.4673,-0.0542,-7.87,6.52,-2.56
914,94019787,0.7974,-0.4678,-0.0537,-6.89,6.83,-2.80
915,94024787,0.8003,-0.4673,-0.0649,-6.16,7.13,-2.93
916,94029787,0.8032,-0.4688,-0.0527,-5.43,7.26,-2.99
917,94034787,0.8110,-0.4683,-0.0571,-4.82,7.50,-3.05
918,94039787,0.8120,-0.4692,-0.0586,-4.70,7.74,-2.99
919,94044787,0.8140,-0.4692,-0.0610,-4.63,7.99,-2.99
920,94049785,0.8242,-0.4688,-0.0659,-4.82,8.35,-2.87
921,94054787,0.8257,-0.4697,-0.0596,-5.43,8.54,-2.74
922,94059787,0.8315,-0.4697,-0.0640,-6.16,8.78,-2.62
923,94064787,0.8345,-0.4629,-0.0723,-7.26,9.09,-2.44
924,94069786,0.8394,-0.4619,-0.0630,-8.54,9.57,-2.38
925,94074787,0.8379,-0.4663,-0.0723,-9.88,9.57,-2.32
926,94079785,0.8384,-0.4658,-0.0742,-11.34,9.82,-2.13
927,94084787,0.8389,-0.4688,-0.0786,-13.11,10.24,-2.01
928,94089785,0.8428,-0.4775,-0.0786,-14.57,10.43,-1.65
929,94094814,0.8496,-0.4863,-0.0840,-16.04,10.67,-1.28
930,94099900,0.8506,-0.4941,-0.0786,-17.44,10.85,-1.04
931,94104786,0.8560,-0.4990,-0.0762,-18.66,11.04,-0.43
932,94109788,0.8550,-0.5063,-0.0864,-20.00,11.16,0.18
933,94114860,0.8584,-0.5103,-0.0894,-21.10,11.22,0.73
934,94119789,0.8574,-0.5146,-0.0918,-22.26,11.46,1.40
935,94124787,0.8560,-0.5142,-0.0952,-23.11,11.52,2.07
936,94129787,0.8550,-0.5107,-0.0947,-23.90,11.59,2.80
937,94134787,0.8486,-0.5122,-0.1001,-24.70,11.71,3.60
938,94139787,0.8477,-0.5161,-0.1035,-25.43,11.65,4.21
939,94144787,0.8438,-0.5122,-0.0986,-26.16,11.71,4.82
940,94149788,0.8418,-0.5171,-0.1045,-26.77,11.83,5.61
941,94154786,0.8364,-0.5156,-0.1079,-27.44,11.89,6.34
942,94160218,0.8330,-0.5117,-0.1040,-27.87,12.07,7.20
943,94164787,0.8267,-0.5112,-0.1104,-28.35,12.01,7.87
944,94169786,0.8271,-0.5146,-0.1050,-28.78,12.13,8.66
945,94174787,0.8247,-0.5146,-0.1055,-28.84,12.20,9.39
946,94179785,0.8232,-0.5176,-0.1064,-29.15,12.26,10.12
947,94184788,0.8198,-0.5176,-0.1040,-29.09,12.32,10.98
948,94189785,0.8169,-0.5142,-0.1030,-29.02,12.44,11.83
949,94194792,0.8188,-0.5117,-0.1050,-28.66,12.56,12.50
950,94199786,0.8115,-0.5112,-0.1128,-28.11,12.62,13.35
951,94204787,0.8052,-0.5083,-0.1074,-27.32,12.68,14.02
952,94209785,0.7930,-0.5005,-0.1089,-25.85,12.80,14.57
953,94214787,0.7769,-0.4990,-0.1123,-24.21,12.74,15.12
954,94219786,0.7710,-0.4956,-0.1133,-22.50,12.87,15.49
955,94224787,0.7568,-0.4858,-0.1143,-20.30,12.74,15.98
956,94229785,0.7471,-0.4790,-0.1294,-17.50,12.68,16.40
957,94234787,0.7402,-0.4707,-0.1387,-14.76,12.44,16.65
958,94239786,0.7275,-0.4561,-0.1445,-11.71,12.26,16.83
959,94244787,0.7173,-0.4473,-0.1440,-8.72,11.89,16.83
960,94249786,0.7041,-0.4419,-0.1470,-5.55,11.71,16.89
961,94254787,0.7002,-0.4365,-0.1431,-2.32,11.40,16.65
962,94259786,0.6953,-0.4355,-0.1353,0.91,11.22,16.52
963,94264787,0.6919,-0.4336,-0.1250,4.09,10.98,16.40
964,94269788,0.6919,-0.4365,-0.1372,7.38,10.73,16.10
965,94274787,0.6855,-0.4360,-0.1372,10.30,10.61,15.91
966,94279785,0.6631,-0.4268,-0.1357,13.05,10.49,15.49
967,94284787,0.6792,-0.4282,-0.1401,15.30,10.30,15.30
968,94289787,0.7090,-0.4395,-0.1323,17.38,10.18,15.06
969,94294785,0.7031,-0.4443,-0.1431,19.33,9.82,14.94
970,94299785,0.6943,-0.4482,-0.1577,20.98,9.51,14.88
971,94304787,0.6973,-0.4575,-0.1533,22.26,9.21,14.70
972,94309786,0.7051,-0.4575,-0.1558,23.41,8.84,14.63
973,94314787,0.7139,-0.4644,-0.1650,24.09,8.17,14.51
974,94319785,0.7183,-0.4683,-0.1772,24.51,7.80,14.57
975,94324787,0.7334,-0.4746,-0.1743,24.51,7.07,14.63
976,94329786,0.7441,-0.4858,-0.1836,24.15,6.59,14.63
977,94334787,0.7505,-0.4961,-0.1807,23.78,5.91,14.88
978,94339785,0.7632,-0.5088,-0.1802,22.99,5.30,15.00
979,94344789,0.7700,-0.5210,-0.1826,21.83,4.57,15.24
980,94349788,0.7788,-0.5322,-0.1763,20.43,4.09,15.73
981,94354787,0.7612,-0.5513,-0.1646,18.54,3.54,16.28
982,94359785,0.7856,-0.5669,-0.1572,16.52,3.17,16.83
983,94364787,0.8101,-0.6030,-0.1479,14.15,2.99,17.80
984,94369786,0.8877,-0.5879,-0.1792,11.28,2.74,18.84
985,94374787,0.9258,-0.5615,-0.2036,7.99,2.32,19.76
986,94379785,0.9160,-0.5581,-0.1885,4.76,1.89,20.43
987,94384849,0.8960,-0.5752,-0.1572,1.89,1.59,21.22
988,94390144,0.8872,-0.6191,-0.1372,-1.40,1.46,22.13
989,94394787,0.8999,-0.6406,-0.1528,-3.29,1.28,23.17
990,94399787,0.9067,-0.6465,-0.1528,-5.79,1.10,24.33
991,94404787,0.9126,-0.6367,-0.1694,-7.87,0.73,25.73
992,94409788,0.9185,-0.6377,-0.1567,-9.82,0.37,26.83
993,94414787,0.9253,-0.6499,-0.1514,-11.28,0.00,28.17
994,94419787,0.9341,-0.6606,-0.1382,-12.50,-0.30,29.39
995,94424787,0.9404,-0.6641,-0.1333,-13.54,-0.49,30.85
996,94429785,0.9468,-0.6719,-0.1304,-14.27,-0.79,32.13
997,94434834,0.9463,-0.6821,-0.1255,-14.88,-1.28,33.60
998,94440164,0.9404,-0.6958,-0.1133,-15.18,-1.52,35.18
999,94444791,0.9458,-0.6987,-0.0996,-15.24,-1.52,36.40
1000,94449786,0.9370,-0.7017,-0.0923,-15.30,-1.65,37.87
1001,94454789,0.9351,-0.6987,-0.0889,-15.24,-1.83,39.21
1002,94459785,0.9268,-0.7007,-0.0825,-15.30,-2.01,40.43
1003,94464785,0.9180,-0.7026,-0.0742,-15.37,-2.01,41.77
1004,94469787,0.9082,-0.6992,-0.0776,-15.73,-2.01,43.11
1005,94474786,0.8994,-0.6919,-0.0703,-16.16,-2.13,44.21
1006,94479787,0.8862,-0.6797,-0.0649,-17.01,-2.01,45.06
1007,94484787,0.8765,-0.6655,-0.0537,-18.17,-2.13,45.79
1008,94489787,0.8584,-0.6528,-0.0537,-19.63,-2.07,46.40
1009,94494787,0.8457,-0.6362,-0.0454,-21.28,-2.01,46.83
1010,94499787,0.8237,-0.6211,-0.0410,-23.29,-1.77,46.95
1011,94504787,0.8037,-0.6079,-0.0342,-25.67,-1.59,47.01
1012,94509787,0.7871,-0.5933,-0.0322,-28.17,-1.34,46.83
1013,94514787,0.7661,-0.5767,-0.0298,-30.85,-1.10,46.40
1014,94519809,0.7476,-0.5713,-0.0166,-33.72,-0.73,45.91
1015,94524787,0.7349,-0.5630,-0.0078,-36.52,-0.49,45.12
1016,94530282,0.7158,-0.5557,-0.0063,-39.15,-0.24,44.39
1017,94534787,0.7031,-0.5469,-0.0015,-41.71,0.24,43.41
1018,94539786,0.6875,-0.5366,0.0039,-43.84,0.55,42.38
1019,94544787,0.6831,-0.5283,-0.0044,-45.79,0.91,41.28
1020,94549787,0.6709,-0.5225,-0.0083,-47.44,1.28,39.94
1021,94554788,0.6650,-0.5200,-0.0039,-48.78,1.52,38.60
1022,94559860,0.6636,-0.5234,-0.0107,-49.63,1.65,37.13
1023,94564785,0.6577,-0.5239,-0.0234,-50.24,1.77,35.67
1024,94569787,0.6636,-0.5327,-0.0200,-50.24,1.95,34.33
1025,94574787,0.6616,-0.5342,-0.0308,-49.82,2.07,33.05
1026,94579786,0.6621,-0.5430,-0.0381,-48.96,2.07,31.59
1027,94584787,0.6665,-0.5508,-0.0356,-47.62,2.13,30.37
1028,94589898,0.6685,-0.5649,-0.0454,-45.79,2.01,29.21
1029,94594787,0.6719,-0.5757,-0.0479,-43.54,1.89,27.99
1030,94599787,0.6748,-0.5874,-0.0518,-41.04,1.77,27.01
1031,94604785,0.6782,-0.5981,-0.0630,-37.99,1.59,26.16
1032,94609787,0.6802,-0.6123,-0.0620,-34.63,1.40,25.30
1033,94614787,0.6816,-0.6216,-0.0684,-30.98,1.28,24.39
1034,94619787,0.6816,-0.6313,-0.0659,-27.01,1.04,23.72
1035,94624787,0.6919,-0.6416,-0.0781,-23.11,1.16,23.11
1036,94629786,0.6924,-0.6553,-0.0757,-18.90,0.61,22.62
1037,94634787,0.7012,-0.6611,-0.0850,-14.76,0.24,22.20
1038,94639786,0.7061,-0.6772,-0.0850,-10.67,0.00,21.95
1039,94644787,0.7114,-0.6885,-0.0918,-6.71,-0.18,21.52
1040,94649785,0.7114,-0.6987,-0.0933,-2.99,-0.61,21.40
1041,94654787,0.7144,-0.6978,-0.0947,0.67,-0.85,21.28
1042,94659786,0.7144,-0.7056,-0.0903,3.96,-1.16,21.16
1043,94664787,0.7119,-0.7046,-0.0986,6.89,-1.46,21.16
1044,94669785,0.7100,-0.7080,-0.0977,9.33,-1.77,21.04
1045,94674787,0.7061,-0.7046,-0.1030,11.28,-2.07,20.98
1046,94679786,0.7031,-0.7041,-0.1074,12.99,-2.20,20.73
1047,94684788,0.7002,-0.7041,-0.1064,14.21,-2.56,20.49
1048,94689787,0.6953,-0.7012,-0.1089,15.12,-2.87,20.37
1049,94694787,0.6929,-0.7002,-0.1084,15.43,-3.23,20.06
1050,94699787,0.6904,-0.6929,-0.1016,15.55,-3.54,19.88
1051,94704785,0.6831,-0.6934,-0.1045,15.24,-3.60,19.63
1052,94709785,0.6831,-0.6885,-0.0972,14.57,-3.96,19.27
1053,94714789,0.6807,-0.6865,-0.0947,13.96,-4.27,18.96
1054,94719947,0.6787,-0.6821,-0.0884,12.87,-4.45,18.41
1055,94724789,0.6787,-0.6748,-0.0898,11.59,-4.45,18.17
1056,94729785,0.6733,-0.6694,-0.0923,10.18,-4.82,17.56
1057,94734787,0.6704,-0.6655,-0.0908,8.78,-4.76,17.07
1058,94739786,0.6699,-0.6616,-0.0913,7.38,-5.06,16.59
1059,94744789,0.6675,-0.6567,-0.0908,6.10,-5.18,15.91
1060,94749787,0.6636,-0.6514,-0.0869,4.82,-5.55,15.24
1061,94754787,0.6616,-0.6479,-0.0972,3.60,-5.79,14.57
1062,94759787,0.6558,-0.6484,-0.0967,2.68,-5.85,14.02
1063,94764787,0.6553,-0.6465,-0.0894,1.95,-6.16,13.23
1064,94769785,0.6499,-0.6450,-0.0933,1.52,-6.28,12.56
1065,94774787,0.6470,-0.6421,-0.0928,1.28,-6.59,11.83
1066,94779812,0.6475,-0.6392,-0.0972,1.22,-6.95,11.28
1067,94784787,0.6416,-0.6387,-0.0918,1.34,-7.20,10.67
1068,94790240,0.6382,-0.6353,-0.1006,1.71,-7.44,10.06
1069,94794787,0.6353,-0.6294,-0.1011,2.20,-7.74,9.39
1070,94799786,0.6343,-0.6284,-0.1060,2.87,-7.99,8.78
1071,94804787,0.6299,-0.6240,-0.1157,3.84,-8.29,7.99
1072,94809785,0.6279,-0.6138,-0.1143,4.88,-8.72,7.38
1073,94814789,0.6255,-0.6084,-0.1201,5.98,-9.09,6.71
1074,94819787,0.6270,-0.6040,-0.1235,7.32,-9.63,5.91
1075,94824787,0.6245,-0.5991,-0.1318,8.72,-9.94,5.30
1076,94829785,0.6270,-0.6001,-0.1353,10.43,-10.43,4.51
1077,94834785,0.6294,-0.6030,-0.1367,12.01,-10.85,3.90
1078,94839787,0.6338,-0.6025,-0.1343,14.02,-11.40,3.29
1079,94844787,0.6387,-0.6069,-0.1343,16.10,-11.89,2.62
1080,94849787,0.6470,-0.6123,-0.1436,18.17,-12.32,2.13
1081,94854787,0.6489,-0.6172,-0.1460,20.30,-12.80,1.65
1082,94859785,0.6572,-0.6191,-0.1514,22.44,-13.29,1.28
1083,94864788,0.6616,-0.6221,-0.1567,24.57,-13.84,1.10
1084,94869786,0.6685,-0.6240,-0.1533,26.65,-14.15,0.79
1085,94874787,0.6787,-0.6313,-0.1523,28.72,-14.76,0.61
1086,94879785,0.6890,-0.6416,-0.1558,30.55,-15.18,0.49
1087,94884787,0.6958,-0.6499,-0.1587,32.07,-15.61,0.49
1088,94889786,0.6987,-0.6553,-0.1636,33.78,-16.04,0.61
1089,94894789,0.7080,-0.6587,-0.1699,35.06,-16.40,0.67
1090,94899785,0.7178,-0.6626,-0.1729,36.22,-16.83,0.79
1091,94904787,0.7207,-0.6636,-0.1714,37.26,-17.20,0.91
1092,94909787,0.7266,-0.6665,-0.1748,38.05,-17.38,1.04
1093,94914785,0.7280,-0.6719,-0.1748,38.78,-17.80,1.28
1094,94919787,0.7324,-0.6738,-0.1787,39.27,-18.05,1.46
1095,94924787,0.7329,-0.6782,-0.1821,39.51,-18.48,1.71
1096,94929787,0.7339,-0.6802,-0.1836,39.63,-18.84,2.07
1097,94934787,0.7388,-0.6816,-0.1826,39.88,-19.02,2.20
1098,94939787,0.7368,-0.6855,-0.1816,39.70,-19.39,2.56
1099,94944787,0.7437,-0.6909,-0.1816,39.57,-19.70,2.93
1100,94949786,0.7397,-0.6934,-0.1831,39.33,-19.82,3.17
1101,94954787,0.7534,-0.7041,-0.1821,39.09,-20.00,3.54
1102,94959785,0.7549,-0.7061,-0.1851,38.84,-20.30,3.84
1103,94964788,0.7559,-0.7104,-0.1841,38.48,-20.43,4.27
1104,94969786,0.7559,-0.7114,-0.1846,38.05,-20.55,4.45
1105,94974787,0.7544,-0.7114,-0.1797,37.74,-20.73,4.94
1106,94979786,0.7480,-0.7109,-0.1816,37.32,-20.85,5.18
1107,94984787,0.7441,-0.7095,-0.1875,36.95,-20.91,5.43
1108,94989786,0.7388,-0.7119,-0.1777,36.71,-21.04,5.67
1109,94994787,0.7334,-0.7090,-0.1729,36.34,-21.16,5.98
1110,94999785,0.7295,-0.7109,-0.1699,36.10,-21.16,6.22
1111,95004787,0.7261,-0.7104,-0.1606,35.79,-21.10,6.40
1112,95009786,0.7202,-0.7095,-0.1641,35.61,-21.22,6.65
1113,95014785,0.7144,-0.7144,-0.1602,35.49,-20.91,6.65
1114,95019789,0.7075,-0.7095,-0.1562,35.43,-21.04,6.83
1115,95024787,0.7031,-0.7104,-0.1592,35.12,-20.73,6.89
1116,95029787,0.6943,-0.7095,-0.1611,35.12,-20.67,6.95
1117,95034787,0.6885,-0.7056,-0.1533,35.24,-20.55,7.01
1118,95039785,0.6812,-0.7002,-0.1523,35.18,-20.55,7.01
1119,95044787,0.6753,-0.7002,-0.1577,35.12,-20.55,6.95
1120,95049786,0.6743,-0.6958,-0.1567,35.18,-20.30,6.89
1121,95054787,0.6704,-0.7012,-0.1572,35.06,-20.30,6.71
1122,95059785,0.6689,-0.6987,-0.1553,34.76,-20.30,6.65
1123,95065113,0.6704,-0.6968,-0.1470,34.57,-20.12,6.46
1124,95069787,0.6655,-0.7041,-0.1470,34.27,-20.18,6.40
1125,95074787,0.6646,-0.7051,-0.1470,33.84,-20.06,6.22
1126,95079785,0.6636,-0.7041,-0.1519,33.35,-19.94,6.10
1127,95084787,0.6685,-0.7056,-0.1499,32.87,-19.82,6.10
1128,95089788,0.6675,-0.7139,-0.1504,32.20,-19.88,6.04
1129,95094787,0.6641,-0.7129,-0.1465,31.52,-19.63,5.91
1130,95099787,0.6646,-0.7173,-0.1489,30.67,-19.51,5.85
1131,95104787,0.6689,-0.7207,-0.1465,29.76,-19.39,5.79
1132,95109785,0.6694,-0.7158,-0.1450,28.66,-19.09,5.73
1133,95114785,0.6719,-0.7202,-0.1421,27.56,-19.27,5.55
1134,95120235,0.6694,-0.7207,-0.1460,26.22,-19.02,5.49
1135,95124787,0.6699,-0.7197,-0.1431,25.00,-18.90,5.49
1136,95129786,0.6685,-0.7217,-0.1460,23.66,-18.72,5.30
1137,95134787,0.6714,-0.7275,-0.1421,22.20,-18.48,5.24
1138,95139786,0.6733,-0.7256,-0.1401,20.67,-18.23,5.06
1139,95144787,0.6777,-0.7280,-0.1343,19.39,-18.17,5.00
1140,95149786,0.6777,-0.7305,-0.1343,17.87,-17.99,4.94
1141,95154787,0.6816,-0.7241,-0.1367,16.40,-17.80,4.82
1142,95159786,0.6792,-0.7236,-0.1348,15.06,-17.38,4.76
1143,95164847,0.6816,-0.7266,-0.1362,13.66,-17.07,4.70
1144,95169786,0.6851,-0.7266,-0.1323,12.32,-16.77,4.63
1145,95174787,0.6841,-0.7241,-0.1309,11.22,-16.52,4.51
1146,95180198,0.6899,-0.7202,-0.1318,10.06,-16.16,4.39
1147,95184788,0.6890,-0.7222,-0.1289,9.33,-15.79,4.39
1148,95189785,0.6914,-0.7183,-0.1230,8.35,-15.55,4.39
1149,95194789,0.6938,-0.7207,-0.1216,7.68,-15.00,4.27
1150,95199786,0.6904,-0.7129,-0.1157,7.13,-14.82,4.27
1151,95204788,0.6899,-0.7139,-0.1143,6.71,-14.21,4.27
1152,95209786,0.6885,-0.7085,-0.1152,6.52,-13.78,4.15
1153,95214787,0.6865,-0.7061,-0.1084,6.34,-13.29,4.15
1154,95219786,0.6875,-0.7075,-0.1094,6.46,-12.80,3.96
1155,95224787,0.6875,-0.7041,-0.1089,6.59,-12.20,4.02
1156,95229787,0.6826,-0.7036,-0.1069,7.01,-11.65,3.96
1157,95234787,0.6846,-0.6992,-0.1055,7.32,-11.16,3.84
1158,95239785,0.6782,-0.6978,-0.1035,7.68,-10.61,3.72
1159,95244788,0.6816,-0.6963,-0.1035,8.29,-10.18,3.72
1160,95249787,0.6753,-0.6934,-0.0977,9.09,-9.63,3.66
1161,95254787,0.6758,-0.6875,-0.1001,9.70,-9.02,3.60
1162,95259791,0.6729,-0.6846,-0.1011,10.49,-8.54,3.54
1163,95264785,0.6753,-0.6865,-0.0996,11.22,-8.11,3.60
1164,95269788,0.6724,-0.6880,-0.1016,11.95,-7.50,3.54
1165,95274787,0.6758,-0.6958,-0.0962,12.44,-6.95,3.66
1166,95279787,0.6807,-0.6963,-0.0986,12.93,-6.46,3.72
1167,95284787,0.6821,-0.6978,-0.0938,13.35,-5.85,3.84
1168,95289787,0.6890,-0.7021,-0.0869,13.60,-5.55,3.90
1169,95294789,0.6938,-0.7051,-0.0854,13.66,-4.76,4.15
1170,95299786,0.6934,-0.7061,-0.0869,13.35,-4.15,4.33
1171,95304787,0.6953,-0.7061,-0.0840,12.87,-3.66,4.51
1172,95309787,0.7007,-0.7061,-0.0786,12.07,-2.93,4.70
1173,95314787,0.6997,-0.7061,-0.0742,11.16,-2.26,4.76
1174,95319786,0.7017,-0.7065,-0.0713,9.94,-1.52,5.00
1175,95324790,0.7021,-0.7017,-0.0708,8.48,-0.91,5.06
1176,95329787,0.7007,-0.7026,-0.0703,7.13,-0.18,5.18
1177,95334785,0.7021,-0.7026,-0.0723,5.73,0.37,5.24
1178,95339789,0.7002,-0.6968,-0.0684,4.21,1.10,5.24
1179,95344787,0.7002,-0.6963,-0.0693,2.80,1.77,5.18
1180,95349787,0.7002,-0.6973,-0.0664,1.59,2.56,5.30
1181,95354787,0.7046,-0.6890,-0.0669,0.49,3.11,5.30
1182,95359786,0.7061,-0.6899,-0.0620,-0.67,3.84,5.30
1183,95364787,0.7065,-0.6895,-0.0605,-1.40,4.51,5.37
1184,95369788,0.7100,-0.6841,-0.0620,-1.95,5.24,5.24
1185,95374787,0.7104,-0.6841,-0.0513,-2.20,5.98,5.18
1186,95379785,0.7095,-0.6792,-0.0532,-2.26,6.71,5.12
1187,95384951,0.7124,-0.6738,-0.0566,-2.13,7.50,5.00
1188,95389787,0.7129,-0.6680,-0.0493,-1.83,8.23,4.88
1189,95394787,0.7144,-0.6626,-0.0508,-1.22,8.66,4.63
1190,95399789,0.7119,-0.6577,-0.0596,-0.55,9.27,4.70
1191,95404786,0.7114,-0.6533,-0.0562,0.49,9.94,4.33
1192,95409787,0.7095,-0.6470,-0.0576,1.52,10.43,4.09
1193,95414786,0.7114,-0.6470,-0.0566,2.87,11.04,3.78
1194,95419859,0.7095,-0.6450,-0.0576,4.57,11.65,3.35
1195,95424786,0.7070,-0.6387,-0.0498,5.85,12.20,3.11
1196,95429787,0.7119,-0.6357,-0.0601,7.38,12.50,2.74
1197,95434786,0.7178,-0.6333,-0.0552,9.02,12.87,2.38
1198,95439787,0.7168,-0.6318,-0.0547,10.67,13.29,2.20
1199,95444786,0.7192,-0.6284,-0.0557,12.20,13.78,1.83
1200,95449787,0.7217,-0.6309,-0.0532,13.48,14.02,1.52
1201,95454786,0.7212,-0.6294,-0.0508,14.82,14.45,1.04
1202,95459787,0.7261,-0.6245,-0.0513,15.98,14.70,0.79
1203,95464786,0.7261,-0.6221,-0.0527,17.13,15.12,0.30
1204,95469785,0.7314,-0.6187,-0.0513,18.11,15.37,0.00
1205,95474788,0.7295,-0.6235,-0.0532,18.96,15.49,-0.37
1206,95479835,0.7339,-0.6274,-0.0532,19.57,15.67,-0.79
1207,95484785,0.7407,-0.6299,-0.0552,20.18,15.91,-1.10
1208,95489785,0.7383,-0.6382,-0.0537,20.49,16.28,-1.46
1209,95494788,0.7446,-0.6411,-0.0498,20.91,16.46,-1.65
1210,95499787,0.7471,-0.6421,-0.0522,20.98,16.52,-1.95
1211,95504787,0.7485,-0.6460,-0.0459,20.91,16.71,-2.13
1212,95509785,0.7456,-0.6519,-0.0449,20.79,16.77,-2.32
1213,95514787,0.7544,-0.6519,-0.0557,20.49,16.95,-2.56
1214,95519787,0.7529,-0.6553,-0.0459,20.18,17.01,-2.68
1215,95524787,0.7568,-0.6616,-0.0420,19.63,17.20,-2.74
1216,95529787,0.7593,-0.6650,-0.0430,18.84,17.50,-2.80
1217,95534789,0.7627,-0.6743,-0.0420,18.23,17.50,-2.74
1218,95539786,0.7666,-0.6816,-0.0400,17.56,17.50,-2.74
1219,95544788,0.7681,-0.6875,-0.0386,16.89,17.68,-2.68
1220,95549787,0.7686,-0.6919,-0.0391,16.34,17.74,-2.62
1221,95554786,0.7725,-0.6992,-0.0371,15.73,17.87,-2.26
1222,95559787,0.7729,-0.7026,-0.0332,15.18,17.80,-2.01
1223,95564786,0.7715,-0.7070,-0.0376,14.76,17.99,-1.95
1224,95570099,0.7656,-0.7139,-0.0298,14.27,17.99,-1.59
1225,95574788,0.7666,-0.7192,-0.0308,14.21,18.05,-1.46
1226,95579787,0.7588,-0.7197,-0.0215,13.90,17.93,-1.16
1227,95584787,0.7534,-0.7188,-0.0308,13.78,17.80,-0.98
1228,95590085,0.7500,-0.7197,-0.0225,13.60,17.93,-0.85
1229,95594788,0.7466,-0.7222,-0.0215,13.35,17.74,-0.61
1230,95599788,0.7417,-0.7197,-0.0244,13.29,17.56,-0.55
1231,95604786,0.7344,-0.7207,-0.0161,13.17,17.38,-0.49
1232,95609789,0.7280,-0.7227,-0.0210,13.11,17.20,-0.37
1233,95614786,0.7222,-0.7227,-0.0166,12.87,17.07,-0.43
1234,95619788,0.7139,-0.7266,-0.0088,12.87,16.83,-0.43
1235,95624865,0.7080,-0.7222,-0.0107,12.80,16.65,-0.49
1236,95629900,0.7046,-0.7251,-0.0034,12.80,16.40,-0.67
1237,95634787,0.6973,-0.7212,-0.0029,12.62,16.04,-0.73
1238,95639787,0.6934,-0.7231,-0.0005,12.68,15.79,-0.91
1239,95644787,0.6816,-0.7236,0.0034,12.44,15.55,-1.10
1240,95649787,0.6772,-0.7261,0.0000,12.56,15.30,-1.40
1241,95654787,0.6763,-0.7251,0.0093,12.56,14.94,-1.59
1242,95659788,0.6699,-0.7241,0.0137,12.62,14.63,-1.89
1243,95664786,0.6641,-0.7300,0.0112,12.56,14.33,-2.20
