# skilleye imu stream v1
# device=xiao_esp32c6 imu=mpu6050 addr=0x68
# rate_hz=200 accel_range_g=16 gyro_range_dps=2000 dlpf_hz=94
# units: accel in g, gyro in deg/s, t_us in microseconds since boot (monotonic)
# no shared clock with the camera -- tap the racket once before each take
# so both recordings share a spike to align on
seq,t_us,ax,ay,az,gx,gy,gz
0,257875442,-1.0820,0.5542,0.1704,128.17,-15.12,41.77
1,257880445,-1.0732,0.5640,0.1694,131.65,-14.94,44.57
2,257885441,-1.0620,0.5703,0.1772,136.83,-14.82,47.80
3,257890440,-1.0537,0.5825,0.1748,141.34,-15.00,51.04
4,257895443,-1.0444,0.5894,0.1733,145.30,-15.06,54.76
5,257900442,-1.0425,0.5962,0.1660,148.90,-15.30,58.60
6,257905442,-1.0415,0.6030,0.1636,152.01,-15.67,62.80
7,257910441,-1.0488,0.6162,0.1660,155.06,-16.22,67.26
8,257915442,-1.0518,0.6323,0.1704,158.05,-16.77,71.59
9,257920443,-1.0601,0.6523,0.1860,161.34,-17.07,76.28
10,257925442,-1.0791,0.6738,0.1982,164.63,-17.26,80.79
11,257930441,-1.0918,0.6934,0.2031,167.87,-17.20,84.70
12,257935442,-1.1123,0.7119,0.2153,170.85,-16.95,88.96
13,257940442,-1.1255,0.7354,0.2144,172.99,-16.59,93.41
14,257945442,-1.1343,0.7563,0.2188,174.63,-16.28,97.56
15,257950440,-1.1377,0.7690,0.2158,175.85,-16.22,101.65
16,257955443,-1.1357,0.7871,0.2095,176.95,-15.98,105.67
17,257960442,-1.1421,0.7900,0.2026,177.99,-16.10,109.88
18,257965441,-1.1460,0.8003,0.1919,179.15,-16.40,114.21
19,257970444,-1.1387,0.8115,0.1807,180.43,-16.83,118.66
20,257975440,-1.1299,0.8188,0.1792,181.77,-17.50,123.48
21,257980442,-1.1309,0.8203,0.1709,183.78,-18.41,128.35
22,257985441,-1.1328,0.8398,0.1709,186.28,-19.21,133.41
23,257990440,-1.1362,0.8589,0.1733,189.09,-20.18,138.35
24,257995444,-1.1401,0.8750,0.1650,192.07,-20.73,143.17
25,258000442,-1.1567,0.8965,0.1729,195.06,-21.46,147.99
26,258005441,-1.1689,0.9131,0.1768,198.23,-21.71,152.62
27,258010444,-1.1758,0.9258,0.1675,201.16,-21.83,157.20
28,258015440,-1.1787,0.9385,0.1597,203.84,-21.59,161.52
29,258020442,-1.1812,0.9585,0.1597,206.28,-21.40,165.85
30,258025441,-1.1826,0.9678,0.1504,208.60,-21.04,170.00
31,258030444,-1.1797,0.9775,0.1304,210.49,-21.04,173.90
32,258035443,-1.1724,0.9878,0.1196,212.32,-20.67,177.87
33,258040442,-1.1655,0.9995,0.0986,214.33,-20.61,181.65
34,258045442,-1.1577,1.0024,0.0908,216.46,-20.43,185.49
35,258050441,-1.1538,1.0000,0.0742,218.54,-20.18,189.39
36,258055442,-1.1567,1.0078,0.0596,220.18,-20.00,193.29
37,258060442,-1.1523,1.0186,0.0435,221.77,-19.57,197.20
38,258065442,-1.1548,1.0293,0.0278,223.35,-19.15,200.79
39,258070443,-1.1641,1.0439,0.0063,224.88,-18.54,204.51
40,258075442,-1.1729,1.0615,-0.0029,226.16,-17.44,207.74
41,258080695,-1.1787,1.0815,-0.0283,227.20,-16.52,210.91
42,258085442,-1.1738,1.1064,-0.0557,228.17,-15.30,213.90
43,258090441,-1.1797,1.1294,-0.0728,229.76,-13.66,216.71
44,258095484,-1.1909,1.1494,-0.1006,231.28,-11.89,219.63
45,258100440,-1.1943,1.1641,-0.1245,233.17,-9.76,222.74
46,258105444,-1.2007,1.1738,-0.1509,235.06,-7.26,226.16
47,258110442,-1.1934,1.1797,-0.1797,236.59,-4.45,229.82
48,258115441,-1.2061,1.1855,-0.1938,237.50,-2.13,233.11
49,258120444,-1.2026,1.2002,-0.2339,238.60,1.83,238.35
50,258125440,-1.1997,1.2124,-0.2495,238.90,4.63,241.83
51,258130442,-1.2144,1.2349,-0.2944,238.23,8.96,246.95
52,258135441,-1.2173,1.2393,-0.3130,236.83,12.01,250.18
53,258140442,-1.2100,1.2466,-0.3345,234.27,15.98,254.09
54,258145440,-1.2100,1.2705,-0.3711,230.49,19.82,257.68
55,258150442,-1.2090,1.2715,-0.4019,225.18,23.78,260.91
56,258155441,-1.2271,1.2871,-0.4526,217.07,28.05,264.33
57,258160444,-1.2651,1.2729,-0.4736,210.73,30.73,266.52
58,258165440,-1.2715,1.2739,-0.5005,202.20,33.96,269.15
59,258170442,-1.2524,1.2822,-0.5308,193.60,37.01,271.83
60,258175441,-1.2451,1.2861,-0.5640,184.57,39.94,274.15
61,258180440,-1.2466,1.2871,-0.5869,175.61,42.87,276.52
62,258185444,-1.2402,1.2910,-0.6167,167.01,45.73,278.72
63,258190440,-1.2412,1.2910,-0.6421,158.90,48.35,280.67
64,258195440,-1.2344,1.2964,-0.6646,151.59,51.22,282.50
65,258200443,-1.2197,1.3042,-0.6919,144.45,54.02,284.02
66,258205442,-1.2212,1.3013,-0.7290,137.87,56.22,285.30
67,258210441,-1.2197,1.3008,-0.7554,131.22,58.84,286.89
68,258215442,-1.2144,1.2930,-0.7842,128.60,61.16,288.48
69,258220442,-1.2139,1.3008,-0.8184,126.04,63.66,290.12
70,258225442,-1.2017,1.3091,-0.8418,125.18,66.10,291.71
71,258230441,-1.1855,1.3232,-0.8599,125.73,68.78,292.99
72,258235442,-1.1763,1.3281,-0.8906,126.46,71.77,294.33
73,258240442,-1.1807,1.3271,-0.9238,129.27,74.88,295.30
74,258245442,-1.1470,1.3130,-0.9717,129.70,78.29,296.22
75,258250443,-1.1309,1.3203,-0.9565,130.67,81.83,297.07
76,258255442,-1.1367,1.3145,-0.9761,133.72,86.04,297.99
77,258260444,-1.1133,1.3042,-1.0107,135.79,89.88,298.66
78,258265442,-1.0991,1.3037,-1.0195,137.01,94.45,298.96
79,258270768,-1.0742,1.2905,-1.0186,138.29,100.43,298.84
80,258275443,-1.0459,1.2729,-1.0405,139.39,104.51,298.72
81,258280442,-1.0391,1.2466,-1.0566,140.85,109.70,298.60
82,258285442,-1.0259,1.2441,-1.0625,142.50,115.00,298.05
83,258290440,-1.0078,1.2285,-1.0674,143.90,120.37,297.32
84,258295443,-0.9844,1.2158,-1.0894,144.70,125.55,296.22
85,258300442,-0.9692,1.1963,-1.0986,144.57,130.55,294.82
86,258305442,-0.9644,1.1758,-1.1084,143.11,135.24,293.29
87,258310442,-0.9619,1.1470,-1.1328,139.70,139.27,291.59
88,258315442,-0.9458,1.1006,-1.1504,133.66,143.29,289.82
89,258320443,-0.9463,1.0757,-1.1689,126.46,147.07,287.93
90,258325442,-0.9395,1.0732,-1.1880,116.10,150.61,285.85
91,258330443,-0.9160,1.0425,-1.1719,104.82,154.21,283.29
92,258335442,-0.8872,1.0117,-1.1743,92.80,158.11,281.10
93,258340441,-0.8711,0.9883,-1.1787,80.73,162.32,278.78
94,258345442,-0.8682,0.9736,-1.1904,68.90,166.40,276.40
95,258350443,-0.8481,0.9580,-1.1943,57.74,170.61,273.78
96,258355442,-0.8306,0.9307,-1.2031,47.87,174.88,271.34
97,258360441,-0.8335,0.9199,-1.2275,39.09,179.15,268.78
98,258365442,-0.8218,0.9116,-1.2354,31.89,183.17,266.16
99,258370444,-0.8032,0.9009,-1.2217,26.22,187.44,263.78
100,258375440,-0.7896,0.8643,-1.2471,22.87,191.65,261.34
101,258380442,-0.8101,0.8320,-1.2437,20.91,195.79,259.27
102,258385440,-0.8433,0.8130,-1.2593,20.73,199.88,257.32
103,258390440,-0.8306,0.7695,-1.2915,21.40,203.78,255.61
104,258395440,-0.8169,0.7612,-1.2627,22.56,207.56,254.21
105,258400440,-0.8271,0.7554,-1.2583,24.57,211.83,252.50
106,258405444,-0.8105,0.7290,-1.2598,27.13,216.04,250.67
107,258410442,-0.8198,0.6924,-1.2578,30.06,220.49,248.90
108,258415441,-0.8462,0.6592,-1.2637,33.05,224.45,247.44
109,258420442,-0.8511,0.6294,-1.2578,36.59,228.29,245.98
110,258425440,-0.8545,0.6001,-1.2407,40.12,232.13,244.63
111,258430442,-0.8325,0.5762,-1.2329,43.23,235.91,243.11
112,258435441,-0.8306,0.5513,-1.2227,45.43,239.51,241.59
113,258440442,-0.8457,0.5132,-1.1841,46.95,243.23,240.12
114,258445440,-0.8472,0.4775,-1.1646,47.68,246.83,238.72
115,258450442,-0.8379,0.4517,-1.1309,48.17,250.61,237.32
116,258455441,-0.8276,0.4199,-1.0967,47.74,254.27,235.79
117,258460442,-0.8154,0.3970,-1.0503,46.59,257.93,234.21
118,258465440,-0.8052,0.3735,-1.0034,44.57,261.83,232.68
119,258470440,-0.8022,0.3486,-0.9697,41.77,265.67,230.85
120,258475440,-0.8022,0.3179,-0.9346,38.23,269.76,229.21
121,258480444,-0.7988,0.2861,-0.8950,33.90,273.05,227.44
122,258485441,-0.8013,0.2607,-0.8604,28.84,276.52,225.85
123,258490442,-0.7944,0.2290,-0.8218,23.29,279.63,224.39
124,258495440,-0.7798,0.1909,-0.7847,17.32,282.26,223.05
125,258500443,-0.7661,0.1875,-0.7363,11.22,285.12,221.83
126,258505441,-0.7485,0.1650,-0.7036,4.88,287.80,220.61
127,258510444,-0.7305,0.1387,-0.6523,-1.22,290.24,219.63
128,258515440,-0.7261,0.1089,-0.6035,-6.89,292.74,218.90
129,258520442,-0.7236,0.0854,-0.5581,-12.56,294.88,218.17
130,258525441,-0.7124,0.0684,-0.5176,-17.99,297.13,217.56
131,258530442,-0.6997,0.0503,-0.4751,-23.11,298.96,217.01
132,258535440,-0.6870,0.0298,-0.4326,-27.99,300.85,216.71
133,258540442,-0.6694,0.0151,-0.3926,-32.74,302.50,216.46
134,258545441,-0.6582,-0.0093,-0.3462,-37.44,304.02,216.34
135,258550444,-0.6533,-0.0264,-0.2939,-41.65,305.43,216.52
136,258555442,-0.6445,-0.0454,-0.2490,-45.98,307.20,216.95
137,258560442,-0.6436,-0.0684,-0.2109,-50.24,308.54,217.56
138,258565440,-0.6450,-0.0903,-0.1631,-54.82,310.00,218.41
139,258570440,-0.6431,-0.1021,-0.1279,-59.82,311.28,219.63
140,258575442,-0.6411,-0.1206,-0.0967,-65.06,312.38,220.91
141,258580443,-0.6396,-0.1382,-0.0781,-70.79,313.05,222.44
142,258585442,-0.6470,-0.1587,-0.0508,-76.65,313.41,224.45
143,258590441,-0.6567,-0.1621,-0.0269,-82.50,313.29,226.46
144,258595442,-0.6699,-0.1729,0.0010,-88.29,312.80,228.84
145,258600535,-0.6841,-0.1665,0.0308,-93.35,312.26,231.40
146,258605444,-0.7134,-0.1909,0.1035,-97.87,311.71,233.96
147,258610442,-0.7202,-0.2422,0.1138,-101.59,311.34,237.07
148,258615441,-0.7051,-0.2031,0.0728,-105.00,310.30,241.04
149,258620442,-0.7119,-0.2021,0.1396,-108.54,308.96,244.82
150,258625440,-0.7061,-0.2231,0.1533,-112.68,307.32,248.96
151,258630442,-0.6675,-0.2363,0.1792,-117.56,305.73,253.29
152,258635441,-0.7344,-0.2705,0.1626,-123.48,303.29,257.80
153,258640442,-0.8804,-0.3076,0.1162,-130.18,300.12,262.87
154,258645440,-1.0278,-0.2764,0.0879,-137.44,295.61,267.99
155,258650442,-1.0723,-0.2505,0.1504,-144.82,291.04,272.50
156,258655441,-1.0747,-0.2495,0.1470,-152.01,286.28,276.89
157,258660442,-1.0391,-0.2896,0.1743,-158.23,281.34,281.40
158,258665440,-0.9912,-0.3364,0.1973,-163.35,276.16,286.59
159,258670444,-0.9570,-0.3887,0.2163,-167.38,270.73,292.13
160,258675441,-0.9512,-0.4038,0.2109,-170.18,264.88,298.23
161,258680440,-0.9741,-0.4243,0.2207,-171.95,258.48,304.27
162,258685444,-1.0137,-0.4243,0.2334,-172.62,251.65,309.82
163,258690442,-1.0205,-0.4414,0.2451,-171.77,244.57,314.88
164,258695442,-0.9932,-0.4639,0.2788,-169.39,237.56,319.57
165,258700441,-0.9761,-0.5239,0.3091,-165.37,230.49,323.84
166,258705442,-0.9629,-0.5469,0.3062,-160.24,223.41,327.80
167,258710440,-0.9683,-0.5562,0.3164,-154.51,215.73,331.04
168,258715444,-0.8921,-0.6177,0.3623,-148.66,208.35,333.41
169,258720442,-0.9902,-0.6118,0.2788,-142.26,200.49,335.30
170,258725442,-1.0420,-0.6470,0.2803,-137.99,191.71,335.61
171,258730441,-0.8091,-0.7886,0.3750,-135.49,183.05,335.73
172,258735442,-0.7275,-0.8120,0.3491,-131.65,174.21,336.40
173,258740442,-0.7803,-0.8091,0.4067,-125.98,165.30,335.49
174,258745442,-0.7905,-0.8428,0.4360,-117.80,157.01,333.17
175,258750441,-0.8726,-0.8477,0.4102,-108.05,148.66,329.63
176,258755442,-0.8013,-0.9678,0.4854,-98.23,140.24,326.16
177,258760443,-0.7539,-1.0488,0.4775,-86.95,132.13,322.99
178,258765442,-0.7817,-1.0991,0.5332,-74.02,124.51,319.45
179,258770440,-0.7778,-1.1533,0.5234,-60.79,117.13,315.30
180,258775444,-0.7725,-1.1968,0.5435,-47.93,110.00,310.73
181,258780442,-0.7793,-1.2412,0.5591,-36.52,102.56,305.67
182,258785441,-0.8086,-1.2891,0.5605,-26.77,95.18,300.24
183,258790444,-0.8350,-1.3301,0.5703,-19.21,86.16,294.02
184,258795440,-0.8447,-1.3809,0.5649,-13.96,79.39,287.20
185,258800442,-0.8555,-1.4409,0.5840,-10.61,71.10,279.88
186,258805441,-0.8745,-1.4585,0.5933,-9.27,62.38,272.07
187,258810483,-0.8696,-1.4980,0.5942,-9.27,53.29,263.84
188,258815444,-0.8467,-1.5190,0.6191,-9.94,44.09,255.24
189,258820442,-0.8115,-1.5425,0.6353,-10.49,35.12,245.91
190,258825441,-0.8096,-1.5591,0.6411,-10.24,26.10,236.46
191,258830440,-0.8213,-1.5718,0.6895,-8.66,17.01,226.71
192,258835444,-0.8530,-1.5737,0.6660,-5.67,8.41,216.40
193,258840442,-0.8970,-1.6567,0.7446,-2.32,0.00,206.04
194,258845441,-0.9365,-1.6147,0.7285,2.56,-8.11,195.06
195,258850442,-0.9644,-1.5991,0.7349,8.17,-15.73,183.90
196,258855440,-1.0176,-1.6187,0.7988,13.48,-23.35,172.20
197,258860444,-1.0601,-1.6445,0.7783,18.23,-30.55,160.37
198,258865441,-1.1113,-1.6489,0.7725,21.59,-37.56,148.23
199,258870440,-1.1270,-1.6602,0.8149,23.35,-44.51,135.67
200,258875440,-1.1455,-1.6436,0.8086,23.66,-50.91,123.11
201,258880444,-1.1411,-1.6338,0.8003,22.87,-56.89,109.94
202,258885440,-1.1465,-1.6372,0.8359,20.67,-62.93,96.34
203,258890442,-1.1460,-1.6294,0.8149,17.50,-68.60,83.17
204,258895441,-1.1323,-1.6089,0.8120,13.54,-73.90,68.96
205,258900442,-1.1182,-1.5938,0.8325,9.21,-79.02,54.63
206,258905440,-1.1030,-1.5713,0.8169,4.76,-83.78,40.12
207,258910860,-1.0947,-1.5518,0.8154,0.73,-88.11,25.49
208,258915442,-1.0938,-1.5371,0.8203,-3.05,-92.32,10.55
209,258920443,-1.1094,-1.5156,0.8091,-6.59,-96.10,-4.33
210,258925442,-1.1299,-1.4985,0.7959,-10.49,-99.45,-19.51
211,258930441,-1.1465,-1.4795,0.7871,-15.24,-102.68,-34.63
212,258935442,-1.1592,-1.4580,0.7573,-20.91,-105.79,-49.88
213,258940442,-1.1626,-1.4404,0.7207,-27.38,-108.90,-65.30
214,258945442,-1.1499,-1.3999,0.7227,-34.45,-111.89,-80.98
215,258950441,-1.1230,-1.3677,0.6929,-41.22,-114.82,-96.65
216,258955442,-1.1152,-1.3369,0.6631,-47.50,-117.20,-112.56
217,258960442,-1.1128,-1.3159,0.6685,-53.05,-119.33,-128.54
218,258965442,-1.1255,-1.2905,0.6338,-57.80,-120.91,-144.39
219,258970441,-1.1509,-1.2637,0.6187,-61.89,-122.32,-160.30
220,258975442,-1.1743,-1.2383,0.6089,-65.37,-123.48,-176.10
221,258980539,-1.2041,-1.2090,0.5752,-68.72,-124.09,-191.89
222,258985442,-1.2271,-1.1807,0.5605,-72.01,-124.39,-207.62
223,258990442,-1.2490,-1.1499,0.5449,-75.67,-124.21,-223.29
224,258995442,-1.2739,-1.1338,0.5137,-79.82,-123.72,-238.96
225,259000441,-1.2998,-1.1064,0.4951,-84.33,-122.99,-254.45
226,259005442,-1.3218,-1.0762,0.4663,-89.15,-121.95,-269.94
227,259010442,-1.3418,-1.0483,0.4341,-94.33,-120.61,-285.49
228,259015442,-1.3491,-1.0181,0.4038,-99.02,-119.02,-300.91
229,259020443,-1.3530,-0.9917,0.3652,-103.29,-117.26,-316.40
230,259025442,-1.3540,-0.9653,0.3237,-106.40,-115.43,-331.77
231,259030442,-1.3550,-0.9331,0.2812,-108.17,-113.41,-347.20
232,259035442,-1.3589,-0.8989,0.2520,-108.05,-111.40,-362.44
233,259040441,-1.3584,-0.8730,0.2227,-106.10,-108.90,-377.44
234,259045442,-1.3701,-0.8423,0.2026,-102.38,-106.22,-392.44
235,259050442,-1.3774,-0.7983,0.1836,-96.77,-103.29,-407.26
236,259055442,-1.3916,-0.7627,0.1636,-90.12,-99.94,-421.95
237,259060441,-1.4092,-0.7319,0.1504,-82.68,-96.52,-436.52
238,259065442,-1.4287,-0.7017,0.1323,-75.30,-92.62,-450.91
239,259070442,-1.4419,-0.6567,0.1191,-68.48,-88.72,-465.55
240,259075442,-1.4541,-0.6250,0.0977,-62.80,-84.63,-479.94
241,259080441,-1.4800,-0.5776,0.0781,-59.09,-80.67,-494.39
242,259085442,-1.4985,-0.5596,0.0635,-57.13,-76.59,-509.09
243,259090442,-1.5083,-0.4795,0.0420,-56.40,-72.44,-523.54
244,259095442,-1.5190,-0.4727,0.0283,-56.46,-67.99,-537.80
245,259100441,-1.5200,-0.4399,0.0205,-56.59,-63.35,-551.83
246,259105442,-1.5229,-0.4033,0.0117,-55.98,-58.35,-565.43
247,259110440,-1.5254,-0.3545,0.0146,-53.96,-52.99,-578.78
248,259115440,-1.5166,-0.3071,0.0366,-50.49,-47.07,-591.52
249,259120445,-1.5205,-0.2559,0.0537,-45.43,-40.73,-603.78
250,259125442,-1.5200,-0.2207,0.0669,-40.49,-35.49,-613.17
251,259130441,-1.5298,-0.1602,0.0884,-31.83,-27.07,-626.52
252,259135442,-1.5371,-0.1079,0.0957,-24.51,-19.82,-637.32
253,259140443,-1.5508,-0.0508,0.1011,-17.44,-12.38,-647.62
254,259145442,-1.5645,-0.0093,0.1216,-12.50,-6.40,-655.67
255,259150441,-1.5918,0.0513,0.1460,-7.80,1.22,-665.37
256,259155442,-1.6206,0.1104,0.1743,-4.51,9.09,-674.94
257,259160442,-1.6499,0.1753,0.1895,-2.87,17.01,-684.27
258,259165442,-1.6860,0.2461,0.2026,-2.26,25.37,-693.72
259,259170443,-1.7275,0.3184,0.2061,-3.05,33.90,-703.29
260,259175445,-1.7808,0.3921,0.2065,-5.24,42.50,-712.93
261,259180444,-1.8545,0.5029,0.2007,-8.41,50.98,-723.29
262,259185440,-1.9067,0.5366,0.1685,-11.46,59.09,-733.66
263,259190440,-1.9854,0.5781,0.1719,-13.48,67.44,-744.33
264,259195442,-2.0908,0.6294,0.1670,-14.63,75.30,-754.70
265,259200441,-2.2695,0.6885,0.1362,-15.73,83.72,-765.37
266,259205440,-2.5283,0.7134,0.1294,-17.74,90.43,-775.85
267,259210442,-2.7852,0.7397,0.0723,-20.49,97.87,-785.98
268,259215442,-3.0171,0.7441,0.0063,-24.15,104.39,-795.79
269,259220440,-3.2695,0.7500,-0.0615,-29.63,109.88,-804.76
270,259225445,-3.5400,0.7832,-0.1602,-37.56,113.96,-813.11
271,259230442,-3.8247,0.8047,-0.2666,-47.44,117.32,-821.16
272,259235441,-4.1299,0.8237,-0.2988,-58.72,120.55,-828.72
273,259240442,-4.4097,0.8472,-0.3384,-70.18,123.66,-835.30
274,259245442,-4.6763,0.8857,-0.3545,-80.79,127.32,-841.16
275,259250442,-4.9102,0.9087,-0.3613,-89.21,131.89,-846.34
276,259255441,-5.2651,1.0205,-0.3711,-93.54,137.38,-850.98
277,259260442,-5.6348,1.1055,-0.3921,-92.56,143.05,-855.85
278,259265440,-5.8984,1.1323,-0.3916,-85.12,148.60,-860.24
279,259270444,-6.0938,1.1475,-0.3887,-71.04,154.09,-863.78
280,259275441,-6.2949,1.1748,-0.4087,-51.46,158.78,-866.46
281,259280443,-6.5605,1.2305,-0.4263,-28.17,162.01,-868.84
282,259285440,-6.8521,1.2617,-0.4526,-2.93,163.84,-870.91
283,259290442,-7.1079,1.2793,-0.4863,22.56,163.41,-873.11
284,259295441,-7.3394,1.2690,-0.5381,46.71,161.22,-874.70
285,259300444,-7.5234,1.2520,-0.5732,69.02,157.26,-875.61
286,259305440,-7.6655,1.2095,-0.5435,88.11,152.07,-875.43
287,259310442,-7.7598,1.1665,-0.5396,102.93,145.85,-873.78
288,259315441,-7.8218,1.0679,-0.5967,111.65,138.96,-871.10
289,259320443,-7.8975,0.9907,-0.5693,114.09,132.26,-866.59
290,259325442,-7.8589,0.9082,-0.5454,111.83,125.73,-860.43
291,259330442,-7.6694,0.8608,-0.5039,105.18,119.94,-852.44
292,259335441,-7.4697,0.7632,-0.6089,90.98,114.57,-844.39
293,259340442,-7.3721,0.6963,-0.5220,70.24,110.91,-834.88
294,259345440,-7.1812,0.6436,-0.5312,45.67,109.09,-824.51
295,259350442,-6.9766,0.5889,-0.5708,16.04,108.35,-813.17
296,259355441,-6.7832,0.5654,-0.5293,-17.87,109.39,-801.52
297,259360444,-6.5654,0.5479,-0.5420,-53.48,112.93,-789.88
298,259365440,-6.3711,0.5479,-0.4976,-89.82,118.78,-778.17
299,259370442,-6.1885,0.5405,-0.4131,-125.37,126.77,-766.52
300,259375441,-6.0083,0.5664,-0.3784,-157.20,136.83,-754.51
301,259380622,-5.8242,0.5591,-0.3521,-184.45,148.90,-742.13
302,259385442,-5.6431,0.5601,-0.3149,-206.46,162.50,-729.27
303,259390440,-5.4551,0.5674,-0.2734,-225.49,179.45,-713.54
304,259395442,-5.3394,0.5532,-0.2559,-233.29,190.30,-702.74
305,259400443,-5.2002,0.5327,-0.2529,-237.74,203.05,-688.66
306,259405442,-5.0605,0.5190,-0.2695,-236.83,215.00,-673.96
307,259410849,-4.8809,0.4951,-0.2349,-228.41,227.99,-655.37
308,259415442,-4.7368,0.4771,-0.1973,-218.05,235.73,-642.50
309,259420441,-4.6055,0.4380,-0.1440,-200.61,244.21,-626.10
310,259425440,-4.4771,0.4258,-0.1079,-179.57,251.52,-609.27
311,259430442,-4.3574,0.4019,-0.0889,-156.04,257.07,-592.26
312,259435441,-4.2495,0.3677,-0.0771,-130.30,260.98,-574.70
313,259440442,-4.1538,0.3213,-0.0337,-103.54,263.41,-557.07
314,259445440,-4.0781,0.2886,-0.0161,-77.26,263.60,-539.63
315,259450442,-3.9790,0.2690,-0.0122,-51.59,261.89,-522.07
316,259455441,-3.9116,0.2529,-0.0088,-27.44,258.84,-504.82
317,259460442,-3.8062,0.2529,0.0063,-5.06,254.51,-487.87
318,259465440,-3.6938,0.2373,0.0254,14.88,248.84,-471.59
319,259470442,-3.5815,0.2319,0.0376,31.71,242.20,-455.85
320,259475441,-3.4556,0.2329,0.0576,45.73,235.18,-440.79
321,259480442,-3.3623,0.2422,0.1021,56.65,227.93,-426.10
322,259485442,-3.1987,0.2158,0.1357,64.27,220.67,-411.83
323,259490442,-3.0513,0.1992,0.1685,68.41,213.66,-397.93
324,259495441,-2.9434,0.1934,0.1987,69.51,206.71,-384.02
325,259500442,-2.8184,0.1514,0.2129,67.93,200.18,-369.94
326,259505442,-2.6641,0.1270,0.2568,63.84,194.33,-355.43
327,259510440,-2.5234,0.1143,0.2490,57.50,188.35,-340.73
328,259515440,-2.4204,0.0972,0.2910,49.33,183.11,-325.79
329,259520443,-2.2993,0.0879,0.3096,39.70,177.99,-310.67
330,259525441,-2.1802,0.0854,0.3228,29.45,173.48,-295.85
331,259530442,-2.0708,0.0923,0.3452,18.90,169.15,-281.10
332,259535572,-1.9541,0.1016,0.3501,8.48,165.00,-266.65
333,259540442,-1.8481,0.0991,0.3560,-1.59,160.91,-252.26
334,259545441,-1.7520,0.1035,0.3657,-10.91,157.01,-237.93
335,259550442,-1.6597,0.1108,0.3799,-19.39,152.99,-223.84
336,259555440,-1.5757,0.1138,0.3828,-26.65,148.90,-209.88
337,259560442,-1.4897,0.1079,0.3921,-32.56,144.82,-196.04
338,259566159,-1.4023,0.1060,0.3989,-37.87,139.70,-179.63
339,259570445,-1.3418,0.1040,0.4067,-40.18,136.28,-168.60
340,259575442,-1.2812,0.1040,0.3975,-41.89,131.65,-155.06
341,259580442,-1.2236,0.1021,0.4106,-41.89,127.01,-141.52
342,259585441,-1.1616,0.0952,0.4131,-40.24,121.95,-128.11
343,259590442,-1.1021,0.0869,0.4170,-36.59,116.95,-114.82
344,259595441,-1.0571,0.0820,0.4180,-30.79,112.01,-101.59
345,259600440,-1.0205,0.0835,0.4277,-23.29,106.89,-88.41
346,259605444,-0.9756,0.0859,0.4126,-14.02,101.40,-75.67
347,259610442,-0.9355,0.0981,0.4131,-3.48,95.79,-63.35
348,259615441,-0.8901,0.1094,0.4062,8.05,89.45,-51.52
349,259620917,-0.8379,0.1191,0.3955,22.13,83.41,-38.11
350,259625442,-0.8081,0.1294,0.3965,31.65,78.17,-29.45
351,259630441,-0.7690,0.1387,0.3882,42.93,71.77,-19.39
352,259635456,-0.7363,0.1489,0.3735,53.41,65.18,-9.88
353,259640442,-0.6992,0.1528,0.3677,62.87,58.48,-0.98
354,259645442,-0.6719,0.1577,0.3638,70.98,51.77,7.44
355,259650442,-0.6431,0.1626,0.3667,77.56,45.06,15.49
356,259655442,-0.6216,0.1621,0.3672,82.56,38.66,23.05
357,259660443,-0.6118,0.1548,0.3662,86.10,32.38,30.43
358,259665442,-0.5977,0.1460,0.3608,88.05,26.16,37.44
359,259670442,-0.5957,0.1401,0.3545,88.84,20.43,44.63
360,259675442,-0.5972,0.1353,0.3467,88.41,14.70,51.65
361,259680442,-0.5854,0.1299,0.3433,87.13,9.09,58.35
362,259685442,-0.5664,0.1274,0.3340,84.45,3.90,65.06
363,259690443,-0.5571,0.1235,0.3257,80.98,-1.28,71.40
364,259695442,-0.5518,0.1313,0.3164,76.59,-6.34,77.56
365,259700442,-0.5391,0.1270,0.2974,71.59,-11.46,83.72
366,259705442,-0.5239,0.1230,0.2847,66.22,-16.65,88.84
367,259710442,-0.5127,0.1177,0.2734,60.61,-22.01,94.21
368,259715442,-0.5039,0.1113,0.2632,54.76,-26.95,99.45
369,259720442,-0.4941,0.1074,0.2510,48.96,-31.89,104.57
370,259725442,-0.4912,0.0991,0.2388,43.29,-36.95,109.45
371,259730596,-0.4854,0.0947,0.2310,37.74,-41.89,114.33
372,259735443,-0.4858,0.0820,0.2217,32.38,-46.71,119.09
373,259740442,-0.4907,0.0669,0.2129,27.32,-51.65,123.60
374,259745442,-0.5005,0.0601,0.2021,22.50,-56.46,128.17
375,259750442,-0.5078,0.0498,0.1943,18.05,-61.04,132.74
376,259755441,-0.5215,0.0352,0.1787,13.84,-65.55,137.32
377,259760442,-0.5347,0.0283,0.1738,10.18,-70.12,141.83
378,259765441,-0.5444,0.0161,0.1616,6.59,-74.51,146.34
379,259770442,-0.5601,0.0063,0.1411,3.41,-78.96,150.85
380,259775441,-0.5796,0.0029,0.1328,0.43,-83.48,155.18
381,259780442,-0.5908,-0.0083,0.1157,-2.62,-87.99,159.45
382,259785441,-0.6030,-0.0122,0.0972,-5.43,-92.50,163.72
383,259790442,-0.6138,-0.0210,0.0825,-8.35,-96.95,167.80
384,259795441,-0.6211,-0.0303,0.0757,-11.16,-101.40,171.83
385,259800444,-0.6323,-0.0381,0.0645,-13.90,-105.98,175.79
386,259805441,-0.6362,-0.0498,0.0400,-16.71,-110.55,180.00
387,259810442,-0.6519,-0.0601,0.0361,-19.21,-115.18,184.02
388,259815441,-0.6816,-0.0708,0.0308,-21.40,-119.51,188.35
389,259820442,-0.7222,-0.0825,0.0156,-23.35,-124.09,192.44
390,259825442,-0.7622,-0.0938,0.0117,-24.94,-128.11,196.89
391,259830443,-0.8047,-0.0986,-0.0010,-26.10,-132.26,201.40
392,259835441,-0.8506,-0.1113,-0.0117,-27.13,-136.22,205.67
393,259840444,-0.8979,-0.1123,-0.0210,-27.80,-140.06,210.06
394,259845441,-0.9458,-0.1138,-0.0220,-28.23,-143.72,214.27
395,259850442,-0.9780,-0.1226,-0.0322,-28.66,-147.20,218.54
396,259855441,-1.0200,-0.1279,-0.0435,-28.84,-150.55,222.87
397,259860442,-1.0605,-0.1338,-0.0503,-28.90,-153.78,227.01
398,259865441,-1.0894,-0.1445,-0.0557,-29.15,-156.95,231.10
399,259870444,-1.1201,-0.1494,-0.0645,-29.15,-159.88,235.43
400,259875441,-1.1416,-0.1646,-0.0703,-29.33,-162.68,239.63
401,259880442,-1.1763,-0.1729,-0.0815,-29.82,-165.30,244.09
402,259885441,-1.2222,-0.1807,-0.0830,-30.49,-167.80,248.54
403,259890442,-1.2808,-0.1909,-0.0786,-31.04,-170.12,252.99
404,259895441,-1.3428,-0.2017,-0.0850,-31.40,-172.07,257.62
405,259900442,-1.4023,-0.2061,-0.0928,-31.28,-173.78,262.32
406,259905441,-1.4658,-0.2139,-0.1021,-31.52,-175.49,267.13
407,259910442,-1.5366,-0.2095,-0.1187,-31.59,-176.95,271.83
408,259915441,-1.5938,-0.2065,-0.1187,-31.71,-178.41,276.59
409,259920442,-1.6523,-0.2075,-0.1309,-31.83,-179.63,281.16
410,259925441,-1.7002,-0.2085,-0.1362,-31.71,-180.79,285.67
411,259930443,-1.7510,-0.2041,-0.1338,-31.52,-181.77,290.24
412,259935441,-1.7856,-0.2051,-0.1411,-31.22,-182.32,294.51
413,259940442,-1.8311,-0.1963,-0.1372,-30.61,-183.05,298.60
414,259945441,-1.8789,-0.1875,-0.1445,-30.12,-182.93,302.74
415,259950442,-1.9253,-0.1792,-0.1406,-29.39,-182.50,306.77
416,259955441,-1.9697,-0.1758,-0.1333,-28.41,-181.95,310.49
417,259960442,-2.0142,-0.1660,-0.1216,-27.20,-180.79,314.09
418,259965441,-2.0596,-0.1523,-0.1162,-25.49,-179.45,317.38
419,259970442,-2.1060,-0.1406,-0.1079,-24.27,-177.68,320.55
420,259975441,-2.1636,-0.1250,-0.1108,-23.48,-175.55,323.54
421,259980442,-2.2329,-0.1089,-0.1304,-23.05,-173.17,326.28
422,259985441,-2.3057,-0.1035,-0.1436,-22.74,-170.85,328.90
423,259990442,-2.3926,-0.1016,-0.1519,-22.62,-168.54,331.46
424,259995441,-2.4727,-0.0981,-0.1660,-22.32,-166.40,334.02
425,260000442,-2.5127,-0.0898,-0.1919,-21.95,-164.45,336.34
426,260005442,-2.5640,-0.0825,-0.1987,-21.46,-162.56,338.60
427,260010441,-2.5801,-0.0659,-0.2144,-20.37,-160.55,340.73
428,260015443,-2.5728,-0.0537,-0.1997,-18.35,-158.41,342.44
429,260020442,-2.5444,-0.0366,-0.1738,-14.88,-155.98,343.90
430,260025442,-2.4922,-0.0200,-0.1489,-9.39,-152.99,345.18
431,260030442,-2.4468,-0.0034,-0.1289,-2.13,-149.39,346.10
432,260035442,-2.4199,0.0225,-0.1104,6.65,-145.18,346.71
433,260040793,-2.3989,0.0464,-0.0898,16.46,-140.43,347.13
434,260045443,-2.3965,0.0713,-0.0840,27.07,-135.30,347.13
435,260050442,-2.4336,0.0947,-0.0757,37.93,-129.76,346.95
436,260055442,-2.4927,0.1035,-0.0894,48.84,-124.33,346.46
437,260060442,-2.5225,0.1089,-0.0859,59.88,-118.84,345.79
438,260065442,-2.5034,0.1074,-0.0815,70.67,-113.17,345.06
439,260070442,-2.4536,0.1099,-0.0728,81.59,-107.38,344.33
440,260075442,-2.3892,0.1118,-0.0693,92.26,-101.59,343.29
441,260080442,-2.3208,0.1201,-0.0483,103.29,-95.06,342.13
442,260085442,-2.2583,0.1270,-0.0298,114.15,-88.66,340.61
443,260090442,-2.1997,0.1245,-0.0161,124.94,-81.71,338.78
444,260095443,-2.1411,0.1353,-0.0010,135.49,-74.70,336.83
445,260100442,-2.0786,0.1421,0.0083,145.98,-67.56,334.51
446,260105442,-2.0171,0.1538,0.0239,155.49,-60.37,331.83
447,260110442,-1.9648,0.1587,0.0327,164.21,-53.05,328.84
448,260115442,-1.9204,0.1719,0.0498,171.71,-45.91,325.49
449,260120443,-1.8818,0.1865,0.0503,178.11,-38.41,321.89
450,260125442,-1.8516,0.2021,0.0620,182.80,-31.59,317.93
451,260130442,-1.8291,0.2090,0.0562,186.71,-24.57,313.66
452,260135442,-1.8047,0.2202,0.0605,189.21,-17.74,308.90
453,260140440,-1.7676,0.2368,0.0723,190.79,-11.40,304.02
454,260145442,-1.7412,0.2373,0.0474,191.04,-5.24,298.66
455,260150442,-1.6987,0.2485,0.0542,190.55,0.43,293.11
456,260155441,-1.6538,0.2539,0.0532,189.57,5.85,287.38
457,260160442,-1.6025,0.2554,0.0513,188.05,10.79,281.40
458,260165441,-1.5610,0.2573,0.0522,186.59,14.63,276.59
459,260170442,-1.5010,0.2583,0.0547,183.78,19.88,269.33
460,260175441,-1.4648,0.2578,0.0591,181.89,23.17,264.33
461,260180442,-1.4229,0.2524,0.0703,179.21,28.23,257.01
462,260185441,-1.3994,0.2490,0.0825,177.44,31.46,252.26
463,260190442,-1.3667,0.2417,0.0933,175.12,36.28,245.18
464,260195442,-1.3433,0.2378,0.0972,173.78,39.51,240.61
465,260200443,-1.3252,0.2383,0.1045,171.77,43.35,235.00
466,260205441,-1.3086,0.2417,0.1094,169.82,47.32,229.27
467,260210442,-1.2925,0.2461,0.1089,167.44,51.10,223.54
468,260215442,-1.2720,0.2554,0.1064,164.51,54.57,217.74
469,260220443,-1.2500,0.2646,0.1001,161.28,57.74,211.77
470,260225442,-1.2144,0.2690,0.0879,157.62,60.61,205.67
471,260230442,-1.1567,0.2656,0.0894,153.41,63.11,199.45
472,260235442,-1.1421,0.2681,0.0928,148.90,65.37,193.41
473,260240442,-1.1270,0.2700,0.0801,144.15,67.01,187.38
474,260245442,-1.1147,0.2769,0.0645,139.02,68.41,181.22
475,260250444,-1.0938,0.2812,0.0591,133.84,69.51,175.00
476,260255441,-1.0615,0.2812,0.0474,128.60,70.00,168.84
477,260260442,-1.0264,0.2778,0.0439,122.74,70.12,162.87
478,260265441,-0.9932,0.2720,0.0405,116.89,70.06,156.89
479,260270442,-0.9688,0.2754,0.0312,110.91,69.63,150.98
480,260275441,-0.9492,0.2783,0.0298,105.12,69.09,145.06
481,260280442,-0.9331,0.2778,0.0264,99.15,68.29,139.45
482,260285442,-0.9209,0.2852,0.0205,93.60,67.38,133.66
483,260290442,-0.9058,0.2847,0.0220,88.05,66.22,128.05
484,260295441,-0.8857,0.2896,0.0273,82.74,65.06,122.26
485,260300442,-0.8643,0.2925,0.0312,77.74,63.72,116.77
486,260305441,-0.8354,0.2979,0.0371,73.17,62.56,111.16
487,260310442,-0.8125,0.3047,0.0342,68.66,61.46,105.67
488,260315442,-0.7886,0.3062,0.0410,64.45,60.30,99.94
489,260320442,-0.7656,0.3086,0.0391,60.55,58.96,94.39
490,260325441,-0.7407,0.3052,0.0435,56.77,57.62,88.48
491,260330442,-0.7158,0.3062,0.0527,52.93,56.46,84.09
492,260335441,-0.6997,0.3042,0.0425,49.51,55.24,78.78
493,260340441,-0.6802,0.3008,0.0435,46.10,53.84,73.60
494,260345442,-0.6758,0.2969,0.0439,42.87,52.50,68.60
495,260350442,-0.6646,0.2969,0.0347,39.76,50.98,63.84
496,260355442,-0.6592,0.2954,0.0356,36.89,49.45,59.09
497,260360442,-0.6504,0.2988,0.0308,34.02,47.99,54.45
498,260365443,-0.6392,0.3003,0.0303,31.40,46.16,49.94
499,260370442,-0.6348,0.3052,0.0200,29.15,44.51,45.30
500,260375440,-0.6255,0.3071,0.0259,27.32,42.74,40.85
501,260380476,-0.6206,0.3159,0.0210,25.43,40.79,36.34
502,260385443,-0.6084,0.3218,0.0210,23.90,38.96,31.83
503,260390442,-0.5952,0.3208,0.0239,22.68,37.26,27.44
504,260395442,-0.5796,0.3252,0.0200,21.77,35.49,23.05
505,260400442,-0.5649,0.3325,0.0220,20.98,33.78,18.66
506,260405442,-0.5503,0.3413,0.0298,20.55,32.26,14.33
507,260410442,-0.5352,0.3442,0.0332,20.24,30.85,10.06
508,260415443,-0.5234,0.3438,0.0391,20.49,29.27,5.73
509,260420442,-0.5146,0.3501,0.0391,20.79,28.17,1.52
510,260425442,-0.5107,0.3511,0.0396,21.52,26.83,-2.56
511,260430442,-0.5122,0.3530,0.0342,22.44,25.55,-6.59
512,260435442,-0.5117,0.3564,0.0278,23.66,24.33,-10.61
513,260440442,-0.5166,0.3574,0.0342,25.06,23.05,-14.51
514,260445443,-0.5132,0.3628,0.0269,26.89,21.71,-18.29
515,260450442,-0.5142,0.3730,0.0254,28.78,20.67,-22.13
516,260455440,-0.5166,0.3730,0.0225,30.61,19.27,-25.79
517,260460440,-0.5181,0.3760,0.0161,32.87,17.93,-29.27
518,260465781,-0.5190,0.3804,0.0112,35.12,16.22,-33.48
519,260470442,-0.5249,0.3882,0.0063,36.83,15.00,-36.10
520,260475442,-0.5234,0.3936,0.0049,39.15,13.60,-39.39
521,260480442,-0.5269,0.4019,0.0049,41.34,12.13,-42.62
522,260485442,-0.5229,0.4141,-0.0010,43.66,10.73,-45.85
523,260490442,-0.5244,0.4185,-0.0063,46.04,9.27,-49.02
524,260495443,-0.5225,0.4297,-0.0166,48.35,7.87,-52.20
525,260500442,-0.5283,0.4268,-0.0176,50.73,6.28,-55.12
526,260505442,-0.5269,0.4380,-0.0239,52.99,4.63,-58.23
527,260510442,-0.5312,0.4453,-0.0288,55.49,3.11,-60.98
528,260515443,-0.5342,0.4512,-0.0396,58.17,1.40,-63.78
529,260520442,-0.5332,0.4478,-0.0474,60.98,-0.24,-66.16
530,260525442,-0.5288,0.4556,-0.0591,64.15,-1.95,-68.60
531,260530442,-0.5361,0.4600,-0.0610,67.80,-3.66,-70.49
532,260535443,-0.5493,0.4653,-0.0649,71.77,-5.30,-72.32
533,260540442,-0.5493,0.4790,-0.0879,75.98,-7.26,-74.09
534,260545442,-0.5923,0.4976,-0.0952,80.73,-9.15,-75.79
535,260550442,-0.6362,0.5283,-0.0840,85.61,-10.73,-77.32
536,260555441,-0.6475,0.5273,-0.1260,91.16,-12.50,-78.84
537,260560442,-0.6387,0.5332,-0.1309,96.71,-14.27,-79.88
538,260565443,-0.6313,0.5400,-0.1357,102.20,-15.98,-80.79
539,260570442,-0.6245,0.5518,-0.1479,107.38,-17.80,-81.40
540,260575442,-0.6240,0.5552,-0.1572,112.26,-19.33,-81.89
541,260580442,-0.6348,0.5669,-0.1709,116.65,-20.85,-82.20
542,260585442,-0.6450,0.5728,-0.1738,120.61,-22.56,-82.50
543,260590442,-0.6519,0.5732,-0.1899,124.39,-24.09,-82.38
544,260595440,-0.6479,0.5767,-0.1968,127.74,-25.55,-82.07
545,260600443,-0.6470,0.5864,-0.2183,129.45,-27.01,-81.59
546,260605442,-0.6440,0.5864,-0.2207,132.50,-28.29,-80.85
547,260610444,-0.6309,0.5903,-0.2358,133.96,-29.76,-80.00
548,260615442,-0.6230,0.5923,-0.2471,134.39,-31.04,-79.02
549,260620441,-0.6289,0.5986,-0.2573,133.90,-32.26,-78.05
550,260625440,-0.6367,0.5986,-0.2700,131.77,-33.41,-76.89
551,260630444,-0.6504,0.6133,-0.2759,130.12,-34.63,-75.91
552,260635442,-0.6597,0.6123,-0.2812,127.56,-35.49,-74.76
553,260640441,-0.6655,0.6128,-0.2891,122.93,-36.46,-73.66
554,260645440,-0.6665,0.6162,-0.3071,117.93,-37.26,-72.50
555,260650442,-0.6636,0.6152,-0.3081,112.38,-37.93,-71.40
556,260655442,-0.6621,0.6162,-0.3203,106.10,-38.48,-70.30
557,260660442,-0.6562,0.6191,-0.3252,99.09,-39.09,-69.27
558,260665442,-0.6587,0.6211,-0.3345,91.59,-39.45,-68.29
559,260670441,-0.6548,0.6138,-0.3359,83.66,-40.06,-67.38
560,260675442,-0.6543,0.6201,-0.3486,75.49,-40.18,-66.40
561,260680441,-0.6548,0.6187,-0.3613,67.20,-40.30,-65.43
562,260685442,-0.6616,0.6172,-0.3560,58.66,-40.43,-64.57
563,260690441,-0.6665,0.6182,-0.3735,50.12,-40.30,-63.84
564,260695442,-0.6660,0.6191,-0.3770,41.52,-40.49,-63.23
565,260700441,-0.6699,0.6226,-0.3843,32.93,-40.55,-62.74
566,260705442,-0.6699,0.6250,-0.3901,24.51,-40.37,-62.44
567,260710441,-0.6650,0.6265,-0.3892,16.34,-40.24,-62.07
568,260715442,-0.6606,0.6240,-0.3906,8.60,-39.94,-61.89
569,260720441,-0.6597,0.6216,-0.3979,1.22,-39.33,-61.65
570,260725440,-0.6641,0.6250,-0.3950,-5.49,-39.21,-61.40
571,260730444,-0.6670,0.6167,-0.4028,-11.46,-38.78,-61.28
572,260735442,-0.6763,0.6177,-0.4048,-16.89,-38.23,-60.98
573,260740442,-0.6782,0.6118,-0.4082,-21.52,-37.99,-60.85
574,260745442,-0.6807,0.6123,-0.4165,-25.61,-37.56,-60.73
575,260750441,-0.6816,0.6099,-0.4160,-29.15,-36.95,-60.37
576,260755440,-0.6855,0.6089,-0.4170,-31.89,-36.65,-60.12
577,260760442,-0.6821,0.6021,-0.4214,-33.90,-36.22,-59.94
578,260765442,-0.6865,0.6079,-0.4175,-35.24,-35.79,-59.63
579,260770441,-0.6904,0.6055,-0.4170,-36.04,-35.43,-59.39
580,260775535,-0.6890,0.6069,-0.4199,-36.16,-35.12,-59.09
581,260780444,-0.6943,0.6021,-0.4189,-35.79,-34.76,-58.96
582,260785442,-0.7109,0.6074,-0.4150,-34.94,-34.33,-58.84
583,260790442,-0.7158,0.6064,-0.4165,-33.54,-34.15,-58.90
584,260795442,-0.7144,0.6094,-0.4146,-31.77,-33.72,-58.78
585,260800442,-0.7148,0.6045,-0.4097,-29.88,-33.35,-58.84
586,260805442,-0.7173,0.6025,-0.4077,-27.56,-32.87,-58.84
587,260810442,-0.7222,0.6084,-0.4019,-25.06,-32.56,-58.84
588,260815442,-0.7236,0.5981,-0.4019,-22.38,-32.01,-58.72
589,260820442,-0.7319,0.5986,-0.3936,-19.45,-31.71,-58.72
590,260825442,-0.7427,0.5933,-0.3945,-16.34,-31.22,-58.66
591,260830442,-0.7495,0.5869,-0.3965,-13.17,-30.85,-58.23
592,260835443,-0.7485,0.5835,-0.3975,-9.82,-30.49,-58.05
593,260840442,-0.7544,0.5806,-0.3911,-6.83,-30.12,-57.68
594,260845442,-0.7524,0.5811,-0.3960,-4.02,-29.82,-57.38
595,260850442,-0.7529,0.5835,-0.3994,-1.40,-29.45,-57.07
596,260855441,-0.7593,0.5806,-0.3867,0.79,-29.21,-56.65
597,260860440,-0.7603,0.5786,-0.3906,2.80,-28.90,-56.34
598,260865820,-0.7563,0.5791,-0.3853,4.33,-28.60,-56.04
599,260870443,-0.7603,0.5806,-0.3853,5.24,-28.29,-55.73
600,260875442,-0.7632,0.5771,-0.3823,6.04,-27.87,-55.37
601,260880442,-0.7676,0.5752,-0.3862,6.52,-27.56,-55.30
602,260885443,-0.7627,0.5723,-0.3838,6.46,-27.32,-54.94
603,260890442,-0.7617,0.5737,-0.3755,6.16,-26.83,-54.82
604,260895442,-0.7568,0.5708,-0.3726,5.43,-26.40,-54.51
605,260900442,-0.7568,0.5669,-0.3760,4.45,-26.04,-54.09
606,260905442,-0.7578,0.5659,-0.3721,3.05,-25.67,-53.90
607,260910442,-0.7646,0.5664,-0.3652,1.46,-25.18,-53.29
608,260915442,-0.7681,0.5625,-0.3760,-0.30,-24.70,-52.74
609,260920442,-0.7651,0.5601,-0.3726,-2.50,-24.21,-52.26
610,260925442,-0.7705,0.5566,-0.3667,-4.70,-23.60,-51.59
611,260930442,-0.7783,0.5586,-0.3667,-6.95,-23.35,-51.16
612,260935442,-0.7808,0.5601,-0.3701,-9.39,-22.68,-50.49
613,260940442,-0.7856,0.5664,-0.3633,-11.83,-22.38,-49.94
614,260945442,-0.7886,0.5649,-0.3560,-14.15,-21.83,-49.45
615,260950442,-0.7935,0.5596,-0.3608,-16.40,-21.22,-48.78
616,260955442,-0.7983,0.5576,-0.3618,-18.72,-20.73,-47.99
617,260960442,-0.7993,0.5601,-0.3594,-21.04,-20.49,-47.44
618,260965443,-0.8008,0.5542,-0.3584,-23.23,-20.12,-46.71
619,260970442,-0.8013,0.5518,-0.3599,-25.37,-19.94,-45.79
620,260975442,-0.8052,0.5439,-0.3564,-27.44,-19.45,-45.00
621,260980442,-0.8066,0.5400,-0.3521,-29.21,-19.45,-44.02
622,260985442,-0.8091,0.5381,-0.3516,-30.91,-19.21,-43.17
623,260990442,-0.8091,0.5366,-0.3486,-32.13,-19.09,-42.01
624,260995442,-0.8086,0.5317,-0.3462,-33.29,-19.15,-41.10
625,261000442,-0.8018,0.5356,-0.3486,-33.96,-18.96,-40.18
626,261005442,-0.7988,0.5317,-0.3389,-34.57,-18.72,-39.02
627,261010442,-0.8003,0.5337,-0.3359,-34.76,-18.84,-38.05
628,261015442,-0.7979,0.5322,-0.3276,-34.88,-18.72,-37.01
629,261020442,-0.8013,0.5308,-0.3237,-34.57,-18.60,-36.22
630,261025442,-0.8042,0.5327,-0.3271,-34.39,-18.72,-35.06
631,261030442,-0.8149,0.5298,-0.3247,-33.72,-18.66,-34.15
632,261035440,-0.8149,0.5342,-0.3306,-32.93,-18.78,-33.05
633,261040443,-0.8213,0.5303,-0.3281,-31.95,-19.15,-32.01
634,261045442,-0.8193,0.5308,-0.3267,-30.79,-19.21,-30.98
635,261050442,-0.8203,0.5278,-0.3262,-29.70,-19.57,-30.00
636,261055442,-0.8262,0.5259,-0.3174,-28.41,-19.82,-28.96
637,261060442,-0.8301,0.5195,-0.3223,-27.13,-20.12,-27.87
638,261065926,-0.8320,0.5215,-0.3213,-25.67,-20.55,-26.71
639,261070443,-0.8315,0.5205,-0.3237,-24.21,-21.04,-25.73
640,261075442,-0.8281,0.5200,-0.3120,-22.62,-21.52,-24.63
641,261080441,-0.8262,0.5142,-0.3105,-21.22,-21.65,-23.66
642,261085442,-0.8237,0.5103,-0.3071,-19.88,-22.13,-22.56
643,261090441,-0.8232,0.5063,-0.3057,-18.54,-22.62,-21.77
644,261095444,-0.8232,0.5034,-0.3052,-17.38,-22.93,-20.85
645,261100441,-0.8247,0.5005,-0.2988,-16.28,-23.17,-20.00
646,261105442,-0.8291,0.4990,-0.2974,-15.61,-23.41,-19.15
647,261110441,-0.8271,0.4927,-0.2900,-14.88,-23.72,-18.29
648,261115442,-0.8271,0.4971,-0.2881,-14.57,-23.90,-17.62
649,261120442,-0.8330,0.4888,-0.2861,-14.57,-24.15,-16.77
650,261125442,-0.8364,0.4868,-0.2856,-14.39,-24.27,-16.10
651,261130441,-0.8379,0.4858,-0.2788,-14.57,-24.33,-15.73
652,261135442,-0.8291,0.4834,-0.2744,-15.12,-24.57,-15.18
653,261140441,-0.8301,0.4829,-0.2744,-15.67,-24.51,-14.70
654,261145442,-0.8315,0.4814,-0.2754,-16.40,-24.70,-14.27
655,261150441,-0.8384,0.4800,-0.2700,-16.95,-24.76,-13.84
656,261155442,-0.8354,0.4741,-0.2700,-17.20,-24.63,-13.35
657,261160441,-0.8325,0.4653,-0.2656,-17.32,-24.82,-12.93
658,261165442,-0.8320,0.4619,-0.2661,-17.38,-24.76,-12.38
659,261170442,-0.8413,0.4629,-0.2554,-17.07,-24.88,-12.01
660,261175442,-0.8384,0.4604,-0.2603,-16.65,-24.63,-11.59
661,261180441,-0.8359,0.4595,-0.2559,-16.28,-24.70,-11.34
662,261185443,-0.8359,0.4512,-0.2446,-15.98,-24.57,-10.98
663,261190440,-0.8428,0.4526,-0.2500,-15.61,-24.57,-10.67
664,261195444,-0.8477,0.4507,-0.2544,-15.18,-24.51,-10.43
665,261200442,-0.8511,0.4438,-0.2427,-14.94,-24.45,-10.12
666,261205442,-0.8564,0.4424,-0.2461,-14.70,-24.51,-9.94
667,261210441,-0.8511,0.4419,-0.2388,-14.39,-24.51,-9.70
668,261215442,-0.8496,0.4395,-0.2358,-14.15,-24.33,-9.51
669,261220441,-0.8486,0.4429,-0.2329,-14.09,-24.39,-9.45
670,261225442,-0.8506,0.4370,-0.2349,-13.96,-24.27,-9.45
671,261230441,-0.8477,0.4355,-0.2290,-13.90,-24.27,-9.39
672,261235444,-0.8564,0.4302,-0.2290,-13.78,-24.27,-9.33
673,261240441,-0.8584,0.4307,-0.2314,-13.78,-24.15,-9.27
674,261245442,-0.8682,0.4321,-0.2349,-13.84,-24.27,-9.33
675,261250441,-0.8677,0.4277,-0.2300,-13.66,-24.27,-9.27
676,261255442,-0.8691,0.4214,-0.2275,-13.60,-24.15,-9.15
677,261260441,-0.8706,0.4170,-0.2246,-13.41,-23.96,-9.09
678,261265443,-0.8706,0.4150,-0.2188,-13.11,-23.96,-9.02
679,261270441,-0.8711,0.4180,-0.2124,-12.93,-23.90,-8.96
680,261275444,-0.8726,0.4092,-0.2158,-12.50,-23.78,-8.84
681,261280441,-0.8721,0.4131,-0.2124,-12.38,-23.66,-8.78
682,261285442,-0.8818,0.4077,-0.2095,-11.89,-23.29,-8.66
683,261290441,-0.8794,0.4053,-0.2095,-11.65,-23.29,-8.60
684,261295442,-0.8745,0.4067,-0.2104,-11.46,-23.29,-8.35
685,261300441,-0.8745,0.4009,-0.2139,-11.34,-23.05,-8.35
686,261305442,-0.8823,0.3965,-0.2012,-11.10,-22.99,-8.17
687,261310441,-0.8765,0.3994,-0.1978,-11.04,-22.74,-8.05
688,261315442,-0.8794,0.3970,-0.2075,-10.79,-22.62,-7.99
689,261320441,-0.8823,0.3965,-0.1958,-10.67,-22.32,-7.99
690,261325442,-0.8828,0.3892,-0.1885,-10.55,-22.07,-7.99
691,261330441,-0.8794,0.3882,-0.1895,-10.49,-21.83,-7.87
692,261335442,-0.8867,0.3916,-0.1919,-10.49,-21.77,-7.99
693,261340441,-0.8896,0.3872,-0.1812,-10.85,-21.59,-7.99
694,261345442,-0.8862,0.3872,-0.1807,-11.04,-21.40,-8.11
695,261350441,-0.8799,0.3828,-0.1831,-11.28,-21.28,-8.05
696,261355442,-0.8794,0.3809,-0.1748,-11.71,-21.16,-8.17
697,261360441,-0.8906,0.3809,-0.1816,-12.07,-20.91,-8.29
698,261365443,-0.8926,0.3818,-0.1807,-12.38,-20.91,-8.48
699,261370441,-0.8896,0.3789,-0.1812,-12.80,-20.85,-8.54
700,261375444,-0.8892,0.3730,-0.1733,-13.05,-20.85,-8.66
701,261380441,-0.8872,0.3696,-0.1719,-13.29,-20.61,-8.60
702,261385442,-0.8911,0.3682,-0.1704,-13.48,-20.61,-8.60
703,261390441,-0.8950,0.3682,-0.1660,-13.72,-20.55,-8.66
704,261395442,-0.8906,0.3682,-0.1670,-13.78,-20.37,-8.60
705,261400441,-0.8872,0.3667,-0.1621,-13.96,-20.06,-8.72
706,261405442,-0.8872,0.3647,-0.1592,-14.15,-20.00,-8.54
707,261410441,-0.8994,0.3604,-0.1650,-14.15,-19.76,-8.60
708,261415442,-0.9023,0.3647,-0.1587,-14.33,-19.63,-8.60
709,261420441,-0.8999,0.3618,-0.1602,-14.39,-19.45,-8.60
710,261425444,-0.8984,0.3564,-0.1606,-14.33,-19.21,-8.54
711,261430441,-0.8970,0.3599,-0.1587,-14.45,-18.96,-8.54
712,261435442,-0.9009,0.3569,-0.1558,-14.27,-18.72,-8.48
713,261440441,-0.9004,0.3589,-0.1528,-14.39,-18.60,-8.54
714,261445442,-0.8965,0.3569,-0.1450,-14.33,-18.41,-8.41
715,261450442,-0.8975,0.3540,-0.1499,-14.33,-18.17,-8.48
716,261455442,-0.9048,0.3550,-0.1445,-14.39,-17.87,-8.35
717,261460441,-0.9092,0.3540,-0.1431,-14.51,-17.62,-8.41
718,261465442,-0.9004,0.3525,-0.1470,-14.57,-17.32,-8.54
719,261470441,-0.9019,0.3481,-0.1416,-15.00,-17.32,-8.48
720,261475869,-0.9028,0.3462,-0.1362,-15.37,-16.95,-8.48
721,261480442,-0.9028,0.3491,-0.1338,-15.91,-16.89,-8.54
722,261485442,-0.9067,0.3462,-0.1348,-16.40,-16.65,-8.54
723,261490442,-0.9033,0.3418,-0.1265,-17.13,-16.65,-8.41
724,261495442,-0.9038,0.3413,-0.1304,-17.93,-16.40,-8.41
725,261500442,-0.9087,0.3413,-0.1309,-18.72,-16.34,-8.48
726,261505442,-0.9146,0.3408,-0.1235,-19.63,-16.10,-8.54
727,261510442,-0.9150,0.3423,-0.1226,-20.49,-15.91,-8.54
728,261515442,-0.9150,0.3418,-0.1182,-21.46,-15.91,-8.60
729,261520442,-0.9180,0.3374,-0.1182,-22.13,-15.79,-8.66
730,261525442,-0.9116,0.3335,-0.1138,-23.11,-15.49,-8.54
731,261530443,-0.9180,0.3403,-0.1196,-23.72,-15.37,-8.72
732,261535442,-0.9263,0.3403,-0.1118,-24.51,-15.24,-8.84
733,261540442,-0.9224,0.3369,-0.1084,-25.18,-15.06,-8.96
734,261545442,-0.9189,0.3359,-0.1172,-25.85,-15.06,-9.02
735,261550442,-0.9199,0.3369,-0.1118,-25.98,-14.76,-9.09
736,261555442,-0.9150,0.3335,-0.1050,-26.04,-14.57,-9.15
737,261560442,-0.9121,0.3330,-0.1045,-25.98,-14.51,-9.15
738,261565442,-0.9131,0.3350,-0.1055,-25.79,-14.33,-9.21
739,261570442,-0.9233,0.3403,-0.1021,-25.37,-14.09,-9.27
740,261575440,-0.9219,0.3315,-0.0996,-25.00,-13.84,-9.27
741,261580442,-0.9165,0.3311,-0.0996,-24.70,-13.72,-9.33
742,261585442,-0.9185,0.3330,-0.1001,-24.09,-13.23,-9.39
743,261590442,-0.9224,0.3291,-0.0986,-23.54,-13.29,-9.33
744,261595442,-0.9204,0.3306,-0.1006,-22.80,-13.05,-9.27
745,261600442,-0.9185,0.3262,-0.0928,-22.20,-12.56,-9.33
746,261605442,-0.9229,0.3267,-0.0933,-21.65,-12.62,-9.33
747,261610442,-0.9238,0.3306,-0.0889,-21.28,-12.32,-9.27
748,261616418,-0.9248,0.3281,-0.0859,-20.73,-12.20,-9.27
749,261620443,-0.9292,0.3281,-0.0898,-20.37,-12.01,-9.39
750,261625443,-0.9204,0.3262,-0.0923,-20.00,-11.59,-9.45
751,261630442,-0.9204,0.3237,-0.0879,-19.63,-11.34,-9.39
752,261635442,-0.9219,0.3252,-0.0874,-19.21,-11.10,-9.39
753,261640442,-0.9243,0.3237,-0.0835,-18.78,-10.79,-9.33
754,261645443,-0.9175,0.3203,-0.0859,-18.11,-10.67,-9.39
755,261650442,-0.9233,0.3257,-0.0742,-17.56,-10.30,-9.27
756,261655442,-0.9199,0.3296,-0.0815,-16.71,-10.00,-9.45
757,261660442,-0.9268,0.3286,-0.0708,-16.10,-9.76,-9.39
758,261665442,-0.9248,0.3242,-0.0732,-15.43,-9.39,-9.45
759,261670442,-0.9263,0.3267,-0.0742,-14.70,-9.02,-9.39
760,261675442,-0.9297,0.3301,-0.0752,-13.96,-8.72,-9.39
761,261680442,-0.9316,0.3276,-0.0791,-13.41,-8.54,-9.57
762,261685442,-0.9297,0.3262,-0.0737,-12.80,-8.05,-9.45
763,261690442,-0.9287,0.3237,-0.0723,-12.13,-7.87,-9.45
764,261695442,-0.9292,0.3281,-0.0732,-11.65,-7.50,-9.39
765,261700442,-0.9326,0.3262,-0.0674,-11.28,-7.13,-9.39
766,261705442,-0.9326,0.3262,-0.0679,-10.91,-6.83,-9.39
767,261710442,-0.9316,0.3237,-0.0728,-10.61,-6.59,-9.45
768,261715442,-0.9316,0.3242,-0.0669,-10.49,-6.34,-9.33
769,261720443,-0.9272,0.3257,-0.0703,-10.37,-6.10,-9.33
770,261725442,-0.9272,0.3232,-0.0659,-10.43,-5.79,-9.39
771,261730442,-0.9263,0.3228,-0.0664,-10.43,-5.61,-9.39
772,261735442,-0.9287,0.3252,-0.0620,-10.49,-5.30,-9.45
773,261740443,-0.9253,0.3262,-0.0625,-10.37,-4.94,-9.51
774,261745442,-0.9268,0.3262,-0.0581,-10.37,-4.70,-9.63
775,261750442,-0.9209,0.3271,-0.0615,-10.30,-4.33,-9.70
776,261755497,-0.9272,0.3247,-0.0659,-10.30,-4.09,-9.88
777,261760443,-0.9277,0.3232,-0.0601,-10.18,-3.72,-9.82
778,261765442,-0.9292,0.3242,-0.0581,-10.24,-3.54,-9.88
779,261770442,-0.9258,0.3262,-0.0571,-10.30,-3.48,-9.94
780,261775442,-0.9238,0.3242,-0.0586,-10.30,-2.99,-9.94
781,261780440,-0.9268,0.3203,-0.0571,-10.30,-2.80,-10.06
782,261785442,-0.9263,0.3242,-0.0542,-10.37,-2.56,-10.12
783,261790442,-0.9282,0.3223,-0.0566,-10.43,-2.38,-10.12
784,261795442,-0.9243,0.3247,-0.0532,-10.55,-1.95,-10.12
785,261800442,-0.9268,0.3232,-0.0532,-10.85,-1.95,-10.12
786,261805442,-0.9326,0.3193,-0.0581,-11.04,-1.59,-10.00
787,261810442,-0.9287,0.3198,-0.0571,-11.46,-1.34,-10.18
788,261815442,-0.9282,0.3149,-0.0532,-11.83,-1.22,-10.18
789,261820442,-0.9258,0.3198,-0.0542,-12.38,-1.04,-10.18
790,261825442,-0.9287,0.3188,-0.0537,-12.99,-0.91,-10.18
791,261830442,-0.9312,0.3203,-0.0557,-13.60,-0.61,-10.06
792,261835442,-0.9316,0.3198,-0.0479,-14.33,-0.49,-10.12
793,261840442,-0.9292,0.3174,-0.0503,-14.94,-0.43,-10.12
794,261845442,-0.9321,0.3208,-0.0479,-15.61,-0.30,-10.06
795,261850442,-0.9355,0.3184,-0.0527,-16.04,-0.06,-10.12
796,261855442,-0.9326,0.3179,-0.0459,-16.46,0.06,-10.24
797,261860443,-0.9302,0.3164,-0.0532,-16.71,0.12,-10.18
798,261865442,-0.9316,0.3174,-0.0508,-17.07,0.37,-10.12
799,261870442,-0.9331,0.3169,-0.0547,-17.32,0.43,-10.06
800,261875442,-0.9312,0.3198,-0.0518,-17.68,0.49,-10.12
801,261880442,-0.9253,0.3179,-0.0396,-17.93,0.61,-10.06
802,261885907,-0.9292,0.3179,-0.0454,-18.29,0.91,-10.00
803,261890442,-0.9307,0.3193,-0.0444,-18.48,1.16,-10.06
804,261895442,-0.9316,0.3169,-0.0444,-18.84,1.22,-10.00
805,261900442,-0.9297,0.3169,-0.0430,-19.39,1.52,-10.06
806,261905442,-0.9268,0.3145,-0.0435,-19.76,1.46,-10.06
807,261910442,-0.9282,0.3145,-0.0459,-20.30,1.59,-10.00
808,261915744,-0.9302,0.3101,-0.0425,-20.98,1.89,-10.00
809,261920443,-0.9302,0.3174,-0.0439,-21.65,1.95,-10.00
810,261925442,-0.9258,0.3145,-0.0444,-22.62,2.13,-10.06
811,261930442,-0.9277,0.3164,-0.0459,-23.35,2.20,-10.00
812,261935442,-0.9282,0.3120,-0.0420,-23.90,2.26,-10.00
813,261940442,-0.9238,0.3130,-0.0405,-24.39,2.44,-9.88
814,261945442,-0.9312,0.3149,-0.0381,-24.63,2.56,-9.82
815,261950442,-0.9331,0.3125,-0.0400,-24.82,2.87,-9.76
816,261955442,-0.9297,0.3071,-0.0352,-24.88,3.11,-9.63
817,261960442,-0.9282,0.3120,-0.0386,-25.00,3.11,-9.45
818,261965443,-0.9292,0.3081,-0.0366,-25.12,3.41,-9.27
819,261970442,-0.9297,0.3057,-0.0391,-25.06,3.48,-9.09
820,261975442,-0.9263,0.3091,-0.0396,-25.00,3.66,-9.02
821,261980442,-0.9268,0.3086,-0.0386,-25.12,3.84,-8.66
822,261985440,-0.9263,0.3086,-0.0366,-25.24,4.21,-8.60
823,261990443,-0.9268,0.3115,-0.0371,-25.37,4.21,-8.35
824,261995442,-0.9341,0.3125,-0.0391,-25.55,4.33,-8.17
825,262000441,-0.9336,0.3086,-0.0347,-25.67,4.33,-8.05
826,262005442,-0.9321,0.3071,-0.0366,-25.91,4.45,-7.99
827,262010441,-0.9316,0.3066,-0.0376,-26.28,4.57,-7.80
828,262015442,-0.9336,0.3062,-0.0464,-26.65,4.63,-7.56
829,262020441,-0.9321,0.3086,-0.0405,-26.77,4.63,-7.62
830,262025442,-0.9287,0.3066,-0.0405,-26.83,4.82,-7.38
831,262030441,-0.9336,0.3076,-0.0386,-26.77,4.88,-7.44
832,262035440,-0.9307,0.3022,-0.0298,-26.52,5.00,-7.20
833,262040444,-0.9370,0.3032,-0.0361,-25.98,5.06,-7.20
834,262045442,-0.9395,0.3091,-0.0337,-25.67,5.06,-7.07
835,262050442,-0.9370,0.3076,-0.0361,-25.06,5.12,-7.01
836,262055443,-0.9360,0.3081,-0.0337,-24.45,5.37,-6.95
837,262060442,-0.9287,0.3081,-0.0356,-23.84,5.30,-6.83
838,262065442,-0.9336,0.3066,-0.0391,-23.17,5.37,-6.77
839,262070442,-0.9355,0.3066,-0.0303,-22.56,5.49,-6.65
840,262075442,-0.9360,0.3062,-0.0293,-21.95,5.61,-6.52
841,262080442,-0.9360,0.3052,-0.0371,-21.16,5.55,-6.34
842,262085510,-0.9365,0.3037,-0.0312,-20.49,5.67,-6.22
843,262090443,-0.9365,0.3062,-0.0327,-20.06,5.79,-6.16
844,262095442,-0.9336,0.3042,-0.0376,-19.57,5.73,-6.16
845,262100442,-0.9375,0.3047,-0.0327,-19.27,5.85,-5.98
846,262105442,-0.9380,0.3037,-0.0322,-19.02,5.85,-5.85
847,262110442,-0.9380,0.3066,-0.0293,-18.84,5.98,-5.85
848,262115442,-0.9390,0.3027,-0.0347,-18.90,6.04,-5.79
849,262120443,-0.9365,0.3057,-0.0327,-18.96,5.98,-5.73
850,262125442,-0.9380,0.3052,-0.0317,-19.09,6.16,-5.67
851,262130442,-0.9390,0.3032,-0.0254,-19.09,6.16,-5.61
852,262135444,-0.9346,0.3013,-0.0312,-19.27,6.22,-5.55
853,262140441,-0.9355,0.3018,-0.0283,-19.39,6.34,-5.61
854,262145442,-0.9351,0.3027,-0.0288,-19.45,6.34,-5.55
855,262150441,-0.9375,0.2988,-0.0293,-19.57,6.40,-5.37
856,262155444,-0.9375,0.3008,-0.0244,-19.57,6.59,-5.49
857,262160441,-0.9375,0.3003,-0.0269,-19.57,6.59,-5.43
858,262165442,-0.9380,0.3027,-0.0283,-19.63,6.83,-5.30
859,262170441,-0.9365,0.2983,-0.0283,-19.82,6.83,-5.37
860,262175442,-0.9360,0.2998,-0.0215,-20.00,6.95,-5.30
861,262180442,-0.9399,0.2993,-0.0220,-20.24,7.01,-5.24
862,262185440,-0.9360,0.3022,-0.0234,-20.67,7.07,-5.18
863,262190441,-0.9399,0.3022,-0.0195,-21.04,7.07,-5.12
864,262195443,-0.9370,0.3032,-0.0176,-21.65,7.44,-5.12
865,262200442,-0.9375,0.2974,-0.0229,-22.38,7.44,-5.00
866,262205442,-0.9409,0.2998,-0.0210,-22.99,7.50,-4.94
867,262210441,-0.9375,0.2974,-0.0239,-23.96,7.50,-4.94
868,262215442,-0.9385,0.2954,-0.0225,-24.88,7.56,-4.82
869,262220441,-0.9414,0.2983,-0.0234,-25.79,7.68,-4.76
870,262225442,-0.9419,0.2974,-0.0259,-26.77,7.87,-4.76
871,262230441,-0.9399,0.2954,-0.0229,-27.62,7.87,-4.70
872,262235444,-0.9443,0.2944,-0.0190,-28.72,7.93,-4.70
873,262240441,-0.9399,0.2935,-0.0161,-29.57,8.11,-4.76
874,262245442,-0.9380,0.2939,-0.0161,-30.43,8.29,-4.57
875,262250441,-0.9404,0.2979,-0.0225,-31.34,8.41,-4.57
876,262255442,-0.9429,0.2944,-0.0210,-32.20,8.41,-4.45
877,262260441,-0.9468,0.2930,-0.0171,-33.23,8.72,-4.45
878,262265442,-0.9438,0.2944,-0.0156,-34.21,8.72,-4.51
879,262270441,-0.9424,0.2959,-0.0117,-35.30,8.78,-4.33
880,262275442,-0.9438,0.2905,-0.0151,-36.28,8.90,-4.45
881,262280441,-0.9448,0.2896,-0.0186,-37.62,9.09,-4.33
882,262285443,-0.9438,0.2896,-0.0195,-38.84,9.02,-4.27
883,262290441,-0.9453,0.2920,-0.0166,-40.24,9.09,-4.27
884,262295442,-0.9390,0.2881,-0.0117,-41.65,9.21,-4.33
885,262300442,-0.9399,0.2891,-0.0117,-43.17,9.33,-4.33
886,262305442,-0.9399,0.2886,-0.0151,-44.57,9.39,-4.27
887,262310442,-0.9395,0.2866,-0.0112,-46.28,9.57,-4.33
888,262315440,-0.9399,0.2871,-0.0117,-47.99,9.63,-4.33
889,262320443,-0.9419,0.2847,-0.0088,-49.63,9.82,-4.33
890,262325442,-0.9434,0.2822,-0.0122,-51.40,9.82,-4.51
891,262330442,-0.9448,0.2827,-0.0132,-53.17,9.76,-4.39
892,262335442,-0.9468,0.2896,-0.0142,-54.94,9.94,-4.51
893,262340442,-0.9458,0.2832,-0.0112,-56.52,10.00,-4.63
894,262345444,-0.9468,0.2842,-0.0093,-58.11,9.94,-4.63
895,262350442,-0.9487,0.2837,-0.0088,-59.45,10.18,-4.63
896,262355531,-0.9487,0.2822,-0.0083,-60.37,10.24,-4.82
897,262360442,-0.9448,0.2793,-0.0088,-61.46,10.30,-4.76
898,262365442,-0.9429,0.2793,-0.0088,-62.20,10.55,-4.76
899,262370442,-0.9404,0.2778,-0.0078,-63.11,10.55,-4.70
900,262375442,-0.9419,0.2769,-0.0034,-63.84,10.73,-4.70
901,262380442,-0.9365,0.2788,-0.0059,-64.51,10.79,-4.76
902,262385442,-0.9316,0.2798,-0.0068,-65.18,10.73,-4.76
903,262390442,-0.9302,0.2739,0.0000,-65.85,10.98,-4.76
904,262395440,-0.9355,0.2739,-0.0005,-66.40,11.10,-4.63
905,262400442,-0.9458,0.2769,-0.0117,-66.95,11.04,-4.70
906,262405444,-0.9478,0.2798,-0.0078,-67.44,11.10,-4.63
907,262410441,-0.9434,0.2783,-0.0073,-67.80,11.28,-4.63
908,262415442,-0.9395,0.2773,-0.0054,-68.17,11.28,-4.70
909,262420441,-0.9404,0.2725,-0.0034,-68.54,11.40,-4.51
910,262425442,-0.9438,0.2744,-0.0049,-69.02,11.52,-4.57
911,262430441,-0.9438,0.2769,-0.0088,-69.39,11.52,-4.51
912,262435442,-0.9424,0.2715,-0.0073,-69.82,11.65,-4.51
913,262440442,-0.9453,0.2725,0.0010,-70.24,11.77,-4.57
914,262445442,-0.9507,0.2720,-0.0005,-70.55,11.77,-4.51
915,262450441,-0.9497,0.2739,-0.0005,-70.73,11.95,-4.39
916,262455442,-0.9478,0.2725,0.0034,-71.10,12.07,-4.45
917,262460441,-0.9443,0.2734,0.0015,-71.28,12.13,-4.51
918,262465442,-0.9429,0.2759,0.0044,-71.52,12.26,-4.33
919,262470442,-0.9414,0.2749,0.0088,-71.71,12.44,-4.45
920,262475442,-0.9434,0.2769,0.0044,-71.95,12.62,-4.39
921,262480441,-0.9395,0.2710,0.0015,-72.07,12.74,-4.39
922,262485442,-0.9429,0.2744,0.0059,-72.20,12.80,-4.27
923,262490441,-0.9395,0.2715,0.0029,-72.13,13.11,-4.21
924,262495440,-0.9409,0.2739,0.0024,-72.13,12.87,-4.09
925,262500444,-0.9419,0.2729,0.0000,-72.13,13.11,-3.90
926,262505455,-0.9429,0.2676,0.0063,-71.95,13.17,-3.90
927,262510441,-0.9414,0.2715,0.0039,-71.77,13.17,-3.84
928,262515442,-0.9419,0.2676,0.0073,-71.46,12.99,-3.72
929,262520441,-0.9512,0.2720,0.0034,-71.16,12.99,-3.54
930,262525444,-0.9478,0.2734,0.0068,-70.67,12.87,-3.54
931,262530441,-0.9458,0.2720,0.0083,-70.00,12.87,-3.41
932,262535442,-0.9468,0.2715,0.0044,-69.33,12.80,-3.29
933,262540441,-0.9419,0.2695,0.0107,-68.29,12.68,-3.23
934,262545442,-0.9448,0.2695,0.0063,-67.26,12.68,-3.05
935,262550441,-0.9448,0.2710,-0.0015,-65.98,12.62,-2.87
936,262555444,-0.9512,0.2773,0.0078,-64.57,12.50,-2.80
937,262560441,-0.9463,0.2734,0.0020,-63.05,12.38,-2.74
938,262565448,-0.9438,0.2715,0.0029,-61.28,12.20,-2.68
939,262570443,-0.9395,0.2715,0.0083,-59.57,12.20,-2.62
940,262575485,-0.9419,0.2725,0.0161,-57.80,12.13,-2.50
941,262580442,-0.9443,0.2729,0.0049,-55.91,11.95,-2.38
942,262585443,-0.9531,0.2734,0.0103,-53.90,11.71,-2.38
943,262590442,-0.9497,0.2739,0.0093,-52.07,11.77,-2.26
944,262595441,-0.9463,0.2749,0.0078,-49.94,11.65,-2.26
945,262600532,-0.9438,0.2769,0.0083,-47.93,11.28,-2.20
946,262605444,-0.9434,0.2705,0.0146,-45.67,11.22,-2.07
947,262610442,-0.9429,0.2729,0.0093,-43.72,11.22,-2.07
948,262615442,-0.9458,0.2715,0.0127,-41.59,10.91,-2.07
949,262620441,-0.9448,0.2700,0.0127,-39.51,10.98,-1.89
950,262625442,-0.9395,0.2686,0.0122,-37.32,10.73,-1.89
951,262632004,-0.9453,0.2769,0.0112,-34.70,10.55,-1.77
952,262635445,-0.9453,0.2710,0.0112,-33.05,10.37,-1.77
953,262640441,-0.9365,0.2695,0.0103,-30.79,10.24,-1.65
954,262645442,-0.9375,0.2690,0.0161,-28.48,10.06,-1.65
955,262650441,-0.9346,0.2700,0.0137,-26.22,9.94,-1.59
956,262655442,-0.9399,0.2725,0.0195,-24.21,9.63,-1.52
957,262660442,-0.9443,0.2715,0.0151,-21.95,9.51,-1.46
958,262665442,-0.9414,0.2695,0.0171,-19.76,9.39,-1.40
959,262670441,-0.9414,0.2661,0.0171,-17.62,9.15,-1.40
960,262675444,-0.9395,0.2681,0.0171,-15.79,8.90,-1.46
961,262680441,-0.9375,0.2690,0.0186,-13.72,8.66,-1.40
962,262685746,-0.9375,0.2749,0.0093,-11.71,8.41,-1.28
963,262690442,-0.9419,0.2676,0.0132,-9.94,8.29,-1.34
964,262695442,-0.9365,0.2744,0.0117,-7.99,8.17,-1.22
965,262700442,-0.9404,0.2671,0.0156,-6.34,7.93,-1.16
966,262705442,-0.9438,0.2700,0.0127,-4.63,7.68,-1.28
967,262710442,-0.9419,0.2705,0.0103,-3.23,7.32,-1.10
968,262715442,-0.9424,0.2720,0.0137,-1.77,7.20,-1.16
969,262720442,-0.9365,0.2729,0.0151,-0.49,6.77,-1.16
970,262725442,-0.9399,0.2715,0.0156,0.73,6.65,-1.22
971,262730442,-0.9409,0.2729,0.0181,1.89,6.40,-1.28
972,262735442,-0.9424,0.2759,0.0156,3.05,6.28,-1.16
973,262740442,-0.9380,0.2700,0.0117,4.02,5.79,-1.22
974,262745442,-0.9429,0.2695,0.0137,5.06,5.49,-1.22
975,262750443,-0.9404,0.2676,0.0190,5.85,5.43,-1.28
976,262755442,-0.9438,0.2705,0.0176,6.71,5.06,-1.28
977,262760442,-0.9419,0.2720,0.0137,7.38,4.82,-1.34
978,262765443,-0.9448,0.2710,0.0142,7.93,4.63,-1.34
979,262770442,-0.9419,0.2695,0.0112,8.60,4.45,-1.34
980,262775440,-0.9438,0.2690,0.0166,9.02,4.21,-1.46
981,262780442,-0.9414,0.2705,0.0181,9.45,3.84,-1.59
982,262785442,-0.9419,0.2710,0.0156,9.88,3.72,-1.46
983,262790442,-0.9453,0.2739,0.0171,10.00,3.48,-1.46
984,262795442,-0.9434,0.2690,0.0146,10.00,3.35,-1.46
985,262800442,-0.9409,0.2734,0.0112,10.24,3.11,-1.59
986,262805440,-0.9448,0.2651,0.0205,10.06,2.99,-1.40
987,262810442,-0.9434,0.2671,0.0200,10.00,2.74,-1.46
988,262815442,-0.9463,0.2739,0.0161,9.94,2.62,-1.46
989,262820442,-0.9458,0.2676,0.0151,9.51,2.38,-1.52
990,262825442,-0.9453,0.2681,0.0161,9.27,2.20,-1.52
991,262830442,-0.9438,0.2695,0.0186,8.90,2.01,-1.40
992,262835442,-0.9438,0.2690,0.0151,8.66,1.89,-1.40
993,262840442,-0.9424,0.2681,0.0151,8.05,1.71,-1.40
994,262845442,-0.9453,0.2700,0.0161,7.50,1.59,-1.46
995,262850443,-0.9443,0.2710,0.0132,7.07,1.34,-1.34
996,262855442,-0.9473,0.2734,0.0161,6.71,1.16,-1.22
997,262860442,-0.9482,0.2720,0.0181,6.16,1.04,-1.34
998,262865442,-0.9478,0.2690,0.0210,5.73,0.98,-1.40
999,262870442,-0.9487,0.2715,0.0151,5.12,0.73,-1.22
1000,262875443,-0.9468,0.2705,0.0151,4.76,0.61,-1.28
1001,262880442,-0.9478,0.2705,0.0098,4.39,0.55,-1.28
1002,262885440,-0.9468,0.2744,0.0166,4.02,0.30,-1.34
1003,262890442,-0.9443,0.2749,0.0132,3.90,0.24,-1.28
1004,262895442,-0.9482,0.2700,0.0137,3.41,0.06,-1.22
1005,262900441,-0.9487,0.2720,0.0146,3.23,-0.06,-1.22
1006,262905440,-0.9448,0.2725,0.0098,3.05,-0.18,-1.22
1007,262910442,-0.9487,0.2754,0.0103,2.93,-0.24,-1.16
1008,262915442,-0.9482,0.2739,0.0181,2.80,-0.37,-1.16
1009,262920441,-0.9502,0.2749,0.0127,2.80,-0.49,-1.16
1010,262925442,-0.9473,0.2729,0.0068,2.80,-0.61,-1.04
1011,262930441,-0.9443,0.2729,0.0112,2.80,-0.73,-1.04
1012,262935442,-0.9443,0.2729,0.0107,3.05,-0.67,-0.91
1013,262940441,-0.9497,0.2710,0.0137,3.17,-0.85,-0.91
1014,262945442,-0.9502,0.2720,0.0171,3.41,-0.98,-0.98
1015,262950441,-0.9473,0.2700,0.0151,3.48,-0.91,-1.04
1016,262955442,-0.9487,0.2715,0.0166,3.96,-1.28,-0.85
1017,262960441,-0.9448,0.2769,0.0137,4.21,-1.22,-0.85
1018,262965442,-0.9463,0.2754,0.0142,4.51,-1.28,-0.98
1019,262970442,-0.9419,0.2715,0.0156,4.70,-1.40,-0.79
1020,262975442,-0.9463,0.2729,0.0137,5.18,-1.40,-0.85
1021,262980442,-0.9463,0.2783,0.0112,5.55,-1.34,-0.98
1022,262985442,-0.9473,0.2729,0.0103,5.73,-1.52,-0.85
1023,262990441,-0.9463,0.2749,0.0127,5.98,-1.46,-0.91
1024,262995442,-0.9463,0.2749,0.0171,6.22,-1.59,-1.04
1025,263000441,-0.9482,0.2725,0.0137,6.34,-1.71,-0.85
1026,263005443,-0.9502,0.2695,0.0181,6.52,-1.65,-0.85
1027,263010441,-0.9468,0.2734,0.0083,6.65,-1.83,-0.85
1028,263015442,-0.9512,0.2715,0.0161,6.83,-1.95,-0.85
1029,263020441,-0.9521,0.2764,0.0156,6.95,-2.26,-1.04
1030,263025442,-0.9487,0.2759,0.0073,7.13,-2.13,-0.98
1031,263030441,-0.9512,0.2764,0.0107,7.26,-2.13,-1.10
1032,263035444,-0.9512,0.2734,0.0166,7.26,-2.44,-1.04
1033,263040441,-0.9463,0.2759,0.0146,7.32,-2.38,-1.10
1034,263045442,-0.9512,0.2705,0.0166,7.32,-2.56,-1.22
1035,263050441,-0.9492,0.2729,0.0083,7.38,-2.62,-1.34
1036,263055442,-0.9478,0.2744,0.0142,7.32,-2.80,-1.34
1037,263060441,-0.9492,0.2739,0.0176,7.32,-2.93,-1.40
1038,263065442,-0.9487,0.2759,0.0103,7.26,-3.05,-1.46
1039,263070442,-0.9546,0.2744,0.0122,7.13,-3.23,-1.52
1040,263075442,-0.9502,0.2744,0.0098,7.07,-3.29,-1.65
1041,263080442,-0.9482,0.2759,0.0098,6.83,-3.41,-1.40
1042,263085442,-0.9497,0.2744,0.0103,6.52,-3.48,-1.71
1043,263090441,-0.9502,0.2764,0.0112,6.34,-3.72,-1.71
1044,263095442,-0.9492,0.2769,0.0107,6.22,-3.78,-1.83
1045,263100442,-0.9492,0.2754,0.0093,6.16,-4.02,-1.89
1046,263105443,-0.9482,0.2725,0.0151,5.91,-4.02,-1.83
1047,263110441,-0.9541,0.2729,0.0146,5.61,-4.27,-1.95
1048,263115442,-0.9531,0.2749,0.0083,5.55,-4.33,-1.83
1049,263120442,-0.9531,0.2744,0.0098,5.30,-4.57,-1.89
1050,263125442,-0.9487,0.2749,0.0020,5.24,-4.70,-1.89
1051,263130441,-0.9468,0.2749,0.0078,5.12,-4.70,-1.89
1052,263135442,-0.9453,0.2744,0.0054,5.06,-4.94,-1.89
1053,263140441,-0.9468,0.2725,0.0020,4.94,-5.18,-1.83
1054,263145442,-0.9468,0.2729,0.0083,4.94,-5.37,-1.77
1055,263150441,-0.9463,0.2729,0.0142,4.82,-5.18,-1.83
1056,263155442,-0.9468,0.2734,0.0093,4.76,-5.55,-1.83
1057,263160441,-0.9429,0.2764,0.0044,4.70,-5.43,-1.83
1058,263165444,-0.9385,0.2759,0.0088,4.76,-5.55,-1.83
1059,263170441,-0.9380,0.2764,0.0098,4.88,-5.73,-1.83
1060,263175442,-0.9404,0.2754,0.0078,4.76,-5.85,-1.71
1061,263180441,-0.9390,0.2773,0.0073,4.82,-5.79,-1.71
1062,263185442,-0.9424,0.2739,0.0054,4.88,-5.85,-1.71
1063,263190442,-0.9463,0.2734,0.0073,4.94,-5.85,-1.71
1064,263195444,-0.9453,0.2749,0.0083,5.12,-6.04,-1.65
1065,263200443,-0.9482,0.2734,0.0063,5.30,-5.91,-1.59
1066,263205440,-0.9497,0.2764,0.0098,5.24,-6.16,-1.46
1067,263210442,-0.9512,0.2734,0.0029,5.37,-6.16,-1.34
1068,263215551,-0.9478,0.2725,0.0029,5.49,-6.22,-1.40
1069,263220442,-0.9521,0.2744,0.0015,5.49,-6.28,-1.34
1070,263225440,-0.9502,0.2700,0.0015,5.55,-6.40,-1.22
1071,263230443,-0.9497,0.2749,0.0044,5.61,-6.40,-1.04
1072,263235442,-0.9429,0.2764,0.0000,5.73,-6.34,-1.16
1073,263240441,-0.9448,0.2700,0.0054,5.79,-6.40,-0.98
1074,263245442,-0.9463,0.2715,0.0010,5.91,-6.65,-0.91
1075,263250441,-0.9419,0.2739,0.0029,6.04,-6.59,-0.91
1076,263255442,-0.9414,0.2769,0.0020,6.28,-6.59,-0.85
1077,263260441,-0.9399,0.2734,0.0015,6.34,-6.65,-0.73
1078,263265442,-0.9473,0.2729,-0.0034,6.46,-6.65,-0.67
1079,263270441,-0.9414,0.2749,0.0015,6.52,-6.59,-0.55
1080,263275442,-0.9453,0.2769,-0.0044,6.59,-6.59,-0.49
1081,263280441,-0.9453,0.2769,-0.0024,6.71,-6.77,-0.18
1082,263285442,-0.9438,0.2759,-0.0015,6.65,-6.65,-0.30
1083,263290441,-0.9453,0.2783,0.0010,6.59,-6.71,-0.12
1084,263295442,-0.9468,0.2764,-0.0054,6.59,-6.71,-0.06
1085,263300441,-0.9478,0.2798,0.0054,6.65,-6.65,0.00
1086,263305442,-0.9468,0.2764,0.0024,6.59,-6.46,0.18
1087,263310441,-0.9487,0.2773,-0.0005,6.59,-6.52,0.24
1088,263315440,-0.9517,0.2754,-0.0005,6.40,-6.71,0.37
1089,263320442,-0.9517,0.2715,0.0000,6.46,-6.40,0.37
1090,263325442,-0.9463,0.2720,-0.0010,6.40,-6.46,0.61
1091,263330441,-0.9453,0.2705,-0.0010,6.28,-6.28,0.73
1092,263335442,-0.9502,0.2759,-0.0024,6.16,-6.40,0.85
1093,263340441,-0.9492,0.2725,-0.0010,5.98,-6.16,0.85
1094,263345442,-0.9487,0.2725,-0.0015,6.04,-6.28,1.04
1095,263350441,-0.9517,0.2754,0.0029,5.91,-6.28,1.28
1096,263355442,-0.9478,0.2739,-0.0020,5.73,-6.22,1.34
1097,263360441,-0.9531,0.2749,0.0010,5.55,-6.16,1.40
1098,263365442,-0.9448,0.2725,0.0034,5.55,-5.91,1.65
1099,263370442,-0.9458,0.2739,0.0039,5.37,-5.91,1.65
1100,263375442,-0.9487,0.2729,-0.0044,5.24,-5.85,1.83
1101,263380442,-0.9448,0.2729,0.0044,5.18,-5.73,1.95
1102,263385838,-0.9492,0.2783,-0.0044,5.00,-5.67,2.13
1103,263390443,-0.9478,0.2759,-0.0049,4.82,-5.67,2.20
1104,263395442,-0.9517,0.2715,-0.0015,4.82,-5.61,2.32
1105,263400442,-0.9492,0.2710,0.0020,4.57,-5.43,2.32
1106,263405442,-0.9497,0.2700,0.0005,4.51,-5.49,2.50
1107,263410442,-0.9468,0.2739,-0.0073,4.39,-5.43,2.56
1108,263415442,-0.9443,0.2710,-0.0049,4.27,-5.55,2.74
1109,263420511,-0.9419,0.2729,0.0029,4.21,-5.30,2.74
1110,263425442,-0.9458,0.2754,-0.0020,4.21,-5.12,2.99
1111,263430443,-0.9478,0.2715,-0.0024,4.09,-5.24,2.99
1112,263435442,-0.9429,0.2729,-0.0049,4.15,-5.24,3.17
1113,263440442,-0.9468,0.2764,-0.0020,4.15,-4.94,3.17
1114,263445443,-0.9497,0.2744,0.0005,4.15,-4.88,3.35
1115,263450442,-0.9502,0.2744,-0.0020,4.33,-4.82,3.54
1116,263455442,-0.9468,0.2729,0.0005,4.39,-4.82,3.60
1117,263460442,-0.9463,0.2739,0.0005,4.39,-4.63,3.72
1118,263465442,-0.9507,0.2744,-0.0029,4.51,-4.57,3.84
1119,263470442,-0.9478,0.2764,-0.0034,4.51,-4.33,4.02
1120,263475442,-0.9468,0.2695,0.0005,4.76,-4.45,4.21
1121,263480443,-0.9492,0.2715,-0.0015,4.94,-4.27,4.33
1122,263485442,-0.9478,0.2681,-0.0029,5.00,-4.33,4.45
1123,263490442,-0.9473,0.2710,-0.0049,5.06,-4.27,4.57
1124,263495442,-0.9458,0.2739,-0.0063,5.12,-4.09,4.70
1125,263500443,-0.9443,0.2690,-0.0024,5.30,-4.15,4.70
1126,263505442,-0.9458,0.2686,-0.0088,5.43,-4.02,4.94
1127,263510442,-0.9424,0.2700,-0.0049,5.61,-3.78,5.06
1128,263515442,-0.9429,0.2705,-0.0044,5.73,-3.78,5.18
1129,263520442,-0.9478,0.2695,-0.0078,5.91,-3.84,5.30
1130,263525442,-0.9424,0.2676,-0.0015,6.16,-3.66,5.37
1131,263530442,-0.9453,0.2676,-0.0044,6.40,-3.54,5.43
1132,263535442,-0.9448,0.2700,-0.0078,6.40,-3.35,5.55
1133,263540442,-0.9448,0.2671,-0.0024,6.40,-3.23,5.67
1134,263545442,-0.9434,0.2686,-0.0039,6.65,-3.17,5.73
1135,263550442,-0.9492,0.2676,-0.0054,6.59,-2.99,5.85
1136,263555442,-0.9473,0.2705,-0.0044,6.71,-3.05,5.85
1137,263560442,-0.9463,0.2686,-0.0020,6.59,-2.80,6.16
1138,263565442,-0.9487,0.2695,-0.0034,6.65,-2.74,6.22
1139,263570442,-0.9419,0.2666,-0.0029,6.59,-2.74,6.16
1140,263575442,-0.9438,0.2671,-0.0015,6.71,-2.44,6.34
1141,263580443,-0.9507,0.2671,-0.0088,6.59,-2.44,6.28
1142,263585442,-0.9482,0.2671,-0.0015,6.65,-2.32,6.34
1143,263590443,-0.9473,0.2710,-0.0029,6.71,-2.26,6.52
1144,263595440,-0.9443,0.2666,-0.0029,6.52,-2.26,6.52
1145,263600442,-0.9443,0.2681,0.0034,6.59,-2.20,6.59
1146,263605442,-0.9487,0.2671,0.0005,6.52,-2.07,6.59
1147,263610443,-0.9487,0.2681,0.0005,6.46,-2.07,6.52
1148,263615497,-0.9463,0.2725,-0.0010,6.28,-1.89,6.59
1149,263621253,-0.9468,0.2676,-0.0029,6.28,-1.83,6.46
1150,263625534,-0.9458,0.2671,-0.0010,6.28,-1.71,6.46
1151,263630871,-0.9458,0.2646,-0.0098,6.04,-1.71,6.46
1152,263635442,-0.9487,0.2715,-0.0020,6.04,-1.59,6.46
1153,263640444,-0.9463,0.2690,-0.0015,5.79,-1.46,6.46
1154,263645442,-0.9463,0.2671,-0.0073,5.61,-1.40,6.22
1155,263650442,-0.9453,0.2681,-0.0054,5.49,-1.40,6.28
1156,263655441,-0.9448,0.2695,-0.0063,5.24,-1.22,6.28
1157,263660442,-0.9453,0.2661,-0.0068,4.88,-1.22,6.22
1158,263665442,-0.9468,0.2656,-0.0054,4.70,-1.04,6.04
1159,263670442,-0.9463,0.2700,-0.0005,4.51,-0.85,5.98
1160,263675441,-0.9507,0.2700,-0.0015,4.21,-0.91,5.91
1161,263680442,-0.9473,0.2661,-0.0034,3.90,-0.85,5.73
1162,263685442,-0.9497,0.2695,0.0005,3.72,-0.61,5.85
1163,263690442,-0.9463,0.2681,0.0020,3.41,-0.43,5.67
1164,263695442,-0.9482,0.2661,0.0015,3.23,-0.37,5.61
1165,263700442,-0.9492,0.2690,-0.0015,2.93,-0.24,5.49
1166,263705442,-0.9468,0.2676,-0.0005,2.68,-0.18,5.37
1167,263710442,-0.9512,0.2671,-0.0010,2.56,-0.12,5.30
1168,263715441,-0.9458,0.2695,-0.0005,2.20,0.12,5.30
1169,263720442,-0.9507,0.2690,-0.0029,1.95,0.18,5.12
1170,263725441,-0.9458,0.2651,0.0010,1.83,0.49,5.06
1171,263730441,-0.9453,0.2671,-0.0005,1.52,0.43,5.06
1172,263735442,-0.9448,0.2627,0.0029,1.46,0.61,4.88
1173,263740442,-0.9473,0.2666,0.0005,1.22,0.85,4.94
1174,263745442,-0.9468,0.2705,0.0044,0.98,1.10,4.70
1175,263750441,-0.9482,0.2671,0.0024,0.79,1.04,4.63
1176,263755442,-0.9482,0.2656,-0.0024,0.67,1.28,4.70
1177,263760441,-0.9482,0.2676,-0.0024,0.49,1.40,4.70
1178,263765442,-0.9463,0.2651,-0.0010,0.37,1.59,4.51
1179,263770441,-0.9478,0.2598,0.0059,0.24,1.83,4.51
1180,263775442,-0.9463,0.2651,0.0039,0.24,1.83,4.39
1181,263780441,-0.9448,0.2632,0.0020,0.12,1.83,4.33
1182,263785442,-0.9463,0.2661,0.0034,0.00,2.01,4.27
1183,263790441,-0.9468,0.2646,0.0044,-0.18,2.26,4.27
1184,263795442,-0.9448,0.2642,0.0029,-0.37,2.26,4.15
1185,263800442,-0.9458,0.2637,0.0054,-0.37,2.44,3.96
1186,263805442,-0.9453,0.2656,0.0024,-0.55,2.62,3.90
1187,263810441,-0.9463,0.2651,0.0034,-0.61,2.74,3.90
1188,263815442,-0.9468,0.2676,0.0068,-0.79,2.80,3.84
1189,263820441,-0.9458,0.2642,0.0024,-0.85,2.93,3.72
1190,263826053,-0.9438,0.2651,0.0073,-0.79,3.11,3.66
1191,263830442,-0.9429,0.2632,0.0112,-0.98,3.23,3.48
1192,263835441,-0.9429,0.2671,0.0068,-1.22,3.29,3.48
1193,263840442,-0.9482,0.2642,0.0039,-1.46,3.54,3.41
1194,263845441,-0.9463,0.2671,0.0039,-1.52,3.54,3.35
1195,263850442,-0.9434,0.2661,0.0068,-1.59,3.48,3.17
1196,263855442,-0.9429,0.2656,0.0107,-1.89,3.60,3.17
1197,263860443,-0.9429,0.2593,0.0059,-2.20,3.66,3.11
1198,263865441,-0.9404,0.2617,0.0015,-2.44,3.66,3.05
1199,263870442,-0.9434,0.2661,0.0029,-2.74,3.72,2.80
1200,263875442,-0.9434,0.2656,0.0044,-2.87,3.72,2.74
1201,263880442,-0.9424,0.2651,0.0098,-3.17,3.90,2.68
1202,263885441,-0.9448,0.2637,0.0112,-3.48,3.72,2.56
1203,263890442,-0.9434,0.2632,0.0068,-3.72,3.84,2.44
1204,263895442,-0.9487,0.2651,0.0059,-3.96,3.84,2.50
1205,263900442,-0.9458,0.2632,0.0093,-4.15,3.78,2.26
1206,263905441,-0.9443,0.2666,0.0063,-4.57,3.72,2.26
1207,263910442,-0.9434,0.2637,0.0083,-4.63,3.60,2.26
1208,263915442,-0.9414,0.2637,0.0054,-4.88,3.66,2.26
1209,263920442,-0.9414,0.2612,0.0049,-4.88,3.54,2.13
1210,263925441,-0.9419,0.2681,0.0024,-5.12,3.54,2.07
1211,263930442,-0.9429,0.2666,0.0083,-5.12,3.41,1.95
1212,263935442,-0.9438,0.2637,0.0073,-5.18,3.35,2.01
1213,263940442,-0.9409,0.2622,0.0127,-5.30,3.35,1.95
1214,263945441,-0.9419,0.2603,0.0151,-5.06,3.29,1.89
1215,263950443,-0.9409,0.2642,0.0098,-5.18,3.05,1.71
1216,263955442,-0.9453,0.2666,0.0127,-5.00,3.05,1.71
1217,263960442,-0.9492,0.2671,0.0117,-4.88,2.99,1.71
1218,263965441,-0.9438,0.2642,0.0088,-4.70,2.93,1.52
1219,263970442,-0.9458,0.2656,0.0068,-4.57,2.93,1.59
1220,263975442,-0.9458,0.2632,0.0117,-4.21,2.93,1.52
1221,263980442,-0.9487,0.2661,0.0088,-4.02,2.80,1.46
1222,263985441,-0.9443,0.2627,0.0107,-3.66,2.62,1.52
1223,263990442,-0.9453,0.2637,0.0107,-3.41,2.62,1.46
1224,263995443,-0.9502,0.2632,0.0093,-3.11,2.62,1.46
1225,264000442,-0.9473,0.2681,0.0088,-2.74,2.38,1.59
1226,264005441,-0.9463,0.2598,0.0083,-2.56,2.44,1.46
1227,264010442,-0.9453,0.2617,0.0137,-2.20,2.26,1.40
1228,264015442,-0.9458,0.2627,0.0103,-1.83,2.20,1.59
1229,264020442,-0.9429,0.2646,0.0059,-1.59,2.20,1.52
1230,264025441,-0.9434,0.2642,0.0034,-0.98,1.95,1.59
1231,264030443,-0.9424,0.2632,0.0078,-0.85,1.89,1.52
1232,264035552,-0.9463,0.2637,0.0098,-0.55,1.83,1.52
1233,264040442,-0.9395,0.2642,0.0127,-0.24,1.71,1.46
1234,264045441,-0.9468,0.2671,0.0137,0.06,1.59,1.52
1235,264050443,-0.9473,0.2656,0.0122,0.49,1.52,1.65
1236,264055442,-0.9434,0.2622,0.0122,0.67,1.52,1.59
1237,264060442,-0.9453,0.2651,0.0151,0.85,1.34,1.77
1238,264065441,-0.9443,0.2656,0.0083,0.91,1.28,1.71
1239,264070442,-0.9473,0.2637,0.0088,1.16,1.16,1.71
1240,264075520,-0.9497,0.2627,0.0093,1.34,1.22,1.71
1241,264080442,-0.9492,0.2656,0.0103,1.46,1.16,1.71
1242,264085441,-0.9468,0.2632,0.0088,1.46,1.04,1.77
1243,264090443,-0.9458,0.2651,0.0088,1.65,0.91,1.65
1244,264095442,-0.9507,0.2651,0.0107,1.65,0.85,1.89
1245,264100442,-0.9458,0.2632,0.0161,1.65,0.85,1.83
1246,264105441,-0.9502,0.2627,0.0156,1.46,0.73,1.77
1247,264110443,-0.9497,0.2627,0.0166,1.52,0.61,1.83
1248,264115442,-0.9546,0.2637,0.0112,1.40,0.49,1.89
1249,264120443,-0.9526,0.2612,0.0122,1.40,0.43,1.83
1250,264125441,-0.9482,0.2632,0.0073,1.22,0.24,1.89
1251,264130442,-0.9478,0.2632,0.0132,1.22,0.18,1.77
1252,264135441,-0.9482,0.2622,0.0146,1.04,0.00,1.83
1253,264140442,-0.9478,0.2637,0.0112,1.10,-0.12,1.77
1254,264145442,-0.9473,0.2627,0.0103,1.16,-0.37,1.71
1255,264150441,-0.9492,0.2651,0.0098,1.04,-0.30,1.77
1256,264155444,-0.9468,0.2642,0.0103,1.28,-0.61,1.65
1257,264160441,-0.9497,0.2661,0.0146,1.28,-0.55,1.65
1258,264165442,-0.9487,0.2646,0.0098,1.34,-0.73,1.46
1259,264170441,-0.9497,0.2646,0.0171,1.52,-0.91,1.52
1260,264175442,-0.9492,0.2661,0.0112,1.71,-0.91,1.46
1261,264180441,-0.9473,0.2651,0.0098,1.89,-1.16,1.34
1262,264185443,-0.9414,0.2661,0.0142,2.01,-1.28,1.28
1263,264190440,-0.9414,0.2661,0.0171,2.26,-1.28,1.34
1264,264195838,-0.9473,0.2661,-0.0010,2.56,-1.46,1.28
1265,264200443,-0.9424,0.2651,0.0088,2.74,-1.52,1.16
1266,264205576,-0.9414,0.2646,0.0117,3.17,-1.65,1.28
1267,264210443,-0.9438,0.2671,0.0146,3.41,-1.77,1.04
1268,264215441,-0.9502,0.2681,0.0103,3.72,-1.83,1.10
1269,264220442,-0.9419,0.2642,0.0117,4.21,-1.95,1.10
1270,264225441,-0.9424,0.2656,0.0093,4.45,-1.95,1.04
1271,264230443,-0.9429,0.2632,0.0137,4.57,-2.01,0.98
1272,264235441,-0.9414,0.2661,0.0142,5.00,-2.07,0.98
1273,264240443,-0.9424,0.2666,0.0088,5.12,-2.20,0.91
1274,264245442,-0.9404,0.2666,0.0093,5.30,-2.32,0.98
1275,264250441,-0.9448,0.2666,0.0073,5.43,-2.50,0.98
1276,264255442,-0.9404,0.2666,0.0112,5.67,-2.50,0.85
1277,264260441,-0.9443,0.2642,0.0088,5.73,-2.56,0.85
1278,264265442,-0.9419,0.2646,0.0117,5.79,-2.80,0.85
1279,264270441,-0.9453,0.2651,0.0112,5.73,-2.80,0.73
1280,264275442,-0.9473,0.2642,0.0112,5.85,-2.74,0.79
1281,264280441,-0.9443,0.2656,0.0068,5.98,-3.05,0.79
1282,264285442,-0.9448,0.2646,0.0166,5.85,-3.05,0.67
1283,264290441,-0.9463,0.2700,0.0020,5.73,-3.29,0.79
1284,264295442,-0.9443,0.2656,0.0068,5.73,-3.35,0.61
1285,264300441,-0.9399,0.2646,0.0063,5.73,-3.60,0.67
1286,264305442,-0.9448,0.2681,0.0049,5.61,-3.66,0.61
1287,264310441,-0.9463,0.2656,0.0059,5.49,-3.66,0.55
1288,264315442,-0.9453,0.2651,0.0024,5.55,-3.72,0.61
1289,264320441,-0.9478,0.2710,0.0127,5.43,-3.78,0.49
1290,264325442,-0.9443,0.2666,0.0049,5.24,-3.72,0.49
1291,264330441,-0.9453,0.2700,0.0054,5.37,-3.78,0.37
1292,264335441,-0.9429,0.2666,0.0112,5.37,-3.78,0.30
1293,264340440,-0.9434,0.2627,0.0044,5.12,-3.84,0.30
1294,264345444,-0.9414,0.2656,0.0000,5.06,-3.96,0.30
1295,264350441,-0.9419,0.2695,0.0073,5.00,-4.02,0.37
1296,264355442,-0.9448,0.2656,0.0059,4.94,-4.02,0.30
1297,264360441,-0.9443,0.2671,0.0083,4.88,-3.96,0.30
1298,264365442,-0.9463,0.2690,0.0020,4.70,-4.21,0.18
1299,264370441,-0.9443,0.2681,0.0039,4.76,-4.15,0.24
1300,264375442,-0.9482,0.2710,0.0063,4.70,-4.09,0.30
1301,264380442,-0.9482,0.2656,0.0059,4.57,-4.21,0.30
1302,264385442,-0.9443,0.2671,-0.0049,4.45,-4.21,0.24
1303,264390441,-0.9487,0.2686,0.0039,4.39,-4.27,0.24
1304,264395442,-0.9458,0.2676,0.0049,4.39,-4.27,0.30
1305,264400441,-0.9497,0.2700,-0.0015,4.33,-4.21,0.24
1306,264405444,-0.9443,0.2700,0.0024,4.27,-4.33,0.37
1307,264410441,-0.9434,0.2676,0.0010,4.09,-4.21,0.30
1308,264415442,-0.9443,0.2671,0.0020,4.21,-4.21,0.30
1309,264420442,-0.9419,0.2646,0.0039,4.02,-4.27,0.49
1310,264425442,-0.9463,0.2686,-0.0015,4.02,-4.39,0.55
1311,264430441,-0.9482,0.2671,-0.0024,4.09,-4.33,0.55
1312,264435444,-0.9443,0.2695,-0.0044,3.96,-4.33,0.61
1313,264440440,-0.9443,0.2690,-0.0034,4.02,-4.39,0.67
1314,264445441,-0.9424,0.2705,-0.0039,4.09,-4.45,0.61
1315,264450444,-0.9429,0.2690,0.0000,4.21,-4.33,0.73
1316,264455442,-0.9438,0.2710,-0.0039,4.33,-4.27,0.73
1317,264460441,-0.9463,0.2690,0.0020,4.45,-4.33,0.85
1318,264465442,-0.9434,0.2671,0.0020,4.63,-4.21,0.98
1319,264470441,-0.9399,0.2666,-0.0015,4.88,-4.21,0.91
1320,264475442,-0.9448,0.2681,-0.0039,5.00,-4.21,1.04
1321,264480442,-0.9434,0.2646,-0.0005,5.24,-4.15,0.98
1322,264485933,-0.9424,0.2676,-0.0005,5.55,-4.02,1.10
1323,264490443,-0.9434,0.2690,-0.0005,5.73,-4.27,1.16
1324,264495442,-0.9375,0.2681,0.0000,5.91,-4.02,1.16
1325,264500442,-0.9453,0.2690,-0.0054,6.34,-4.09,1.28
1326,264505442,-0.9419,0.2695,0.0054,6.52,-3.96,1.34
1327,264510442,-0.9429,0.2666,0.0020,6.65,-3.90,1.28
1328,264515441,-0.9453,0.2671,-0.0020,6.71,-3.90,1.34
1329,264520442,-0.9443,0.2671,-0.0010,6.95,-3.96,1.46
1330,264525442,-0.9463,0.2695,0.0010,7.13,-3.78,1.40
1331,264530442,-0.9473,0.2656,-0.0039,7.13,-3.78,1.46
1332,264535441,-0.9507,0.2642,-0.0005,7.20,-3.78,1.52
1333,264540442,-0.9468,0.2676,0.0020,7.32,-3.84,1.65
1334,264545441,-0.9468,0.2676,-0.0093,7.38,-3.60,1.59
1335,264550441,-0.9487,0.2715,-0.0059,7.38,-3.78,1.52
1336,264555442,-0.9448,0.2671,-0.0103,7.32,-3.66,1.59
1337,264560441,-0.9463,0.2671,-0.0098,7.38,-3.48,1.71
1338,264565444,-0.9487,0.2671,-0.0029,7.32,-3.54,1.65
1339,264570441,-0.9468,0.2671,-0.0020,7.26,-3.54,1.65
1340,264575442,-0.9482,0.2700,-0.0078,7.07,-3.35,1.77
1341,264580441,-0.9502,0.2671,0.0059,7.01,-3.41,1.77
1342,264585442,-0.9507,0.2676,-0.0049,7.01,-3.54,1.71
1343,264590442,-0.9453,0.2690,-0.0024,6.77,-3.29,1.59
1344,264595442,-0.9482,0.2686,-0.0054,6.71,-3.48,1.65
1345,264600441,-0.9478,0.2715,-0.0020,6.77,-3.35,1.59
1346,264605444,-0.9492,0.2705,0.0010,6.59,-3.35,1.59
1347,264610442,-0.9468,0.2725,-0.0020,6.52,-3.17,1.65
1348,264615442,-0.9434,0.2695,-0.0039,6.52,-3.23,1.52
1349,264620442,-0.9463,0.2725,-0.0020,6.22,-3.05,1.46
1350,264625442,-0.9512,0.2686,-0.0127,6.22,-2.93,1.40
1351,264630441,-0.9497,0.2695,-0.0049,5.98,-2.93,1.34
