# skilleye imu stream v1
# device=xiao_esp32c6 imu=mpu6050 addr=0x68
# rate_hz=200 accel_range_g=16 gyro_range_dps=2000 dlpf_hz=94
# units: accel in g, gyro in deg/s, t_us in microseconds since boot (monotonic)
# no shared clock with the camera -- tap the racket once before each take
# so both recordings share a spike to align on
seq,t_us,ax,ay,az,gx,gy,gz
0,400874514,0.7622,0.6382,-0.0361,2.01,-2.44,2.07
1,400879519,0.7632,0.6382,-0.0386,1.95,-2.44,2.13
2,400884514,0.7593,0.6387,-0.0449,2.13,-2.44,2.07
3,400889514,0.7651,0.6382,-0.0391,2.13,-2.50,2.07
4,400894516,0.7661,0.6396,-0.0396,2.07,-2.56,2.13
5,400899517,0.7632,0.6406,-0.0396,2.20,-2.50,2.26
6,400904516,0.7651,0.6396,-0.0396,2.26,-2.50,2.13
7,400909522,0.7617,0.6401,-0.0396,2.32,-2.50,2.20
8,400914516,0.7666,0.6426,-0.0366,2.32,-2.68,2.26
9,400919518,0.7646,0.6411,-0.0381,2.38,-2.56,2.32
10,400924515,0.7637,0.6421,-0.0435,2.50,-2.38,2.38
11,400929514,0.7642,0.6445,-0.0425,2.62,-2.44,2.38
12,400934517,0.7607,0.6450,-0.0449,2.56,-2.38,2.44
13,400939515,0.7642,0.6440,-0.0459,2.56,-2.38,2.50
14,400944516,0.7583,0.6411,-0.0376,2.56,-2.38,2.62
15,400949516,0.7603,0.6406,-0.0488,2.50,-2.32,2.68
16,400954516,0.7632,0.6455,-0.0449,2.56,-2.26,2.74
17,400959517,0.7583,0.6455,-0.0430,2.50,-2.38,2.80
18,400964516,0.7617,0.6460,-0.0420,2.38,-2.26,2.80
19,400969515,0.7612,0.6416,-0.0469,2.32,-2.20,2.99
20,400974516,0.7637,0.6470,-0.0425,2.26,-2.26,3.11
21,400979517,0.7627,0.6426,-0.0483,2.20,-2.13,3.05
22,400984516,0.7627,0.6455,-0.0474,2.13,-2.01,3.17
23,400989515,0.7622,0.6401,-0.0405,2.07,-1.95,3.11
24,400994516,0.7617,0.6421,-0.0479,2.01,-1.95,3.29
25,400999517,0.7646,0.6416,-0.0459,2.13,-1.89,3.35
26,401004516,0.7661,0.6396,-0.0410,2.13,-1.89,3.48
27,401009515,0.7676,0.6421,-0.0439,2.01,-1.95,3.41
28,401014515,0.7671,0.6416,-0.0435,2.07,-1.89,3.54
29,401019516,0.7656,0.6392,-0.0459,2.20,-1.71,3.66
30,401024515,0.7671,0.6387,-0.0386,2.26,-1.71,3.66
31,401029516,0.7637,0.6372,-0.0444,2.26,-1.89,3.66
32,401034516,0.7666,0.6377,-0.0435,2.26,-1.71,3.66
33,401039517,0.7646,0.6377,-0.0332,2.32,-1.65,3.78
34,401044515,0.7661,0.6372,-0.0376,2.26,-1.83,3.84
35,401049518,0.7627,0.6353,-0.0361,2.26,-1.83,3.84
36,401054514,0.7603,0.6333,-0.0400,2.26,-1.89,3.78
37,401059516,0.7627,0.6304,-0.0381,2.32,-1.89,3.78
38,401064515,0.7632,0.6343,-0.0405,2.38,-1.95,3.78
39,401069516,0.7622,0.6348,-0.0420,2.26,-1.89,3.78
40,401074514,0.7588,0.6338,-0.0415,2.38,-1.95,3.72
41,401079514,0.7593,0.6323,-0.0352,2.26,-1.95,3.66
42,401084514,0.7559,0.6328,-0.0425,2.26,-1.95,3.78
43,401089518,0.7646,0.6289,-0.0396,2.50,-2.07,3.78
44,401094515,0.7622,0.6255,-0.0352,2.50,-2.01,3.78
45,401099516,0.7568,0.6245,-0.0405,2.44,-1.83,3.66
46,401104514,0.7583,0.6304,-0.0391,2.68,-1.95,3.60
47,401109518,0.7637,0.6318,-0.0425,2.62,-2.01,3.66
48,401114579,0.7661,0.6323,-0.0366,2.56,-2.01,3.60
49,401119518,0.7637,0.6318,-0.0405,2.50,-2.07,3.41
50,401124516,0.7642,0.6289,-0.0371,2.38,-2.07,3.41
51,401129516,0.7666,0.6279,-0.0381,2.44,-2.13,3.35
52,401134516,0.7651,0.6299,-0.0405,2.50,-2.13,3.35
53,401139515,0.7651,0.6338,-0.0425,2.44,-2.07,3.29
54,401144516,0.7690,0.6328,-0.0430,2.32,-2.26,3.23
55,401149516,0.7632,0.6265,-0.0405,2.38,-2.20,3.11
56,401154516,0.7661,0.6294,-0.0405,2.38,-2.20,3.11
57,401159515,0.7646,0.6274,-0.0420,2.44,-2.32,3.23
58,401164516,0.7598,0.6318,-0.0400,2.38,-2.20,3.11
59,401169515,0.7632,0.6284,-0.0366,2.38,-2.38,2.99
60,401174516,0.7617,0.6318,-0.0391,2.32,-2.13,2.99
61,401179516,0.7607,0.6289,-0.0474,2.44,-2.20,3.05
62,401184517,0.7632,0.6318,-0.0386,2.56,-2.13,2.99
63,401189514,0.7627,0.6309,-0.0376,2.62,-2.07,3.05
64,401194519,0.7651,0.6284,-0.0425,2.68,-2.07,3.05
65,401199515,0.7642,0.6294,-0.0430,2.80,-2.20,3.11
66,401204516,0.7661,0.6304,-0.0439,2.80,-2.07,3.05
67,401209515,0.7690,0.6299,-0.0415,2.87,-2.07,2.93
68,401214517,0.7725,0.6274,-0.0435,3.05,-2.07,2.87
69,401219516,0.7695,0.6274,-0.0425,3.23,-2.07,2.93
70,401224515,0.7617,0.6255,-0.0386,3.17,-2.07,2.87
71,401229516,0.7666,0.6309,-0.0439,3.17,-2.01,2.87
72,401234516,0.7656,0.6279,-0.0474,3.17,-1.95,2.80
73,401239516,0.7612,0.6260,-0.0439,3.11,-1.95,2.74
74,401244516,0.7632,0.6313,-0.0474,2.99,-1.89,2.68
75,401249516,0.7632,0.6299,-0.0469,2.74,-1.83,2.62
76,401254516,0.7632,0.6265,-0.0430,2.74,-1.95,2.56
77,401259516,0.7617,0.6289,-0.0420,2.56,-1.83,2.62
78,401264516,0.7656,0.6270,-0.0420,2.38,-1.83,2.50
79,401269514,0.7656,0.6265,-0.0454,2.32,-1.77,2.44
80,401274518,0.7666,0.6265,-0.0435,2.20,-1.83,2.50
81,401279515,0.7656,0.6270,-0.0444,2.01,-1.77,2.44
82,401284516,0.7642,0.6294,-0.0439,2.07,-1.65,2.44
83,401289515,0.7646,0.6309,-0.0479,2.20,-1.71,2.38
84,401294516,0.7671,0.6279,-0.0454,2.07,-1.65,2.38
85,401299517,0.7637,0.6274,-0.0479,2.26,-1.65,2.38
86,401304516,0.7690,0.6289,-0.0464,2.38,-1.46,2.32
87,401309515,0.7681,0.6279,-0.0449,2.38,-1.52,2.32
88,401314516,0.7661,0.6270,-0.0488,2.38,-1.46,2.26
89,401319514,0.7651,0.6304,-0.0410,2.56,-1.52,2.26
90,401324517,0.7651,0.6284,-0.0400,2.62,-1.59,2.32
91,401329516,0.7666,0.6245,-0.0439,2.56,-1.46,2.32
92,401334516,0.7642,0.6294,-0.0449,2.44,-1.52,2.20
93,401339516,0.7637,0.6294,-0.0435,2.62,-1.46,2.20
94,401344516,0.7676,0.6279,-0.0459,2.56,-1.40,2.20
95,401349516,0.7642,0.6265,-0.0439,2.44,-1.52,2.07
96,401354517,0.7646,0.6274,-0.0405,2.44,-1.59,1.95
97,401359516,0.7671,0.6250,-0.0405,2.50,-1.71,2.01
98,401364516,0.7666,0.6250,-0.0396,2.44,-1.46,1.89
99,401369516,0.7651,0.6260,-0.0361,2.44,-1.52,1.83
100,401374516,0.7642,0.6284,-0.0366,2.32,-1.65,1.77
101,401379516,0.7676,0.6274,-0.0391,2.32,-1.71,1.77
102,401384516,0.7656,0.6279,-0.0444,2.38,-1.65,1.83
103,401389517,0.7676,0.6299,-0.0420,2.50,-1.83,1.77
104,401394516,0.7690,0.6294,-0.0381,2.50,-1.77,1.77
105,401399516,0.7671,0.6304,-0.0425,2.62,-1.65,1.83
106,401404516,0.7681,0.6294,-0.0449,2.80,-1.83,1.83
107,401409516,0.7661,0.6309,-0.0361,2.87,-1.77,1.71
108,401414516,0.7646,0.6309,-0.0386,2.87,-1.65,1.83
109,401419516,0.7666,0.6289,-0.0410,2.93,-1.71,1.77
110,401424829,0.7646,0.6348,-0.0410,2.80,-1.77,1.89
111,401429518,0.7627,0.6357,-0.0425,3.05,-1.77,1.89
112,401434515,0.7671,0.6357,-0.0435,2.93,-1.65,1.83
113,401439516,0.7705,0.6333,-0.0430,2.87,-1.71,2.01
114,401444516,0.7632,0.6353,-0.0454,2.68,-1.71,1.95
115,401449516,0.7661,0.6353,-0.0396,2.68,-1.77,2.01
116,401454516,0.7700,0.6362,-0.0464,2.62,-1.83,1.95
117,401459515,0.7651,0.6357,-0.0435,2.50,-1.77,2.01
118,401464516,0.7661,0.6357,-0.0449,2.50,-1.77,2.01
119,401469515,0.7632,0.6338,-0.0469,2.44,-1.71,2.07
120,401474516,0.7612,0.6328,-0.0459,2.13,-1.65,2.13
121,401479515,0.7612,0.6338,-0.0415,2.13,-1.59,2.26
122,401484516,0.7622,0.6318,-0.0430,2.07,-1.71,2.26
123,401489515,0.7622,0.6328,-0.0444,2.13,-1.59,2.26
124,401494516,0.7651,0.6328,-0.0459,2.13,-1.59,2.38
125,401499516,0.7627,0.6299,-0.0420,2.07,-1.59,2.44
126,401504516,0.7656,0.6309,-0.0454,2.13,-1.46,2.32
127,401509515,0.7695,0.6353,-0.0420,2.20,-1.52,2.38
128,401514516,0.7661,0.6348,-0.0474,2.20,-1.46,2.38
129,401519516,0.7686,0.6357,-0.0469,2.20,-1.34,2.38
130,401524516,0.7661,0.6309,-0.0420,2.32,-1.40,2.38
131,401529515,0.7695,0.6304,-0.0430,2.26,-1.34,2.32
132,401534518,0.7681,0.6338,-0.0479,2.32,-1.46,2.32
133,401539655,0.7666,0.6318,-0.0439,2.32,-1.34,2.44
134,401544516,0.7676,0.6323,-0.0454,2.32,-1.52,2.38
135,401549515,0.7686,0.6318,-0.0396,2.44,-1.52,2.38
136,401554516,0.7642,0.6323,-0.0444,2.38,-1.46,2.38
137,401559516,0.7622,0.6323,-0.0410,2.62,-1.40,2.38
138,401564516,0.7642,0.6333,-0.0459,2.62,-1.40,2.44
139,401569515,0.7622,0.6304,-0.0454,2.68,-1.52,2.44
140,401574516,0.7642,0.6318,-0.0459,2.80,-1.34,2.56
141,401579515,0.7612,0.6304,-0.0474,2.80,-1.34,2.56
142,401584516,0.7627,0.6289,-0.0454,2.74,-1.22,2.38
143,401589563,0.7642,0.6294,-0.0425,2.80,-1.16,2.44
144,401594516,0.7695,0.6245,-0.0430,2.80,-1.22,2.44
145,401599515,0.7690,0.6294,-0.0459,2.62,-1.16,2.44
146,401604516,0.7725,0.6265,-0.0459,2.50,-1.16,2.38
147,401609515,0.7710,0.6250,-0.0400,2.38,-1.22,2.38
148,401614516,0.7695,0.6250,-0.0459,2.13,-1.34,2.38
149,401619515,0.7705,0.6260,-0.0415,2.07,-1.28,2.20
150,401624516,0.7686,0.6250,-0.0415,2.07,-0.98,2.20
151,401629515,0.7651,0.6279,-0.0439,2.07,-1.04,2.13
152,401634516,0.7671,0.6270,-0.0444,2.20,-1.22,2.13
153,401639515,0.7632,0.6255,-0.0444,2.26,-1.10,2.01
154,401644516,0.7676,0.6270,-0.0449,2.50,-1.10,2.01
155,401649515,0.7603,0.6255,-0.0479,2.50,-1.04,1.89
156,401654516,0.7651,0.6196,-0.0454,2.68,-1.16,2.01
157,401659515,0.7666,0.6235,-0.0464,2.93,-1.04,1.89
158,401664518,0.7632,0.6221,-0.0513,2.99,-1.16,1.83
159,401669515,0.7651,0.6240,-0.0425,3.11,-1.10,1.89
160,401674516,0.7656,0.6221,-0.0474,3.35,-1.10,1.77
161,401679515,0.7607,0.6265,-0.0444,3.23,-1.10,1.83
162,401684516,0.7642,0.6250,-0.0444,3.35,-1.16,1.77
163,401689515,0.7651,0.6284,-0.0444,3.29,-1.10,1.65
164,401694516,0.7656,0.6270,-0.0454,3.23,-1.10,1.59
165,401699518,0.7646,0.6226,-0.0420,3.29,-0.98,1.52
166,401704516,0.7612,0.6226,-0.0396,3.23,-0.91,1.52
167,401709514,0.7661,0.6260,-0.0439,3.23,-0.85,1.59
168,401714516,0.7661,0.6226,-0.0435,3.05,-0.85,1.46
169,401719516,0.7681,0.6240,-0.0430,2.99,-0.85,1.40
170,401724516,0.7666,0.6211,-0.0488,2.80,-0.79,1.34
171,401729514,0.7627,0.6226,-0.0439,2.80,-0.85,1.16
172,401734516,0.7676,0.6211,-0.0425,2.56,-0.67,1.22
173,401739515,0.7656,0.6191,-0.0400,2.62,-0.73,1.04
174,401744516,0.7671,0.6221,-0.0479,2.50,-0.67,0.98
175,401749514,0.7676,0.6172,-0.0464,2.50,-0.61,0.98
176,401754517,0.7676,0.6167,-0.0503,2.50,-0.73,0.85
177,401759515,0.7656,0.6191,-0.0435,2.62,-0.73,0.79
178,401764518,0.7666,0.6196,-0.0439,2.62,-0.67,0.67
179,401769514,0.7754,0.6216,-0.0400,2.62,-0.67,0.37
180,401774516,0.7705,0.6162,-0.0391,2.74,-0.85,0.43
181,401779516,0.7686,0.6172,-0.0391,2.93,-0.73,0.18
182,401784516,0.7642,0.6167,-0.0405,3.05,-0.79,0.12
183,401789514,0.7686,0.6172,-0.0381,3.35,-0.73,0.06
184,401794516,0.7642,0.6201,-0.0410,3.23,-0.73,-0.06
185,401799517,0.7651,0.6187,-0.0459,3.29,-0.73,-0.24
186,401804516,0.7627,0.6196,-0.0415,3.41,-0.73,-0.30
187,401809516,0.7593,0.6230,-0.0444,3.48,-0.79,-0.37
188,401814516,0.7612,0.6245,-0.0430,3.48,-0.79,-0.55
189,401819516,0.7632,0.6260,-0.0464,3.60,-0.73,-0.61
190,401824516,0.7637,0.6260,-0.0449,3.48,-0.85,-0.67
191,401829514,0.7632,0.6265,-0.0444,3.54,-0.79,-0.79
192,401834517,0.7637,0.6289,-0.0474,3.48,-0.79,-0.79
193,401839516,0.7622,0.6328,-0.0396,3.54,-0.79,-0.91
194,401844515,0.7598,0.6309,-0.0439,3.48,-0.73,-1.04
195,401849516,0.7642,0.6323,-0.0400,3.48,-0.67,-1.04
196,401854516,0.7656,0.6343,-0.0410,3.48,-0.73,-1.04
197,401859516,0.7637,0.6333,-0.0459,3.29,-0.55,-1.04
198,401864516,0.7646,0.6362,-0.0439,3.41,-0.49,-1.10
199,401869517,0.7651,0.6353,-0.0449,3.29,-0.55,-0.98
200,401874516,0.7603,0.6382,-0.0454,3.23,-0.37,-0.98
201,401879516,0.7607,0.6372,-0.0488,3.29,-0.43,-0.91
202,401884516,0.7632,0.6372,-0.0532,3.29,-0.30,-0.98
203,401889516,0.7637,0.6382,-0.0522,3.54,-0.30,-0.79
204,401894516,0.7671,0.6377,-0.0518,3.54,-0.24,-0.79
205,401899516,0.7642,0.6387,-0.0483,3.60,-0.12,-0.85
206,401904516,0.7646,0.6426,-0.0498,3.72,0.00,-0.61
207,401909516,0.7710,0.6440,-0.0483,3.90,0.00,-0.49
208,401914516,0.7676,0.6460,-0.0503,3.90,0.06,-0.49
209,401919516,0.7720,0.6475,-0.0493,4.09,0.18,-0.24
210,401924516,0.7705,0.6460,-0.0444,4.09,0.24,-0.24
211,401929516,0.7695,0.6465,-0.0469,4.21,0.24,-0.12
212,401934517,0.7681,0.6436,-0.0420,4.15,0.24,0.06
213,401939516,0.7676,0.6465,-0.0498,4.02,0.43,0.18
214,401944516,0.7646,0.6479,-0.0498,3.90,0.43,0.30
215,401949516,0.7627,0.6499,-0.0508,3.84,0.67,0.43
216,401954939,0.7661,0.6489,-0.0498,3.72,0.67,0.61
217,401959574,0.7676,0.6494,-0.0430,3.60,0.79,0.79
218,401964516,0.7637,0.6489,-0.0464,3.48,0.79,0.79
219,401969517,0.7646,0.6504,-0.0420,3.29,0.85,0.98
220,401974516,0.7617,0.6470,-0.0459,3.29,1.04,1.10
221,401979516,0.7627,0.6504,-0.0503,3.23,0.85,1.22
222,401984516,0.7607,0.6499,-0.0435,3.05,1.04,1.34
223,401989516,0.7656,0.6509,-0.0420,3.17,0.98,1.34
224,401994516,0.7632,0.6489,-0.0391,3.05,1.10,1.46
225,401999517,0.7588,0.6475,-0.0410,3.11,1.10,1.46
226,402004516,0.7607,0.6484,-0.0405,3.05,0.91,1.71
227,402009516,0.7573,0.6499,-0.0396,3.05,1.10,1.65
228,402014516,0.7598,0.6455,-0.0322,3.11,1.10,1.77
229,402019517,0.7637,0.6465,-0.0376,3.35,1.04,1.95
230,402024516,0.7603,0.6479,-0.0312,3.29,0.98,1.95
231,402029516,0.7612,0.6450,-0.0366,3.29,0.85,2.20
232,402034516,0.7612,0.6445,-0.0347,3.41,0.85,2.32
233,402039516,0.7646,0.6440,-0.0327,3.35,0.91,2.32
234,402044516,0.7646,0.6416,-0.0303,3.29,0.91,2.44
235,402049516,0.7583,0.6445,-0.0391,3.23,0.79,2.44
236,402054516,0.7578,0.6460,-0.0254,3.17,0.73,2.50
237,402059516,0.7666,0.6421,-0.0327,3.17,0.79,2.56
238,402064516,0.7627,0.6382,-0.0303,3.17,0.61,2.62
239,402069516,0.7661,0.6411,-0.0308,2.87,0.67,2.56
240,402074517,0.7622,0.6372,-0.0229,2.93,0.55,2.62
241,402079516,0.7666,0.6372,-0.0293,2.93,0.43,2.68
242,402084516,0.7656,0.6372,-0.0293,2.80,0.43,2.68
243,402089516,0.7622,0.6372,-0.0244,2.93,0.30,2.68
244,402094516,0.7666,0.6372,-0.0239,2.87,0.37,2.74
245,402099517,0.7642,0.6382,-0.0352,2.80,0.00,2.74
246,402104516,0.7627,0.6377,-0.0283,2.93,0.00,2.74
247,402109516,0.7612,0.6382,-0.0225,3.05,-0.06,2.87
248,402114517,0.7651,0.6377,-0.0303,2.99,-0.24,2.87
249,402119516,0.7627,0.6396,-0.0342,2.99,-0.30,2.87
250,402124516,0.7593,0.6348,-0.0308,3.05,-0.30,2.80
251,402129721,0.7578,0.6382,-0.0278,3.11,-0.61,2.87
252,402134516,0.7573,0.6392,-0.0283,3.05,-0.67,2.93
253,402139514,0.7568,0.6348,-0.0293,3.05,-0.61,2.93
254,402144516,0.7583,0.6362,-0.0288,3.11,-0.79,2.87
255,402149516,0.7563,0.6343,-0.0278,3.11,-0.98,2.93
256,402154516,0.7583,0.6353,-0.0337,3.05,-1.04,2.87
257,402159516,0.7603,0.6362,-0.0327,3.11,-1.10,2.80
258,402164516,0.7622,0.6328,-0.0371,3.11,-1.22,2.87
259,402169516,0.7637,0.6338,-0.0337,2.99,-1.22,2.80
260,402174517,0.7627,0.6328,-0.0356,2.87,-1.40,2.87
261,402179516,0.7612,0.6309,-0.0298,2.80,-1.34,2.80
262,402184516,0.7646,0.6309,-0.0337,2.62,-1.46,2.80
263,402189515,0.7651,0.6372,-0.0317,2.50,-1.52,2.68
264,402194519,0.7651,0.6357,-0.0337,2.50,-1.52,2.74
265,402199516,0.7632,0.6333,-0.0308,2.26,-1.65,2.87
266,402204517,0.7607,0.6299,-0.0327,2.26,-1.52,2.80
267,402209516,0.7637,0.6323,-0.0273,2.07,-1.52,2.74
268,402214516,0.7656,0.6270,-0.0356,2.01,-1.65,2.68
269,402219517,0.7627,0.6260,-0.0332,1.95,-1.65,2.56
270,402224516,0.7642,0.6299,-0.0317,2.01,-1.83,2.62
271,402229516,0.7681,0.6318,-0.0259,2.01,-1.83,2.56
272,402234516,0.7661,0.6284,-0.0322,1.95,-1.83,2.44
273,402239514,0.7676,0.6284,-0.0269,2.01,-1.89,2.32
274,402244517,0.7656,0.6279,-0.0371,2.01,-1.89,2.38
275,402249516,0.7632,0.6255,-0.0337,2.20,-1.89,2.32
276,402254515,0.7666,0.6304,-0.0342,2.32,-2.01,2.13
277,402259516,0.7632,0.6289,-0.0327,2.38,-2.01,2.13
278,402264516,0.7632,0.6284,-0.0308,2.32,-2.07,2.13
279,402269516,0.7622,0.6289,-0.0303,2.44,-2.13,2.13
280,402274516,0.7627,0.6279,-0.0400,2.50,-2.07,2.01
281,402279517,0.7607,0.6323,-0.0371,2.56,-2.20,1.95
282,402284516,0.7617,0.6343,-0.0454,2.56,-2.13,2.07
283,402289516,0.7642,0.6318,-0.0396,2.62,-2.07,1.95
284,402294516,0.7627,0.6294,-0.0386,2.56,-1.95,1.95
285,402299514,0.7612,0.6338,-0.0415,2.56,-2.13,1.83
286,402304516,0.7637,0.6299,-0.0430,2.56,-1.89,1.83
287,402309515,0.7666,0.6299,-0.0444,2.50,-2.07,1.77
288,402314516,0.7622,0.6333,-0.0376,2.44,-2.07,1.83
289,402319514,0.7651,0.6304,-0.0430,2.38,-1.89,1.65
290,402324516,0.7627,0.6328,-0.0459,2.38,-1.89,1.71
291,402329515,0.7646,0.6357,-0.0498,2.26,-1.95,1.59
292,402334516,0.7676,0.6357,-0.0483,2.32,-1.95,1.65
293,402339514,0.7690,0.6348,-0.0483,2.32,-1.83,1.71
294,402344516,0.7646,0.6328,-0.0483,2.20,-1.77,1.59
295,402349516,0.7651,0.6348,-0.0469,2.32,-1.71,1.59
296,402354516,0.7646,0.6387,-0.0503,2.32,-1.59,1.65
297,402359514,0.7661,0.6367,-0.0435,2.26,-1.59,1.71
298,402364516,0.7612,0.6396,-0.0537,2.38,-1.46,1.71
299,402369515,0.7637,0.6372,-0.0488,2.38,-1.34,1.71
300,402374516,0.7622,0.6377,-0.0493,2.26,-1.22,1.77
301,402379516,0.7622,0.6377,-0.0474,2.44,-1.22,1.95
302,402384516,0.7646,0.6377,-0.0488,2.13,-1.10,2.01
303,402389515,0.7637,0.6357,-0.0508,2.20,-1.04,1.89
304,402394516,0.7671,0.6357,-0.0479,2.44,-0.79,2.01
305,402399514,0.7661,0.6416,-0.0518,2.44,-0.91,2.07
306,402404516,0.7690,0.6367,-0.0503,2.50,-0.79,2.26
307,402409517,0.7651,0.6328,-0.0479,2.56,-0.67,2.26
308,402414516,0.7666,0.6387,-0.0483,2.68,-0.49,2.32
309,402419514,0.7681,0.6392,-0.0459,2.80,-0.43,2.32
310,402424516,0.7700,0.6348,-0.0479,2.87,-0.37,2.32
311,402429951,0.7705,0.6362,-0.0474,2.99,-0.37,2.44
312,402434516,0.7681,0.6396,-0.0479,3.11,-0.24,2.44
313,402439515,0.7705,0.6372,-0.0444,3.17,-0.06,2.68
314,402444514,0.7681,0.6343,-0.0513,3.17,-0.12,2.68
315,402449516,0.7642,0.6392,-0.0498,3.17,0.12,2.68
316,402454516,0.7661,0.6401,-0.0483,3.23,0.24,2.74
317,402459515,0.7656,0.6353,-0.0439,3.35,0.18,2.80
318,402464516,0.7603,0.6338,-0.0425,3.23,0.30,2.93
319,402469515,0.7627,0.6348,-0.0386,3.23,0.37,2.80
320,402474516,0.7642,0.6318,-0.0400,3.05,0.18,2.93
321,402479516,0.7700,0.6338,-0.0376,3.05,0.43,2.87
322,402484516,0.7676,0.6328,-0.0459,3.11,0.37,2.87
323,402489514,0.7607,0.6323,-0.0371,2.99,0.43,2.87
324,402494516,0.7637,0.6299,-0.0483,3.17,0.43,2.80
325,402499515,0.7671,0.6279,-0.0415,3.23,0.37,2.80
326,402504516,0.7651,0.6274,-0.0415,3.17,0.43,2.80
327,402509514,0.7627,0.6265,-0.0356,3.41,0.55,2.74
328,402514516,0.7676,0.6284,-0.0391,3.54,0.61,2.68
329,402519515,0.7642,0.6270,-0.0391,3.54,0.43,2.62
330,402524516,0.7681,0.6299,-0.0396,3.72,0.37,2.68
331,402529514,0.7666,0.6279,-0.0381,3.72,0.55,2.56
332,402534516,0.7681,0.6274,-0.0415,3.90,0.55,2.62
333,402539515,0.7627,0.6265,-0.0410,3.90,0.61,2.56
334,402544516,0.7637,0.6289,-0.0439,3.78,0.43,2.44
335,402549830,0.7661,0.6289,-0.0396,3.90,0.61,2.50
336,402554516,0.7627,0.6279,-0.0342,3.90,0.67,2.50
337,402559516,0.7656,0.6304,-0.0352,3.84,0.67,2.44
338,402564516,0.7637,0.6235,-0.0356,3.66,0.49,2.26
339,402569514,0.7656,0.6274,-0.0361,3.60,0.43,2.38
340,402574517,0.7681,0.6299,-0.0361,3.41,0.37,2.26
341,402579515,0.7695,0.6274,-0.0337,3.29,0.43,2.26
342,402584518,0.7690,0.6274,-0.0327,3.17,0.55,2.07
343,402589514,0.7646,0.6260,-0.0347,3.23,0.43,2.13
344,402594516,0.7646,0.6250,-0.0312,3.17,0.43,2.01
345,402599516,0.7666,0.6245,-0.0371,3.11,0.37,2.07
346,402604516,0.7676,0.6245,-0.0332,3.23,0.30,2.07
347,402609515,0.7642,0.6260,-0.0283,3.23,0.24,2.01
348,402614518,0.7661,0.6255,-0.0283,3.54,0.12,1.89
349,402619514,0.7612,0.6289,-0.0288,3.54,0.18,1.83
350,402624516,0.7622,0.6245,-0.0303,3.78,0.12,1.77
351,402629516,0.7671,0.6265,-0.0317,3.96,0.00,1.65
352,402634516,0.7651,0.6279,-0.0298,4.09,-0.12,1.71
353,402639514,0.7656,0.6274,-0.0332,4.02,-0.12,1.65
354,402644516,0.7681,0.6309,-0.0288,4.21,-0.12,1.59
355,402649515,0.7651,0.6245,-0.0322,4.21,-0.37,1.59
356,402654515,0.7627,0.6274,-0.0386,4.21,-0.37,1.46
357,402659517,0.7646,0.6250,-0.0303,4.15,-0.49,1.40
358,402664516,0.7646,0.6274,-0.0278,4.02,-0.55,1.46
359,402669516,0.7607,0.6250,-0.0356,3.90,-0.61,1.40
360,402674516,0.7607,0.6289,-0.0322,3.78,-0.55,1.40
361,402679680,0.7637,0.6265,-0.0317,3.66,-0.55,1.40
362,402684517,0.7637,0.6270,-0.0352,3.48,-0.49,1.34
363,402689516,0.7637,0.6284,-0.0308,3.41,-0.61,1.34
364,402694516,0.7666,0.6289,-0.0347,3.35,-0.61,1.16
365,402699517,0.7642,0.6279,-0.0337,3.11,-0.55,1.10
366,402704517,0.7671,0.6279,-0.0327,3.11,-0.61,1.10
367,402709516,0.7651,0.6289,-0.0356,3.11,-0.73,0.85
368,402714516,0.7651,0.6274,-0.0356,3.17,-0.73,0.85
369,402719516,0.7661,0.6284,-0.0293,3.23,-0.85,0.91
370,402724516,0.7686,0.6309,-0.0322,3.23,-0.91,0.73
371,402729516,0.7671,0.6313,-0.0298,3.23,-0.85,0.79
372,402734516,0.7651,0.6299,-0.0371,3.35,-0.98,0.73
373,402739516,0.7710,0.6333,-0.0361,3.54,-0.98,0.67
374,402744516,0.7661,0.6343,-0.0386,3.60,-1.04,0.73
375,402749516,0.7637,0.6362,-0.0366,3.54,-1.10,0.73
376,402754516,0.7627,0.6353,-0.0371,3.66,-1.10,0.79
377,402759516,0.7642,0.6353,-0.0342,3.66,-0.91,0.79
378,402764516,0.7632,0.6387,-0.0396,3.66,-0.98,0.85
379,402769516,0.7632,0.6357,-0.0386,3.41,-0.85,0.85
380,402774516,0.7651,0.6338,-0.0371,3.48,-0.91,0.85
381,402779516,0.7671,0.6377,-0.0454,3.29,-0.85,0.91
382,402784516,0.7646,0.6396,-0.0376,3.11,-0.98,0.85
383,402789517,0.7671,0.6357,-0.0376,3.05,-0.79,0.98
384,402794516,0.7666,0.6396,-0.0376,2.99,-0.73,0.98
385,402799516,0.7656,0.6396,-0.0356,2.74,-0.73,1.04
386,402804516,0.7681,0.6396,-0.0415,2.68,-0.79,1.04
387,402809516,0.7710,0.6392,-0.0356,2.68,-0.73,1.10
388,402814516,0.7651,0.6416,-0.0352,2.56,-0.49,1.22
389,402819516,0.7646,0.6450,-0.0415,2.74,-0.67,1.34
390,402824516,0.7720,0.6426,-0.0381,2.87,-0.79,1.28
391,402829516,0.7661,0.6421,-0.0352,2.93,-0.67,1.52
392,402834516,0.7700,0.6411,-0.0420,2.99,-0.67,1.52
393,402839516,0.7681,0.6431,-0.0381,2.93,-0.79,1.65
394,402844517,0.7676,0.6416,-0.0420,3.11,-0.61,1.83
395,402849516,0.7632,0.6426,-0.0371,3.29,-0.73,1.89
396,402854516,0.7637,0.6431,-0.0371,3.41,-0.67,2.01
397,402859514,0.7607,0.6411,-0.0366,3.41,-0.67,2.13
398,402864516,0.7642,0.6431,-0.0361,3.35,-0.67,2.20
399,402869516,0.7666,0.6411,-0.0391,3.29,-0.61,2.26
400,402874516,0.7681,0.6411,-0.0347,3.29,-0.49,2.44
401,402879516,0.7651,0.6431,-0.0332,3.35,-0.61,2.56
402,402884516,0.7637,0.6421,-0.0371,3.23,-0.55,2.56
403,402889517,0.7627,0.6426,-0.0396,3.17,-0.67,2.62
404,402894516,0.7632,0.6411,-0.0391,3.05,-0.67,2.80
405,402899516,0.7671,0.6362,-0.0400,2.99,-0.43,2.74
406,402904516,0.7690,0.6367,-0.0386,2.80,-0.49,2.68
407,402909516,0.7651,0.6387,-0.0322,2.80,-0.55,2.87
408,402914516,0.7700,0.6367,-0.0312,2.80,-0.49,2.93
409,402919516,0.7666,0.6328,-0.0317,2.68,-0.43,2.99
410,402924516,0.7686,0.6372,-0.0288,2.68,-0.49,2.99
411,402929516,0.7681,0.6323,-0.0352,2.68,-0.49,2.99
412,402934516,0.7686,0.6333,-0.0352,2.68,-0.43,3.11
413,402939516,0.7695,0.6338,-0.0244,2.74,-0.49,3.11
414,402944516,0.7695,0.6313,-0.0342,2.80,-0.55,3.29
415,402949516,0.7710,0.6289,-0.0249,2.87,-0.61,3.05
416,402954516,0.7681,0.6304,-0.0322,2.93,-0.67,3.11
417,402959829,0.7671,0.6309,-0.0288,2.87,-0.73,3.05
418,402964516,0.7661,0.6313,-0.0288,2.93,-0.79,3.05
419,402969515,0.7676,0.6260,-0.0312,2.99,-0.73,3.05
420,402974516,0.7705,0.6245,-0.0220,2.99,-0.91,2.99
421,402979514,0.7646,0.6279,-0.0205,2.93,-1.10,2.93
422,402984517,0.7646,0.6289,-0.0234,2.99,-1.04,2.93
423,402989515,0.7642,0.6274,-0.0273,2.99,-1.10,2.80
424,402994518,0.7642,0.6294,-0.0288,2.99,-1.40,2.80
425,402999514,0.7612,0.6265,-0.0259,3.05,-1.46,2.74
426,403004516,0.7642,0.6250,-0.0264,3.17,-1.46,2.56
427,403009515,0.7632,0.6289,-0.0322,3.05,-1.65,2.68
428,403014516,0.7622,0.6250,-0.0317,2.99,-1.52,2.50
429,403019514,0.7637,0.6221,-0.0273,3.05,-1.65,2.50
430,403024516,0.7651,0.6245,-0.0317,2.93,-1.71,2.44
431,403029515,0.7627,0.6255,-0.0386,2.93,-1.77,2.32
432,403034516,0.7661,0.6255,-0.0278,2.68,-2.01,2.26
433,403039742,0.7681,0.6270,-0.0303,2.74,-1.89,2.13
434,403044516,0.7666,0.6226,-0.0283,2.62,-1.95,2.01
435,403049515,0.7671,0.6260,-0.0317,2.62,-1.95,2.07
436,403054516,0.7656,0.6240,-0.0269,2.74,-2.20,1.89
437,403059516,0.7661,0.6313,-0.0366,2.68,-2.07,1.89
438,403064516,0.7666,0.6284,-0.0327,2.68,-2.20,1.77
439,403069517,0.7686,0.6245,-0.0366,2.93,-2.26,1.77
440,403074516,0.7632,0.6255,-0.0381,2.99,-2.20,1.65
441,403079514,0.7656,0.6299,-0.0366,3.11,-2.26,1.65
442,403084515,0.7666,0.6299,-0.0337,3.11,-2.20,1.59
443,403089514,0.7676,0.6304,-0.0317,3.23,-2.26,1.65
444,403094516,0.7700,0.6294,-0.0435,3.17,-2.07,1.65
445,403099515,0.7700,0.6313,-0.0439,3.23,-2.07,1.65
446,403104516,0.7686,0.6323,-0.0405,3.17,-2.13,1.59
447,403109514,0.7666,0.6279,-0.0444,3.11,-2.13,1.59
448,403114518,0.7681,0.6299,-0.0391,3.05,-2.07,1.71
449,403119515,0.7686,0.6353,-0.0415,3.05,-1.95,1.71
450,403124516,0.7715,0.6333,-0.0425,2.93,-1.95,1.77
451,403129514,0.7725,0.6318,-0.0371,2.80,-1.71,1.77
452,403134516,0.7729,0.6313,-0.0444,2.87,-1.71,1.77
453,403139515,0.7705,0.6343,-0.0415,2.68,-1.71,1.89
454,403144516,0.7710,0.6372,-0.0420,2.68,-1.52,1.83
455,403149514,0.7705,0.6338,-0.0469,2.50,-1.52,1.95
456,403154516,0.7725,0.6362,-0.0410,2.62,-1.40,1.89
457,403159515,0.7690,0.6357,-0.0444,2.68,-1.40,2.01
458,403164514,0.7695,0.6338,-0.0444,2.74,-1.22,2.07
459,403169516,0.7676,0.6338,-0.0405,2.68,-1.16,2.20
460,403174515,0.7671,0.6357,-0.0361,2.74,-1.16,2.26
461,403179516,0.7695,0.6333,-0.0420,2.93,-1.10,2.26
462,403184516,0.7671,0.6362,-0.0464,2.99,-1.10,2.32
463,403189963,0.7700,0.6328,-0.0425,2.99,-1.04,2.26
464,403194516,0.7676,0.6362,-0.0410,2.87,-1.16,2.26
465,403199515,0.7666,0.6299,-0.0366,3.05,-0.91,2.32
466,403204516,0.7646,0.6284,-0.0400,3.05,-0.98,2.44
467,403209514,0.7646,0.6343,-0.0381,2.93,-0.85,2.32
468,403214516,0.7651,0.6338,-0.0396,2.99,-0.91,2.32
469,403219515,0.7661,0.6333,-0.0347,2.87,-0.91,2.20
470,403224516,0.7676,0.6313,-0.0347,2.80,-0.98,2.20
471,403229514,0.7671,0.6289,-0.0366,2.80,-0.91,2.26
472,403234516,0.7666,0.6289,-0.0405,2.68,-0.98,2.20
473,403239998,0.7642,0.6235,-0.0347,2.68,-0.91,2.26
474,403244518,0.7676,0.6255,-0.0347,2.62,-0.98,2.26
475,403249515,0.7656,0.6250,-0.0366,2.68,-0.98,2.20
476,403254516,0.7690,0.6294,-0.0347,2.62,-1.04,2.20
477,403259514,0.7715,0.6255,-0.0386,2.62,-1.04,2.13
478,403264518,0.7690,0.6245,-0.0332,2.74,-1.04,2.13
479,403269515,0.7686,0.6255,-0.0283,2.80,-1.04,2.13
480,403274516,0.7700,0.6270,-0.0337,2.87,-1.04,2.13
481,403279514,0.7720,0.6255,-0.0317,2.87,-1.04,2.13
482,403284516,0.7700,0.6250,-0.0298,3.05,-1.16,2.07
483,403289515,0.7676,0.6245,-0.0332,2.93,-1.22,2.07
484,403294516,0.7705,0.6274,-0.0347,3.11,-1.16,2.07
485,403299516,0.7690,0.6240,-0.0249,3.05,-1.28,1.95
486,403304516,0.7710,0.6260,-0.0254,3.11,-1.22,1.95
487,403309515,0.7671,0.6230,-0.0322,2.99,-1.22,1.77
488,403314516,0.7671,0.6226,-0.0361,3.05,-1.40,1.77
489,403319514,0.7671,0.6226,-0.0337,3.05,-1.40,1.77
490,403324516,0.7646,0.6187,-0.0298,2.99,-1.52,1.77
491,403329515,0.7627,0.6226,-0.0332,2.87,-1.59,1.71
492,403334516,0.7622,0.6279,-0.0283,2.87,-1.40,1.46
493,403339514,0.7651,0.6260,-0.0308,2.80,-1.65,1.46
494,403344516,0.7651,0.6279,-0.0342,2.74,-1.65,1.46
495,403349515,0.7617,0.6245,-0.0322,2.74,-1.77,1.46
496,403354516,0.7671,0.6226,-0.0332,2.68,-1.83,1.40
497,403359516,0.7646,0.6230,-0.0293,2.68,-1.83,1.40
498,403364516,0.7646,0.6250,-0.0273,2.68,-2.13,1.28
499,403369515,0.7695,0.6255,-0.0278,2.62,-2.01,1.34
500,403374515,0.7656,0.6274,-0.0283,2.87,-2.32,1.28
501,403379516,0.7710,0.6270,-0.0312,2.99,-2.32,1.22
502,403384516,0.7720,0.6270,-0.0298,3.17,-2.32,1.22
503,403389517,0.7754,0.6284,-0.0264,3.29,-2.44,1.22
504,403394516,0.7705,0.6255,-0.0342,3.41,-2.38,1.16
505,403399516,0.7725,0.6265,-0.0347,3.66,-2.62,1.28
506,403404516,0.7700,0.6309,-0.0430,3.66,-2.62,1.16
507,403409516,0.7720,0.6323,-0.0391,3.72,-2.50,1.34
508,403414517,0.7676,0.6284,-0.0425,3.72,-2.56,1.34
509,403419516,0.7676,0.6313,-0.0405,3.66,-2.50,1.34
510,403424516,0.7632,0.6313,-0.0381,3.66,-2.50,1.46
511,403429516,0.7676,0.6309,-0.0264,3.48,-2.44,1.46
512,403434516,0.7686,0.6304,-0.0386,3.41,-2.44,1.52
513,403439516,0.7681,0.6338,-0.0405,3.23,-2.56,1.52
514,403444516,0.7681,0.6362,-0.0410,2.99,-2.26,1.59
515,403449517,0.7681,0.6353,-0.0449,2.80,-2.32,1.59
516,403454516,0.7705,0.6372,-0.0381,2.56,-2.38,1.59
517,403459516,0.7686,0.6396,-0.0415,2.44,-2.20,1.65
518,403464516,0.7686,0.6377,-0.0371,2.26,-2.26,1.71
519,403469516,0.7681,0.6353,-0.0386,2.13,-2.20,1.77
520,403474516,0.7661,0.6357,-0.0327,2.07,-2.38,1.89
521,403479516,0.7686,0.6377,-0.0400,2.13,-2.20,1.83
522,403484516,0.7681,0.6362,-0.0410,2.20,-2.13,1.95
523,403489516,0.7651,0.6362,-0.0420,2.44,-2.20,2.07
524,403494516,0.7681,0.6362,-0.0410,2.62,-2.13,2.20
525,403499516,0.7686,0.6377,-0.0435,2.62,-2.01,2.26
526,403504517,0.7646,0.6357,-0.0420,2.80,-2.07,2.38
527,403509516,0.7715,0.6382,-0.0420,2.99,-1.95,2.44
528,403514516,0.7681,0.6333,-0.0459,2.99,-2.01,2.50
529,403519516,0.7710,0.6367,-0.0405,3.05,-1.89,2.68
530,403524516,0.7661,0.6377,-0.0342,2.93,-1.89,2.74
531,403529516,0.7705,0.6348,-0.0405,2.80,-1.89,2.74
532,403534516,0.7671,0.6372,-0.0376,2.62,-1.77,2.93
533,403539516,0.7710,0.6333,-0.0439,2.50,-1.83,2.87
534,403544516,0.7720,0.6333,-0.0396,2.26,-1.89,2.87
535,403549517,0.7725,0.6299,-0.0400,2.32,-1.83,2.93
536,403554516,0.7705,0.6377,-0.0410,2.07,-1.83,3.05
537,403559516,0.7690,0.6357,-0.0352,1.95,-1.89,2.99
538,403564516,0.7725,0.6294,-0.0410,1.95,-1.95,2.99
539,403569514,0.7686,0.6328,-0.0371,1.95,-1.89,2.99
540,403574518,0.7720,0.6313,-0.0352,2.07,-1.83,2.99
541,403579515,0.7720,0.6318,-0.0352,2.26,-1.95,3.11
542,403584516,0.7671,0.6343,-0.0376,2.38,-1.77,3.05
543,403589514,0.7734,0.6270,-0.0361,2.50,-1.83,3.05
544,403594516,0.7690,0.6323,-0.0415,2.68,-1.89,3.11
545,403599515,0.7646,0.6289,-0.0396,2.93,-1.83,3.23
546,403604516,0.7686,0.6289,-0.0420,2.99,-1.77,3.29
547,403609516,0.7642,0.6294,-0.0415,3.05,-1.77,3.23
548,403614516,0.7622,0.6309,-0.0415,3.23,-1.77,3.23
549,403619515,0.7637,0.6338,-0.0410,3.17,-1.77,3.29
550,403624516,0.7671,0.6318,-0.0376,2.93,-1.71,3.29
551,403629514,0.7720,0.6323,-0.0435,2.99,-1.71,3.41
552,403634516,0.7705,0.6279,-0.0405,2.80,-1.65,3.35
553,403639515,0.7676,0.6250,-0.0381,2.68,-1.89,3.41
554,403644516,0.7720,0.6265,-0.0386,2.26,-1.71,3.41
555,403649514,0.7705,0.6250,-0.0391,2.13,-1.71,3.29
556,403654518,0.7666,0.6255,-0.0439,2.01,-1.71,3.35
557,403659515,0.7705,0.6250,-0.0400,1.89,-1.71,3.41
558,403664516,0.7705,0.6221,-0.0386,1.77,-1.77,3.35
559,403669514,0.7686,0.6240,-0.0410,1.65,-1.71,3.23
560,403674516,0.7720,0.6235,-0.0386,1.65,-1.71,3.17
561,403679515,0.7710,0.6226,-0.0361,1.52,-1.65,3.23
562,403684516,0.7715,0.6226,-0.0391,1.52,-1.71,3.17
563,403689514,0.7739,0.6240,-0.0391,1.52,-1.65,3.05
564,403694516,0.7656,0.6201,-0.0322,1.52,-1.65,3.05
565,403699515,0.7700,0.6157,-0.0332,1.65,-1.65,3.05
566,403704516,0.7744,0.6206,-0.0322,1.71,-1.83,2.99
567,403709516,0.7720,0.6191,-0.0225,1.65,-1.95,2.99
568,403714516,0.7705,0.6211,-0.0332,1.89,-1.83,2.99
569,403719515,0.7686,0.6235,-0.0386,1.89,-1.95,2.80
570,403724516,0.7690,0.6226,-0.0283,1.95,-2.13,2.80
571,403729514,0.7690,0.6201,-0.0322,2.07,-2.20,2.68
572,403734516,0.7651,0.6221,-0.0308,2.26,-2.26,2.74
573,403739515,0.7637,0.6187,-0.0283,2.38,-2.32,2.62
574,403744516,0.7656,0.6226,-0.0371,2.38,-2.26,2.68
575,403749514,0.7666,0.6226,-0.0312,2.56,-2.38,2.68
576,403754516,0.7676,0.6201,-0.0400,2.56,-2.26,2.56
577,403759515,0.7681,0.6260,-0.0430,2.62,-2.50,2.56
578,403764516,0.7661,0.6245,-0.0332,2.50,-2.50,2.50
579,403769514,0.7671,0.6235,-0.0327,2.62,-2.56,2.38
580,403774516,0.7646,0.6274,-0.0317,2.44,-2.68,2.44
581,403779515,0.7646,0.6226,-0.0332,2.44,-2.68,2.38
582,403784516,0.7656,0.6191,-0.0356,2.26,-2.68,2.32
583,403789516,0.7695,0.6240,-0.0356,2.20,-2.87,2.38
584,403794516,0.7686,0.6250,-0.0356,2.07,-2.68,2.20
585,403799515,0.7690,0.6216,-0.0337,1.95,-2.87,2.26
586,403804517,0.7710,0.6235,-0.0371,1.77,-2.87,2.20
587,403809514,0.7710,0.6226,-0.0381,1.65,-2.80,2.20
588,403814518,0.7686,0.6260,-0.0400,1.65,-2.87,2.13
589,403819515,0.7744,0.6279,-0.0376,1.71,-2.87,2.13
590,403824516,0.7739,0.6250,-0.0386,1.59,-2.99,2.07
591,403829514,0.7749,0.6245,-0.0400,1.59,-3.11,2.07
592,403834516,0.7725,0.6255,-0.0415,1.65,-3.17,2.07
593,403839516,0.7788,0.6265,-0.0386,1.83,-2.99,2.07
594,403844516,0.7710,0.6211,-0.0449,2.07,-2.93,2.01
595,403849514,0.7666,0.6206,-0.0439,2.13,-3.05,2.07
596,403854516,0.7681,0.6270,-0.0444,2.50,-2.99,2.07
597,403859515,0.7661,0.6265,-0.0435,2.62,-2.99,2.13
598,403864516,0.7661,0.6294,-0.0503,2.68,-2.99,2.20
599,403869514,0.7686,0.6309,-0.0444,3.05,-2.93,2.20
600,403874516,0.7690,0.6250,-0.0444,3.35,-2.99,2.13
601,403879515,0.7656,0.6270,-0.0503,3.60,-2.68,2.20
602,403884518,0.7700,0.6304,-0.0503,3.60,-2.50,2.32
603,403889515,0.7700,0.6279,-0.0518,3.54,-2.50,2.32
604,403894517,0.7700,0.6304,-0.0513,3.54,-2.56,2.26
605,403899514,0.7681,0.6245,-0.0542,3.48,-2.56,2.32
606,403904517,0.7690,0.6260,-0.0488,3.23,-2.50,2.20
607,403909515,0.7710,0.6284,-0.0508,3.23,-2.26,2.32
608,403914518,0.7710,0.6284,-0.0469,3.05,-2.01,2.32
609,403919514,0.7729,0.6270,-0.0498,2.80,-2.01,2.26
610,403924516,0.7710,0.6284,-0.0479,2.56,-1.89,2.32
611,403929515,0.7725,0.6289,-0.0479,2.44,-1.95,2.38
612,403934516,0.7725,0.6274,-0.0479,2.26,-1.77,2.38
613,403939516,0.7734,0.6274,-0.0547,2.13,-1.77,2.32
614,403944515,0.7729,0.6255,-0.0542,2.13,-1.65,2.32
615,403949516,0.7686,0.6270,-0.0513,1.95,-1.59,2.38
616,403954516,0.7700,0.6235,-0.0532,2.01,-1.52,2.26
617,403959516,0.7715,0.6216,-0.0513,2.13,-1.46,2.38
618,403964517,0.7720,0.6245,-0.0454,2.13,-1.46,2.44
619,403969516,0.7729,0.6230,-0.0474,2.07,-1.22,2.44
620,403974516,0.7729,0.6265,-0.0464,2.13,-1.34,2.44
621,403979514,0.7700,0.6240,-0.0474,2.20,-1.28,2.38
622,403984516,0.7695,0.6240,-0.0415,2.38,-1.16,2.38
623,403989516,0.7700,0.6216,-0.0425,2.50,-1.22,2.32
624,403994515,0.7681,0.6245,-0.0469,2.50,-1.04,2.26
625,403999516,0.7700,0.6226,-0.0420,2.62,-1.04,2.32
626,404004516,0.7690,0.6177,-0.0420,2.56,-0.91,2.20
627,404009516,0.7710,0.6167,-0.0474,2.56,-1.10,2.26
628,404014522,0.7725,0.6206,-0.0449,2.62,-1.04,2.20
629,404019517,0.7705,0.6187,-0.0469,2.62,-1.10,2.13
630,404024516,0.7671,0.6191,-0.0459,2.68,-1.10,1.95
631,404029516,0.7710,0.6206,-0.0469,2.56,-1.16,1.95
632,404034516,0.7651,0.6191,-0.0464,2.62,-1.10,2.01
633,404039517,0.7676,0.6201,-0.0435,2.56,-1.10,1.83
634,404044516,0.7690,0.6206,-0.0425,2.44,-1.22,1.77
635,404049516,0.7642,0.6206,-0.0420,2.62,-1.22,1.59
636,404054516,0.7637,0.6191,-0.0400,2.50,-1.22,1.52
637,404059516,0.7681,0.6206,-0.0439,2.38,-1.16,1.52
638,404064516,0.7666,0.6196,-0.0410,2.38,-1.10,1.34
639,404069517,0.7617,0.6187,-0.0405,2.32,-1.16,1.28
640,404074517,0.7642,0.6172,-0.0469,2.50,-1.16,1.22
641,404079516,0.7656,0.6187,-0.0454,2.62,-1.16,1.16
642,404084516,0.7686,0.6221,-0.0449,2.68,-1.22,1.16
643,404089517,0.7651,0.6172,-0.0415,2.68,-1.22,1.04
644,404094516,0.7681,0.6187,-0.0435,2.93,-1.22,1.04
645,404099516,0.7729,0.6201,-0.0415,2.99,-1.16,0.98
646,404104516,0.7710,0.6172,-0.0371,3.23,-1.28,0.85
647,404109516,0.7739,0.6172,-0.0449,3.35,-1.16,0.79
648,404114517,0.7739,0.6201,-0.0396,3.41,-1.16,0.85
649,404119517,0.7710,0.6240,-0.0425,3.35,-1.16,0.79
650,404124516,0.7700,0.6216,-0.0493,3.54,-1.28,0.73
651,404129516,0.7695,0.6255,-0.0444,3.48,-1.40,0.85
652,404134516,0.7700,0.6279,-0.0444,3.48,-1.22,0.73
653,404139517,0.7656,0.6270,-0.0488,3.35,-1.22,0.79
654,404144575,0.7676,0.6245,-0.0405,3.35,-1.10,0.73
655,404149516,0.7690,0.6235,-0.0513,3.23,-1.04,0.73
656,404154516,0.7661,0.6279,-0.0513,3.17,-1.10,0.73
657,404159516,0.7705,0.6260,-0.0430,3.05,-0.91,0.73
658,404164516,0.7666,0.6284,-0.0444,2.87,-0.85,0.67
659,404169518,0.7695,0.6265,-0.0508,2.93,-0.85,0.73
660,404174516,0.7666,0.6294,-0.0449,2.68,-0.79,0.49
661,404179516,0.7705,0.6284,-0.0449,2.80,-0.67,0.55
662,404184516,0.7729,0.6274,-0.0508,2.68,-0.73,0.55
663,404189515,0.7700,0.6284,-0.0459,2.74,-0.61,0.49
664,404194519,0.7720,0.6274,-0.0459,2.62,-0.55,0.43
665,404199514,0.7681,0.6289,-0.0479,2.74,-0.55,0.55
666,404204517,0.7715,0.6299,-0.0449,2.87,-0.55,0.49
667,404209516,0.7642,0.6265,-0.0454,2.99,-0.67,0.49
668,404214515,0.7651,0.6289,-0.0459,3.11,-0.49,0.55
669,404219855,0.7661,0.6299,-0.0488,3.17,-0.49,0.55
670,404224518,0.7690,0.6348,-0.0513,3.17,-0.43,0.61
671,404229515,0.7671,0.6333,-0.0469,3.17,-0.24,0.73
672,404234516,0.7651,0.6299,-0.0474,3.17,-0.24,0.67
673,404239514,0.7720,0.6299,-0.0488,3.17,-0.18,0.73
674,404244516,0.7715,0.6299,-0.0430,3.17,-0.18,0.85
675,404249515,0.7690,0.6338,-0.0439,3.17,0.00,0.79
676,404254516,0.7690,0.6294,-0.0464,2.99,0.12,0.85
677,404259514,0.7715,0.6284,-0.0474,2.93,0.18,0.79
678,404264516,0.7646,0.6338,-0.0454,2.80,0.06,0.85
679,404269516,0.7739,0.6304,-0.0464,2.68,0.18,0.85
680,404274516,0.7676,0.6313,-0.0405,2.68,0.24,0.91
681,404279514,0.7729,0.6309,-0.0454,2.68,0.37,0.91
682,404284516,0.7690,0.6338,-0.0493,2.68,0.24,0.98
683,404289516,0.7690,0.6318,-0.0459,2.74,0.43,0.98
684,404294514,0.7690,0.6328,-0.0454,2.99,0.18,1.10
685,404299516,0.7715,0.6357,-0.0464,2.99,0.24,1.10
686,404304515,0.7637,0.6362,-0.0464,3.17,0.24,1.16
687,404309516,0.7666,0.6328,-0.0439,3.29,0.30,1.16
688,404314516,0.7646,0.6353,-0.0444,3.29,0.30,1.28
689,404319516,0.7646,0.6328,-0.0425,3.41,0.43,1.28
690,404324683,0.7646,0.6323,-0.0391,3.54,0.37,1.40
691,404329520,0.7695,0.6323,-0.0444,3.54,0.30,1.46
692,404334800,0.7666,0.6357,-0.0483,3.48,0.43,1.46
693,404339516,0.7617,0.6338,-0.0405,3.48,0.37,1.59
694,404344522,0.7686,0.6372,-0.0376,3.41,0.37,1.65
695,404349516,0.7700,0.6353,-0.0444,3.35,0.37,1.65
696,404354605,0.7715,0.6367,-0.0366,3.17,0.18,1.59
697,404359516,0.7681,0.6357,-0.0415,3.11,0.30,1.59
698,404364515,0.7681,0.6328,-0.0391,3.05,0.30,1.71
699,404369516,0.7676,0.6348,-0.0376,2.93,0.37,1.77
700,404374516,0.7646,0.6304,-0.0405,2.87,0.30,1.71
701,404379517,0.7661,0.6318,-0.0430,2.80,0.18,1.71
702,404384516,0.7637,0.6294,-0.0405,2.87,0.24,1.77
703,404389514,0.7661,0.6294,-0.0356,2.80,0.18,1.83
704,404394516,0.7627,0.6309,-0.0381,2.68,0.00,1.89
705,404399516,0.7661,0.6274,-0.0371,2.74,0.12,1.95
706,404404515,0.7676,0.6265,-0.0322,2.93,0.12,1.89
707,404409516,0.7715,0.6265,-0.0352,2.93,0.00,2.01
708,404414516,0.7676,0.6279,-0.0347,2.87,-0.06,1.95
709,404419517,0.7656,0.6250,-0.0381,2.93,-0.12,2.01
710,404424516,0.7642,0.6255,-0.0366,2.99,-0.18,1.83
711,404429516,0.7671,0.6289,-0.0352,3.05,-0.12,1.77
712,404434517,0.7681,0.6270,-0.0352,2.93,-0.24,1.83
713,404439514,0.7666,0.6255,-0.0337,3.05,-0.49,1.77
714,404444516,0.7666,0.6313,-0.0312,3.05,-0.43,1.65
715,404449516,0.7651,0.6313,-0.0288,3.17,-0.67,1.71
716,404454516,0.7637,0.6284,-0.0293,3.23,-0.73,1.71
717,404459516,0.7637,0.6274,-0.0361,3.11,-0.79,1.71
718,404464517,0.7622,0.6299,-0.0327,3.11,-0.91,1.77
719,404469516,0.7642,0.6284,-0.0322,3.05,-0.85,1.65
720,404474516,0.7651,0.6309,-0.0308,3.11,-0.98,1.59
721,404479516,0.7671,0.6284,-0.0347,3.17,-1.10,1.52
722,404484516,0.7642,0.6255,-0.0303,3.05,-1.16,1.52
723,404489516,0.7666,0.6265,-0.0322,3.11,-1.22,1.52
724,404494514,0.7642,0.6313,-0.0298,2.93,-1.34,1.59
725,404499516,0.7671,0.6265,-0.0303,2.80,-1.34,1.52
726,404504515,0.7651,0.6284,-0.0278,2.62,-1.28,1.52
727,404509516,0.7686,0.6294,-0.0347,2.74,-1.46,1.59
728,404514514,0.7695,0.6270,-0.0327,2.50,-1.59,1.40
729,404519516,0.7700,0.6289,-0.0366,2.44,-1.59,1.46
730,404524515,0.7715,0.6284,-0.0352,2.44,-1.52,1.40
731,404529516,0.7700,0.6284,-0.0332,2.26,-1.77,1.46
732,404534514,0.7725,0.6279,-0.0347,2.26,-1.77,1.40
733,404539518,0.7715,0.6279,-0.0317,2.32,-1.95,1.46
734,404544515,0.7681,0.6304,-0.0400,2.32,-1.89,1.46
735,404549518,0.7739,0.6323,-0.0371,2.44,-1.77,1.40
736,404554631,0.7700,0.6299,-0.0303,2.44,-1.89,1.40
737,404559516,0.7671,0.6323,-0.0337,2.56,-1.89,1.40
738,404564515,0.7656,0.6357,-0.0396,2.56,-2.07,1.40
739,404569516,0.7666,0.6309,-0.0381,2.74,-1.89,1.46
740,404574514,0.7666,0.6333,-0.0405,2.80,-1.89,1.46
741,404579518,0.7617,0.6343,-0.0356,2.87,-2.01,1.52
742,404584515,0.7656,0.6338,-0.0405,3.05,-1.95,1.59
743,404589516,0.7661,0.6313,-0.0391,2.99,-1.89,1.59
744,404594516,0.7632,0.6309,-0.0439,2.99,-1.89,1.65
745,404599514,0.7671,0.6338,-0.0474,2.99,-1.83,1.65
746,404604516,0.7676,0.6357,-0.0439,2.93,-1.89,1.71
747,404609516,0.7676,0.6328,-0.0410,2.93,-1.95,1.77
748,404614516,0.7700,0.6343,-0.0444,2.99,-1.71,1.83
749,404619516,0.7681,0.6323,-0.0508,2.87,-1.71,1.89
750,404624516,0.7671,0.6333,-0.0430,2.74,-1.65,1.95
751,404629516,0.7661,0.6328,-0.0449,2.74,-1.52,2.01
752,404634516,0.7695,0.6353,-0.0493,2.87,-1.46,2.01
753,404639516,0.7729,0.6318,-0.0356,2.74,-1.52,2.07
754,404644517,0.7715,0.6328,-0.0469,2.74,-1.28,2.13
755,404649516,0.7739,0.6309,-0.0396,2.68,-1.46,2.20
756,404654516,0.7686,0.6323,-0.0430,2.68,-1.34,2.20
757,404659516,0.7783,0.6299,-0.0435,2.56,-1.34,2.32
758,404664517,0.7715,0.6323,-0.0439,2.62,-1.34,2.20
759,404669516,0.7695,0.6304,-0.0449,2.56,-1.22,2.26
760,404674516,0.7695,0.6343,-0.0439,2.50,-1.28,2.26
761,404679517,0.7690,0.6313,-0.0439,2.50,-1.28,2.20
762,404684516,0.7690,0.6318,-0.0425,2.62,-1.22,2.32
763,404689516,0.7661,0.6338,-0.0396,2.68,-1.10,2.26
764,404694516,0.7676,0.6323,-0.0420,2.56,-0.91,2.26
765,404699517,0.7666,0.6318,-0.0435,2.56,-0.91,2.32
766,404704516,0.7642,0.6328,-0.0454,2.56,-0.98,2.38
767,404709516,0.7622,0.6313,-0.0439,2.56,-0.85,2.32
768,404714516,0.7637,0.6318,-0.0503,2.50,-0.98,2.26
769,404719516,0.7681,0.6323,-0.0464,2.74,-0.79,2.44
770,404724516,0.7671,0.6333,-0.0444,2.87,-0.73,2.32
771,404729516,0.7676,0.6309,-0.0435,2.74,-0.61,2.44
772,404734516,0.7661,0.6260,-0.0410,2.74,-0.55,2.38
773,404739516,0.7676,0.6313,-0.0430,2.68,-0.49,2.38
774,404744516,0.7725,0.6270,-0.0488,2.74,-0.43,2.44
775,404749516,0.7715,0.6260,-0.0430,2.56,-0.43,2.50
776,404754516,0.7715,0.6299,-0.0425,2.56,-0.18,2.56
777,404759517,0.7690,0.6270,-0.0469,2.44,-0.18,2.50
778,404764516,0.7720,0.6294,-0.0425,2.44,-0.18,2.44
779,404769516,0.7720,0.6284,-0.0439,2.32,-0.06,2.56
780,404774520,0.7700,0.6235,-0.0439,2.38,-0.06,2.44
781,404779516,0.7690,0.6270,-0.0366,2.38,-0.06,2.44
782,404784516,0.7642,0.6245,-0.0405,2.38,-0.12,2.44
783,404789516,0.7705,0.6250,-0.0405,2.44,-0.24,2.26
784,404794516,0.7671,0.6235,-0.0352,2.32,-0.18,2.32
785,404799544,0.7642,0.6265,-0.0405,2.38,-0.18,2.26
786,404804516,0.7651,0.6230,-0.0356,2.56,-0.12,2.13
787,404809516,0.7646,0.6240,-0.0347,2.62,-0.18,2.20
788,404814516,0.7656,0.6226,-0.0366,2.68,-0.18,2.07
789,404819516,0.7651,0.6216,-0.0366,2.80,-0.24,2.13
790,404824516,0.7646,0.6221,-0.0356,2.80,-0.18,2.07
791,404829637,0.7705,0.6206,-0.0308,2.99,-0.30,1.95
792,404834516,0.7700,0.6211,-0.0317,3.11,-0.37,1.83
793,404839516,0.7700,0.6245,-0.0312,2.99,-0.43,1.77
794,404844517,0.7686,0.6226,-0.0269,3.11,-0.55,1.71
795,404849516,0.7671,0.6182,-0.0317,3.11,-0.55,1.65
796,404854516,0.7676,0.6187,-0.0361,3.05,-0.61,1.52
797,404859516,0.7671,0.6230,-0.0361,2.99,-0.61,1.40
798,404864516,0.7646,0.6216,-0.0361,2.93,-0.67,1.46
799,404869516,0.7656,0.6221,-0.0337,2.93,-0.91,1.40
800,404874516,0.7666,0.6206,-0.0303,2.93,-0.79,1.34
801,404879516,0.7705,0.6245,-0.0337,2.87,-0.73,1.28
802,404884516,0.7695,0.6221,-0.0312,2.87,-0.85,1.22
803,404889516,0.7690,0.6240,-0.0283,2.87,-0.79,1.10
804,404894516,0.7705,0.6226,-0.0342,2.68,-0.79,1.10
805,404899516,0.7695,0.6196,-0.0356,2.68,-0.67,1.10
806,404904514,0.7700,0.6191,-0.0322,2.62,-0.98,0.98
807,404909516,0.7661,0.6226,-0.0317,2.80,-0.91,0.98
808,404914515,0.7661,0.6230,-0.0327,2.68,-1.04,0.85
809,404919516,0.7676,0.6230,-0.0322,2.68,-1.16,0.79
810,404924514,0.7671,0.6235,-0.0278,2.62,-1.22,0.79
811,404929516,0.7686,0.6265,-0.0361,2.56,-1.34,0.79
812,404934515,0.7686,0.6289,-0.0293,2.56,-1.28,0.73
813,404939516,0.7690,0.6240,-0.0239,2.74,-1.28,0.79
814,404944515,0.7671,0.6265,-0.0308,2.62,-1.28,0.79
815,404949518,0.7681,0.6260,-0.0342,2.62,-1.46,0.73
816,404954514,0.7681,0.6304,-0.0361,2.68,-1.46,0.67
817,404959516,0.7666,0.6304,-0.0371,2.87,-1.46,0.67
818,404964517,0.7651,0.6343,-0.0337,2.87,-1.59,0.61
819,404969516,0.7681,0.6309,-0.0366,2.74,-1.46,0.67
820,404974514,0.7646,0.6294,-0.0327,2.68,-1.40,0.61
821,404979518,0.7651,0.6304,-0.0381,2.74,-1.34,0.55
822,404984515,0.7686,0.6294,-0.0405,2.62,-1.65,0.55
823,404989516,0.7681,0.6299,-0.0405,2.56,-1.34,0.49
824,404994514,0.7690,0.6318,-0.0347,2.26,-1.40,0.49
825,404999516,0.7710,0.6353,-0.0366,2.26,-1.34,0.55
826,405004515,0.7690,0.6357,-0.0386,2.20,-1.34,0.61
827,405009517,0.7700,0.6333,-0.0371,2.07,-1.34,0.61
828,405014516,0.7681,0.6343,-0.0361,2.13,-1.46,0.61
829,405019516,0.7686,0.6367,-0.0371,2.07,-1.22,0.67
830,405024516,0.7720,0.6367,-0.0327,2.20,-1.46,0.73
831,405029517,0.7661,0.6387,-0.0425,2.26,-1.34,0.79
832,405034688,0.7690,0.6421,-0.0371,2.38,-1.34,0.79
833,405039516,0.7676,0.6372,-0.0381,2.44,-1.40,0.91
834,405044516,0.7676,0.6416,-0.0396,2.56,-1.40,1.10
835,405049516,0.7705,0.6431,-0.0454,2.62,-1.40,1.10
836,405054516,0.7671,0.6392,-0.0405,2.80,-1.34,1.10
837,405059516,0.7676,0.6387,-0.0381,2.80,-1.34,1.34
838,405064516,0.7676,0.6392,-0.0410,2.87,-1.28,1.40
839,405069517,0.7627,0.6396,-0.0376,2.87,-1.28,1.52
840,405074516,0.7671,0.6392,-0.0347,2.93,-1.28,1.59
841,405079516,0.7666,0.6411,-0.0361,2.99,-1.16,1.77
842,405084516,0.7642,0.6406,-0.0396,2.87,-1.10,1.65
843,405089517,0.7710,0.6387,-0.0405,2.80,-1.16,1.77
844,405094516,0.7666,0.6401,-0.0391,2.80,-1.10,1.89
845,405099516,0.7661,0.6401,-0.0381,2.80,-1.16,2.01
846,405104516,0.7637,0.6411,-0.0415,2.68,-0.98,2.01
847,405109517,0.7681,0.6396,-0.0381,2.62,-0.91,2.01
848,405114516,0.7632,0.6372,-0.0386,2.38,-0.79,2.20
849,405119516,0.7656,0.6343,-0.0376,2.38,-0.91,2.32
850,405124516,0.7666,0.6323,-0.0381,2.32,-0.79,2.38
851,405129516,0.7695,0.6357,-0.0342,2.20,-0.85,2.32
852,405134516,0.7661,0.6304,-0.0317,2.13,-0.79,2.44
853,405139545,0.7686,0.6343,-0.0352,2.07,-0.79,2.32
854,405144516,0.7666,0.6328,-0.0293,1.95,-0.98,2.38
855,405149516,0.7715,0.6343,-0.0361,2.01,-0.98,2.38
856,405154515,0.7690,0.6323,-0.0332,2.01,-0.91,2.44
857,405159516,0.7695,0.6313,-0.0317,2.01,-0.79,2.44
858,405164516,0.7710,0.6309,-0.0342,1.83,-1.04,2.38
859,405169517,0.7705,0.6284,-0.0322,2.01,-1.04,2.38
860,405174515,0.7695,0.6323,-0.0322,1.95,-1.10,2.38
861,405179519,0.7627,0.6318,-0.0327,2.13,-1.16,2.38
862,405184518,0.7681,0.6289,-0.0356,2.20,-1.22,2.32
863,405189514,0.7661,0.6235,-0.0317,2.13,-1.16,2.32
864,405194519,0.7661,0.6245,-0.0259,2.20,-1.16,2.38
865,405199514,0.7637,0.6274,-0.0293,2.32,-1.28,2.32
866,405204518,0.7671,0.6274,-0.0269,2.26,-1.22,2.32
867,405209514,0.7666,0.6265,-0.0278,2.32,-1.28,2.32
868,405214516,0.7642,0.6245,-0.0288,2.26,-1.34,2.32
869,405219516,0.7612,0.6270,-0.0327,2.26,-1.40,2.26
870,405224516,0.7671,0.6265,-0.0288,2.20,-1.46,2.01
871,405229514,0.7646,0.6260,-0.0273,2.20,-1.65,2.07
872,405234518,0.7627,0.6245,-0.0298,2.07,-1.65,2.01
873,405239681,0.7646,0.6216,-0.0249,2.01,-1.77,1.89
874,405244516,0.7637,0.6289,-0.0254,1.89,-1.77,1.77
875,405249514,0.7681,0.6279,-0.0293,1.83,-1.95,1.71
876,405254518,0.7632,0.6279,-0.0312,1.89,-1.89,1.71
877,405259514,0.7671,0.6245,-0.0322,1.83,-1.95,1.52
878,405264516,0.7676,0.6279,-0.0288,1.83,-2.13,1.52
879,405269514,0.7666,0.6250,-0.0342,1.89,-2.20,1.46
880,405274516,0.7656,0.6255,-0.0356,1.95,-2.13,1.40
881,405279518,0.7656,0.6294,-0.0356,2.20,-2.13,1.40
882,405284516,0.7666,0.6304,-0.0361,2.32,-2.20,1.46
883,405289515,0.7681,0.6279,-0.0322,2.50,-2.20,1.40
884,405294516,0.7666,0.6318,-0.0391,2.50,-2.26,1.40
885,405299515,0.7695,0.6274,-0.0317,2.68,-2.44,1.40
886,405304516,0.7656,0.6299,-0.0420,2.68,-2.26,1.34
887,405309515,0.7695,0.6309,-0.0366,2.93,-2.26,1.34
888,405314516,0.7666,0.6323,-0.0332,2.87,-2.26,1.46
889,405319516,0.7690,0.6313,-0.0376,2.93,-2.26,1.46
890,405324516,0.7666,0.6318,-0.0381,2.87,-2.26,1.59
891,405329516,0.7695,0.6328,-0.0410,2.74,-2.20,1.65
892,405334517,0.7681,0.6338,-0.0400,2.68,-2.20,1.71
893,405339516,0.7725,0.6343,-0.0405,2.68,-2.20,1.52
894,405344516,0.7681,0.6333,-0.0361,2.50,-2.20,1.65
895,405349516,0.7676,0.6338,-0.0400,2.38,-2.07,1.65
896,405354515,0.7700,0.6382,-0.0410,2.32,-2.01,1.59
897,405359516,0.7661,0.6362,-0.0405,2.20,-2.01,1.77
898,405364516,0.7725,0.6367,-0.0405,2.13,-1.89,1.65
899,405369517,0.7671,0.6357,-0.0459,2.13,-1.95,1.71
900,405374515,0.7661,0.6357,-0.0371,2.01,-1.83,1.71
901,405379547,0.7681,0.6357,-0.0425,2.01,-1.77,1.71
902,405384516,0.7686,0.6343,-0.0400,1.95,-1.83,1.77
903,405389518,0.7676,0.6353,-0.0386,1.95,-1.77,1.83
904,405394617,0.7671,0.6353,-0.0322,2.01,-1.71,1.83
905,405399515,0.7666,0.6333,-0.0381,2.01,-1.71,1.89
906,405404516,0.7676,0.6353,-0.0376,2.07,-1.59,1.89
907,405409515,0.7651,0.6333,-0.0381,1.95,-1.65,1.95
908,405414516,0.7676,0.6289,-0.0376,2.01,-1.59,2.01
909,405419516,0.7705,0.6309,-0.0405,2.07,-1.65,1.95
910,405424516,0.7646,0.6328,-0.0386,2.07,-1.65,2.01
911,405429515,0.7642,0.6304,-0.0376,2.01,-1.59,2.07
912,405434516,0.7700,0.6328,-0.0342,2.01,-1.65,2.01
913,405439515,0.7700,0.6304,-0.0386,2.13,-1.59,2.07
914,405444516,0.7676,0.6284,-0.0327,1.95,-1.71,2.01
915,405449515,0.7690,0.6372,-0.0381,2.01,-1.65,1.89
916,405454516,0.7686,0.6343,-0.0327,1.95,-1.83,1.89
917,405459515,0.7671,0.6353,-0.0303,2.07,-1.89,1.83
918,405464518,0.7646,0.6313,-0.0312,2.01,-1.95,1.89
919,405469515,0.7637,0.6304,-0.0312,2.01,-1.89,1.89
920,405474516,0.7661,0.6313,-0.0356,1.89,-2.01,2.01
921,405479515,0.7637,0.6304,-0.0376,1.83,-2.01,1.89
922,405484516,0.7651,0.6328,-0.0347,1.83,-2.20,1.89
923,405489516,0.7632,0.6323,-0.0376,2.01,-2.32,1.95
924,405494516,0.7642,0.6313,-0.0327,2.01,-2.20,1.83
925,405499524,0.7627,0.6367,-0.0293,2.01,-2.26,1.89
926,405504518,0.7632,0.6309,-0.0352,1.95,-2.44,1.89
927,405509515,0.7671,0.6357,-0.0342,2.20,-2.44,1.89
928,405514514,0.7627,0.6367,-0.0366,2.20,-2.44,1.89
929,405519518,0.7661,0.6357,-0.0308,2.20,-2.50,1.95
930,405524516,0.7690,0.6338,-0.0356,2.26,-2.50,1.89
931,405529517,0.7671,0.6357,-0.0347,2.13,-2.68,1.95
932,405534515,0.7695,0.6382,-0.0327,2.26,-2.68,2.01
933,405539516,0.7666,0.6362,-0.0317,2.20,-2.80,2.13
934,405544516,0.7676,0.6357,-0.0298,2.13,-2.99,2.07
935,405549516,0.7661,0.6372,-0.0332,2.13,-3.05,2.26
936,405554515,0.7666,0.6353,-0.0308,2.20,-3.11,2.38
937,405559516,0.7607,0.6338,-0.0376,2.07,-3.11,2.32
938,405564516,0.7603,0.6357,-0.0352,2.20,-3.29,2.44
939,405569516,0.7593,0.6343,-0.0317,2.20,-3.23,2.50
940,405574515,0.7607,0.6348,-0.0381,2.26,-3.29,2.56
941,405579517,0.7637,0.6377,-0.0332,2.20,-3.35,2.62
942,405584516,0.7617,0.6372,-0.0332,2.26,-3.35,2.62
943,405589516,0.7681,0.6387,-0.0366,2.44,-3.41,2.62
944,405594515,0.7666,0.6372,-0.0347,2.62,-3.48,2.68
945,405599608,0.7651,0.6387,-0.0317,2.68,-3.29,2.87
946,405604515,0.7681,0.6396,-0.0356,2.80,-3.54,2.87
947,405609517,0.7676,0.6362,-0.0347,2.80,-3.48,3.05
948,405614516,0.7705,0.6372,-0.0381,2.80,-3.48,3.05
949,405619517,0.7705,0.6367,-0.0376,2.87,-3.72,3.11
950,405624515,0.7686,0.6396,-0.0454,2.80,-3.60,3.17
951,405629516,0.7686,0.6377,-0.0435,2.87,-3.84,3.29
952,405634516,0.7686,0.6396,-0.0464,2.68,-3.66,3.48
953,405639516,0.7676,0.6392,-0.0396,2.50,-3.78,3.54
954,405644517,0.7676,0.6396,-0.0459,2.38,-3.66,3.60
955,405649516,0.7666,0.6382,-0.0386,2.07,-3.72,3.66
956,405654516,0.7681,0.6396,-0.0444,2.07,-3.72,3.60
957,405659516,0.7700,0.6357,-0.0420,1.89,-3.54,3.72
958,405664515,0.7671,0.6343,-0.0381,1.65,-3.48,3.60
959,405669516,0.7666,0.6333,-0.0444,1.59,-3.60,3.72
960,405674516,0.7690,0.6343,-0.0391,1.34,-3.54,3.72
961,405679516,0.7671,0.6338,-0.0410,1.10,-3.48,3.78
962,405684515,0.7676,0.6333,-0.0439,1.04,-3.41,3.78
963,405689516,0.7671,0.6294,-0.0391,0.91,-3.41,3.72
964,405694516,0.7646,0.6274,-0.0396,0.98,-3.35,3.84
965,405699516,0.7690,0.6294,-0.0444,0.91,-3.35,3.78
966,405704515,0.7686,0.6333,-0.0420,0.98,-3.41,3.84
967,405709516,0.7695,0.6348,-0.0430,1.16,-3.48,3.96
968,405714516,0.7690,0.6289,-0.0425,1.28,-3.35,3.96
969,405719516,0.7646,0.6294,-0.0474,1.40,-3.29,4.02
970,405724515,0.7661,0.6299,-0.0454,1.52,-3.35,3.96
971,405729516,0.7627,0.6245,-0.0415,1.65,-3.35,4.09
972,405735036,0.7651,0.6294,-0.0449,1.83,-3.41,3.90
973,405739516,0.7676,0.6284,-0.0508,1.95,-3.29,4.09
974,405744516,0.7720,0.6245,-0.0483,1.89,-3.17,4.02
975,405749516,0.7705,0.6260,-0.0508,2.01,-3.17,3.96
976,405754515,0.7671,0.6245,-0.0493,1.95,-3.23,4.02
977,405759516,0.7690,0.6221,-0.0449,1.89,-3.05,3.90
978,405764516,0.7686,0.6255,-0.0464,1.89,-2.99,3.84
979,405769516,0.7690,0.6250,-0.0454,2.01,-3.05,3.84
980,405774514,0.7686,0.6226,-0.0527,2.01,-2.99,3.72
981,405779516,0.7695,0.6240,-0.0527,2.01,-2.93,3.72
982,405784516,0.7734,0.6211,-0.0410,2.01,-2.80,3.72
983,405789516,0.7734,0.6240,-0.0483,2.07,-2.80,3.66
984,405794515,0.7734,0.6245,-0.0518,2.26,-2.62,3.60
985,405799516,0.7754,0.6245,-0.0513,2.32,-2.62,3.60
986,405804516,0.7729,0.6250,-0.0527,2.44,-2.56,3.54
987,405809516,0.7681,0.6221,-0.0552,2.50,-2.44,3.60
988,405814517,0.7686,0.6201,-0.0444,2.56,-2.38,3.54
989,405819516,0.7720,0.6201,-0.0581,2.56,-2.13,3.54
990,405824515,0.7715,0.6221,-0.0522,2.50,-2.20,3.54
991,405829794,0.7754,0.6226,-0.0498,2.62,-1.95,3.54
992,405834516,0.7759,0.6235,-0.0591,2.32,-2.01,3.54
993,405839515,0.7734,0.6191,-0.0532,2.44,-1.83,3.41
994,405844514,0.7729,0.6162,-0.0547,2.26,-1.89,3.35
995,405849517,0.7700,0.6191,-0.0532,2.20,-1.89,3.29
996,405854515,0.7749,0.6187,-0.0498,2.13,-1.65,3.29
997,405859516,0.7700,0.6196,-0.0547,1.95,-1.71,3.29
998,405864516,0.7690,0.6182,-0.0513,1.95,-1.40,3.23
999,405869515,0.7729,0.6177,-0.0547,1.89,-1.59,3.23
1000,405874516,0.7759,0.6182,-0.0562,1.83,-1.34,3.17
1001,405879515,0.7705,0.6147,-0.0527,1.83,-1.28,3.11
1002,405884516,0.7671,0.6162,-0.0503,1.77,-1.28,3.05
1003,405889515,0.7710,0.6157,-0.0562,2.07,-1.04,2.93
1004,405894517,0.7705,0.6147,-0.0571,2.07,-0.98,2.99
1005,405899515,0.7715,0.6138,-0.0449,2.07,-0.73,2.87
1006,405904516,0.7695,0.6147,-0.0474,2.26,-0.79,2.68
1007,405909516,0.7715,0.6147,-0.0518,2.26,-0.73,2.56
1008,405914516,0.7695,0.6162,-0.0513,2.32,-0.67,2.50
1009,405919515,0.7715,0.6123,-0.0498,2.44,-0.61,2.38
1010,405924516,0.7686,0.6138,-0.0469,2.50,-0.61,2.38
1011,405929516,0.7681,0.6147,-0.0474,2.56,-0.43,2.20
1012,405934516,0.7700,0.6157,-0.0435,2.68,-0.49,2.07
1013,405939515,0.7681,0.6147,-0.0503,2.68,-0.49,1.89
1014,405944516,0.7656,0.6162,-0.0405,2.87,-0.55,1.83
1015,405949515,0.7695,0.6157,-0.0488,2.99,-0.49,1.77
1016,405954517,0.7666,0.6147,-0.0493,3.05,-0.49,1.77
1017,405959515,0.7690,0.6128,-0.0459,3.17,-0.49,1.71
1018,405964516,0.7686,0.6147,-0.0391,3.29,-0.43,1.65
1019,405969515,0.7681,0.6182,-0.0498,3.23,-0.49,1.59
1020,405974516,0.7700,0.6172,-0.0479,3.23,-0.30,1.46
1021,405979515,0.7734,0.6182,-0.0439,3.29,-0.43,1.46
1022,405984516,0.7729,0.6152,-0.0449,3.29,-0.37,1.40
1023,405989515,0.7700,0.6152,-0.0459,3.41,-0.24,1.40
1024,405994518,0.7754,0.6172,-0.0444,3.23,-0.30,1.34
1025,405999515,0.7725,0.6162,-0.0415,3.23,-0.24,1.16
1026,406004516,0.7759,0.6196,-0.0386,3.05,-0.30,1.16
1027,406009516,0.7783,0.6177,-0.0464,3.17,-0.37,1.10
1028,406014516,0.7793,0.6177,-0.0410,3.11,-0.30,1.04
1029,406019515,0.7749,0.6211,-0.0410,3.05,-0.37,0.98
1030,406024516,0.7754,0.6216,-0.0400,3.11,-0.43,0.91
1031,406029516,0.7744,0.6226,-0.0371,3.17,-0.30,0.85
1032,406034516,0.7749,0.6226,-0.0415,3.17,-0.30,0.85
1033,406039515,0.7744,0.6226,-0.0405,3.05,-0.43,0.85
1034,406044516,0.7710,0.6201,-0.0400,3.17,-0.49,0.85
1035,406049515,0.7705,0.6230,-0.0361,3.29,-0.49,0.79
1036,406054517,0.7700,0.6230,-0.0396,3.29,-0.49,0.85
1037,406059515,0.7686,0.6265,-0.0405,3.29,-0.49,0.85
1038,406064516,0.7710,0.6289,-0.0400,3.35,-0.67,0.79
1039,406069515,0.7671,0.6304,-0.0371,3.48,-0.61,0.91
1040,406074516,0.7681,0.6299,-0.0400,3.60,-0.67,0.91
1041,406079515,0.7686,0.6270,-0.0410,3.72,-0.61,1.04
1042,406084518,0.7715,0.6304,-0.0425,3.84,-0.55,1.16
1043,406089515,0.7681,0.6309,-0.0386,3.78,-0.61,1.04
1044,406094516,0.7671,0.6313,-0.0439,3.78,-0.61,1.16
1045,406099515,0.7686,0.6328,-0.0405,3.66,-0.67,1.22
1046,406104516,0.7710,0.6309,-0.0435,3.60,-0.55,1.28
1047,406109515,0.7734,0.6328,-0.0396,3.60,-0.67,1.40
1048,406114519,0.7700,0.6318,-0.0347,3.41,-0.67,1.46
1049,406119515,0.7695,0.6328,-0.0430,3.29,-0.61,1.46
1050,406124516,0.7729,0.6333,-0.0327,2.93,-0.67,1.59
1051,406129516,0.7705,0.6348,-0.0352,2.93,-0.79,1.77
1052,406134514,0.7695,0.6299,-0.0420,2.74,-0.85,1.65
1053,406139516,0.7715,0.6294,-0.0386,2.80,-0.73,1.77
1054,406144516,0.7710,0.6309,-0.0391,2.62,-0.61,1.77
1055,406149517,0.7715,0.6367,-0.0366,2.62,-0.79,1.83
1056,406154515,0.7695,0.6353,-0.0454,2.68,-0.67,1.83
1057,406159516,0.7690,0.6318,-0.0415,2.68,-0.85,1.95
1058,406164516,0.7715,0.6304,-0.0405,2.68,-0.85,2.07
1059,406169516,0.7734,0.6328,-0.0396,2.74,-0.73,2.13
1060,406174515,0.7651,0.6289,-0.0342,2.80,-0.85,2.20
1061,406179516,0.7690,0.6313,-0.0371,2.80,-0.98,2.38
1062,406184516,0.7725,0.6323,-0.0410,2.99,-0.85,2.26
1063,406189515,0.7695,0.6323,-0.0352,2.93,-0.98,2.44
1064,406194518,0.7690,0.6309,-0.0356,2.87,-0.91,2.50
1065,406199516,0.7686,0.6304,-0.0361,2.93,-0.98,2.62
1066,406204516,0.7749,0.6284,-0.0435,2.99,-1.16,2.62
1067,406209517,0.7744,0.6313,-0.0366,2.87,-1.16,2.74
1068,406214514,0.7715,0.6323,-0.0376,2.80,-1.04,2.80
1069,406219516,0.7749,0.6299,-0.0322,2.62,-1.10,2.80
1070,406224516,0.7754,0.6294,-0.0376,2.56,-1.22,2.87
1071,406229516,0.7778,0.6313,-0.0312,2.50,-1.10,2.87
1072,406234516,0.7686,0.6309,-0.0288,2.32,-1.22,2.93
1073,406239516,0.7729,0.6294,-0.0381,2.26,-1.22,2.87
1074,406244516,0.7681,0.6274,-0.0327,2.07,-1.34,2.99
1075,406249516,0.7744,0.6289,-0.0356,2.01,-1.34,2.93
1076,406254515,0.7720,0.6255,-0.0317,1.89,-1.40,3.11
1077,406259516,0.7681,0.6294,-0.0356,1.71,-1.40,3.11
1078,406264516,0.7705,0.6284,-0.0366,1.65,-1.59,3.17
1079,406269516,0.7744,0.6284,-0.0352,1.59,-1.71,3.11
1080,406274515,0.7700,0.6245,-0.0342,1.52,-1.65,3.17
1081,406279516,0.7720,0.6250,-0.0449,1.52,-1.83,3.17
1082,406284516,0.7710,0.6245,-0.0396,1.59,-1.65,3.11
1083,406289516,0.7686,0.6226,-0.0366,1.71,-1.71,3.17
1084,406294515,0.7700,0.6274,-0.0391,1.77,-1.83,3.29
1085,406299516,0.7734,0.6211,-0.0396,1.77,-1.89,3.29
1086,406304516,0.7681,0.6240,-0.0381,1.95,-1.89,3.23
1087,406309516,0.7681,0.6235,-0.0347,2.01,-1.77,3.29
1088,406314515,0.7734,0.6270,-0.0405,2.13,-1.83,3.48
1089,406319517,0.7715,0.6235,-0.0381,2.26,-1.83,3.54
1090,406324676,0.7715,0.6250,-0.0317,2.20,-1.89,3.41
1091,406329517,0.7759,0.6274,-0.0322,2.32,-2.07,3.41
1092,406334514,0.7744,0.6226,-0.0386,2.20,-2.13,3.48
1093,406339515,0.7725,0.6216,-0.0376,2.07,-2.07,3.48
1094,406344518,0.7720,0.6206,-0.0400,2.01,-2.13,3.35
1095,406349515,0.7720,0.6230,-0.0396,2.01,-2.13,3.35
1096,406354665,0.7749,0.6226,-0.0400,1.83,-2.07,3.41
1097,406359516,0.7710,0.6187,-0.0420,1.59,-2.13,3.29
1098,406364516,0.7690,0.6221,-0.0444,1.71,-2.07,3.48
1099,406369516,0.7651,0.6201,-0.0449,1.71,-2.01,3.29
1100,406374515,0.7710,0.6187,-0.0474,1.59,-2.07,3.29
1101,406379516,0.7681,0.6162,-0.0449,1.71,-1.95,3.23
1102,406384516,0.7729,0.6206,-0.0483,1.59,-1.95,3.23
1103,406389516,0.7725,0.6172,-0.0479,1.77,-2.07,3.17
1104,406394514,0.7773,0.6182,-0.0435,1.77,-1.89,3.11
1105,406399516,0.7759,0.6201,-0.0435,1.95,-1.89,3.17
1106,406404515,0.7764,0.6201,-0.0444,1.95,-1.95,3.11
1107,406409517,0.7764,0.6216,-0.0464,2.01,-1.71,3.05
1108,406414515,0.7764,0.6201,-0.0444,1.95,-1.71,3.17
1109,406419516,0.7769,0.6172,-0.0449,2.20,-1.83,3.11
1110,406424516,0.7729,0.6196,-0.0415,2.07,-1.71,3.11
1111,406429515,0.7739,0.6191,-0.0464,2.13,-1.77,3.29
1112,406434516,0.7729,0.6177,-0.0430,2.13,-1.65,3.17
1113,406439515,0.7739,0.6211,-0.0479,2.13,-1.52,3.23
1114,406444516,0.7720,0.6172,-0.0449,2.13,-1.40,3.11
1115,406449515,0.7700,0.6196,-0.0532,2.07,-1.40,3.23
1116,406454516,0.7695,0.6211,-0.0488,2.07,-1.34,3.17
1117,406459515,0.7715,0.6187,-0.0430,1.95,-1.28,3.11
1118,406464517,0.7749,0.6162,-0.0420,1.95,-1.28,3.05
1119,406469515,0.7739,0.6128,-0.0435,1.95,-1.16,2.93
1120,406474516,0.7729,0.6157,-0.0508,1.89,-1.16,2.93
1121,406479515,0.7783,0.6143,-0.0513,1.95,-0.91,2.74
1122,406484516,0.7725,0.6133,-0.0513,1.83,-0.98,2.80
1123,406489515,0.7759,0.6162,-0.0464,2.01,-0.91,2.80
1124,406494516,0.7764,0.6162,-0.0464,2.07,-0.91,2.74
1125,406499516,0.7798,0.6143,-0.0425,2.20,-0.79,2.74
1126,406504516,0.7769,0.6138,-0.0449,2.32,-0.85,2.56
1127,406509515,0.7783,0.6162,-0.0459,2.68,-0.73,2.50
1128,406514516,0.7798,0.6133,-0.0400,2.80,-0.73,2.62
1129,406519515,0.7827,0.6152,-0.0488,3.05,-0.55,2.74
1130,406524518,0.7778,0.6133,-0.0488,3.17,-0.61,2.68
1131,406529515,0.7773,0.6206,-0.0474,3.35,-0.49,2.62
1132,406534516,0.7744,0.6147,-0.0503,3.60,-0.49,2.62
1133,406539515,0.7749,0.6196,-0.0454,3.60,-0.43,2.74
1134,406544588,0.7744,0.6177,-0.0474,3.72,-0.43,2.74
1135,406549516,0.7734,0.6206,-0.0518,3.66,-0.30,2.62
1136,406554516,0.7773,0.6162,-0.0435,3.60,-0.24,2.80
1137,406559516,0.7739,0.6143,-0.0454,3.54,-0.18,2.62
1138,406564517,0.7769,0.6133,-0.0493,3.48,-0.12,2.56
1139,406569516,0.7773,0.6172,-0.0420,3.35,-0.06,2.62
1140,406574515,0.7778,0.6167,-0.0464,3.23,0.06,2.50
1141,406579516,0.7773,0.6152,-0.0396,3.23,0.12,2.44
1142,406584516,0.7754,0.6157,-0.0474,3.17,0.00,2.38
1143,406589516,0.7749,0.6167,-0.0439,3.11,0.00,2.26
1144,406594515,0.7749,0.6167,-0.0454,3.11,0.06,2.44
1145,406599516,0.7744,0.6167,-0.0391,2.93,0.12,2.32
1146,406604516,0.7749,0.6099,-0.0361,2.99,0.12,2.32
1147,406609516,0.7759,0.6182,-0.0420,3.05,0.12,2.26
1148,406614515,0.7744,0.6143,-0.0435,3.05,0.18,2.13
1149,406619517,0.7715,0.6133,-0.0400,3.17,0.18,2.26
1150,406624516,0.7734,0.6162,-0.0371,3.05,0.18,2.26
1151,406629517,0.7759,0.6138,-0.0376,3.11,0.18,2.13
1152,406634516,0.7754,0.6162,-0.0376,3.17,0.24,1.95
1153,406639515,0.7739,0.6108,-0.0376,3.17,0.24,1.89
1154,406644516,0.7744,0.6118,-0.0381,3.05,0.24,1.71
1155,406649516,0.7778,0.6128,-0.0322,3.11,0.06,1.71
1156,406654516,0.7739,0.6104,-0.0332,3.11,0.06,1.65
1157,406659516,0.7773,0.6138,-0.0322,3.05,0.00,1.65
1158,406664515,0.7754,0.6118,-0.0327,3.11,-0.18,1.59
1159,406669516,0.7788,0.6108,-0.0347,3.17,-0.12,1.46
1160,406674516,0.7715,0.6104,-0.0317,3.23,-0.12,1.22
1161,406679516,0.7739,0.6084,-0.0308,3.23,-0.43,1.22
1162,406684514,0.7739,0.6113,-0.0278,3.23,-0.37,1.10
1163,406689515,0.7720,0.6108,-0.0312,3.29,-0.37,1.04
1164,406694516,0.7744,0.6123,-0.0366,3.41,-0.37,0.91
1165,406699515,0.7710,0.6128,-0.0322,3.35,-0.43,0.85
1166,406704516,0.7710,0.6113,-0.0288,3.48,-0.67,0.79
1167,406709515,0.7725,0.6138,-0.0298,3.41,-0.67,0.67
1168,406714516,0.7710,0.6133,-0.0361,3.48,-0.55,0.67
1169,406719515,0.7725,0.6182,-0.0352,3.48,-0.73,0.61
1170,406724516,0.7739,0.6123,-0.0322,3.23,-0.67,0.61
1171,406729515,0.7710,0.6152,-0.0376,3.23,-0.79,0.43
1172,406734516,0.7705,0.6172,-0.0332,2.99,-0.67,0.43
1173,406739516,0.7749,0.6182,-0.0352,2.93,-0.91,0.37
1174,406744514,0.7759,0.6167,-0.0376,2.99,-0.85,0.30
1175,406749516,0.7739,0.6250,-0.0376,2.87,-0.79,0.18
1176,406754516,0.7759,0.6211,-0.0337,2.87,-0.85,0.18
1177,406759515,0.7749,0.6270,-0.0391,2.80,-0.85,0.18
1178,406764516,0.7725,0.6230,-0.0400,2.68,-0.98,0.18
1179,406769515,0.7725,0.6279,-0.0376,2.68,-0.98,0.24
1180,406774517,0.7749,0.6250,-0.0391,2.80,-0.91,0.30
1181,406779515,0.7749,0.6284,-0.0376,2.74,-0.91,0.30
1182,406784516,0.7778,0.6265,-0.0405,2.62,-0.85,0.37
1183,406789515,0.7764,0.6294,-0.0376,2.74,-0.79,0.49
1184,406794516,0.7729,0.6265,-0.0400,2.74,-0.85,0.49
1185,406799515,0.7749,0.6235,-0.0439,2.80,-0.91,0.55
1186,406804516,0.7744,0.6255,-0.0396,2.74,-0.91,0.67
1187,406809515,0.7783,0.6294,-0.0386,2.74,-0.98,0.61
1188,406814516,0.7769,0.6289,-0.0396,2.80,-0.85,0.79
1189,406819515,0.7773,0.6294,-0.0376,2.87,-0.91,0.79
1190,406824518,0.7744,0.6289,-0.0391,2.87,-0.79,0.91
1191,406829515,0.7715,0.6284,-0.0391,2.87,-0.79,0.98
1192,406834516,0.7788,0.6304,-0.0449,2.99,-0.79,1.04
1193,406839515,0.7715,0.6318,-0.0439,2.93,-0.67,1.16
1194,406844516,0.7710,0.6318,-0.0449,3.05,-0.67,1.22
1195,406849514,0.7715,0.6279,-0.0420,2.93,-0.67,1.28
1196,406854516,0.7754,0.6274,-0.0391,2.93,-0.55,1.40
1197,406859515,0.7754,0.6284,-0.0430,2.93,-0.55,1.46
1198,406864516,0.7734,0.6270,-0.0405,2.80,-0.43,1.40
1199,406869515,0.7725,0.6289,-0.0391,2.93,-0.49,1.65
1200,406874517,0.7729,0.6309,-0.0342,2.87,-0.37,1.65
1201,406879515,0.7710,0.6270,-0.0415,2.68,-0.49,1.65
1202,406884516,0.7729,0.6289,-0.0405,2.87,-0.30,1.77
1203,406889515,0.7725,0.6289,-0.0381,2.80,-0.30,1.83
1204,406894516,0.7739,0.6279,-0.0444,2.68,-0.37,1.89
1205,406899515,0.7739,0.6255,-0.0410,2.68,-0.43,1.95
1206,406904516,0.7720,0.6284,-0.0361,2.62,-0.61,2.01
1207,406909516,0.7705,0.6255,-0.0396,2.68,-0.43,2.07
1208,406914516,0.7749,0.6255,-0.0376,2.62,-0.43,2.13
1209,406919515,0.7749,0.6245,-0.0356,2.62,-0.61,2.07
1210,406924516,0.7729,0.6284,-0.0371,2.74,-0.55,2.20
1211,406929516,0.7725,0.6274,-0.0337,2.93,-0.49,2.20
1212,406934516,0.7764,0.6230,-0.0410,2.80,-0.55,2.26
1213,406939516,0.7710,0.6216,-0.0337,2.93,-0.61,2.32
1214,406944516,0.7744,0.6230,-0.0347,3.11,-0.55,2.26
1215,406949515,0.7705,0.6226,-0.0352,3.05,-0.43,2.32
1216,406954516,0.7734,0.6294,-0.0298,3.11,-0.43,2.13
1217,406959516,0.7769,0.6206,-0.0352,3.11,-0.55,2.20
1218,406964516,0.7739,0.6226,-0.0342,3.11,-0.73,2.26
1219,406969516,0.7764,0.6211,-0.0356,3.17,-0.67,2.13
1220,406974515,0.7734,0.6167,-0.0371,2.93,-0.61,2.20
1221,406979516,0.7778,0.6206,-0.0366,3.05,-0.67,2.07
1222,406984516,0.7764,0.6196,-0.0308,2.80,-0.61,2.13
1223,406989516,0.7754,0.6187,-0.0327,2.74,-0.79,2.07
1224,406994515,0.7734,0.6187,-0.0376,2.62,-0.67,2.01
1225,406999516,0.7734,0.6172,-0.0352,2.50,-0.67,1.89
1226,407004843,0.7764,0.6162,-0.0288,2.44,-0.67,1.89
1227,407009516,0.7764,0.6167,-0.0283,2.32,-0.79,1.83
1228,407014516,0.7705,0.6187,-0.0352,2.13,-1.04,1.77
1229,407019516,0.7744,0.6187,-0.0332,2.13,-0.79,1.77
1230,407024515,0.7700,0.6157,-0.0371,2.13,-0.98,1.71
1231,407029517,0.7715,0.6143,-0.0322,2.26,-0.91,1.65
1232,407034515,0.7690,0.6152,-0.0381,2.20,-1.10,1.52
1233,407039516,0.7690,0.6187,-0.0322,2.50,-1.16,1.40
1234,407044517,0.7715,0.6162,-0.0278,2.44,-1.10,1.40
1235,407049516,0.7759,0.6118,-0.0347,2.62,-1.16,1.40
1236,407054514,0.7778,0.6152,-0.0332,2.62,-1.28,1.28
1237,407059515,0.7739,0.6172,-0.0312,2.80,-1.28,1.22
1238,407064516,0.7739,0.6162,-0.0254,2.68,-1.34,1.16
1239,407069515,0.7729,0.6143,-0.0293,2.74,-1.46,1.04
1240,407074518,0.7690,0.6162,-0.0273,2.62,-1.40,1.10
1241,407079515,0.7734,0.6230,-0.0269,2.56,-1.59,1.04
1242,407084516,0.7705,0.6162,-0.0278,2.44,-1.34,0.98
1243,407089515,0.7690,0.6133,-0.0264,2.32,-1.46,0.85
1244,407094516,0.7754,0.6157,-0.0337,2.07,-1.71,0.85
1245,407099515,0.7729,0.6187,-0.0273,2.01,-1.65,0.85
1246,407104516,0.7695,0.6177,-0.0288,2.01,-1.77,0.61
1247,407109515,0.7734,0.6201,-0.0322,1.89,-1.71,0.67
1248,407114519,0.7769,0.6196,-0.0332,1.77,-1.77,0.55
1249,407119515,0.7734,0.6167,-0.0308,1.65,-1.77,0.49
1250,407124516,0.7778,0.6226,-0.0322,1.71,-1.89,0.49
1251,407129515,0.7759,0.6191,-0.0288,1.83,-1.77,0.43
1252,407134516,0.7773,0.6226,-0.0396,1.71,-1.95,0.37
1253,407139515,0.7754,0.6230,-0.0361,1.71,-2.07,0.43
1254,407144516,0.7744,0.6230,-0.0317,1.89,-2.13,0.30
1255,407149516,0.7764,0.6279,-0.0273,1.89,-2.26,0.49
1256,407154514,0.7764,0.6279,-0.0278,2.01,-2.13,0.49
1257,407159516,0.7778,0.6274,-0.0356,2.13,-2.26,0.67
1258,407164516,0.7690,0.6240,-0.0371,2.13,-2.13,0.73
1259,407169516,0.7720,0.6274,-0.0371,2.13,-2.13,0.79
1260,407174516,0.7734,0.6304,-0.0381,2.26,-2.13,0.85
1261,407179516,0.7764,0.6333,-0.0400,2.32,-2.07,0.85
1262,407184517,0.7700,0.6309,-0.0381,2.26,-2.01,1.04
1263,407189515,0.7695,0.6338,-0.0479,2.26,-2.01,0.98
1264,407194519,0.7710,0.6343,-0.0410,2.26,-2.07,0.98
1265,407199516,0.7764,0.6338,-0.0405,2.07,-2.07,0.98
1266,407204515,0.7720,0.6357,-0.0425,2.07,-2.01,1.10
1267,407209516,0.7705,0.6313,-0.0415,1.89,-1.95,1.22
1268,407214516,0.7710,0.6318,-0.0459,1.71,-1.95,1.22
1269,407219517,0.7725,0.6348,-0.0400,1.71,-1.95,1.34
1270,407224516,0.7725,0.6333,-0.0386,1.71,-1.83,1.34
1271,407229516,0.7734,0.6387,-0.0425,1.65,-1.89,1.52
1272,407234516,0.7749,0.6367,-0.0469,1.52,-1.77,1.65
1273,407239516,0.7725,0.6348,-0.0459,1.52,-1.65,1.71
1274,407244516,0.7686,0.6362,-0.0454,1.46,-1.65,1.89
1275,407249516,0.7739,0.6343,-0.0435,1.65,-1.65,2.01
1276,407254516,0.7744,0.6367,-0.0439,1.77,-1.77,2.20
1277,407259516,0.7729,0.6333,-0.0439,2.01,-1.59,2.32
1278,407264516,0.7710,0.6304,-0.0425,2.13,-1.65,2.44
1279,407269516,0.7739,0.6362,-0.0439,2.20,-1.71,2.50
1280,407274516,0.7700,0.6357,-0.0464,2.50,-1.59,2.68
1281,407279517,0.7749,0.6362,-0.0493,2.56,-1.52,2.68
1282,407284516,0.7769,0.6353,-0.0488,2.87,-1.46,2.80
1283,407289516,0.7734,0.6348,-0.0488,2.93,-1.34,2.87
1284,407294516,0.7725,0.6328,-0.0449,2.93,-1.34,2.93
1285,407299517,0.7744,0.6328,-0.0464,2.99,-1.40,3.11
1286,407304516,0.7729,0.6323,-0.0464,2.99,-1.22,3.17
1287,407309515,0.7744,0.6274,-0.0449,3.05,-1.22,3.29
1288,407314518,0.7725,0.6338,-0.0420,2.87,-1.04,3.35
1289,407319515,0.7749,0.6309,-0.0474,2.68,-1.04,3.41
1290,407324514,0.7764,0.6284,-0.0430,2.62,-0.85,3.54
1291,407329516,0.7773,0.6279,-0.0503,2.56,-0.73,3.66
1292,407334517,0.7759,0.6260,-0.0454,2.32,-0.67,3.72
1293,407339515,0.7744,0.6235,-0.0464,2.13,-0.55,3.66
1294,407344516,0.7793,0.6221,-0.0425,2.07,-0.49,3.78
1295,407349515,0.7783,0.6230,-0.0405,1.95,-0.49,3.72
1296,407354516,0.7749,0.6211,-0.0361,1.95,-0.18,3.66
1297,407359516,0.7754,0.6216,-0.0449,1.89,-0.24,3.78
1298,407364516,0.7759,0.6221,-0.0381,1.83,-0.24,3.66
1299,407369515,0.7729,0.6201,-0.0400,1.89,-0.30,3.72
1300,407374516,0.7759,0.6201,-0.0371,1.95,-0.30,3.66
1301,407379515,0.7783,0.6201,-0.0366,2.01,-0.30,3.60
1302,407384516,0.7744,0.6167,-0.0347,2.32,-0.30,3.41
1303,407389515,0.7769,0.6187,-0.0356,2.38,-0.30,3.48
1304,407394516,0.7715,0.6147,-0.0278,2.50,-0.30,3.35
1305,407399515,0.7734,0.6167,-0.0361,2.80,-0.37,3.35
1306,407404516,0.7671,0.6172,-0.0356,2.99,-0.43,3.29
1307,407409515,0.7656,0.6108,-0.0342,3.17,-0.43,3.23
1308,407414514,0.7720,0.6128,-0.0327,3.35,-0.55,3.17
1309,407419516,0.7710,0.6172,-0.0371,3.41,-0.37,3.11
1310,407424515,0.7729,0.6113,-0.0317,3.48,-0.37,3.17
1311,407429518,0.7705,0.6147,-0.0356,3.54,-0.37,3.05
1312,407434516,0.7739,0.6147,-0.0356,3.54,-0.43,2.99
1313,407439515,0.7695,0.6123,-0.0332,3.29,-0.55,2.87
1314,407444516,0.7739,0.6118,-0.0337,3.23,-0.49,2.80
1315,407449515,0.7769,0.6138,-0.0327,3.05,-0.49,2.68
1316,407454516,0.7764,0.6099,-0.0293,2.99,-0.55,2.44
1317,407459516,0.7754,0.6113,-0.0352,2.80,-0.55,2.32
1318,407464514,0.7729,0.6099,-0.0356,2.56,-0.55,2.20
1319,407469516,0.7754,0.6128,-0.0361,2.62,-0.67,2.01
1320,407474516,0.7739,0.6108,-0.0332,2.62,-0.73,1.95
1321,407479516,0.7725,0.6099,-0.0347,2.56,-0.67,2.01
1322,407484516,0.7725,0.6084,-0.0332,2.56,-0.73,1.77
1323,407489516,0.7710,0.6118,-0.0303,2.62,-0.67,1.65
1324,407494516,0.7773,0.6104,-0.0317,2.68,-0.85,1.71
1325,407499516,0.7749,0.6104,-0.0283,2.74,-0.98,1.59
1326,407504516,0.7705,0.6133,-0.0283,2.80,-0.85,1.65
1327,407509516,0.7744,0.6147,-0.0308,2.99,-0.85,1.52
1328,407514516,0.7773,0.6138,-0.0322,3.11,-0.98,1.46
1329,407519516,0.7769,0.6108,-0.0317,3.23,-0.98,1.40
1330,407524735,0.7754,0.6191,-0.0322,3.29,-0.98,1.34
1331,407529516,0.7759,0.6143,-0.0278,3.41,-0.98,1.34
1332,407534516,0.7749,0.6133,-0.0352,3.29,-0.98,1.22
1333,407539516,0.7739,0.6182,-0.0376,3.35,-1.04,1.22
1334,407544516,0.7715,0.6138,-0.0332,3.29,-0.98,1.16
1335,407549522,0.7729,0.6167,-0.0361,3.29,-0.98,1.10
1336,407554515,0.7759,0.6216,-0.0352,3.11,-0.91,1.10
1337,407559514,0.7744,0.6216,-0.0303,3.11,-0.98,1.10
1338,407564514,0.7744,0.6226,-0.0317,3.11,-1.04,0.98
1339,407569516,0.7725,0.6226,-0.0366,2.99,-0.98,1.10
1340,407574516,0.7725,0.6226,-0.0347,2.80,-1.04,0.98
1341,407579516,0.7734,0.6221,-0.0396,2.74,-1.04,0.98
1342,407584990,0.7729,0.6221,-0.0347,2.80,-1.04,1.10
1343,407589516,0.7778,0.6230,-0.0386,2.80,-1.04,1.04
1344,407594679,0.7778,0.6216,-0.0400,2.68,-1.10,1.04
1345,407599516,0.7754,0.6226,-0.0327,2.74,-1.04,1.22
1346,407604516,0.7720,0.6230,-0.0356,2.87,-0.98,0.98
1347,407609516,0.7764,0.6235,-0.0322,2.87,-1.10,1.10
1348,407614516,0.7754,0.6245,-0.0342,2.80,-1.10,1.22
1349,407619516,0.7734,0.6240,-0.0342,2.87,-0.98,1.28
1350,407624516,0.7729,0.6250,-0.0361,2.99,-1.04,1.28
1351,407629516,0.7744,0.6250,-0.0366,3.11,-0.91,1.34
1352,407634517,0.7783,0.6250,-0.0381,3.11,-1.04,1.28
1353,407639516,0.7769,0.6226,-0.0312,3.17,-0.85,1.52
1354,407644516,0.7754,0.6250,-0.0342,3.11,-0.85,1.52
1355,407649517,0.7734,0.6270,-0.0317,3.17,-0.91,1.59
1356,407654516,0.7739,0.6260,-0.0356,3.11,-0.85,1.59
1357,407659516,0.7773,0.6245,-0.0371,2.99,-0.79,1.65
1358,407664516,0.7778,0.6230,-0.0361,2.93,-0.85,1.71
1359,407669516,0.7769,0.6226,-0.0356,2.87,-0.85,1.71
1360,407674517,0.7754,0.6235,-0.0352,2.68,-0.91,1.71
1361,407679516,0.7764,0.6255,-0.0317,2.62,-0.85,1.71
1362,407684516,0.7783,0.6240,-0.0322,2.56,-0.85,1.77
1363,407689516,0.7769,0.6211,-0.0371,2.38,-0.73,1.83
1364,407694516,0.7803,0.6206,-0.0273,2.44,-0.73,1.71
1365,407699516,0.7788,0.6206,-0.0317,2.38,-0.79,1.71
1366,407704516,0.7764,0.6211,-0.0259,2.44,-0.91,1.71
1367,407709516,0.7793,0.6250,-0.0264,2.44,-1.04,1.77
1368,407714516,0.7783,0.6245,-0.0327,2.44,-0.79,1.71
1369,407719516,0.7808,0.6250,-0.0229,2.50,-1.04,1.77
1370,407724516,0.7739,0.6265,-0.0278,2.62,-1.16,1.83
1371,407729517,0.7759,0.6226,-0.0278,2.62,-1.10,1.71
1372,407734516,0.7690,0.6230,-0.0278,2.68,-1.16,1.77
1373,407739516,0.7700,0.6196,-0.0225,2.74,-1.34,1.71
1374,407744516,0.7681,0.6196,-0.0244,2.80,-1.52,1.71
1375,407749516,0.7705,0.6201,-0.0264,2.80,-1.40,1.71
1376,407754516,0.7686,0.6250,-0.0220,2.87,-1.46,1.71
1377,407759515,0.7690,0.6177,-0.0352,2.80,-1.52,1.77
1378,407764516,0.7681,0.6182,-0.0298,2.87,-1.52,1.71
1379,407769515,0.7686,0.6216,-0.0225,2.80,-1.65,1.77
1380,407774518,0.7734,0.6211,-0.0269,2.74,-1.71,1.77
1381,407779515,0.7705,0.6206,-0.0283,2.68,-1.83,1.71
1382,407784516,0.7754,0.6250,-0.0293,2.62,-1.71,1.65
1383,407789515,0.7798,0.6226,-0.0278,2.62,-1.89,1.65
1384,407794516,0.7759,0.6206,-0.0308,2.56,-2.07,1.59
1385,407799516,0.7754,0.6172,-0.0288,2.50,-2.07,1.65
1386,407804516,0.7759,0.6211,-0.0259,2.62,-2.26,1.65
1387,407809515,0.7764,0.6240,-0.0303,2.44,-2.13,1.65
1388,407814516,0.7749,0.6191,-0.0317,2.44,-2.20,1.65
1389,407819516,0.7778,0.6226,-0.0283,2.44,-2.26,1.77
1390,407824516,0.7720,0.6240,-0.0312,2.50,-2.13,1.77
1391,407829515,0.7754,0.6211,-0.0347,2.32,-2.20,1.83
1392,407834516,0.7759,0.6230,-0.0386,2.26,-2.20,1.77
1393,407839515,0.7773,0.6211,-0.0356,2.13,-2.07,1.77
1394,407844516,0.7754,0.6206,-0.0371,2.13,-2.13,1.83
1395,407849515,0.7783,0.6196,-0.0332,2.13,-2.13,1.89
1396,407854516,0.7822,0.6201,-0.0342,1.95,-2.26,1.95
1397,407859516,0.7808,0.6211,-0.0332,1.95,-2.07,1.95
1398,407864516,0.7808,0.6201,-0.0342,2.01,-2.07,1.89
1399,407869515,0.7812,0.6226,-0.0312,1.89,-2.13,1.89
1400,407874646,0.7793,0.6250,-0.0298,1.95,-2.20,2.01
1401,407879516,0.7812,0.6250,-0.0342,1.89,-2.26,2.07
1402,407884516,0.7759,0.6230,-0.0342,1.83,-2.13,1.95
1403,407889517,0.7749,0.6260,-0.0376,2.01,-2.20,2.20
1404,407894516,0.7754,0.6279,-0.0322,2.01,-2.20,2.20
1405,407899516,0.7729,0.6255,-0.0352,2.07,-2.07,2.26
1406,407904514,0.7764,0.6255,-0.0342,2.20,-2.26,2.32
1407,407909516,0.7715,0.6245,-0.0293,2.26,-2.26,2.26
1408,407914516,0.7720,0.6255,-0.0332,2.32,-2.20,2.38
1409,407919516,0.7705,0.6250,-0.0337,2.38,-2.26,2.50
1410,407924579,0.7690,0.6255,-0.0356,2.32,-2.20,2.50
1411,407929516,0.7705,0.6255,-0.0337,2.32,-2.20,2.38
1412,407934517,0.7690,0.6274,-0.0317,2.26,-2.26,2.50
1413,407939516,0.7710,0.6260,-0.0273,2.13,-2.20,2.38
1414,407944516,0.7720,0.6240,-0.0366,2.07,-2.20,2.38
1415,407949517,0.7759,0.6240,-0.0391,1.89,-2.32,2.50
1416,407954709,0.7764,0.6211,-0.0366,1.89,-2.32,2.38
1417,407959516,0.7759,0.6245,-0.0371,1.77,-2.32,2.56
1418,407964516,0.7749,0.6255,-0.0352,1.77,-2.26,2.56
1419,407969516,0.7764,0.6240,-0.0347,1.83,-2.32,2.50
1420,407974516,0.7773,0.6255,-0.0361,1.89,-2.32,2.62
1421,407979517,0.7759,0.6235,-0.0342,1.95,-2.26,2.62
1422,407984516,0.7764,0.6240,-0.0376,1.95,-2.50,2.74
1423,407989516,0.7783,0.6201,-0.0337,2.13,-2.44,2.93
1424,407994516,0.7769,0.6255,-0.0391,2.26,-2.32,2.87
1425,407999516,0.7769,0.6196,-0.0361,2.44,-2.32,3.11
1426,408004569,0.7773,0.6255,-0.0361,2.56,-2.32,3.05
1427,408009516,0.7773,0.6230,-0.0308,2.62,-2.26,3.11
1428,408014516,0.7759,0.6245,-0.0332,2.68,-2.32,3.35
1429,408019516,0.7754,0.6221,-0.0347,2.68,-2.26,3.29
1430,408024516,0.7778,0.6201,-0.0391,2.68,-2.26,3.23
1431,408029516,0.7759,0.6230,-0.0381,2.62,-2.07,3.29
1432,408034516,0.7798,0.6230,-0.0332,2.38,-2.26,3.35
1433,408039516,0.7744,0.6250,-0.0376,2.07,-2.20,3.29
1434,408044516,0.7744,0.6245,-0.0430,1.89,-2.26,3.29
1435,408049516,0.7769,0.6235,-0.0356,1.46,-2.20,3.35
1436,408054516,0.7773,0.6221,-0.0376,1.28,-2.13,3.48
1437,408059516,0.7715,0.6182,-0.0337,1.10,-2.26,3.35
1438,408064517,0.7715,0.6221,-0.0356,0.91,-2.32,3.35
1439,408069516,0.7729,0.6172,-0.0288,0.67,-2.13,3.35
1440,408074514,0.7720,0.6196,-0.0396,0.55,-2.20,3.35
1441,408079516,0.7734,0.6206,-0.0410,0.43,-2.20,3.23
1442,408084516,0.7734,0.6187,-0.0337,0.49,-2.20,3.29
1443,408089516,0.7764,0.6182,-0.0337,0.37,-1.95,3.23
1444,408094516,0.7734,0.6182,-0.0327,0.37,-2.13,3.23
1445,408099516,0.7783,0.6172,-0.0342,0.49,-2.20,3.17
1446,408104516,0.7769,0.6128,-0.0283,0.55,-2.20,3.17
1447,408109516,0.7769,0.6138,-0.0312,0.55,-2.13,3.17
1448,408114517,0.7764,0.6162,-0.0366,0.73,-2.20,3.11
1449,408119516,0.7778,0.6157,-0.0366,0.79,-2.32,3.17
1450,408124516,0.7778,0.6182,-0.0352,1.10,-2.32,3.05
1451,408129516,0.7764,0.6196,-0.0298,1.22,-2.32,3.05
1452,408134517,0.7759,0.6162,-0.0303,1.52,-2.38,3.05
1453,408139516,0.7749,0.6177,-0.0303,1.59,-2.62,3.05
1454,408144514,0.7783,0.6162,-0.0342,1.83,-2.44,2.99
1455,408149557,0.7764,0.6187,-0.0308,2.01,-2.56,2.93
1456,408154516,0.7773,0.6211,-0.0371,2.13,-2.50,2.93
1457,408159516,0.7725,0.6157,-0.0332,2.20,-2.44,3.05
1458,408164519,0.7754,0.6177,-0.0317,2.20,-2.50,3.11
1459,408169517,0.7744,0.6167,-0.0439,2.32,-2.50,2.99
1460,408174516,0.7759,0.6177,-0.0415,2.13,-2.32,2.99
1461,408179516,0.7778,0.6143,-0.0439,1.95,-2.50,3.05
1462,408184516,0.7793,0.6167,-0.0352,1.89,-2.44,2.99
1463,408189515,0.7773,0.6187,-0.0356,1.83,-2.50,2.93
1464,408194519,0.7739,0.6167,-0.0410,1.71,-2.56,2.99
1465,408199516,0.7788,0.6211,-0.0410,1.59,-2.68,2.68
1466,408204516,0.7754,0.6167,-0.0371,1.77,-2.56,2.80
1467,408209516,0.7788,0.6133,-0.0391,1.52,-2.62,2.68
1468,408214516,0.7749,0.6147,-0.0347,1.59,-2.68,2.74
1469,408219516,0.7764,0.6201,-0.0332,1.71,-2.62,2.80
1470,408224518,0.7759,0.6182,-0.0400,1.71,-2.50,2.62
1471,408229515,0.7744,0.6187,-0.0400,1.83,-2.68,2.68
1472,408235288,0.7749,0.6177,-0.0396,1.95,-2.50,2.68
1473,408239515,0.7773,0.6152,-0.0376,2.13,-2.56,2.80
1474,408244516,0.7778,0.6162,-0.0430,2.32,-2.44,2.68
1475,408249515,0.7769,0.6167,-0.0405,2.38,-2.44,2.62
1476,408254516,0.7778,0.6157,-0.0400,2.44,-2.50,2.74
1477,408259516,0.7734,0.6157,-0.0391,2.68,-2.44,2.68
1478,408264516,0.7739,0.6172,-0.0391,2.68,-2.38,2.80
1479,408269516,0.7749,0.6177,-0.0430,2.80,-2.44,2.74
1480,408274515,0.7720,0.6152,-0.0420,2.80,-2.44,2.74
1481,408279517,0.7783,0.6177,-0.0454,2.80,-2.38,2.74
1482,408284516,0.7754,0.6191,-0.0430,2.80,-2.38,2.80
1483,408289516,0.7773,0.6177,-0.0400,2.87,-2.26,2.74
1484,408294515,0.7783,0.6167,-0.0435,2.68,-2.32,2.80
1485,408299516,0.7759,0.6187,-0.0366,2.62,-2.32,2.68
1486,408304516,0.7793,0.6143,-0.0420,2.74,-2.44,2.80
1487,408309516,0.7778,0.6182,-0.0405,2.62,-2.20,2.68
1488,408314515,0.7734,0.6196,-0.0435,2.68,-2.07,2.68
1489,408319516,0.7764,0.6133,-0.0459,2.68,-2.32,2.62
1490,408324516,0.7783,0.6182,-0.0444,2.56,-2.13,2.74
1491,408329517,0.7764,0.6152,-0.0400,2.44,-2.01,2.68
1492,408334515,0.7773,0.6162,-0.0371,2.44,-2.26,2.62
1493,408339516,0.7817,0.6167,-0.0366,2.38,-2.20,2.56
1494,408344516,0.7803,0.6152,-0.0386,2.38,-2.13,2.62
1495,408349516,0.7773,0.6128,-0.0405,2.32,-2.13,2.68
1496,408354515,0.7764,0.6143,-0.0405,2.32,-2.01,2.62
1497,408359516,0.7783,0.6152,-0.0332,2.38,-2.07,2.62
1498,408364516,0.7778,0.6143,-0.0400,2.56,-2.07,2.44
1499,408369516,0.7764,0.6143,-0.0356,2.44,-1.83,2.56
1500,408374515,0.7754,0.6133,-0.0425,2.62,-2.01,2.50
1501,408379516,0.7769,0.6123,-0.0391,2.56,-1.89,2.50
1502,408384516,0.7783,0.6133,-0.0352,2.74,-2.01,2.50
1503,408389515,0.7783,0.6123,-0.0361,2.62,-1.95,2.44
1504,408394516,0.7769,0.6157,-0.0386,2.50,-1.95,2.32
1505,408399515,0.7759,0.6152,-0.0410,2.68,-2.01,2.32
1506,408404516,0.7773,0.6108,-0.0361,2.68,-1.95,2.32
1507,408409515,0.7798,0.6099,-0.0425,2.50,-1.89,2.26
1508,408414516,0.7744,0.6138,-0.0386,2.50,-1.89,2.20
1509,408419515,0.7754,0.6123,-0.0415,2.50,-1.89,2.20
1510,408424516,0.7720,0.6104,-0.0439,2.38,-1.83,2.07
1511,408429515,0.7764,0.6147,-0.0439,2.44,-1.77,2.01
1512,408434516,0.7778,0.6138,-0.0371,2.26,-1.89,1.95
1513,408439515,0.7739,0.6118,-0.0371,2.13,-1.89,2.01
1514,408444516,0.7764,0.6123,-0.0332,2.20,-2.01,1.89
1515,408449515,0.7778,0.6113,-0.0332,2.26,-1.89,1.83
1516,408454518,0.7788,0.6089,-0.0444,2.20,-1.89,1.89
1517,408459515,0.7769,0.6099,-0.0391,2.20,-1.77,1.83
1518,408464516,0.7793,0.6099,-0.0361,2.13,-1.77,1.83
1519,408469516,0.7783,0.6074,-0.0352,2.32,-1.77,1.77
1520,408474516,0.7783,0.6104,-0.0376,2.32,-1.83,1.71
1521,408479515,0.7769,0.6128,-0.0361,2.38,-1.83,1.77
1522,408484514,0.7720,0.6099,-0.0366,2.56,-1.83,1.89
1523,408489516,0.7812,0.6099,-0.0342,2.62,-1.89,1.65
1524,408494516,0.7837,0.6108,-0.0371,2.80,-1.89,1.65
1525,408499515,0.7798,0.6099,-0.0371,3.11,-1.77,1.65
1526,408504516,0.7837,0.6133,-0.0352,3.29,-1.95,1.65
1527,408509515,0.7842,0.6167,-0.0381,3.29,-2.01,1.46
1528,408514808,0.7798,0.6182,-0.0381,3.35,-2.07,1.52
1529,408519516,0.7837,0.6162,-0.0410,3.48,-2.07,1.46
1530,408524516,0.7773,0.6182,-0.0415,3.66,-2.01,1.46
1531,408529516,0.7749,0.6143,-0.0425,3.72,-2.01,1.34
1532,408534515,0.7778,0.6216,-0.0430,3.66,-2.01,1.28
1533,408539516,0.7739,0.6177,-0.0415,3.54,-1.95,1.40
1534,408544517,0.7725,0.6187,-0.0488,3.35,-2.01,1.40
1535,408549516,0.7720,0.6226,-0.0479,3.35,-2.01,1.59
1536,408554515,0.7759,0.6211,-0.0479,3.17,-1.89,1.46
1537,408559517,0.7729,0.6172,-0.0464,2.99,-1.71,1.52
1538,408564516,0.7754,0.6177,-0.0444,2.99,-1.59,1.59
1539,408569626,0.7822,0.6230,-0.0430,2.68,-1.52,1.59
1540,408575030,0.7832,0.6230,-0.0508,2.80,-1.52,1.65
1541,408579516,0.7812,0.6226,-0.0425,2.87,-1.40,1.65
1542,408584516,0.7808,0.6230,-0.0425,2.74,-1.34,1.77
1543,408589516,0.7832,0.6235,-0.0469,2.62,-1.28,1.83
1544,408594515,0.7881,0.6206,-0.0498,2.74,-1.22,1.89
1545,408599516,0.7812,0.6226,-0.0493,2.93,-1.16,2.01
1546,408604516,0.7773,0.6230,-0.0430,3.11,-1.10,2.07
1547,408609516,0.7769,0.6230,-0.0444,3.48,-0.98,2.26
1548,408614515,0.7725,0.6235,-0.0444,3.72,-0.98,2.38
1549,408619516,0.7778,0.6216,-0.0469,3.72,-0.85,2.38
1550,408624516,0.7764,0.6182,-0.0483,3.60,-0.61,2.38
1551,408629516,0.7808,0.6201,-0.0474,3.60,-0.55,2.50
1552,408634515,0.7778,0.6177,-0.0483,3.54,-0.55,2.50
1553,408639516,0.7812,0.6196,-0.0435,3.35,-0.43,2.56
1554,408644516,0.7817,0.6211,-0.0439,3.23,-0.49,2.44
1555,408649516,0.7808,0.6172,-0.0405,2.93,-0.37,2.50
1556,408654517,0.7788,0.6187,-0.0366,2.74,-0.30,2.32
1557,408659516,0.7798,0.6191,-0.0420,2.74,-0.18,2.44
1558,408664516,0.7837,0.6191,-0.0425,2.62,-0.18,2.38
1559,408669516,0.7793,0.6177,-0.0444,2.62,-0.18,2.32
1560,408674896,0.7754,0.6177,-0.0454,2.50,-0.30,2.38
1561,408679516,0.7783,0.6172,-0.0410,2.44,-0.24,2.38
1562,408684516,0.7759,0.6172,-0.0410,2.62,-0.12,2.44
1563,408689518,0.7812,0.6152,-0.0410,2.74,-0.18,2.38
1564,408694516,0.7754,0.6104,-0.0386,2.93,-0.12,2.32
1565,408699516,0.7788,0.6157,-0.0400,2.99,-0.24,2.38
1566,408704516,0.7773,0.6152,-0.0425,3.17,-0.24,2.38
1567,408709516,0.7715,0.6128,-0.0396,3.17,-0.12,2.38
1568,408714516,0.7783,0.6152,-0.0376,3.41,-0.06,2.44
1569,408719516,0.7734,0.6152,-0.0361,3.41,-0.24,2.50
1570,408724516,0.7778,0.6147,-0.0366,3.48,-0.18,2.38
1571,408729516,0.7798,0.6143,-0.0396,3.60,-0.12,2.44
1572,408734514,0.7783,0.6133,-0.0376,3.54,0.00,2.44
1573,408739516,0.7798,0.6108,-0.0391,3.29,-0.18,2.38
1574,408744961,0.7798,0.6108,-0.0342,3.29,-0.18,2.38
1575,408749516,0.7808,0.6128,-0.0386,3.29,-0.18,2.32
1576,408754516,0.7803,0.6123,-0.0400,3.11,-0.18,2.26
1577,408759516,0.7788,0.6084,-0.0381,2.99,-0.18,2.20
1578,408764516,0.7778,0.6108,-0.0366,2.87,-0.18,2.26
1579,408769517,0.7773,0.6123,-0.0439,2.87,-0.18,2.38
1580,408774516,0.7778,0.6133,-0.0425,2.87,-0.06,2.26
1581,408779516,0.7783,0.6089,-0.0337,2.74,-0.06,2.26
1582,408784516,0.7793,0.6069,-0.0376,2.87,0.06,2.13
1583,408789517,0.7832,0.6079,-0.0327,2.80,0.00,1.95
1584,408794514,0.7817,0.6074,-0.0298,2.74,-0.06,1.89
1585,408799518,0.7773,0.6084,-0.0317,2.80,-0.12,1.89
1586,408804516,0.7769,0.6089,-0.0259,2.87,-0.12,1.77
1587,408809515,0.7803,0.6089,-0.0400,2.87,-0.24,1.65
1588,408814516,0.7822,0.6074,-0.0352,3.11,-0.30,1.52
1589,408819515,0.7812,0.6079,-0.0376,3.23,-0.30,1.46
1590,408824516,0.7803,0.6064,-0.0327,3.29,-0.37,1.46
1591,408829515,0.7793,0.6108,-0.0342,3.35,-0.37,1.34
1592,408834516,0.7783,0.6104,-0.0322,3.35,-0.43,1.34
1593,408839515,0.7744,0.6099,-0.0298,3.48,-0.55,1.28
1594,408844516,0.7793,0.6108,-0.0337,3.54,-0.61,1.22
1595,408849515,0.7764,0.6133,-0.0356,3.54,-0.61,1.16
1596,408854516,0.7778,0.6104,-0.0396,3.60,-0.79,1.10
1597,408859515,0.7759,0.6123,-0.0347,3.54,-0.61,1.16
1598,408864516,0.7759,0.6108,-0.0332,3.54,-0.67,1.22
1599,408869515,0.7744,0.6108,-0.0317,3.48,-0.79,1.04
1600,408874516,0.7788,0.6118,-0.0347,3.41,-0.61,1.04
1601,408879515,0.7749,0.6094,-0.0342,3.23,-0.67,1.04
1602,408884518,0.7812,0.6143,-0.0371,3.05,-0.79,1.04
1603,408889515,0.7803,0.6138,-0.0371,2.87,-0.55,0.85
1604,408894514,0.7764,0.6143,-0.0342,2.80,-0.67,0.79
1605,408899518,0.7788,0.6143,-0.0298,2.74,-0.67,0.85
1606,408904516,0.7808,0.6162,-0.0337,2.56,-0.79,0.79
1607,408909515,0.7808,0.6123,-0.0312,2.50,-0.73,0.79
1608,408914516,0.7812,0.6162,-0.0288,2.56,-0.85,0.67
1609,408919515,0.7817,0.6108,-0.0312,2.50,-0.91,0.55
1610,408924517,0.7817,0.6147,-0.0308,2.50,-0.91,0.55
1611,408929515,0.7793,0.6133,-0.0366,2.50,-1.04,0.49
1612,408934516,0.7788,0.6138,-0.0381,2.56,-0.98,0.55
1613,408939515,0.7822,0.6167,-0.0371,2.62,-0.91,0.61
1614,408944516,0.7773,0.6162,-0.0386,2.74,-0.91,0.49
1615,408949515,0.7798,0.6177,-0.0352,2.87,-0.98,0.55
1616,408954516,0.7798,0.6187,-0.0298,2.99,-1.04,0.67
1617,408959515,0.7773,0.6230,-0.0361,3.05,-0.98,0.61
1618,408964516,0.7812,0.6206,-0.0425,3.11,-0.85,0.67
1619,408969515,0.7773,0.6260,-0.0361,3.29,-0.91,0.67
1620,408974516,0.7764,0.6230,-0.0425,3.35,-0.85,0.79
1621,408979515,0.7754,0.6230,-0.0391,3.35,-0.73,0.98
1622,408984518,0.7778,0.6245,-0.0391,3.23,-0.79,0.98
1623,408989515,0.7769,0.6221,-0.0371,3.17,-0.85,0.85
1624,408994516,0.7778,0.6216,-0.0376,3.17,-0.79,1.16
1625,408999515,0.7788,0.6201,-0.0430,3.05,-0.79,1.16
1626,409004516,0.7788,0.6260,-0.0430,3.05,-0.79,1.16
1627,409009515,0.7769,0.6260,-0.0386,2.93,-0.73,1.22
1628,409014516,0.7822,0.6260,-0.0361,2.93,-0.67,1.34
1629,409019515,0.7827,0.6250,-0.0415,2.74,-0.61,1.34
1630,409024517,0.7812,0.6265,-0.0469,2.68,-0.61,1.52
1631,409029515,0.7842,0.6284,-0.0410,2.74,-0.61,1.46
1632,409034516,0.7764,0.6279,-0.0435,2.80,-0.55,1.65
1633,409039515,0.7783,0.6270,-0.0400,2.74,-0.49,1.65
1634,409044516,0.7778,0.6250,-0.0415,2.80,-0.49,1.77
1635,409049515,0.7808,0.6245,-0.0391,2.68,-0.49,1.83
1636,409054516,0.7827,0.6245,-0.0400,2.62,-0.55,1.95
1637,409059515,0.7773,0.6245,-0.0371,2.44,-0.55,2.07
1638,409064516,0.7764,0.6211,-0.0366,2.56,-0.37,2.07
1639,409069516,0.7793,0.6250,-0.0337,2.56,-0.43,2.20
1640,409074516,0.7769,0.6211,-0.0317,2.44,-0.49,2.26
1641,409079515,0.7769,0.6235,-0.0361,2.32,-0.43,2.26
1642,409084516,0.7788,0.6221,-0.0361,2.44,-0.37,2.32
1643,409089515,0.7783,0.6221,-0.0386,2.44,-0.37,2.32
1644,409094514,0.7773,0.6216,-0.0396,2.56,-0.37,2.32
1645,409099517,0.7764,0.6172,-0.0337,2.38,-0.49,2.26
1646,409104516,0.7744,0.6182,-0.0366,2.44,-0.37,2.38
1647,409109516,0.7793,0.6206,-0.0361,2.68,-0.43,2.44
1648,409114517,0.7769,0.6216,-0.0327,2.68,-0.30,2.32
1649,409119517,0.7744,0.6201,-0.0347,2.68,-0.37,2.50
1650,409124516,0.7798,0.6206,-0.0327,2.62,-0.43,2.38
1651,409129517,0.7783,0.6162,-0.0303,2.68,-0.49,2.38
1652,409134514,0.7769,0.6187,-0.0381,2.62,-0.49,2.32
1653,409139516,0.7764,0.6138,-0.0264,2.68,-0.67,2.32
1654,409144516,0.7778,0.6138,-0.0293,2.68,-0.55,2.32
1655,409149516,0.7778,0.6167,-0.0347,2.80,-0.61,2.26
1656,409154516,0.7798,0.6113,-0.0283,2.87,-0.61,2.38
1657,409159516,0.7739,0.6113,-0.0283,2.87,-0.61,2.20
1658,409164516,0.7749,0.6104,-0.0317,2.93,-0.43,2.20
1659,409169516,0.7793,0.6138,-0.0254,2.87,-0.49,2.13
1660,409174516,0.7769,0.6118,-0.0293,2.87,-0.67,2.07
1661,409179516,0.7749,0.6167,-0.0332,2.87,-0.55,1.95
1662,409184515,0.7764,0.6104,-0.0249,2.87,-0.73,1.83
1663,409189516,0.7769,0.6128,-0.0264,2.80,-0.67,1.77
1664,409194519,0.7822,0.6108,-0.0278,2.56,-0.73,1.65
1665,409199516,0.7754,0.6104,-0.0254,2.56,-0.79,1.52
1666,409204514,0.7803,0.6113,-0.0298,2.32,-0.98,1.52
1667,409209517,0.7759,0.6123,-0.0283,2.01,-0.98,1.46
1668,409214516,0.7769,0.6094,-0.0239,2.13,-1.16,1.34
1669,409219515,0.7788,0.6099,-0.0278,2.01,-1.10,1.28
1670,409224516,0.7744,0.6108,-0.0298,1.95,-1.22,1.40
1671,409229515,0.7764,0.6138,-0.0229,1.89,-1.16,1.40
1672,409234516,0.7788,0.6113,-0.0273,1.83,-1.22,1.28
1673,409239515,0.7793,0.6113,-0.0220,1.89,-1.16,1.16
1674,409244516,0.7778,0.6152,-0.0303,1.89,-1.28,1.16
1675,409249516,0.7798,0.6113,-0.0254,1.83,-1.40,1.04
1676,409254516,0.7822,0.6138,-0.0259,1.83,-1.40,0.98
1677,409259515,0.7812,0.6118,-0.0293,1.89,-1.59,0.98
1678,409264516,0.7837,0.6162,-0.0264,1.89,-1.52,0.85
1679,409269516,0.7788,0.6133,-0.0293,1.89,-1.46,0.67
1680,409274516,0.7803,0.6133,-0.0293,1.89,-1.59,0.91
1681,409279516,0.7788,0.6157,-0.0288,1.89,-1.71,0.85
1682,409284516,0.7769,0.6177,-0.0229,1.95,-1.71,0.79
1683,409289516,0.7764,0.6226,-0.0283,1.89,-1.83,0.85
1684,409294516,0.7764,0.6187,-0.0259,2.07,-1.95,0.79
1685,409299516,0.7759,0.6182,-0.0273,1.89,-2.01,0.85
1686,409304516,0.7744,0.6172,-0.0288,1.95,-2.07,0.85
1687,409309516,0.7729,0.6211,-0.0259,1.95,-2.20,0.91
1688,409314516,0.7729,0.6206,-0.0322,1.95,-2.07,0.91
1689,409319515,0.7769,0.6191,-0.0376,1.95,-2.01,1.04
1690,409324516,0.7715,0.6196,-0.0347,1.89,-2.13,0.98
1691,409329515,0.7754,0.6216,-0.0337,1.89,-2.32,1.04
1692,409334517,0.7720,0.6265,-0.0347,1.83,-2.38,0.98
1693,409339515,0.7773,0.6279,-0.0356,1.89,-2.38,1.04
1694,409344516,0.7769,0.6279,-0.0337,1.95,-2.50,1.16
1695,409349515,0.7734,0.6284,-0.0337,2.07,-2.50,1.16
1696,409354516,0.7769,0.6270,-0.0283,2.20,-2.44,1.28
1697,409359515,0.7783,0.6284,-0.0361,2.26,-2.32,1.34
1698,409364516,0.7749,0.6299,-0.0361,2.32,-2.44,1.34
1699,409369515,0.7769,0.6265,-0.0322,2.38,-2.50,1.40
1700,409374516,0.7798,0.6313,-0.0396,2.38,-2.38,1.52
1701,409379515,0.7808,0.6255,-0.0415,2.50,-2.32,1.71
1702,409384514,0.7798,0.6274,-0.0386,2.44,-2.32,1.77
1703,409389518,0.7817,0.6284,-0.0391,2.44,-2.20,1.89
1704,409394516,0.7773,0.6289,-0.0381,2.50,-2.07,2.01
1705,409399516,0.7812,0.6255,-0.0371,2.44,-1.95,2.07
1706,409404516,0.7798,0.6294,-0.0449,2.32,-2.01,2.07
1707,409409517,0.7798,0.6274,-0.0425,2.32,-1.95,2.20
1708,409414516,0.7788,0.6323,-0.0356,2.32,-1.89,2.32
1709,409419516,0.7847,0.6294,-0.0386,2.32,-1.77,2.50
1710,409424516,0.7803,0.6304,-0.0376,2.13,-1.77,2.56
1711,409429516,0.7822,0.6284,-0.0381,2.20,-1.71,2.62
1712,409434516,0.7822,0.6284,-0.0381,2.07,-1.71,2.68
1713,409439516,0.7773,0.6279,-0.0371,1.89,-1.59,2.87
1714,409444516,0.7769,0.6279,-0.0415,1.95,-1.59,2.87
1715,409449516,0.7778,0.6265,-0.0405,1.83,-1.52,3.05
1716,409454516,0.7749,0.6260,-0.0405,1.89,-1.52,3.05
1717,409459517,0.7705,0.6240,-0.0361,1.89,-1.65,3.11
1718,409464516,0.7690,0.6226,-0.0366,1.83,-1.46,3.23
1719,409469516,0.7754,0.6201,-0.0430,1.89,-1.40,3.29
1720,409474640,0.7690,0.6206,-0.0425,1.83,-1.22,3.29
1721,409479516,0.7729,0.6235,-0.0400,1.95,-1.40,3.29
1722,409484516,0.7725,0.6260,-0.0381,2.01,-1.40,3.23
1723,409489516,0.7764,0.6182,-0.0386,2.13,-1.34,3.17
1724,409494516,0.7734,0.6177,-0.0381,2.07,-1.40,3.05
1725,409499516,0.7739,0.6172,-0.0332,2.26,-1.34,3.11
1726,409504516,0.7788,0.6177,-0.0376,2.44,-1.34,3.11
1727,409509516,0.7812,0.6138,-0.0347,2.50,-1.22,2.99
1728,409514516,0.7783,0.6133,-0.0376,2.56,-1.16,2.99
1729,409519516,0.7803,0.6138,-0.0352,2.74,-1.34,3.05
1730,409524516,0.7759,0.6123,-0.0361,2.80,-1.28,2.99
1731,409529516,0.7803,0.6099,-0.0347,2.87,-1.34,2.93
1732,409534516,0.7788,0.6143,-0.0342,2.80,-1.34,2.99
1733,409539516,0.7788,0.6128,-0.0352,2.93,-1.22,2.93
1734,409544516,0.7783,0.6133,-0.0342,2.93,-1.22,2.99
1735,409549516,0.7827,0.6113,-0.0400,2.87,-1.22,2.87
1736,409554516,0.7803,0.6104,-0.0391,2.80,-1.28,2.80
1737,409559516,0.7793,0.6113,-0.0391,2.74,-1.22,2.74
1738,409564516,0.7769,0.6118,-0.0396,2.56,-1.16,2.74
1739,409569516,0.7759,0.6094,-0.0405,2.56,-1.16,2.56
1740,409574516,0.7754,0.6123,-0.0347,2.44,-1.10,2.44
1741,409579516,0.7754,0.6108,-0.0352,2.26,-1.16,2.38
1742,409584516,0.7773,0.6123,-0.0283,2.20,-1.16,2.32
1743,409589516,0.7739,0.6089,-0.0303,2.13,-0.98,2.26
1744,409594516,0.7773,0.6069,-0.0312,2.13,-1.16,2.13
1745,409599518,0.7783,0.6045,-0.0327,1.95,-1.22,1.95
1746,409604516,0.7778,0.6089,-0.0288,1.89,-1.22,1.95
1747,409609516,0.7749,0.6084,-0.0259,1.89,-1.28,1.71
1748,409614514,0.7754,0.6084,-0.0361,2.01,-1.22,1.59
1749,409619516,0.7808,0.6060,-0.0352,2.20,-1.22,1.59
1750,409624516,0.7773,0.6089,-0.0317,2.13,-1.34,1.40
1751,409629515,0.7759,0.6089,-0.0352,2.32,-1.34,1.40
1752,409634516,0.7759,0.6118,-0.0322,2.44,-1.34,1.34
1753,409639515,0.7778,0.6108,-0.0376,2.38,-1.46,1.28
1754,409644516,0.7773,0.6079,-0.0337,2.62,-1.40,1.28
1755,409649515,0.7773,0.6108,-0.0317,2.68,-1.59,1.10
1756,409654516,0.7803,0.6128,-0.0288,2.62,-1.59,1.04
1757,409659515,0.7793,0.6147,-0.0391,2.74,-1.71,1.04
1758,409664516,0.7764,0.6089,-0.0396,2.87,-1.65,0.91
1759,409669515,0.7783,0.6128,-0.0371,2.87,-1.52,0.91
1760,409674516,0.7769,0.6147,-0.0337,2.87,-1.59,0.85
1761,409679516,0.7798,0.6152,-0.0356,2.93,-1.52,0.85
1762,409684514,0.7754,0.6128,-0.0322,2.93,-1.59,0.73
1763,409689517,0.7803,0.6167,-0.0396,2.87,-1.40,0.85
1764,409694517,0.7817,0.6128,-0.0361,2.87,-1.40,0.79
1765,409699517,0.7783,0.6157,-0.0386,2.80,-1.46,0.67
1766,409704516,0.7803,0.6157,-0.0444,2.62,-1.40,0.67
1767,409709516,0.7773,0.6172,-0.0366,2.50,-1.40,0.67
1768,409714516,0.7793,0.6182,-0.0435,2.56,-1.40,0.61
1769,409719515,0.7808,0.6182,-0.0425,2.44,-1.34,0.67
1770,409724516,0.7798,0.6221,-0.0347,2.50,-1.40,0.61
1771,409729516,0.7778,0.6157,-0.0361,2.44,-1.28,0.73
1772,409734515,0.7773,0.6177,-0.0439,2.38,-1.28,0.73
1773,409739516,0.7812,0.6226,-0.0322,2.50,-1.40,0.67
1774,409744516,0.7808,0.6216,-0.0337,2.62,-1.40,0.73
1775,409749516,0.7759,0.6177,-0.0405,2.68,-1.28,0.79
1776,409754515,0.7764,0.6216,-0.0439,2.74,-1.10,0.79
1777,409759516,0.7793,0.6196,-0.0430,2.68,-1.22,0.85
1778,409764516,0.7783,0.6211,-0.0371,2.87,-1.16,0.85
1779,409769517,0.7812,0.6260,-0.0396,2.87,-1.10,0.85
1780,409774515,0.7778,0.6206,-0.0400,2.99,-1.10,0.98
1781,409779516,0.7798,0.6235,-0.0391,3.11,-1.04,1.04
1782,409784516,0.7773,0.6196,-0.0361,3.17,-1.10,1.04
1783,409789516,0.7764,0.6240,-0.0430,3.11,-1.04,1.10
1784,409794517,0.7783,0.6240,-0.0386,3.29,-0.91,1.22
1785,409799516,0.7793,0.6250,-0.0415,3.23,-1.04,1.34
1786,409804516,0.7773,0.6245,-0.0464,3.23,-1.04,1.28
1787,409809516,0.7788,0.6255,-0.0356,3.17,-0.85,1.22
1788,409814515,0.7749,0.6255,-0.0435,3.17,-0.85,1.28
1789,409819517,0.7788,0.6274,-0.0425,2.93,-0.67,1.40
1790,409824516,0.7739,0.6250,-0.0386,2.87,-0.73,1.40
1791,409829516,0.7725,0.6245,-0.0396,2.80,-0.73,1.46
1792,409834515,0.7778,0.6221,-0.0352,2.87,-0.67,1.46
1793,409839516,0.7734,0.6230,-0.0391,2.80,-0.67,1.52
1794,409844516,0.7734,0.6221,-0.0361,2.87,-0.61,1.46
1795,409849516,0.7769,0.6255,-0.0400,2.87,-0.73,1.59
1796,409854515,0.7793,0.6221,-0.0381,2.99,-0.55,1.46
1797,409859516,0.7754,0.6216,-0.0386,2.80,-0.49,1.65
1798,409864517,0.7778,0.6221,-0.0391,3.11,-0.55,1.65
1799,409869516,0.7769,0.6235,-0.0376,3.17,-0.61,1.65
1800,409874515,0.7798,0.6191,-0.0342,3.17,-0.61,1.65
1801,409879516,0.7783,0.6201,-0.0396,3.23,-0.55,1.65
1802,409884517,0.7793,0.6196,-0.0352,3.29,-0.49,1.83
1803,409889516,0.7803,0.6216,-0.0342,3.29,-0.67,1.77
1804,409894516,0.7827,0.6182,-0.0342,3.23,-0.61,1.83
1805,409899516,0.7773,0.6201,-0.0312,3.17,-0.61,1.83
1806,409904516,0.7788,0.6211,-0.0342,3.11,-0.67,1.77
1807,409909516,0.7808,0.6182,-0.0327,3.17,-0.61,1.89
1808,409914515,0.7827,0.6230,-0.0332,3.05,-0.61,1.95
1809,409919516,0.7778,0.6182,-0.0361,3.05,-0.61,1.83
1810,409924516,0.7798,0.6226,-0.0366,2.80,-0.61,1.95
1811,409929516,0.7808,0.6216,-0.0337,2.74,-0.55,1.89
1812,409934515,0.7798,0.6226,-0.0391,2.62,-0.37,1.89
1813,409939516,0.7734,0.6226,-0.0347,2.44,-0.49,1.83
1814,409944516,0.7769,0.6187,-0.0356,2.32,-0.37,1.77
1815,409949516,0.7734,0.6201,-0.0337,2.20,-0.37,1.77
1816,409954515,0.7788,0.6187,-0.0347,2.20,-0.49,1.77
1817,409959516,0.7773,0.6177,-0.0327,2.01,-0.61,1.83
1818,409964516,0.7744,0.6182,-0.0352,2.01,-0.43,1.77
1819,409969516,0.7720,0.6157,-0.0391,1.95,-0.55,1.77
1820,409974515,0.7710,0.6177,-0.0322,2.13,-0.55,1.71
1821,409979516,0.7729,0.6182,-0.0376,2.13,-0.67,1.77
1822,409984515,0.7734,0.6187,-0.0298,2.20,-0.49,1.83
1823,409989516,0.7749,0.6172,-0.0386,2.26,-0.73,1.77
1824,409994515,0.7764,0.6191,-0.0352,2.44,-0.55,1.83
1825,409999514,0.7720,0.6211,-0.0386,2.80,-0.61,1.77
1826,410004518,0.7715,0.6196,-0.0371,2.80,-0.55,1.77
1827,410009516,0.7749,0.6182,-0.0308,3.11,-0.61,1.77
1828,410014516,0.7764,0.6182,-0.0322,3.17,-0.61,1.71
1829,410019516,0.7788,0.6187,-0.0342,3.17,-0.61,1.83
1830,410024516,0.7744,0.6206,-0.0244,3.35,-0.55,1.77
1831,410029516,0.7749,0.6177,-0.0288,3.41,-0.73,1.71
1832,410034516,0.7744,0.6177,-0.0332,3.29,-0.67,1.65
1833,410039516,0.7793,0.6187,-0.0308,3.17,-0.67,1.77
1834,410044515,0.7822,0.6177,-0.0347,3.11,-0.67,1.71
1835,410049516,0.7798,0.6187,-0.0312,2.93,-0.79,1.71
1836,410054880,0.7842,0.6196,-0.0327,2.80,-0.79,1.65
1837,410059516,0.7812,0.6206,-0.0337,2.74,-0.73,1.65
1838,410064516,0.7783,0.6182,-0.0337,2.74,-0.73,1.71
1839,410069516,0.7778,0.6226,-0.0322,2.74,-0.67,1.71
1840,410074517,0.7749,0.6172,-0.0342,2.68,-0.67,1.65
1841,410079516,0.7754,0.6230,-0.0371,2.62,-0.67,1.71
1842,410084516,0.7793,0.6206,-0.0337,2.74,-0.73,1.71
1843,410089516,0.7778,0.6221,-0.0356,2.80,-0.85,1.77
1844,410094515,0.7725,0.6226,-0.0352,2.68,-0.67,1.83
1845,410099517,0.7749,0.6177,-0.0356,2.74,-0.73,1.83
1846,410104516,0.7749,0.6226,-0.0278,2.74,-0.79,1.83
1847,410109516,0.7744,0.6172,-0.0332,2.68,-0.85,1.89
1848,410114517,0.7788,0.6172,-0.0293,2.74,-0.73,1.83
1849,410119516,0.7788,0.6196,-0.0322,2.74,-0.85,1.95
1850,410124515,0.7793,0.6157,-0.0293,2.68,-0.85,1.89
1851,410129517,0.7803,0.6157,-0.0327,2.74,-0.79,1.83
1852,410134516,0.7778,0.6196,-0.0225,2.68,-0.91,1.71
1853,410139515,0.7754,0.6201,-0.0264,2.68,-0.91,1.77
1854,410144518,0.7754,0.6201,-0.0308,2.50,-0.98,1.83
1855,410149515,0.7744,0.6162,-0.0303,2.62,-1.04,1.83
1856,410154517,0.7788,0.6177,-0.0317,2.74,-1.22,1.83
1857,410159515,0.7808,0.6191,-0.0239,2.74,-1.16,1.83
1858,410164516,0.7749,0.6147,-0.0283,2.68,-1.10,1.83
1859,410169515,0.7764,0.6211,-0.0225,2.62,-1.10,1.65
1860,410174516,0.7710,0.6216,-0.0229,2.56,-1.10,1.71
1861,410179515,0.7754,0.6152,-0.0200,2.50,-1.28,1.65
1862,410184517,0.7754,0.6187,-0.0244,2.26,-1.22,1.71
1863,410189514,0.7764,0.6196,-0.0308,2.13,-1.40,1.65
1864,410194519,0.7734,0.6167,-0.0225,2.07,-1.40,1.46
1865,410199515,0.7759,0.6226,-0.0200,1.95,-1.52,1.40
1866,410204516,0.7773,0.6206,-0.0254,2.07,-1.59,1.46
1867,410209515,0.7769,0.6172,-0.0215,2.07,-1.83,1.52
1868,410214516,0.7700,0.6187,-0.0190,2.13,-1.89,1.52
1869,410219515,0.7744,0.6216,-0.0254,2.13,-2.01,1.52
1870,410224516,0.7739,0.6201,-0.0229,2.20,-2.07,1.59
1871,410229516,0.7681,0.6201,-0.0259,2.50,-2.13,1.52
1872,410234516,0.7720,0.6177,-0.0298,2.68,-2.07,1.52
1873,410239516,0.7720,0.6226,-0.0269,2.80,-2.20,1.59
1874,410244514,0.7725,0.6221,-0.0254,2.93,-2.20,1.52
1875,410249514,0.7734,0.6191,-0.0303,2.93,-2.44,1.52
1876,410254701,0.7729,0.6216,-0.0298,3.05,-2.13,1.59
1877,410259516,0.7720,0.6221,-0.0298,3.05,-2.32,1.52
1878,410264516,0.7739,0.6221,-0.0322,2.93,-2.26,1.65
1879,410269516,0.7759,0.6206,-0.0317,2.87,-2.32,1.59
1880,410274514,0.7803,0.6182,-0.0293,2.68,-2.26,1.65
1881,410279514,0.7803,0.6226,-0.0288,2.56,-2.32,1.52
1882,410284516,0.7788,0.6240,-0.0312,2.44,-2.32,1.52
1883,410289515,0.7827,0.6230,-0.0278,2.20,-2.44,1.46
1884,410294516,0.7803,0.6245,-0.0283,2.07,-2.44,1.52
1885,410299516,0.7822,0.6216,-0.0278,1.95,-2.38,1.52
1886,410304516,0.7788,0.6255,-0.0288,1.71,-2.50,1.52
1887,410309579,0.7759,0.6216,-0.0298,1.71,-2.44,1.59
1888,410315041,0.7788,0.6226,-0.0366,1.71,-2.56,1.65
1889,410319516,0.7764,0.6265,-0.0361,1.65,-2.68,1.71
1890,410324516,0.7759,0.6255,-0.0278,1.71,-2.80,1.83
1891,410329517,0.7734,0.6221,-0.0337,1.83,-2.68,1.71
1892,410334515,0.7705,0.6240,-0.0352,1.83,-2.68,1.83
1893,410339516,0.7695,0.6187,-0.0347,1.89,-2.68,1.95
1894,410344517,0.7710,0.6250,-0.0283,2.01,-2.68,1.83
1895,410349516,0.7739,0.6245,-0.0332,1.95,-2.74,1.77
1896,410354515,0.7729,0.6216,-0.0327,2.13,-2.80,1.83
1897,410359515,0.7729,0.6260,-0.0352,2.20,-2.68,1.95
1898,410364516,0.7695,0.6211,-0.0327,2.20,-2.62,1.89
1899,410369516,0.7773,0.6221,-0.0312,2.07,-2.74,1.95
1900,410374515,0.7754,0.6235,-0.0312,2.13,-2.56,1.95
1901,410379516,0.7788,0.6240,-0.0386,1.95,-2.62,2.01
1902,410384516,0.7808,0.6235,-0.0303,1.95,-2.56,2.01
1903,410389516,0.7798,0.6201,-0.0312,1.77,-2.68,2.07
1904,410394515,0.7808,0.6211,-0.0269,1.77,-2.56,2.01
1905,410399516,0.7793,0.6240,-0.0293,1.65,-2.50,2.07
1906,410404516,0.7788,0.6250,-0.0298,1.59,-2.68,2.20
1907,410409516,0.7798,0.6235,-0.0317,1.40,-2.74,2.20
1908,410414677,0.7798,0.6187,-0.0347,1.34,-2.68,2.26
1909,410419516,0.7788,0.6216,-0.0303,1.40,-2.68,2.26
1910,410424516,0.7832,0.6211,-0.0239,1.46,-2.74,2.32
1911,410429516,0.7827,0.6226,-0.0352,1.46,-2.74,2.38
1912,410435009,0.7793,0.6235,-0.0322,1.71,-2.80,2.38
1913,410439566,0.7817,0.6274,-0.0283,1.71,-2.87,2.50
1914,410444515,0.7783,0.6255,-0.0400,1.83,-2.74,2.50
1915,410449516,0.7769,0.6230,-0.0347,1.95,-2.74,2.44
1916,410454516,0.7769,0.6240,-0.0366,2.07,-2.74,2.32
1917,410459516,0.7744,0.6245,-0.0342,2.20,-2.74,2.44
1918,410464515,0.7725,0.6235,-0.0249,2.20,-2.80,2.56
1919,410469516,0.7749,0.6206,-0.0376,2.13,-2.93,2.56
1920,410474516,0.7725,0.6230,-0.0396,2.20,-2.80,2.62
1921,410479516,0.7729,0.6230,-0.0312,2.13,-2.68,2.68
1922,410484515,0.7720,0.6216,-0.0400,2.01,-2.80,2.68
1923,410489516,0.7715,0.6265,-0.0337,1.95,-2.80,2.80
1924,410494517,0.7754,0.6245,-0.0371,1.95,-2.80,2.74
1925,410499516,0.7739,0.6250,-0.0322,1.77,-2.87,2.74
1926,410504515,0.7744,0.6211,-0.0371,1.77,-2.68,2.74
1927,410509517,0.7764,0.6196,-0.0312,1.65,-2.87,2.87
1928,410514514,0.7783,0.6216,-0.0342,1.59,-2.80,2.87
1929,410519514,0.7798,0.6221,-0.0259,1.52,-2.87,2.87
1930,410524514,0.7783,0.6216,-0.0327,1.52,-2.93,2.93
1931,410529514,0.7793,0.6206,-0.0376,1.40,-2.80,2.93
1932,410534514,0.7778,0.6201,-0.0347,1.52,-2.87,3.05
1933,410539514,0.7769,0.6216,-0.0322,1.40,-2.87,2.99
1934,410544514,0.7793,0.6196,-0.0381,1.46,-2.93,3.11
1935,410549570,0.7798,0.6226,-0.0327,1.59,-3.05,2.99
1936,410554517,0.7773,0.6191,-0.0386,1.65,-2.93,3.05
1937,410559515,0.7749,0.6162,-0.0356,1.65,-2.93,3.17
1938,410564559,0.7734,0.6177,-0.0342,1.89,-2.99,3.11
1939,410569516,0.7734,0.6206,-0.0347,1.83,-2.80,3.23
1940,410574516,0.7749,0.6206,-0.0298,1.77,-3.11,3.29
1941,410579515,0.7769,0.6201,-0.0420,1.89,-2.93,3.23
1942,410584516,0.7729,0.6201,-0.0352,2.07,-2.93,3.23
1943,410589515,0.7788,0.6201,-0.0361,2.07,-2.93,3.23
1944,410594516,0.7778,0.6250,-0.0386,2.20,-2.99,3.17
1945,410599515,0.7729,0.6245,-0.0356,2.26,-2.99,3.17
1946,410604516,0.7793,0.6245,-0.0361,2.32,-2.93,3.17
1947,410609515,0.7808,0.6230,-0.0400,2.26,-3.17,3.23
1948,410614516,0.7778,0.6226,-0.0381,2.20,-2.93,3.23
1949,410619515,0.7759,0.6235,-0.0405,2.20,-2.99,3.23
1950,410624514,0.7788,0.6216,-0.0415,2.13,-2.99,3.23
1951,410629516,0.7773,0.6196,-0.0352,1.95,-2.99,3.41
1952,410634516,0.7749,0.6201,-0.0410,1.95,-2.87,3.35
1953,410639516,0.7788,0.6191,-0.0425,1.83,-2.93,3.48
1954,410644516,0.7764,0.6177,-0.0396,1.59,-2.87,3.54
1955,410649515,0.7793,0.6177,-0.0410,1.65,-2.62,3.48
1956,410654516,0.7764,0.6187,-0.0405,1.40,-2.68,3.48
1957,410659516,0.7773,0.6201,-0.0430,1.34,-2.56,3.48
1958,410664517,0.7817,0.6182,-0.0415,1.22,-2.56,3.54
1959,410669515,0.7773,0.6162,-0.0420,1.28,-2.38,3.41
1960,410674516,0.7764,0.6162,-0.0371,1.22,-2.50,3.35
1961,410679515,0.7817,0.6157,-0.0400,1.28,-2.50,3.35
1962,410684516,0.7832,0.6133,-0.0361,1.52,-2.50,3.35
1963,410689518,0.7817,0.6138,-0.0400,1.52,-2.50,3.35
1964,410694516,0.7808,0.6118,-0.0327,1.59,-2.44,3.29
1965,410699515,0.7832,0.6099,-0.0361,1.77,-2.50,3.41
1966,410704516,0.7803,0.6108,-0.0396,1.89,-2.38,3.41
1967,410709516,0.7788,0.6123,-0.0352,2.13,-2.56,3.48
1968,410714516,0.7798,0.6133,-0.0332,2.20,-2.44,3.41
1969,410719516,0.7773,0.6123,-0.0430,2.32,-2.50,3.41
1970,410724516,0.7764,0.6104,-0.0381,2.44,-2.44,3.41
1971,410729515,0.7783,0.6084,-0.0342,2.50,-2.50,3.29
1972,410734516,0.7769,0.6099,-0.0444,2.50,-2.50,3.29
1973,410739516,0.7749,0.6123,-0.0391,2.38,-2.44,3.23
1974,410744516,0.7773,0.6108,-0.0352,2.38,-2.38,3.17
1975,410749515,0.7788,0.6133,-0.0381,2.32,-2.44,2.99
1976,410754516,0.7739,0.6133,-0.0415,2.38,-2.38,2.87
1977,410759515,0.7754,0.6094,-0.0361,2.26,-2.56,2.80
1978,410764517,0.7788,0.6104,-0.0386,2.20,-2.50,2.68
1979,410769654,0.7778,0.6099,-0.0420,2.20,-2.38,2.68
1980,410774516,0.7808,0.6104,-0.0410,2.26,-2.44,2.56
1981,410779515,0.7793,0.6118,-0.0396,2.32,-2.44,2.50
1982,410784516,0.7759,0.6147,-0.0435,2.44,-2.50,2.56
1983,410789515,0.7808,0.6113,-0.0449,2.50,-2.38,2.38
1984,410794516,0.7773,0.6157,-0.0439,2.62,-2.44,2.44
1985,410799515,0.7803,0.6152,-0.0391,2.80,-2.32,2.38
1986,410804516,0.7788,0.6118,-0.0449,2.74,-2.26,2.38
1987,410809515,0.7798,0.6123,-0.0469,2.87,-2.26,2.38
1988,410814516,0.7808,0.6133,-0.0454,2.87,-2.32,2.44
1989,410819516,0.7808,0.6157,-0.0469,2.93,-2.20,2.50
1990,410824517,0.7817,0.6138,-0.0439,2.80,-2.26,2.50
1991,410829516,0.7812,0.6118,-0.0420,2.93,-2.07,2.44
1992,410834515,0.7808,0.6167,-0.0464,2.74,-2.07,2.50
1993,410839517,0.7812,0.6157,-0.0376,2.68,-2.07,2.44
1994,410844699,0.7803,0.6182,-0.0415,2.68,-2.01,2.38
1995,410849516,0.7773,0.6143,-0.0405,2.56,-2.01,2.44
1996,410854515,0.7808,0.6162,-0.0449,2.38,-1.89,2.50
1997,410859517,0.7827,0.6152,-0.0444,2.44,-1.89,2.44
1998,410864516,0.7773,0.6143,-0.0459,2.38,-1.95,2.56
1999,410869517,0.7764,0.6143,-0.0366,2.44,-1.71,2.50
2000,410874514,0.7808,0.6138,-0.0415,2.20,-1.77,2.50
2001,410879516,0.7788,0.6152,-0.0405,2.26,-1.71,2.62
2002,410884516,0.7803,0.6128,-0.0405,2.20,-1.65,2.56
2003,410889516,0.7817,0.6177,-0.0366,2.20,-1.59,2.50
2004,410894515,0.7739,0.6123,-0.0410,2.20,-1.40,2.50
2005,410899516,0.7803,0.6167,-0.0386,2.07,-1.52,2.38
2006,410904516,0.7764,0.6157,-0.0464,2.01,-1.46,2.44
2007,410909516,0.7822,0.6128,-0.0342,2.01,-1.46,2.38
2008,410914515,0.7798,0.6133,-0.0352,1.95,-1.46,2.38
2009,410919517,0.7778,0.6089,-0.0391,2.01,-1.46,2.26
2010,410924515,0.7783,0.6069,-0.0381,1.89,-1.40,2.20
2011,410929516,0.7788,0.6123,-0.0366,1.89,-1.71,2.20
2012,410934516,0.7793,0.6147,-0.0332,2.01,-1.65,2.26
2013,410939516,0.7788,0.6108,-0.0405,2.01,-1.65,2.20
2014,410944516,0.7778,0.6099,-0.0322,2.07,-1.77,2.13
2015,410949515,0.7759,0.6138,-0.0425,2.20,-1.65,2.13
2016,410954516,0.7812,0.6138,-0.0386,2.20,-1.77,2.13
2017,410959515,0.7788,0.6128,-0.0352,2.13,-1.83,2.20
2018,410964516,0.7803,0.6143,-0.0435,2.26,-1.95,2.13
2019,410969515,0.7803,0.6167,-0.0405,2.44,-1.83,2.01
2020,410974516,0.7778,0.6157,-0.0400,2.50,-1.77,2.07
2021,410979515,0.7720,0.6152,-0.0400,2.32,-1.77,2.07
2022,410984516,0.7798,0.6157,-0.0386,2.38,-1.83,2.07
2023,410989515,0.7764,0.6143,-0.0342,2.32,-1.83,2.01
2024,410994516,0.7778,0.6123,-0.0376,2.32,-1.83,2.07
2025,410999515,0.7754,0.6099,-0.0386,2.13,-1.83,1.95
2026,411004516,0.7793,0.6133,-0.0405,2.01,-2.01,1.95
2027,411009516,0.7798,0.6118,-0.0410,1.89,-1.95,1.89
2028,411014516,0.7808,0.6118,-0.0386,1.89,-2.07,1.77
2029,411019516,0.7783,0.6152,-0.0347,1.71,-2.01,1.77
2030,411024517,0.7798,0.6113,-0.0342,1.65,-2.01,1.77
2031,411029516,0.7817,0.6099,-0.0376,1.71,-2.13,1.71
2032,411034516,0.7808,0.6133,-0.0342,1.65,-2.01,1.77
2033,411039516,0.7808,0.6108,-0.0342,1.71,-2.20,1.59
2034,411044515,0.7764,0.6099,-0.0327,1.77,-2.20,1.65
2035,411049516,0.7778,0.6128,-0.0381,1.77,-2.26,1.71
2036,411054516,0.7759,0.6118,-0.0454,1.83,-2.38,1.65
2037,411059516,0.7783,0.6089,-0.0376,1.95,-2.32,1.89
2038,411064574,0.7783,0.6099,-0.0366,2.01,-2.38,1.71
2039,411069517,0.7822,0.6133,-0.0371,2.20,-2.38,1.71
2040,411074514,0.7778,0.6118,-0.0356,2.20,-2.32,1.65
2041,411079631,0.7817,0.6099,-0.0400,2.26,-2.50,1.65
2042,411084516,0.7812,0.6167,-0.0396,2.50,-2.38,1.71
2043,411089515,0.7852,0.6143,-0.0347,2.44,-2.38,1.52
2044,411094516,0.7827,0.6128,-0.0366,2.44,-2.44,1.65
2045,411099515,0.7783,0.6104,-0.0381,2.50,-2.38,1.52
2046,411104516,0.7739,0.6147,-0.0410,2.56,-2.38,1.52
2047,411109516,0.7788,0.6128,-0.0454,2.56,-2.44,1.59
2048,411114904,0.7773,0.6138,-0.0464,2.56,-2.44,1.46
2049,411119516,0.7783,0.6152,-0.0352,2.68,-2.44,1.40
2050,411124516,0.7788,0.6138,-0.0386,2.50,-2.38,1.52
2051,411129517,0.7769,0.6157,-0.0376,2.62,-2.38,1.46
2052,411135041,0.7798,0.6172,-0.0444,2.56,-2.26,1.59
2053,411139516,0.7788,0.6157,-0.0449,2.56,-2.38,1.52
2054,411144516,0.7773,0.6167,-0.0435,2.56,-2.32,1.59
2055,411149582,0.7764,0.6172,-0.0459,2.56,-2.32,1.59
2056,411154515,0.7812,0.6172,-0.0425,2.50,-2.07,1.59
2057,411159517,0.7778,0.6167,-0.0464,2.50,-2.07,1.52
2058,411164515,0.7808,0.6196,-0.0415,2.44,-2.13,1.52
2059,411169514,0.7773,0.6143,-0.0464,2.32,-2.07,1.59
2060,411174517,0.7837,0.6128,-0.0454,2.20,-2.07,1.59
2061,411179515,0.7832,0.6172,-0.0479,2.26,-2.07,1.71
2062,411184517,0.7783,0.6182,-0.0479,2.26,-2.01,1.83
2063,411189514,0.7808,0.6191,-0.0391,2.13,-1.89,1.71
2064,411194519,0.7827,0.6182,-0.0410,2.13,-1.77,1.71
2065,411199515,0.7817,0.6177,-0.0439,2.13,-1.83,1.65
2066,411204516,0.7793,0.6206,-0.0430,2.01,-1.65,1.77
2067,411209515,0.7812,0.6191,-0.0449,2.07,-1.71,1.77
2068,411214516,0.7822,0.6216,-0.0454,2.07,-1.59,1.83
2069,411219515,0.7788,0.6187,-0.0449,1.95,-1.71,1.83
2070,411224514,0.7788,0.6182,-0.0488,2.01,-1.59,1.71
2071,411229516,0.7812,0.6182,-0.0493,2.01,-1.59,1.83
2072,411234516,0.7817,0.6162,-0.0449,2.20,-1.65,1.89
2073,411239516,0.7837,0.6211,-0.0552,2.20,-1.46,1.83
2074,411244515,0.7837,0.6172,-0.0469,2.20,-1.46,2.01
2075,411249517,0.7773,0.6201,-0.0454,2.26,-1.40,2.01
2076,411254516,0.7754,0.6201,-0.0439,2.44,-1.28,2.13
2077,411259517,0.7764,0.6196,-0.0483,2.62,-1.34,2.07
2078,411264515,0.7769,0.6147,-0.0513,2.68,-1.28,2.13
2079,411269516,0.7759,0.6162,-0.0439,2.74,-1.22,2.26
2080,411274516,0.7749,0.6133,-0.0454,3.05,-1.16,2.26
2081,411279516,0.7754,0.6167,-0.0415,3.05,-0.98,2.38
2082,411284967,0.7783,0.6147,-0.0527,3.05,-0.85,2.44
2083,411289516,0.7773,0.6113,-0.0469,3.11,-0.79,2.38
2084,411294516,0.7783,0.6138,-0.0488,3.17,-0.67,2.56
2085,411299516,0.7803,0.6152,-0.0415,3.29,-0.55,2.38
