# skilleye imu stream v1
# device=xiao_esp32c6 imu=mpu6050 addr=0x68
# rate_hz=200 accel_range_g=16 gyro_range_dps=2000 dlpf_hz=94
# units: accel in g, gyro in deg/s, t_us in microseconds since boot (monotonic)
# no shared clock with the camera -- tap the racket once before each take
# so both recordings share a spike to align on
seq,t_us,ax,ay,az,gx,gy,gz
0,84270441,0.7969,0.5557,0.0703,45.49,9.70,3.35
1,84275445,0.7988,0.5576,0.0679,43.35,10.37,3.05
2,84280442,0.8066,0.5591,0.0659,41.34,10.91,2.50
3,84285442,0.8125,0.5581,0.0713,39.63,11.40,2.13
4,84290441,0.8154,0.5591,0.0806,37.87,11.95,1.71
5,84295442,0.8188,0.5576,0.0723,36.10,12.62,1.46
6,84300440,0.8208,0.5562,0.0767,34.51,12.99,0.98
7,84305442,0.8271,0.5566,0.0703,33.17,13.54,0.55
8,84310441,0.8320,0.5562,0.0693,31.95,13.90,0.18
9,84315441,0.8374,0.5522,0.0679,30.73,14.33,-0.37
10,84320442,0.8438,0.5493,0.0669,29.70,14.70,-0.67
11,84325441,0.8433,0.5430,0.0752,28.54,15.06,-1.10
12,84330442,0.8438,0.5420,0.0728,27.56,15.37,-1.40
13,84335442,0.8486,0.5415,0.0679,26.52,15.85,-1.83
14,84340442,0.8530,0.5435,0.0703,25.37,16.10,-2.13
15,84345443,0.8569,0.5439,0.0688,24.21,16.34,-2.50
16,84350442,0.8555,0.5430,0.0664,23.11,16.52,-2.93
17,84355441,0.8613,0.5430,0.0625,22.01,16.65,-3.35
18,84360442,0.8608,0.5405,0.0640,20.98,16.83,-3.72
19,84365441,0.8604,0.5425,0.0601,19.76,17.07,-4.09
20,84370443,0.8628,0.5381,0.0562,18.48,17.01,-4.45
21,84375441,0.8618,0.5381,0.0605,17.32,17.07,-4.63
22,84380443,0.8628,0.5332,0.0552,16.10,17.20,-5.12
23,84385441,0.8613,0.5337,0.0518,14.82,17.44,-5.30
24,84390441,0.8560,0.5366,0.0522,13.60,17.32,-5.73
25,84395442,0.8613,0.5376,0.0459,12.56,17.07,-5.79
26,84400441,0.8555,0.5352,0.0405,11.34,17.07,-6.16
27,84405442,0.8535,0.5459,0.0288,10.30,17.07,-6.46
28,84410442,0.8428,0.5547,0.0537,9.02,16.89,-6.83
29,84415442,0.8374,0.5327,0.0513,6.89,16.71,-7.32
30,84420442,0.8608,0.5112,0.0146,4.76,16.40,-7.32
31,84425442,0.8569,0.5396,0.0210,3.17,16.22,-7.44
32,84430440,0.8501,0.5474,0.0205,1.77,15.91,-7.62
33,84435444,0.8418,0.5479,0.0215,0.61,15.43,-8.11
34,84440441,0.8359,0.5542,0.0283,-0.24,15.37,-8.35
35,84445442,0.8364,0.5576,0.0166,-0.85,15.00,-8.66
36,84450442,0.8252,0.5552,0.0166,-1.28,14.82,-8.78
37,84455442,0.7949,0.5513,0.0312,-2.20,14.45,-9.21
38,84460441,0.8306,0.5225,0.0161,-3.29,14.21,-9.27
39,84465462,0.8447,0.5386,-0.0020,-4.27,13.78,-9.27
40,84470440,0.8271,0.5513,0.0176,-5.00,13.54,-9.39
41,84475442,0.8091,0.5435,0.0122,-5.73,13.23,-9.45
42,84480441,0.8096,0.5454,0.0132,-6.16,13.05,-9.51
43,84485444,0.8140,0.5513,0.0059,-6.10,12.68,-9.57
44,84490440,0.8096,0.5513,0.0073,-5.61,12.38,-9.76
45,84495442,0.8052,0.5522,0.0088,-4.94,12.20,-9.82
46,84500442,0.8047,0.5547,0.0098,-4.02,11.95,-9.94
47,84505442,0.8008,0.5640,0.0034,-2.87,11.46,-9.82
48,84510442,0.8008,0.5620,0.0088,-1.95,11.10,-9.94
49,84515442,0.7983,0.5542,0.0093,-0.98,10.91,-10.06
50,84520442,0.7974,0.5581,0.0054,0.00,10.61,-10.12
51,84525441,0.7998,0.5620,0.0010,0.98,10.12,-10.06
52,84530442,0.7944,0.5601,0.0029,2.01,9.82,-10.24
53,84535445,0.7944,0.5669,0.0024,3.11,9.39,-10.30
54,84540441,0.7954,0.5669,0.0020,3.72,8.90,-10.43
55,84545442,0.7979,0.5649,-0.0039,4.39,8.48,-10.55
56,84550441,0.7920,0.5649,-0.0078,4.76,7.87,-10.73
57,84555444,0.7837,0.5674,-0.0078,4.94,7.26,-11.04
58,84560441,0.7642,0.5840,-0.0200,5.18,6.71,-11.59
59,84565442,0.7803,0.5801,-0.0166,5.30,5.79,-11.95
60,84570442,0.7793,0.5815,-0.0073,5.49,5.00,-12.62
61,84575442,0.8057,0.5601,0.0024,5.67,4.15,-12.93
62,84580441,0.7729,0.5713,-0.0083,5.49,3.48,-13.35
63,84585440,0.7446,0.5776,-0.0166,5.43,2.44,-13.84
64,84590442,0.8062,0.5317,0.0088,5.30,1.71,-14.21
65,84595442,0.8091,0.5229,0.0269,4.76,0.98,-14.39
66,84600441,0.7681,0.5259,0.0273,3.72,0.18,-14.45
67,84605442,0.7510,0.5210,0.0142,2.32,-0.24,-14.57
68,84610441,0.7578,0.5239,0.0034,0.85,-0.98,-14.82
69,84615921,0.7720,0.5210,0.0078,-0.85,-1.89,-15.12
70,84620442,0.7651,0.5234,0.0044,-2.01,-2.38,-15.30
71,84625442,0.7681,0.5215,0.0088,-3.29,-2.99,-15.55
72,84630440,0.7729,0.5195,0.0049,-4.45,-3.72,-15.98
73,84635465,0.7773,0.5181,-0.0024,-5.18,-4.39,-16.22
74,84640441,0.7754,0.5239,-0.0073,-5.49,-5.12,-16.65
75,84645442,0.7788,0.5298,-0.0283,-5.37,-5.79,-17.13
76,84650441,0.7778,0.5371,-0.0288,-4.88,-6.65,-17.68
77,84655442,0.7808,0.5469,-0.0312,-4.09,-7.56,-18.29
78,84660441,0.7832,0.5542,-0.0254,-3.11,-8.17,-18.96
79,84665442,0.7788,0.5576,-0.0225,-1.83,-8.60,-19.76
80,84670441,0.7778,0.5576,-0.0234,-0.73,-8.96,-20.55
81,84675442,0.7734,0.5596,-0.0244,0.37,-9.39,-21.28
82,84680441,0.7783,0.5645,-0.0264,1.28,-9.51,-22.07
83,84685442,0.7759,0.5605,-0.0312,2.26,-9.57,-22.93
84,84690441,0.7749,0.5659,-0.0317,2.93,-9.63,-23.72
85,84695440,0.7739,0.5679,-0.0371,3.66,-9.63,-24.39
86,84700445,0.7729,0.5728,-0.0474,4.33,-9.57,-25.30
87,84705442,0.7690,0.5747,-0.0464,4.82,-9.45,-25.98
88,84710441,0.7686,0.5737,-0.0522,5.67,-9.21,-26.77
89,84715442,0.7661,0.5771,-0.0645,6.40,-9.15,-27.50
90,84720441,0.7607,0.5840,-0.0698,7.50,-8.72,-28.35
91,84725441,0.7588,0.5903,-0.0811,8.48,-8.54,-29.21
92,84730442,0.7651,0.5947,-0.0845,9.51,-8.05,-29.70
93,84735466,0.7656,0.5918,-0.0889,10.18,-7.74,-30.55
94,84740442,0.7681,0.5981,-0.0850,10.73,-7.20,-31.22
95,84745441,0.7778,0.5986,-0.0991,10.73,-6.59,-31.83
96,84750442,0.7769,0.5981,-0.1104,10.06,-6.04,-32.56
97,84755442,0.7749,0.5952,-0.1157,9.15,-5.43,-32.99
98,84760442,0.7759,0.5894,-0.1123,7.44,-4.76,-33.48
99,84765441,0.7720,0.5850,-0.1245,5.18,-4.09,-33.78
100,84770442,0.7720,0.5771,-0.1323,2.99,-3.41,-33.96
101,84775442,0.7690,0.5737,-0.1313,0.43,-2.56,-34.02
102,84780442,0.7681,0.5693,-0.1230,-2.20,-1.77,-33.90
103,84785441,0.7642,0.5645,-0.1362,-4.57,-0.79,-33.66
104,84790442,0.7632,0.5620,-0.1338,-6.46,0.12,-33.29
105,84795545,0.7563,0.5615,-0.1357,-7.99,1.10,-32.80
106,84800442,0.7598,0.5610,-0.1465,-8.66,2.13,-32.20
107,84805443,0.7725,0.5654,-0.1538,-8.84,3.11,-31.46
108,84810442,0.7803,0.5752,-0.1680,-7.99,3.96,-30.85
109,84815441,0.7920,0.5815,-0.1665,-6.46,4.88,-30.00
110,84820442,0.7954,0.5923,-0.1665,-4.51,5.79,-29.21
111,84825442,0.7998,0.5923,-0.1748,-1.71,6.83,-28.29
112,84830443,0.8037,0.5938,-0.1699,1.28,7.87,-27.38
113,84835441,0.8042,0.5928,-0.1807,4.45,9.02,-26.28
114,84840442,0.8071,0.5923,-0.1895,7.74,10.18,-25.00
115,84845442,0.8115,0.5938,-0.2017,11.28,11.16,-23.78
116,84850442,0.8091,0.5967,-0.2148,14.88,12.38,-22.44
117,84855441,0.8164,0.6055,-0.2197,18.72,13.23,-20.85
118,84860442,0.8154,0.6108,-0.2285,22.50,14.02,-19.45
119,84865442,0.8140,0.6226,-0.2393,26.59,15.00,-17.93
120,84870443,0.8096,0.6299,-0.2510,30.85,15.85,-16.22
121,84875441,0.8149,0.6426,-0.2646,35.12,16.71,-14.76
122,84880442,0.8120,0.6421,-0.2627,39.57,17.50,-13.05
123,84885442,0.8164,0.6519,-0.2666,43.78,18.35,-11.40
124,84890442,0.8145,0.6562,-0.2759,48.17,19.09,-9.51
125,84895443,0.8223,0.6572,-0.2905,52.13,19.88,-7.80
126,84900442,0.8271,0.6665,-0.3062,56.04,20.55,-5.91
127,84905442,0.8364,0.6738,-0.3130,59.21,21.10,-4.09
128,84910443,0.8403,0.6841,-0.3271,62.13,21.83,-2.44
129,84915441,0.8413,0.6904,-0.3340,64.57,22.38,-0.79
130,84920443,0.8394,0.7114,-0.3521,66.65,22.80,0.67
131,84925440,0.8262,0.7368,-0.3911,69.09,22.99,1.95
132,84930441,0.8223,0.7681,-0.4360,72.01,22.99,2.80
133,84935440,0.9165,0.7070,-0.3530,75.30,23.05,4.15
134,84940473,0.9541,0.7080,-0.3218,77.50,23.90,5.85
135,84945442,0.8970,0.7275,-0.3511,78.60,24.70,7.44
136,84950442,0.8418,0.7437,-0.4062,78.96,25.55,8.66
137,84955516,0.8428,0.7432,-0.4209,78.84,25.91,9.82
138,84960442,0.8667,0.7568,-0.4277,77.80,26.28,11.10
139,84965441,0.8354,0.8071,-0.4976,76.65,26.46,12.01
140,84970492,0.8838,0.7363,-0.4253,76.04,26.46,12.74
141,84975440,1.0620,0.6084,-0.5327,75.00,25.91,14.63
142,84980442,1.0156,0.7148,-0.3623,74.63,24.57,17.87
143,84985444,1.0195,0.6069,-0.6821,73.78,22.44,20.67
144,84990441,1.0635,0.5093,-0.7725,74.02,16.89,25.37
145,84995440,1.0747,0.5996,-0.0459,73.23,12.32,31.04
146,85000440,1.0557,0.6753,-0.2485,74.02,12.50,35.85
147,85005442,0.9297,0.7676,-0.4780,76.95,13.66,39.57
148,85010441,0.7964,0.7866,-0.4355,80.98,16.34,42.13
149,85015442,0.7817,0.7485,-0.4644,84.57,18.96,44.27
150,85020441,0.8203,0.7090,-0.6514,87.07,20.91,46.16
151,85025444,0.8213,0.7031,-0.6323,88.96,23.11,47.87
152,85030441,0.7754,0.7051,-0.4580,90.00,26.28,49.21
153,85035441,0.7275,0.7070,-0.6260,91.46,29.21,50.61
154,85040442,0.6895,0.7075,-0.6694,92.87,31.95,51.83
155,85045444,0.6631,0.7012,-0.5225,94.39,35.43,52.80
156,85050441,0.6689,0.6919,-0.4897,95.49,39.63,53.72
157,85055442,0.6836,0.6855,-0.6133,96.52,43.11,54.57
158,85060442,0.6948,0.6729,-0.6040,97.68,46.59,55.55
159,85065442,0.6948,0.6665,-0.4814,98.29,50.49,56.59
160,85070441,0.6938,0.6538,-0.4741,98.60,54.82,57.50
161,85075444,0.6938,0.5942,-0.4868,98.54,58.90,58.72
162,85080441,0.6880,0.6182,-0.5493,98.29,62.99,60.30
163,85085442,0.6680,0.6313,-0.4600,97.87,66.89,61.28
164,85090441,0.6870,0.6187,-0.4565,97.26,70.43,61.95
165,85095442,0.7109,0.6357,-0.5166,96.34,72.99,62.38
166,85100441,0.7397,0.6870,-0.4810,94.94,74.82,62.13
167,85105442,0.7832,0.6982,-0.4121,92.99,76.52,60.85
168,85110442,0.7939,0.6636,-0.4141,90.49,77.50,59.45
169,85115442,0.7778,0.6641,-0.4287,87.68,78.17,58.35
170,85120444,0.7578,0.6377,-0.3550,85.12,78.90,57.44
171,85125442,0.7617,0.6108,-0.2983,82.93,79.57,56.83
172,85130442,0.7920,0.5742,-0.3105,81.34,80.12,56.89
173,85135441,0.8125,0.5547,-0.2910,80.30,80.30,57.68
174,85141060,0.8501,0.5352,-0.2515,79.76,80.98,59.27
175,85145473,0.8828,0.5391,-0.2124,80.18,81.22,60.43
176,85150442,0.9121,0.5405,-0.2144,81.46,81.89,61.83
177,85155442,0.9312,0.5532,-0.2109,84.09,82.38,63.29
178,85160442,0.9604,0.5249,-0.1943,88.11,83.11,64.51
179,85165441,0.9951,0.5225,-0.2021,93.05,85.49,65.55
180,85170442,1.0327,0.5347,-0.2070,98.90,86.04,65.85
181,85175442,1.0024,0.4961,-0.2285,105.79,85.73,65.91
182,85180471,0.9414,0.4678,-0.2397,113.60,85.67,65.79
183,85185443,0.8926,0.4399,-0.2505,121.65,85.73,65.24
184,85190441,0.8843,0.4341,-0.2422,128.54,85.67,64.09
185,85195503,1.0244,0.4595,-0.2246,138.96,85.79,62.32
186,85200442,0.9673,0.3779,-0.1753,150.06,85.55,60.67
187,85205442,0.9414,0.3882,-0.1709,160.55,85.18,58.96
188,85210442,1.0928,0.4165,-0.2949,169.21,85.24,56.52
189,85215442,1.0742,0.3306,-0.2207,175.18,85.37,53.78
190,85220442,1.0332,0.2432,-0.0815,179.76,85.43,51.34
191,85225442,1.0137,0.2310,-0.0649,182.26,85.30,48.66
192,85230442,0.9517,0.2397,-0.1016,182.93,83.17,45.43
193,85235442,1.0024,0.2817,-0.0835,182.26,82.26,41.77
194,85240442,1.0176,0.2402,-0.0063,179.21,81.34,37.99
195,85245444,1.0190,0.2153,0.0166,175.00,80.55,34.45
196,85250440,1.1343,0.2100,0.0322,169.51,79.57,31.40
197,85255442,1.0757,0.2251,0.0293,162.99,78.90,28.35
198,85260442,1.0088,0.2432,0.0020,156.04,77.50,25.37
199,85265440,0.9771,0.2583,-0.0200,148.96,76.28,22.26
200,85270442,0.9731,0.2466,-0.0068,141.95,75.00,19.39
201,85275442,0.9712,0.2354,0.0015,135.00,74.15,16.89
202,85280442,0.9600,0.2407,-0.0068,128.23,73.35,14.70
203,85285442,0.9375,0.2349,-0.0122,123.11,72.62,12.62
204,85290442,0.9111,0.2373,-0.0283,117.38,71.83,10.79
205,85295442,0.8862,0.2310,-0.0376,112.32,71.16,9.27
206,85300441,0.8608,0.2271,-0.0410,107.99,70.61,8.05
207,85305442,0.8394,0.2202,-0.0405,104.09,70.12,7.13
208,85310442,0.8208,0.2168,-0.0371,100.85,69.63,6.40
209,85315444,0.7944,0.2114,-0.0439,98.54,69.57,5.85
210,85320441,0.7827,0.2100,-0.0459,96.77,69.39,5.30
211,85325442,0.7646,0.2114,-0.0366,95.79,69.33,4.94
212,85330441,0.7344,0.2100,-0.0386,95.30,69.21,4.51
213,85335440,0.6870,0.2163,-0.0234,95.43,69.39,4.21
214,85340440,0.5693,0.2759,-0.0503,95.85,69.51,3.60
215,85345440,0.4453,0.4341,-0.0698,97.62,69.82,1.52
216,85350444,0.4395,0.4644,-0.1118,100.37,70.00,0.37
217,85355442,0.5576,0.4697,-0.1670,106.22,69.76,-0.12
218,85360442,0.7773,0.3682,-0.2075,114.70,69.82,0.67
219,85365442,0.8965,0.2993,-0.2139,124.94,70.00,2.87
220,85370441,0.8887,0.3228,-0.2422,134.09,70.00,4.94
221,85375442,0.8467,0.3643,-0.2534,143.60,69.57,5.98
222,85380441,0.8403,0.3984,-0.2432,152.62,68.84,6.46
223,85385442,0.8789,0.4067,-0.2192,161.34,68.23,6.46
224,85390441,0.9321,0.4092,-0.2075,169.82,67.93,6.77
225,85395442,0.9712,0.4072,-0.2026,178.23,67.74,7.38
226,85400441,0.9873,0.4043,-0.1807,186.40,67.62,7.87
227,85405440,0.9966,0.4131,-0.1631,194.51,67.68,8.54
228,85410444,1.0010,0.4399,-0.1660,202.56,67.56,8.90
229,85415442,1.0015,0.4707,-0.1763,210.24,67.26,9.27
230,85420442,0.9990,0.4775,-0.1807,217.80,66.95,9.39
231,85425442,0.9785,0.4707,-0.2002,225.61,66.59,9.70
232,85430442,0.9404,0.4727,-0.1846,232.80,66.59,9.88
233,85435440,0.9106,0.4702,-0.2192,239.09,66.65,10.00
234,85440441,0.8584,0.4585,-0.2305,244.39,66.77,10.12
235,85445539,0.8452,0.4556,-0.2212,248.48,66.95,10.06
236,85450442,0.8398,0.4351,-0.2378,251.52,67.62,10.00
237,85455442,0.8438,0.4204,-0.2422,253.17,68.23,9.94
238,85460442,0.8418,0.4033,-0.2471,253.78,69.02,9.88
239,85465442,0.8389,0.3877,-0.2578,253.17,69.70,9.70
240,85470442,0.8315,0.3804,-0.2666,251.59,70.73,9.63
241,85475442,0.8296,0.3779,-0.2676,249.33,71.65,9.57
242,85480443,0.8281,0.3784,-0.2695,246.46,72.38,9.33
243,85485442,0.8433,0.3809,-0.2910,243.11,73.17,8.84
244,85490442,0.8438,0.3945,-0.2910,239.45,73.78,8.05
245,85495442,0.8105,0.4136,-0.3325,235.24,74.21,7.32
246,85500443,0.8623,0.4009,-0.3687,230.91,74.09,6.59
247,85505442,0.8320,0.4268,-0.2930,226.89,74.21,5.91
248,85510442,0.8276,0.4219,-0.3228,222.87,74.39,5.24
249,85515442,0.8232,0.4229,-0.3438,218.54,74.94,4.57
250,85520442,0.7993,0.4126,-0.3008,214.02,75.79,3.90
251,85525442,0.7891,0.4106,-0.2881,209.15,77.01,3.35
252,85530442,0.8027,0.4126,-0.3398,204.09,78.11,2.74
253,85535442,0.7861,0.4634,-0.4185,198.35,78.17,1.89
254,85540443,0.8340,0.4297,-0.2456,191.65,78.72,0.98
255,85545443,0.8916,0.3999,-0.2979,185.18,79.27,0.12
256,85550443,0.8706,0.3477,-0.3560,178.96,79.88,-0.24
257,85555441,0.8506,0.3423,-0.3076,173.48,80.49,-0.37
258,85560442,0.8271,0.3682,-0.2539,168.29,81.59,-0.43
259,85565442,0.8579,0.4131,-0.3096,164.27,82.38,-0.49
260,85570442,0.8579,0.4521,-0.3433,161.16,83.11,-0.98
261,85575442,0.8457,0.4531,-0.3257,159.15,83.48,-1.46
262,85580442,0.8345,0.4390,-0.2842,157.56,83.90,-2.01
263,85585442,0.8374,0.4233,-0.2959,156.34,83.90,-2.38
264,85590442,0.8345,0.4170,-0.3105,155.73,83.60,-2.74
265,85595442,0.8359,0.4336,-0.2837,155.24,83.11,-3.35
266,85600443,0.8267,0.4600,-0.2715,154.94,83.35,-4.21
267,85605442,0.8188,0.4697,-0.2974,154.70,83.35,-5.06
268,85610443,0.8193,0.4688,-0.3091,154.45,82.87,-5.98
269,85615442,0.8154,0.4600,-0.2690,154.33,82.56,-6.77
270,85620442,0.8179,0.4424,-0.2715,154.09,82.50,-7.26
271,85625440,0.8130,0.4478,-0.2686,153.66,82.38,-8.23
272,85630443,0.8071,0.4458,-0.2554,152.93,82.13,-9.02
273,85635442,0.8047,0.4639,-0.2100,152.26,81.95,-9.57
274,85640899,0.7993,0.4746,-0.1958,151.10,81.40,-10.43
275,85645440,0.7959,0.4844,-0.2021,150.30,81.34,-11.22
276,85650442,0.7856,0.4800,-0.1851,149.21,80.98,-12.01
277,85655442,0.7744,0.4824,-0.1748,148.05,80.43,-12.87
278,85660441,0.7754,0.4814,-0.1831,146.77,79.70,-13.84
279,85665442,0.7793,0.4951,-0.1763,145.37,78.41,-15.12
280,85670442,0.7861,0.5103,-0.1523,144.33,77.56,-16.16
281,85675442,0.7871,0.5200,-0.1245,142.99,76.46,-17.44
282,85680443,0.7617,0.5190,-0.1108,142.07,75.61,-18.96
283,85685442,0.7231,0.5122,-0.0952,141.16,74.76,-20.55
284,85690442,0.7510,0.5171,-0.0513,140.91,74.27,-22.07
285,85695444,0.7690,0.5073,-0.0342,141.04,74.33,-23.78
286,85700442,0.7822,0.4912,-0.0132,141.65,74.57,-25.37
287,85705442,0.7856,0.4775,-0.0010,142.80,74.94,-26.83
288,85710441,0.7769,0.4663,-0.0005,144.57,75.00,-28.29
289,85715442,0.7744,0.4526,-0.0029,146.71,75.24,-29.39
290,85720441,0.7676,0.4443,-0.0059,149.27,75.18,-30.61
291,85725444,0.7700,0.4336,0.0024,152.56,74.88,-31.65
292,85730441,0.7583,0.4395,0.0005,156.16,74.63,-32.74
293,85735442,0.7432,0.4468,0.0029,160.24,73.84,-33.90
294,85740441,0.7246,0.4336,-0.0093,164.45,72.99,-35.30
295,85745440,0.7139,0.4292,-0.0317,168.29,71.52,-36.65
296,85750442,0.7139,0.4287,-0.0244,172.01,69.45,-37.87
297,85755537,0.7109,0.4346,-0.0210,175.30,66.59,-39.02
298,85760442,0.6880,0.4424,-0.0142,177.99,63.41,-40.12
299,85765442,0.6445,0.4751,0.0498,180.98,60.43,-41.10
300,85770443,0.6367,0.4712,0.0640,183.54,57.26,-42.07
301,85775441,0.6411,0.4707,0.0518,186.04,53.84,-43.05
302,85780442,0.6401,0.4722,0.0801,187.74,50.49,-44.02
303,85785442,0.6494,0.4746,0.0942,189.39,47.50,-45.37
304,85790440,0.6646,0.4810,0.0859,190.91,44.39,-47.01
305,85795579,0.6816,0.4600,0.0859,192.68,40.73,-49.21
306,85800442,0.6758,0.4482,0.0850,193.90,38.23,-50.49
307,85805443,0.6562,0.4292,0.0767,195.00,35.12,-52.13
308,85810442,0.6035,0.4297,0.0371,195.61,31.71,-53.78
309,85815441,0.5049,0.5039,-0.0864,195.67,26.95,-56.04
310,85820442,0.4658,0.4668,-0.0537,193.96,21.16,-59.02
311,85825442,0.5186,0.3779,0.0605,191.40,15.91,-61.28
312,85830483,0.5283,0.3779,0.0776,188.54,11.40,-62.93
313,85835442,0.4941,0.4326,0.1147,185.24,8.05,-64.88
314,85840441,0.5195,0.4878,0.1372,181.83,5.12,-67.44
315,85845440,0.5713,0.4790,0.1191,178.72,2.20,-70.43
316,85850440,0.6108,0.4702,0.1128,175.91,-0.73,-73.29
317,85855440,0.5957,0.4761,0.1255,173.17,-3.41,-76.34
318,85860442,0.5396,0.4849,0.1411,170.30,-5.67,-79.33
319,85865444,0.4858,0.4902,0.1265,167.44,-7.99,-82.44
320,85870441,0.4448,0.4897,0.1245,164.57,-10.18,-85.30
321,85875442,0.4243,0.4819,0.1167,161.40,-12.32,-87.99
322,85880441,0.4170,0.4731,0.1064,157.99,-14.33,-90.61
323,85885442,0.4258,0.4619,0.1064,154.63,-16.40,-93.05
324,85890442,0.4067,0.4604,0.1084,151.28,-18.35,-95.37
325,85895440,0.4053,0.4512,0.1079,147.87,-20.06,-97.68
326,85900442,0.3999,0.4448,0.1016,144.57,-21.77,-99.88
327,85905442,0.4058,0.4434,0.0762,141.59,-23.35,-101.95
328,85910441,0.3774,0.4395,0.0732,139.09,-24.82,-103.84
329,85915442,0.3936,0.4395,0.0630,137.07,-26.16,-105.79
330,85920441,0.3906,0.4351,0.0376,135.91,-27.44,-107.44
331,85925442,0.3848,0.4316,0.0303,135.49,-28.72,-109.09
332,85930441,0.3721,0.4365,0.0283,135.55,-29.70,-110.37
333,85935442,0.3530,0.4419,0.0171,136.40,-30.79,-111.59
334,85940441,0.3638,0.4478,0.0059,137.74,-31.89,-112.74
335,85945442,0.3745,0.4502,-0.0186,139.51,-32.80,-113.60
336,85950440,0.3760,0.4517,-0.0288,141.65,-33.60,-114.27
337,85955441,0.3442,0.4546,-0.0312,143.72,-34.63,-114.82
338,85960441,0.3242,0.4585,-0.0356,145.61,-35.55,-115.37
339,85965442,0.3228,0.4668,-0.0361,147.32,-36.77,-115.85
340,85970441,0.3408,0.4648,-0.0552,148.66,-37.80,-116.10
341,85975442,0.3579,0.4688,-0.0776,149.45,-38.78,-116.28
342,85980441,0.3784,0.4878,-0.0967,150.30,-40.18,-116.46
343,85985442,0.3760,0.5068,-0.1226,150.98,-41.65,-116.59
344,85990440,0.3525,0.5254,-0.1460,151.65,-43.23,-116.71
345,85995442,0.3511,0.5591,-0.1768,152.38,-45.18,-116.89
346,86000441,0.3564,0.5820,-0.1963,153.05,-47.01,-116.83
347,86005442,0.3394,0.6045,-0.2046,153.90,-49.15,-116.71
348,86010441,0.3164,0.6221,-0.2051,154.63,-51.22,-116.52
349,86015442,0.2969,0.6357,-0.2163,155.18,-53.35,-116.34
350,86020441,0.2793,0.6523,-0.2148,155.00,-55.67,-116.16
351,86025442,0.2710,0.6660,-0.2158,154.21,-57.93,-115.91
352,86030441,0.2637,0.6768,-0.2051,152.74,-60.30,-115.73
353,86035440,0.2500,0.6943,-0.2080,150.00,-62.80,-115.49
354,86040443,0.2280,0.7031,-0.1865,145.73,-65.06,-115.37
355,86045442,0.2036,0.7153,-0.2056,140.43,-67.56,-115.12
356,86050442,0.1772,0.7334,-0.2256,133.90,-70.24,-114.82
357,86055440,0.1465,0.7490,-0.2344,127.87,-72.80,-114.45
358,86060440,0.1064,0.7842,-0.2446,121.59,-75.73,-113.96
359,86065442,0.0498,0.7905,-0.2603,114.51,-78.54,-113.48
360,86070441,0.0635,0.8071,-0.2544,107.68,-81.28,-112.87
361,86075442,0.0498,0.8223,-0.2607,101.16,-83.96,-112.07
362,86080441,-0.0044,0.8389,-0.2563,95.43,-86.65,-111.40
363,86085442,-0.0718,0.8564,-0.2339,89.57,-89.02,-110.30
364,86090442,-0.0728,0.8765,-0.2271,83.90,-91.34,-109.33
365,86095442,-0.0825,0.8877,-0.2275,78.66,-93.72,-108.35
366,86100441,-0.1084,0.9126,-0.2119,73.48,-96.10,-107.26
367,86105444,-0.1416,0.9434,-0.2222,68.60,-98.66,-106.16
368,86110441,-0.1855,0.9663,-0.2261,63.84,-101.59,-105.00
369,86115442,-0.2314,0.9863,-0.2124,59.09,-104.57,-103.78
370,86120442,-0.2612,1.0093,-0.1836,54.57,-107.68,-102.26
371,86125442,-0.3032,1.0288,-0.1680,50.37,-110.91,-100.85
372,86130442,-0.3374,1.0479,-0.1494,46.28,-114.21,-99.15
373,86135442,-0.3696,1.0752,-0.1113,42.44,-117.38,-97.32
374,86140441,-0.4233,1.0737,-0.0757,38.17,-120.79,-95.37
375,86145442,-0.4854,1.0669,-0.0664,33.54,-124.33,-93.35
376,86150441,-0.5586,1.0522,-0.0273,28.41,-127.87,-91.16
377,86155440,-0.6206,1.0605,0.0161,22.87,-131.34,-88.96
378,86160440,-0.6753,1.0444,0.0059,18.48,-134.51,-87.26
379,86165444,-0.7114,1.0322,0.0400,12.80,-139.33,-84.27
380,86170443,-0.7183,1.0269,0.0659,8.72,-143.72,-81.89
381,86175442,-0.7622,1.0200,0.0815,5.00,-147.99,-79.45
382,86180442,-0.7915,1.0103,0.0996,2.87,-151.89,-77.50
383,86185441,-0.8491,1.0010,0.1016,0.98,-158.17,-74.63
384,86191456,-0.8687,1.0122,0.0991,1.40,-164.82,-71.52
385,86195786,-0.8901,1.0093,0.1064,2.68,-169.63,-69.57
386,86200442,-0.9253,1.0186,0.1069,4.51,-174.70,-67.50
387,86205570,-0.9907,1.0215,0.0796,8.72,-182.38,-64.21
388,86210442,-1.0161,1.0317,0.0532,12.62,-187.80,-62.07
389,86215443,-1.0371,1.0361,0.0454,18.72,-195.24,-58.96
390,86220442,-1.0693,1.0337,0.0654,25.98,-202.38,-55.73
391,86225442,-1.1123,1.0273,0.0688,33.90,-209.76,-52.20
392,86230442,-1.1572,1.0244,0.0664,42.07,-217.32,-48.29
393,86235442,-1.2085,1.0078,0.0645,49.88,-224.88,-44.21
394,86240442,-1.2563,0.9907,0.0659,57.20,-232.74,-39.88
395,86245443,-1.3057,0.9741,0.0605,62.99,-240.79,-35.43
396,86250442,-1.3604,0.9546,0.0581,67.68,-249.09,-30.43
397,86255440,-1.4180,0.9341,0.0459,71.04,-257.80,-25.55
398,86260440,-1.4824,0.9072,0.0317,72.80,-266.71,-20.37
399,86265440,-1.5371,0.8862,0.0176,73.41,-275.98,-14.94
400,86270441,-1.6055,0.8779,-0.0146,73.11,-285.43,-9.70
401,86275485,-1.6885,0.8608,-0.0513,71.52,-295.37,-4.15
402,86280441,-1.7422,0.8506,-0.0938,69.09,-305.79,1.46
403,86285441,-1.7925,0.8555,-0.1279,66.40,-316.71,7.32
404,86290442,-1.8486,0.8682,-0.1758,64.21,-327.93,13.23
405,86295442,-1.9155,0.8823,-0.2290,62.44,-339.63,19.27
406,86300443,-1.9634,0.9067,-0.2510,61.16,-351.77,25.30
407,86305441,-2.0645,0.8994,-0.2754,60.00,-363.78,31.59
408,86310442,-2.1606,0.8877,-0.3501,59.15,-376.04,37.80
409,86315443,-2.2144,0.9019,-0.4087,59.27,-388.96,44.21
410,86320442,-2.2686,0.9199,-0.4463,60.43,-402.07,50.49
411,86325440,-2.3486,0.9209,-0.4775,62.62,-415.37,56.83
412,86330442,-2.4282,0.9443,-0.5127,65.24,-428.23,63.23
413,86335528,-2.4912,0.9805,-0.5728,67.62,-441.52,69.76
414,86340442,-2.5986,0.9424,-0.5747,69.21,-454.09,76.40
415,86345444,-2.7422,0.9395,-0.6499,69.57,-466.34,83.29
416,86350441,-2.8750,0.9717,-0.7788,68.96,-478.90,89.45
417,86355442,-2.9736,1.0093,-0.8604,68.54,-491.28,96.65
418,86360440,-3.1079,1.0278,-0.8809,68.72,-502.93,103.66
419,86365442,-3.2261,1.0327,-0.9497,69.21,-513.90,110.91
420,86371084,-3.3501,1.0630,-1.0342,71.16,-525.79,120.00
421,86375442,-3.4473,1.0757,-1.0840,72.87,-533.23,126.34
422,86380441,-3.6001,1.1074,-1.1387,75.49,-541.77,134.51
423,86385442,-3.7295,1.1343,-1.2114,78.35,-549.70,143.35
424,86390441,-3.8247,1.1465,-1.2598,81.71,-556.59,152.74
425,86395442,-3.9253,1.1699,-1.3091,85.00,-562.68,162.74
426,86400442,-4.0244,1.1904,-1.3623,88.29,-568.29,173.11
427,86405442,-4.1055,1.2139,-1.4155,91.28,-573.41,183.90
428,86410441,-4.1968,1.2383,-1.4653,94.09,-577.74,195.18
429,86415442,-4.2832,1.2598,-1.5244,96.52,-581.77,206.77
430,86420441,-4.3735,1.3154,-1.6104,98.23,-585.24,218.41
431,86425442,-4.4648,1.3643,-1.6968,100.30,-588.35,230.37
432,86430442,-4.5552,1.4175,-1.7666,102.56,-590.79,242.38
433,86435442,-4.6318,1.4756,-1.8501,104.82,-591.89,254.45
434,86440442,-4.6982,1.5356,-1.9360,107.32,-591.95,266.52
435,86445441,-4.7510,1.5811,-2.0073,109.70,-590.73,278.60
436,86450442,-4.7974,1.6333,-2.0698,112.01,-588.11,290.85
437,86455442,-4.8408,1.6958,-2.1328,114.70,-583.41,303.05
438,86460442,-4.8618,1.7285,-2.1646,117.26,-577.62,315.24
439,86465441,-4.8926,1.7573,-2.1763,119.39,-569.70,327.38
440,86470442,-4.9180,1.7891,-2.1929,120.85,-560.43,339.33
441,86475442,-4.9316,1.8203,-2.2070,120.85,-549.45,351.10
442,86480443,-4.9434,1.8340,-2.2368,118.84,-537.38,362.38
443,86485441,-4.9531,1.8682,-2.2715,114.82,-524.33,373.05
444,86490442,-4.9297,1.8960,-2.3027,108.96,-510.91,382.93
445,86495443,-4.9028,1.9214,-2.3496,102.13,-496.65,391.89
446,86500442,-4.8628,1.9355,-2.4004,94.45,-481.95,400.30
447,86505441,-4.8076,1.9448,-2.4546,86.16,-466.83,408.11
448,86510442,-4.7451,1.9487,-2.5049,77.62,-451.59,415.12
449,86515442,-4.6826,1.9277,-2.5293,67.87,-435.85,421.46
450,86520443,-4.6167,1.9121,-2.5547,56.40,-420.12,426.89
451,86525441,-4.5547,1.8794,-2.5688,42.80,-404.51,431.59
452,86530442,-4.4883,1.8374,-2.5728,26.28,-388.78,435.18
453,86535442,-4.4087,1.8125,-2.5933,6.10,-374.09,437.68
454,86540442,-4.3257,1.7900,-2.5923,-16.04,-359.76,438.96
455,86545441,-4.2139,1.7695,-2.5864,-39.02,-346.46,439.15
456,86550442,-4.0923,1.7632,-2.5938,-61.83,-334.27,438.35
457,86555442,-3.9707,1.7666,-2.5981,-82.56,-322.50,437.07
458,86560442,-3.8306,1.7759,-2.5903,-100.24,-311.89,435.30
459,86565443,-3.6934,1.7725,-2.5688,-114.39,-301.28,433.84
460,86570442,-3.5527,1.7549,-2.5347,-125.00,-291.40,432.80
461,86575442,-3.4243,1.7344,-2.5005,-132.87,-281.95,432.26
462,86580442,-3.2852,1.7158,-2.4590,-139.27,-272.50,432.13
463,86585441,-3.1494,1.6899,-2.4009,-144.02,-263.60,432.93
464,86590442,-3.0566,1.6953,-2.3423,-147.20,-255.00,434.02
465,86595442,-2.9404,1.6743,-2.3096,-150.00,-246.77,435.67
466,86600443,-2.8193,1.6704,-2.2705,-153.11,-238.66,437.87
467,86605441,-2.7173,1.6719,-2.2041,-156.04,-231.16,440.18
468,86610442,-2.6138,1.6792,-2.1455,-157.99,-223.96,442.99
469,86615443,-2.5034,1.6963,-2.1260,-159.57,-217.38,445.91
470,86620442,-2.4033,1.6987,-2.0908,-161.04,-211.28,449.15
471,86625441,-2.3345,1.7021,-2.0557,-161.83,-205.55,452.74
472,86630442,-2.2798,1.6997,-2.0264,-161.34,-200.49,456.65
473,86635443,-2.2251,1.6909,-2.0161,-160.37,-195.98,461.10
474,86640442,-2.1709,1.6670,-1.9932,-159.70,-191.65,465.91
475,86645442,-2.1406,1.6372,-1.9712,-158.78,-187.74,471.28
476,86650442,-2.1108,1.6006,-1.9526,-156.71,-184.33,477.07
477,86655444,-2.0869,1.5747,-1.9492,-153.90,-181.10,483.29
478,86660441,-2.0820,1.5474,-1.9297,-150.79,-177.87,489.82
479,86665440,-2.0962,1.5112,-1.9229,-146.65,-174.63,496.46
480,86670442,-2.1177,1.4766,-1.9116,-142.07,-171.77,503.54
481,86675441,-2.1616,1.4463,-1.9209,-137.56,-168.72,510.61
482,86680442,-2.1938,1.4048,-1.9204,-133.05,-165.73,517.68
483,86685442,-2.2012,1.3652,-1.9023,-128.05,-162.56,524.82
484,86690441,-2.2202,1.3164,-1.8892,-122.44,-159.27,531.83
485,86695445,-2.2666,1.2646,-1.8994,-115.67,-155.49,538.72
486,86700441,-2.3213,1.2002,-1.8911,-107.93,-151.22,545.79
487,86705442,-2.3750,1.1460,-1.8867,-99.33,-146.46,552.62
488,86710441,-2.3970,1.0693,-1.8472,-90.00,-140.73,559.21
489,86715442,-2.4082,1.0049,-1.8145,-80.49,-134.57,565.55
490,86720488,-2.4360,0.9355,-1.8032,-71.16,-128.29,571.40
491,86725442,-2.4878,0.8643,-1.7734,-62.20,-121.22,576.71
492,86730441,-2.5254,0.8105,-1.7715,-55.49,-115.37,580.85
493,86735442,-2.5757,0.7241,-1.7705,-47.01,-106.52,585.85
494,86740441,-2.6196,0.6655,-1.7651,-43.11,-100.49,588.41
495,86745442,-2.6934,0.5747,-1.7520,-45.85,-93.35,589.39
496,86750441,-2.6470,0.5107,-1.6626,-52.26,-89.02,589.33
497,86755442,-2.6265,0.3887,-1.5903,-61.83,-82.01,590.49
498,86760441,-2.6699,0.3452,-1.7017,-71.10,-75.91,591.10
499,86765442,-2.6865,0.2695,-1.6826,-79.63,-70.85,590.61
500,86770440,-2.6582,0.2051,-1.5801,-87.01,-65.67,589.51
501,86775442,-2.6187,0.1611,-1.5576,-92.56,-60.30,587.68
502,86780512,-2.5854,0.1172,-1.5684,-95.43,-54.70,585.61
503,86785442,-2.5435,0.0586,-1.5479,-94.70,-48.41,582.99
504,86790441,-2.4966,-0.0112,-1.5107,-89.82,-41.59,580.00
505,86795442,-2.4209,-0.0664,-1.5132,-80.73,-34.70,576.65
506,86800442,-2.3579,-0.1147,-1.4971,-67.74,-26.83,572.68
507,86805442,-2.3335,-0.1533,-1.4873,-51.59,-18.11,568.17
508,86810490,-2.3008,-0.2021,-1.4795,-32.93,-8.48,562.80
509,86815442,-2.2393,-0.2651,-1.4653,-12.87,1.95,556.95
510,86820441,-2.2217,-0.3140,-1.4438,7.62,13.66,550.43
511,86825442,-2.2163,-0.3628,-1.4233,27.68,25.67,543.29
512,86830442,-2.1733,-0.4233,-1.3970,46.34,38.66,535.12
513,86835442,-2.1089,-0.4951,-1.3867,62.38,52.32,525.98
514,86840442,-2.0532,-0.5659,-1.3652,75.00,65.73,515.79
515,86845440,-1.9941,-0.6362,-1.3418,84.09,79.57,504.63
516,86850442,-1.9653,-0.7051,-1.3457,89.76,92.20,492.62
517,86855442,-1.9258,-0.7725,-1.3218,92.44,104.94,479.94
518,86860442,-1.8691,-0.8472,-1.2793,91.77,116.95,466.52
519,86865442,-1.8286,-0.9321,-1.2578,88.60,128.23,452.68
520,86870440,-1.8096,-1.0078,-1.2246,82.38,138.84,438.54
521,86875441,-1.7744,-1.0825,-1.1719,73.29,148.41,424.27
522,86880442,-1.7383,-1.1470,-1.1152,61.95,157.20,410.00
523,86885441,-1.6997,-1.2051,-1.0493,49.02,165.12,395.49
524,86890440,-1.6729,-1.2476,-0.9619,35.24,172.44,381.40
525,86895440,-1.6504,-1.2983,-0.8809,21.89,179.15,367.44
526,86900442,-1.6338,-1.3384,-0.7979,10.06,185.37,353.72
527,86905442,-1.6104,-1.3706,-0.7153,0.30,191.22,340.43
528,86910442,-1.5996,-1.4058,-0.6509,-6.89,196.34,327.62
529,86915441,-1.5967,-1.4287,-0.5903,-11.89,200.98,315.12
530,86920442,-1.5869,-1.4629,-0.5361,-14.94,205.30,302.99
531,86925442,-1.5879,-1.4897,-0.4858,-16.28,209.02,291.22
532,86930442,-1.5850,-1.5215,-0.4263,-16.52,212.68,279.63
533,86935441,-1.5942,-1.5513,-0.3579,-16.28,216.28,268.17
534,86940442,-1.6006,-1.5981,-0.2788,-16.34,219.51,257.20
535,86945443,-1.5859,-1.6445,-0.1714,-16.71,222.56,246.65
536,86950442,-1.5913,-1.6704,-0.0879,-18.17,225.85,236.28
537,86955441,-1.5791,-1.6978,0.0073,-20.49,228.96,226.16
538,86960443,-1.5962,-1.7227,0.0908,-23.84,231.89,216.40
539,86965442,-1.5928,-1.7422,0.1479,-28.17,234.57,206.83
540,86970442,-1.5923,-1.7578,0.2065,-33.35,236.52,197.74
541,86975442,-1.6182,-1.7729,0.2725,-39.15,237.87,189.09
542,86980441,-1.6445,-1.7842,0.3105,-44.94,238.66,181.16
543,86985441,-1.6606,-1.7983,0.3516,-50.49,238.90,173.48
544,86990442,-1.6772,-1.8066,0.3936,-55.06,238.60,166.59
545,86995442,-1.6836,-1.8208,0.4199,-58.48,237.62,160.12
546,87000442,-1.6909,-1.8188,0.4512,-60.61,235.91,154.02
547,87005441,-1.6934,-1.8252,0.4956,-61.40,233.72,148.11
548,87010442,-1.6885,-1.8379,0.5215,-61.16,230.79,142.38
549,87015442,-1.6675,-1.8438,0.5474,-59.51,227.13,136.77
550,87020442,-1.6416,-1.8496,0.5859,-56.83,222.80,130.91
551,87025441,-1.5977,-1.8506,0.6060,-53.23,217.62,125.00
552,87030442,-1.5479,-1.8516,0.6353,-48.60,211.83,119.09
553,87035442,-1.5000,-1.8511,0.6543,-42.87,205.55,112.93
554,87040442,-1.4380,-1.8481,0.6743,-36.46,198.60,106.52
555,87045443,-1.3862,-1.8447,0.6899,-29.33,190.91,100.12
556,87050442,-1.3101,-1.8403,0.7100,-21.71,182.68,93.60
557,87055442,-1.2363,-1.8306,0.7217,-13.66,174.21,86.59
558,87060443,-1.1602,-1.8267,0.7427,-5.43,165.37,80.12
559,87065443,-1.0908,-1.8101,0.7510,2.93,156.28,72.87
560,87070442,-1.0234,-1.7925,0.7568,10.85,147.01,65.43
561,87075442,-0.9565,-1.7788,0.7661,18.11,137.50,57.68
562,87080442,-0.8926,-1.7642,0.7798,24.63,128.05,49.70
563,87085440,-0.8350,-1.7363,0.7739,30.37,118.54,41.52
564,87090442,-0.7896,-1.7134,0.7676,35.43,108.78,33.11
565,87095442,-0.7534,-1.6885,0.7539,40.24,99.09,24.88
566,87100443,-0.7109,-1.6602,0.7559,44.76,88.96,16.46
567,87105442,-0.6802,-1.6333,0.7500,48.84,80.61,8.17
568,87110442,-0.6460,-1.6030,0.7446,52.68,71.04,0.12
569,87115442,-0.6133,-1.5723,0.7358,55.61,61.77,-8.05
570,87120443,-0.5913,-1.5356,0.7271,58.17,52.87,-16.16
571,87125442,-0.5713,-1.5059,0.7197,60.06,44.33,-23.96
572,87130442,-0.5435,-1.4756,0.7046,61.71,35.91,-31.59
573,87135442,-0.5278,-1.4395,0.6899,62.93,27.87,-39.02
574,87140442,-0.5215,-1.4102,0.6748,63.84,20.37,-46.40
575,87145442,-0.5200,-1.3730,0.6528,64.51,13.23,-53.41
576,87150442,-0.5220,-1.3403,0.6367,64.39,6.52,-60.37
577,87155443,-0.5308,-1.3096,0.6162,63.72,0.06,-67.01
578,87160442,-0.5347,-1.2822,0.5913,62.62,-5.98,-73.29
579,87165442,-0.5464,-1.2583,0.5718,61.16,-11.59,-79.33
580,87170442,-0.5562,-1.2349,0.5479,60.06,-16.77,-84.94
581,87175443,-0.5596,-1.2144,0.5283,59.51,-21.52,-90.30
582,87180442,-0.5659,-1.1978,0.5073,59.82,-25.98,-95.18
583,87185441,-0.5742,-1.1782,0.4883,60.79,-30.18,-99.94
584,87190441,-0.5781,-1.1587,0.4600,62.13,-33.78,-104.39
585,87195447,-0.5820,-1.1416,0.4341,63.90,-37.26,-108.48
586,87200442,-0.5864,-1.1279,0.4175,65.37,-40.30,-112.26
587,87205442,-0.5864,-1.1157,0.3853,66.52,-43.23,-115.67
588,87210441,-0.5815,-1.1021,0.3696,67.07,-45.61,-119.09
589,87215442,-0.5786,-1.0928,0.3438,66.95,-47.99,-122.13
590,87220442,-0.5674,-1.0840,0.3247,66.04,-50.00,-125.18
591,87225442,-0.5552,-1.0767,0.3013,64.51,-51.77,-127.99
592,87230442,-0.5415,-1.0737,0.2764,62.62,-53.29,-130.73
593,87235441,-0.5312,-1.0688,0.2583,60.24,-54.51,-133.35
594,87240442,-0.5166,-1.0664,0.2363,57.68,-55.79,-135.85
595,87245442,-0.4985,-1.0684,0.2236,55.24,-56.71,-138.41
596,87250443,-0.4707,-1.0674,0.2090,52.68,-57.44,-140.67
597,87255441,-0.4448,-1.0820,0.1743,50.30,-58.29,-142.99
598,87260442,-0.4248,-1.0864,0.1528,48.35,-59.02,-145.30
599,87265442,-0.3975,-1.0659,0.1538,47.26,-59.45,-147.50
600,87270442,-0.3745,-1.0591,0.1528,46.83,-59.76,-149.15
601,87275501,-0.3521,-1.0713,0.1338,46.16,-60.24,-151.40
602,87280442,-0.3208,-1.0845,0.1357,45.85,-60.61,-152.80
603,87285441,-0.2896,-1.0684,0.1235,45.61,-60.98,-154.39
604,87290509,-0.2603,-1.0620,0.1235,45.85,-61.22,-156.34
605,87295441,-0.2393,-1.0527,0.1274,46.10,-61.16,-157.38
606,87300442,-0.2354,-1.0469,0.1162,46.40,-61.40,-158.78
607,87305441,-0.2598,-1.0586,0.0981,46.46,-61.40,-159.94
608,87310442,-0.2017,-1.0381,0.0903,46.04,-61.34,-160.79
609,87315442,-0.1670,-1.0122,0.0991,45.61,-61.22,-161.59
610,87320442,-0.1270,-0.9893,0.1084,45.12,-60.98,-162.38
611,87325441,-0.1372,-0.9917,0.0928,44.15,-61.04,-162.99
612,87330442,-0.0771,-0.9717,0.0869,42.74,-60.91,-163.48
613,87335442,-0.0459,-0.9512,0.0996,40.85,-60.85,-163.84
614,87340442,-0.0054,-0.9375,0.0977,38.90,-60.79,-163.96
615,87345444,0.0317,-0.9268,0.0991,36.46,-60.79,-164.15
616,87350442,0.0493,-0.9209,0.1157,33.90,-60.91,-164.02
617,87355442,0.0586,-0.9136,0.1211,31.34,-60.85,-163.54
618,87360441,0.0649,-0.8979,0.1191,28.90,-60.61,-163.05
619,87365442,0.0679,-0.8823,0.1421,26.40,-60.55,-162.56
620,87370441,0.0801,-0.8770,0.1279,23.66,-60.24,-161.83
621,87375442,0.0850,-0.8687,0.1416,20.73,-60.18,-160.91
622,87380441,0.0977,-0.8555,0.1602,17.44,-59.76,-160.00
623,87385442,0.1128,-0.8438,0.1577,13.96,-59.45,-159.02
624,87390442,0.1201,-0.8281,0.1670,10.43,-59.02,-158.11
625,87395442,0.1304,-0.8130,0.1899,7.07,-58.41,-156.89
626,87400441,0.1450,-0.8027,0.1909,4.09,-57.99,-155.73
627,87405442,0.1592,-0.7871,0.1978,1.34,-57.56,-154.57
628,87410441,0.1709,-0.7725,0.2178,-0.73,-57.01,-153.48
629,87415442,0.1860,-0.7505,0.2310,-1.95,-56.52,-152.01
630,87420441,0.2134,-0.7314,0.2476,-2.38,-56.04,-150.98
631,87425503,0.2466,-0.7163,0.2500,-2.26,-55.55,-149.76
632,87430441,0.2739,-0.6958,0.2603,-1.16,-55.06,-148.60
633,87435521,0.2812,-0.6816,0.2578,0.12,-54.88,-147.50
634,87440442,0.2891,-0.6743,0.2622,1.65,-54.45,-146.34
635,87446325,0.2749,-0.6636,0.2441,4.33,-54.27,-144.45
636,87450444,0.2939,-0.6685,0.2612,6.52,-53.90,-142.62
637,87455442,0.3105,-0.6606,0.2192,8.35,-54.02,-140.73
638,87460441,0.2886,-0.6475,0.2056,8.72,-54.63,-139.27
639,87465442,0.3247,-0.6162,0.2397,7.44,-55.12,-137.80
640,87470441,0.3555,-0.5981,0.2285,5.30,-55.55,-136.52
641,87475442,0.3706,-0.5898,0.2393,1.95,-56.22,-135.49
642,87480441,0.3848,-0.6006,0.2422,-2.01,-56.77,-134.70
643,87485442,0.4038,-0.6030,0.2476,-6.34,-57.38,-134.02
644,87490441,0.4297,-0.6021,0.2407,-10.67,-57.80,-133.54
645,87495440,0.4961,-0.6255,0.2480,-14.94,-58.17,-132.87
646,87500442,0.5195,-0.5884,0.2192,-20.18,-58.96,-132.26
647,87505442,0.4927,-0.5786,0.2212,-26.04,-59.63,-131.83
648,87510441,0.4741,-0.5806,0.2471,-31.95,-60.12,-131.71
649,87515442,0.5093,-0.5693,0.1685,-38.54,-60.67,-131.77
650,87520441,0.5215,-0.5625,0.2432,-45.73,-61.28,-132.26
651,87525442,0.5361,-0.5493,0.2734,-51.95,-60.85,-132.74
652,87530442,0.5381,-0.5366,0.2109,-57.07,-60.37,-133.23
653,87535442,0.5229,-0.5234,0.1694,-61.59,-60.06,-133.84
654,87540441,0.5059,-0.5205,0.2085,-65.91,-59.51,-134.57
655,87545442,0.4927,-0.5205,0.2207,-69.82,-58.23,-135.30
656,87550441,0.4907,-0.5137,0.2056,-73.66,-56.95,-136.40
657,87555442,0.5010,-0.4961,0.1709,-77.26,-55.61,-137.56
658,87560441,0.5239,-0.4888,0.2007,-80.91,-54.02,-139.02
659,87565442,0.5513,-0.5146,0.2402,-84.51,-52.01,-140.37
660,87570441,0.5889,-0.5361,0.2085,-87.38,-49.63,-141.46
661,87575442,0.6040,-0.5469,0.2085,-89.15,-47.44,-142.01
662,87580442,0.6313,-0.5571,0.2109,-89.76,-45.12,-142.20
663,87585444,0.6567,-0.5610,0.1865,-89.09,-42.80,-142.07
664,87590441,0.6768,-0.5796,0.1509,-87.62,-40.91,-141.59
665,87595441,0.6812,-0.5869,0.1206,-85.37,-39.57,-140.79
666,87600442,0.7012,-0.5806,0.1704,-82.38,-38.05,-139.82
667,87605442,0.6987,-0.5698,0.1519,-78.54,-36.34,-138.84
668,87610441,0.6768,-0.5522,0.1357,-73.72,-35.06,-137.74
669,87615442,0.6875,-0.5664,0.0742,-69.02,-33.66,-136.40
670,87620441,0.6782,-0.5742,0.1211,-64.63,-32.07,-134.94
671,87625442,0.6772,-0.5854,0.1270,-60.30,-30.55,-133.41
672,87630441,0.7012,-0.5889,0.0557,-56.28,-29.27,-131.83
673,87635650,0.7271,-0.5781,0.0537,-52.13,-28.29,-130.18
674,87640442,0.8164,-0.5479,0.0742,-47.99,-27.68,-128.60
675,87645442,0.8979,-0.5151,0.1665,-44.09,-26.59,-127.32
676,87650442,1.0083,-0.6416,0.0698,-39.21,-26.22,-126.52
677,87655442,1.2554,-0.5532,-0.3945,-31.71,-30.00,-125.67
678,87660441,1.1089,-0.4873,-0.0464,-23.72,-33.84,-124.82
679,87665442,0.9858,-0.4409,0.3301,-17.13,-34.39,-123.96
680,87670442,1.0278,-0.4619,0.0254,-11.34,-35.61,-122.50
681,87675442,1.0132,-0.5068,-0.2651,-5.85,-38.66,-120.85
682,87680441,0.9692,-0.5591,0.0303,-1.34,-39.94,-119.09
683,87685442,0.9087,-0.5845,0.2563,2.38,-38.66,-116.71
684,87690441,0.9619,-0.5620,-0.1470,5.67,-39.33,-114.45
685,87695443,1.0352,-0.5146,-0.3267,9.09,-42.26,-112.07
686,87700475,1.0400,-0.4604,0.0161,12.01,-44.09,-109.33
687,87705442,1.0405,-0.4287,0.0796,14.39,-44.88,-106.52
688,87710441,1.0181,-0.4204,-0.2124,16.65,-47.20,-103.35
689,87715442,0.9980,-0.4580,-0.2710,18.66,-50.00,-100.24
690,87720441,0.9648,-0.4785,0.0498,20.24,-51.04,-96.83
691,87725442,0.9385,-0.4858,0.0498,21.71,-50.98,-93.54
692,87730442,0.9307,-0.4565,-0.2266,23.41,-52.20,-90.43
693,87735441,0.9194,-0.4014,-0.2017,24.88,-53.41,-87.38
694,87740442,0.9053,-0.3579,0.0493,25.30,-53.23,-85.00
695,87745443,0.9058,-0.3091,-0.0249,25.18,-52.68,-83.05
696,87750442,0.9033,-0.2715,-0.2388,24.88,-53.05,-81.28
697,87755441,0.8794,-0.2617,-0.1343,24.27,-53.17,-79.76
698,87760442,0.8447,-0.2729,0.0488,23.23,-51.95,-78.23
699,87765443,0.8398,-0.2920,-0.0742,21.83,-50.67,-76.89
700,87770442,0.8291,-0.2891,-0.2183,20.61,-50.37,-75.67
701,87775440,0.8135,-0.2690,-0.0786,19.02,-49.51,-74.63
702,87780442,0.7969,-0.2295,0.0415,17.44,-47.56,-73.78
703,87785442,0.8022,-0.1787,-0.1753,16.04,-46.52,-73.23
704,87790440,0.8096,-0.1738,-0.1714,13.66,-44.88,-72.50
705,87795442,0.8018,-0.1934,0.0376,11.89,-43.35,-72.07
706,87800625,0.8145,-0.1733,0.0376,9.57,-41.28,-71.52
707,87805645,0.8354,-0.1924,-0.0938,7.44,-39.63,-71.10
708,87810441,0.8433,-0.1860,-0.0630,5.85,-38.84,-70.67
709,87815442,0.8413,-0.1577,0.0425,3.60,-36.77,-70.43
710,87820441,0.8457,-0.1396,-0.0332,1.52,-34.94,-70.24
711,87825442,0.8545,-0.1289,-0.1133,-0.37,-33.72,-70.06
712,87830441,0.8540,-0.1318,-0.0234,-2.50,-32.38,-69.94
713,87835440,0.8574,-0.1401,0.0342,-4.70,-30.49,-69.82
714,87840459,0.8760,-0.1509,-0.0547,-6.65,-28.90,-69.63
715,87845440,0.8940,-0.1548,-0.1045,-8.72,-28.23,-69.45
716,87850442,0.9033,-0.1494,-0.0151,-10.79,-26.89,-69.27
717,87855441,0.9165,-0.1431,0.0063,-12.74,-25.67,-69.15
718,87860442,0.9292,-0.1318,-0.0889,-14.70,-24.94,-68.84
719,87865885,0.9277,-0.1328,-0.1182,-16.95,-24.09,-68.72
720,87870443,0.9277,-0.1323,-0.0405,-18.17,-23.78,-68.54
721,87875442,0.9287,-0.1333,-0.0430,-19.57,-22.99,-68.29
722,87880441,0.9448,-0.1362,-0.1245,-20.91,-22.93,-68.11
723,87885444,0.9492,-0.1299,-0.1265,-22.20,-22.80,-67.93
724,87890441,0.9473,-0.1250,-0.0684,-23.41,-22.50,-67.68
725,87895440,0.9536,-0.1138,-0.0859,-24.21,-22.20,-67.44
726,87900441,0.9629,-0.1108,-0.1455,-24.70,-22.20,-67.13
727,87905669,0.9736,-0.1074,-0.1465,-25.43,-21.71,-66.65
728,87910441,0.9761,-0.1099,-0.0718,-25.73,-21.40,-66.28
729,87915440,0.9863,-0.1128,-0.1050,-25.85,-20.73,-65.73
730,87920442,0.9927,-0.1206,-0.1514,-26.04,-20.61,-64.94
731,87925440,1.0000,-0.1162,-0.1260,-25.85,-20.12,-64.15
732,87930492,1.0073,-0.1108,-0.0977,-25.67,-19.45,-63.29
733,87935440,1.0156,-0.1030,-0.1387,-25.24,-18.90,-62.38
734,87940442,1.0205,-0.0962,-0.1763,-24.51,-18.54,-61.40
735,87945441,1.0200,-0.0884,-0.1519,-23.54,-18.17,-60.37
736,87950442,1.0093,-0.0820,-0.1362,-22.56,-17.56,-59.57
737,87955590,1.0073,-0.0801,-0.1733,-20.91,-17.20,-58.54
738,87960442,1.0059,-0.0742,-0.2002,-19.27,-16.95,-57.56
739,87965443,0.9961,-0.0698,-0.1675,-17.26,-16.40,-56.46
740,87970442,0.9888,-0.0620,-0.1641,-15.37,-15.79,-55.49
741,87975442,0.9878,-0.0571,-0.2051,-13.41,-15.18,-54.45
742,87980442,0.9897,-0.0513,-0.2036,-11.28,-14.76,-53.23
743,87985441,0.9907,-0.0464,-0.1787,-9.33,-14.15,-51.95
744,87990442,0.9863,-0.0386,-0.1924,-7.26,-13.54,-50.79
745,87995441,0.9863,-0.0332,-0.2236,-5.55,-12.80,-49.57
746,88000440,0.9834,-0.0205,-0.2163,-3.84,-12.44,-48.29
747,88005440,0.9736,-0.0137,-0.2100,-2.26,-11.77,-47.13
748,88010440,0.9634,-0.0083,-0.2192,-0.73,-11.04,-45.91
749,88015441,0.9546,0.0015,-0.2388,0.67,-10.61,-44.82
750,88020444,0.9463,0.0137,-0.2261,2.07,-9.76,-43.48
751,88025442,0.9390,0.0186,-0.2070,3.35,-8.96,-42.38
752,88030442,0.9282,0.0254,-0.2021,4.82,-7.93,-41.16
753,88035441,0.9229,0.0312,-0.2173,6.22,-6.95,-40.06
754,88040442,0.9233,0.0400,-0.2080,7.68,-6.04,-38.90
755,88045442,0.9297,0.0483,-0.1987,9.39,-4.88,-37.80
756,88050442,0.9331,0.0547,-0.2085,11.16,-3.78,-36.65
757,88055441,0.9365,0.0610,-0.2144,12.68,-2.87,-35.67
758,88060442,0.9404,0.0664,-0.2051,14.27,-1.83,-34.70
759,88065442,0.9414,0.0708,-0.1953,15.79,-0.98,-33.66
760,88070442,0.9463,0.0796,-0.2095,17.44,0.00,-32.80
761,88075441,0.9551,0.0845,-0.2090,18.66,0.85,-31.83
762,88080443,0.9585,0.0850,-0.1963,19.94,1.71,-30.98
763,88085442,0.9639,0.0933,-0.1982,21.16,2.38,-30.18
764,88090442,0.9736,0.0981,-0.2026,22.20,3.17,-29.33
765,88095441,0.9766,0.1045,-0.2095,23.05,3.78,-28.60
766,88100442,0.9790,0.1069,-0.1948,23.60,4.27,-27.93
767,88105440,0.9800,0.1104,-0.1929,24.15,4.94,-27.13
768,88110441,0.9819,0.1143,-0.2026,24.45,5.24,-26.59
769,88115442,0.9868,0.1177,-0.1958,24.45,5.67,-26.04
770,88120443,0.9878,0.1167,-0.1899,24.02,6.16,-25.55
771,88125444,0.9907,0.1157,-0.1934,23.29,6.52,-25.12
772,88130441,0.9976,0.1074,-0.2031,22.32,6.52,-24.63
773,88135442,1.0063,0.1094,-0.1968,20.67,6.77,-24.21
774,88140441,1.0078,0.1045,-0.1895,19.02,6.89,-23.72
775,88145442,1.0132,0.1006,-0.2036,17.01,6.89,-23.23
776,88150441,1.0181,0.0962,-0.2090,15.12,6.95,-22.87
777,88155444,1.0190,0.0903,-0.2002,12.87,6.83,-22.38
778,88160441,1.0171,0.0894,-0.2041,10.73,6.65,-22.01
779,88165442,1.0161,0.0820,-0.1953,8.60,6.40,-21.52
780,88170441,1.0146,0.0796,-0.1978,6.65,6.52,-20.98
781,88175442,1.0161,0.0703,-0.1973,4.70,6.34,-20.43
782,88180441,1.0098,0.0713,-0.1963,2.80,6.16,-19.76
783,88185443,1.0146,0.0659,-0.1919,1.40,6.04,-19.33
784,88190440,1.0137,0.0586,-0.1938,0.12,5.85,-18.78
785,88195447,1.0215,0.0542,-0.1875,-0.85,5.79,-18.29
786,88200440,1.0215,0.0522,-0.1846,-1.71,5.73,-17.68
787,88205441,1.0244,0.0503,-0.1855,-2.13,5.73,-17.13
788,88210440,1.0264,0.0425,-0.1855,-2.13,5.61,-16.59
789,88215442,1.0239,0.0391,-0.1909,-2.13,5.30,-15.98
790,88220441,1.0190,0.0298,-0.1851,-1.71,5.49,-15.24
791,88225442,1.0122,0.0244,-0.1880,-1.10,5.24,-14.39
792,88230441,1.0088,0.0176,-0.1899,-0.37,4.88,-13.60
793,88235442,0.9990,0.0137,-0.1870,0.61,4.82,-12.56
794,88240441,0.9907,0.0122,-0.1919,2.01,4.70,-11.52
795,88245442,0.9922,0.0117,-0.1929,3.72,4.57,-10.55
796,88250441,0.9854,0.0107,-0.1929,5.49,4.33,-9.63
797,88255442,0.9790,0.0103,-0.1821,7.68,4.15,-8.78
798,88260441,0.9761,0.0186,-0.1748,10.06,4.09,-7.68
799,88265442,0.9702,0.0225,-0.1753,12.56,4.21,-6.77
800,88270442,0.9644,0.0273,-0.1675,15.49,4.27,-5.91
801,88275509,0.9619,0.0366,-0.1685,18.29,4.45,-5.24
802,88280442,0.9580,0.0400,-0.1611,21.16,4.63,-4.51
803,88285443,0.9629,0.0459,-0.1572,23.78,4.94,-4.15
804,88290442,0.9688,0.0513,-0.1533,26.22,5.37,-3.72
805,88295441,0.9697,0.0605,-0.1509,28.23,5.55,-3.54
806,88300442,0.9736,0.0664,-0.1499,29.94,5.91,-3.29
807,88305442,0.9751,0.0708,-0.1548,31.16,6.28,-3.17
808,88310442,0.9717,0.0815,-0.1426,31.59,6.59,-3.17
809,88315739,0.9658,0.0889,-0.1455,31.52,7.01,-2.99
810,88320442,0.9629,0.0869,-0.1450,30.98,7.26,-3.17
811,88325442,0.9644,0.0977,-0.1479,29.70,7.62,-3.29
812,88330442,0.9702,0.1011,-0.1357,27.93,7.80,-3.35
813,88335441,0.9653,0.1079,-0.1353,25.98,8.11,-3.48
814,88340442,0.9673,0.1108,-0.1353,23.48,8.54,-3.60
815,88345442,0.9678,0.1172,-0.1372,20.55,8.78,-3.72
816,88350442,0.9702,0.1191,-0.1270,17.68,9.02,-3.96
817,88355441,0.9722,0.1211,-0.1260,15.12,9.15,-4.09
818,88360442,0.9727,0.1274,-0.1230,12.01,9.45,-4.45
819,88365442,0.9751,0.1304,-0.1201,8.66,9.51,-4.63
820,88370442,0.9761,0.1304,-0.1172,5.37,9.63,-5.00
821,88375441,0.9805,0.1328,-0.1182,1.95,9.88,-5.30
822,88380442,0.9756,0.1323,-0.1147,-1.40,9.94,-5.43
823,88385442,0.9829,0.1338,-0.1133,-4.70,10.06,-5.61
824,88390442,0.9780,0.1318,-0.1113,-7.93,10.12,-5.79
825,88395441,0.9741,0.1309,-0.1143,-11.04,9.94,-5.85
826,88400442,0.9736,0.1343,-0.1177,-13.66,9.94,-6.10
827,88405442,0.9697,0.1357,-0.1050,-16.10,9.82,-6.10
828,88410442,0.9692,0.1328,-0.1060,-18.29,10.06,-6.04
829,88415440,0.9639,0.1309,-0.1079,-20.30,10.06,-5.98
830,88420442,0.9580,0.1294,-0.1079,-21.95,9.82,-5.91
831,88425442,0.9556,0.1279,-0.1025,-23.35,10.00,-5.73
832,88430442,0.9541,0.1230,-0.1040,-24.33,9.88,-5.30
833,88435441,0.9546,0.1187,-0.1011,-25.06,9.94,-5.00
834,88440442,0.9541,0.1182,-0.0952,-25.55,9.82,-4.63
835,88445442,0.9561,0.1182,-0.0928,-25.98,9.63,-4.02
836,88450442,0.9580,0.1118,-0.1069,-26.04,9.33,-3.48
837,88455441,0.9663,0.1074,-0.0977,-25.85,9.15,-2.87
838,88460442,0.9634,0.1045,-0.0996,-25.43,8.84,-2.13
839,88465442,0.9668,0.1025,-0.0991,-24.82,8.54,-1.46
840,88470442,0.9624,0.1021,-0.0967,-24.02,8.17,-0.67
841,88475441,0.9624,0.1025,-0.0996,-22.80,7.93,0.12
842,88480442,0.9600,0.1030,-0.0986,-21.40,7.44,0.91
843,88485442,0.9604,0.1055,-0.1001,-19.88,7.13,1.77
844,88490443,0.9624,0.1035,-0.1016,-18.11,6.71,2.56
845,88495441,0.9634,0.1030,-0.0981,-16.04,6.52,3.17
846,88500442,0.9624,0.1045,-0.0918,-14.02,6.22,3.90
847,88505442,0.9619,0.1045,-0.0894,-11.83,5.79,4.57
848,88510442,0.9678,0.1025,-0.0938,-9.33,5.43,5.18
849,88515441,0.9692,0.1060,-0.0908,-6.95,5.24,5.79
850,88520443,0.9629,0.1084,-0.0854,-4.63,5.06,6.22
851,88525442,0.9663,0.1089,-0.0918,-2.20,5.06,6.83
852,88530442,0.9673,0.1089,-0.0898,0.12,4.70,7.32
853,88535441,0.9609,0.1113,-0.0996,2.56,4.63,7.68
854,88540443,0.9629,0.1064,-0.0894,4.57,4.39,8.17
855,88545442,0.9663,0.1035,-0.0942,6.65,4.21,8.54
856,88550442,0.9668,0.1030,-0.0972,8.23,3.84,8.96
857,88555441,0.9663,0.0977,-0.0991,9.76,3.60,9.45
858,88560442,0.9678,0.0908,-0.0942,10.98,3.41,9.94
859,88565442,0.9688,0.0913,-0.1001,11.95,3.23,10.30
860,88570443,0.9678,0.0874,-0.1006,12.68,2.74,10.67
861,88575441,0.9707,0.0854,-0.1021,13.35,2.56,10.91
862,88580442,0.9746,0.0850,-0.1035,13.84,2.26,11.46
863,88585442,0.9707,0.0845,-0.1006,14.15,2.01,11.71
864,88590442,0.9766,0.0830,-0.1060,14.45,1.59,11.95
865,88595445,0.9756,0.0840,-0.1025,14.57,1.22,12.20
866,88600440,0.9663,0.0771,-0.0962,14.57,0.98,12.44
867,88605442,0.9663,0.0762,-0.1040,14.51,0.61,12.62
868,88610440,0.9683,0.0762,-0.1016,14.27,0.18,12.93
869,88615443,0.9736,0.0718,-0.1060,14.02,-0.18,12.99
870,88620441,0.9780,0.0713,-0.1084,13.66,-0.61,13.17
871,88625442,0.9785,0.0684,-0.1050,13.17,-1.04,13.23
872,88630441,0.9771,0.0664,-0.1089,12.80,-1.40,13.41
873,88635442,0.9795,0.0669,-0.0981,12.26,-1.83,13.54
874,88640441,0.9805,0.0640,-0.0957,11.89,-2.13,13.66
875,88645442,0.9785,0.0586,-0.1030,11.40,-2.50,13.84
876,88650442,0.9810,0.0557,-0.1001,10.79,-2.80,13.96
877,88655442,0.9839,0.0513,-0.1021,10.30,-2.99,14.21
878,88660441,0.9863,0.0464,-0.1089,9.94,-3.54,14.45
879,88665442,0.9883,0.0439,-0.0977,9.21,-3.90,14.57
880,88670442,0.9878,0.0425,-0.1016,8.78,-4.27,14.70
881,88675440,0.9814,0.0400,-0.0942,8.41,-4.39,15.00
882,88680442,0.9824,0.0420,-0.1021,8.29,-4.82,15.12
883,88685442,0.9814,0.0405,-0.0986,8.23,-5.12,15.30
884,88690442,0.9814,0.0396,-0.0913,8.41,-5.37,15.49
885,88695444,0.9775,0.0381,-0.0894,8.72,-5.55,15.55
886,88700442,0.9775,0.0376,-0.0889,9.15,-5.79,15.61
887,88705442,0.9736,0.0405,-0.0894,9.57,-5.79,15.61
888,88710441,0.9756,0.0366,-0.0806,9.94,-6.04,15.61
889,88715442,0.9727,0.0352,-0.0859,10.37,-5.98,15.55
890,88720441,0.9712,0.0352,-0.0894,10.73,-6.10,15.67
891,88725443,0.9702,0.0293,-0.0938,11.04,-6.16,15.61
892,88730441,0.9692,0.0278,-0.0859,11.10,-6.28,15.61
893,88735442,0.9653,0.0234,-0.0796,11.10,-6.40,15.61
894,88740441,0.9648,0.0200,-0.0845,11.10,-6.52,15.61
895,88745442,0.9639,0.0186,-0.0767,10.98,-6.59,15.55
896,88750441,0.9619,0.0176,-0.0825,10.79,-6.65,15.49
897,88755713,0.9653,0.0156,-0.0850,10.55,-6.65,15.49
898,88760442,0.9644,0.0190,-0.0869,10.37,-6.65,15.55
899,88765444,0.9658,0.0107,-0.0845,10.06,-6.83,15.37
900,88770444,0.9644,0.0142,-0.0850,9.76,-7.01,15.37
901,88775444,0.9634,0.0142,-0.0928,9.39,-7.13,15.18
902,88780444,0.9595,0.0190,-0.0859,9.15,-7.32,15.12
903,88785443,0.9580,0.0161,-0.0801,8.78,-7.50,15.06
904,88790441,0.9590,0.0127,-0.0840,8.41,-7.62,14.94
905,88795442,0.9600,0.0107,-0.0898,7.99,-7.80,14.70
906,88800441,0.9609,0.0107,-0.0903,7.56,-7.99,14.70
907,88805442,0.9541,0.0083,-0.0894,7.13,-8.23,14.45
908,88810441,0.9521,0.0049,-0.0869,6.65,-8.35,14.39
909,88815442,0.9580,0.0010,-0.0913,6.34,-8.48,14.15
910,88820441,0.9565,0.0024,-0.0913,5.85,-8.84,14.15
911,88825440,0.9531,0.0054,-0.0879,5.49,-9.09,14.09
912,88830444,0.9521,0.0000,-0.0894,5.00,-9.39,13.96
913,88835442,0.9507,0.0024,-0.0889,4.76,-9.45,13.78
914,88840442,0.9492,0.0044,-0.0972,4.39,-9.76,13.66
915,88845441,0.9556,0.0054,-0.0918,4.21,-10.00,13.54
