# skilleye imu stream v1
# device=xiao_esp32c6 imu=mpu6050 addr=0x68
# rate_hz=200 accel_range_g=16 gyro_range_dps=2000 dlpf_hz=94
# units: accel in g, gyro in deg/s, t_us in microseconds since boot (monotonic)
# no shared clock with the camera -- tap the racket once before each take
# so both recordings share a spike to align on
seq,t_us,ax,ay,az,gx,gy,gz
0,226734786,-0.8975,-0.3457,0.1357,2.07,-2.32,7.56
1,226739810,-0.8975,-0.3462,0.1333,1.59,-2.26,7.80
2,226744786,-0.9028,-0.3452,0.1353,1.10,-2.32,7.87
3,226749787,-0.9053,-0.3462,0.1392,0.73,-2.38,7.93
4,226754786,-0.9072,-0.3457,0.1387,0.37,-2.50,7.99
5,226759787,-0.9092,-0.3467,0.1421,0.00,-2.56,7.99
6,226764787,-0.9160,-0.3491,0.1426,-0.24,-2.44,7.93
7,226769864,-0.9150,-0.3477,0.1396,-0.55,-2.68,8.11
8,226774785,-0.9194,-0.3457,0.1411,-0.55,-2.80,8.17
9,226779787,-0.9194,-0.3506,0.1406,-0.67,-2.93,7.99
10,226784786,-0.9175,-0.3491,0.1421,-0.55,-2.93,8.05
11,226789787,-0.9126,-0.3511,0.1416,-0.55,-3.05,8.05
12,226794785,-0.9141,-0.3481,0.1406,-0.49,-3.11,7.99
13,226799787,-0.9111,-0.3525,0.1406,-0.18,-3.35,7.99
14,226804787,-0.9160,-0.3467,0.1470,-0.06,-3.41,8.11
15,226809787,-0.9150,-0.3486,0.1484,0.18,-3.54,8.05
16,226814785,-0.9199,-0.3472,0.1489,0.37,-3.48,7.99
17,226820027,-0.9229,-0.3501,0.1465,0.67,-3.54,7.93
18,226824788,-0.9326,-0.3506,0.1470,0.98,-3.54,7.80
19,226829787,-0.9302,-0.3467,0.1514,1.28,-3.48,7.68
20,226834787,-0.9355,-0.3447,0.1538,1.40,-3.54,7.44
21,226839786,-0.9351,-0.3477,0.1504,1.65,-3.48,7.38
22,226844787,-0.9365,-0.3496,0.1465,1.83,-3.29,6.95
23,226849787,-0.9365,-0.3525,0.1494,1.95,-3.35,6.89
24,226854787,-0.9419,-0.3506,0.1479,2.26,-3.23,6.65
25,226859786,-0.9448,-0.3501,0.1499,2.50,-3.11,6.34
26,226864788,-0.9458,-0.3540,0.1479,2.68,-3.11,6.16
27,226869787,-0.9507,-0.3550,0.1460,3.17,-2.93,5.91
28,226874787,-0.9570,-0.3555,0.1440,3.35,-2.80,5.61
29,226879786,-0.9600,-0.3564,0.1494,3.72,-2.80,5.37
30,226884787,-0.9590,-0.3579,0.1465,4.15,-2.74,5.06
31,226889787,-0.9556,-0.3579,0.1411,4.39,-2.56,4.88
32,226894787,-0.9487,-0.3584,0.1436,4.70,-2.32,4.76
33,226899786,-0.9448,-0.3599,0.1382,5.24,-2.26,4.57
34,226904787,-0.9355,-0.3604,0.1333,5.85,-2.13,4.39
35,226909785,-0.9326,-0.3633,0.1357,6.46,-1.89,4.21
36,226914913,-0.9326,-0.3652,0.1328,7.01,-1.83,4.09
37,226919787,-0.9297,-0.3638,0.1348,7.50,-1.77,4.02
38,226924786,-0.9268,-0.3701,0.1279,8.17,-1.46,3.96
39,226929789,-0.9316,-0.3721,0.1313,8.78,-1.28,3.90
40,226934785,-0.9351,-0.3701,0.1309,9.51,-1.28,3.90
41,226939787,-0.9336,-0.3735,0.1250,10.18,-1.16,4.02
42,226944786,-0.9331,-0.3730,0.1157,10.91,-0.91,3.90
43,226949785,-0.9282,-0.3750,0.1172,11.65,-0.85,4.02
44,226954787,-0.9175,-0.3730,0.1187,12.20,-0.85,4.02
45,226959787,-0.9067,-0.3765,0.1138,12.68,-0.61,4.09
46,226964787,-0.9014,-0.3755,0.1143,13.35,-0.55,3.96
47,226969787,-0.8950,-0.3770,0.1138,13.66,-0.55,3.90
48,226974787,-0.9033,-0.3730,0.1089,14.02,-0.55,3.96
49,226979787,-0.8892,-0.3740,0.1118,14.27,-0.49,3.66
50,226984787,-0.8906,-0.3716,0.1143,14.21,-0.30,3.48
51,226989788,-0.8887,-0.3657,0.1133,14.09,-0.24,3.29
52,226994787,-0.8901,-0.3745,0.1128,13.66,-0.12,3.23
53,226999785,-0.8862,-0.3716,0.1177,13.11,0.00,2.93
54,227004785,-0.8892,-0.3701,0.1133,12.32,0.18,2.68
55,227009785,-0.8926,-0.3721,0.1191,11.22,0.24,2.38
56,227015024,-0.8896,-0.3677,0.1206,10.37,0.55,2.20
57,227019787,-0.8906,-0.3726,0.1187,9.33,0.73,2.01
58,227024786,-0.8950,-0.3716,0.1206,8.23,0.98,1.83
59,227029787,-0.8955,-0.3750,0.1313,7.07,1.22,1.65
60,227034785,-0.8926,-0.3745,0.1274,6.04,1.71,1.59
61,227039787,-0.8940,-0.3735,0.1260,4.82,1.83,1.46
62,227044786,-0.8926,-0.3696,0.1279,3.84,2.32,1.34
63,227049791,-0.8940,-0.3721,0.1318,2.87,2.38,1.22
64,227054787,-0.8931,-0.3730,0.1318,2.01,2.68,1.16
65,227059788,-0.8857,-0.3765,0.1328,1.10,3.05,1.16
66,227064786,-0.8862,-0.3721,0.1377,0.43,3.41,1.16
67,227069789,-0.8862,-0.3682,0.1372,-0.61,3.72,1.16
68,227074785,-0.8877,-0.3730,0.1348,-1.22,4.02,1.22
69,227079787,-0.8901,-0.3696,0.1401,-1.89,4.21,1.28
70,227084786,-0.8887,-0.3687,0.1440,-2.38,4.57,1.40
71,227089787,-0.8877,-0.3687,0.1475,-2.87,4.88,1.46
72,227094785,-0.8887,-0.3721,0.1484,-3.29,5.18,1.65
73,227099787,-0.8911,-0.3706,0.1416,-3.66,5.24,1.71
74,227104786,-0.8960,-0.3706,0.1470,-3.84,5.43,1.83
75,227109785,-0.8965,-0.3716,0.1519,-4.02,5.73,2.01
76,227114785,-0.9072,-0.3711,0.1519,-4.02,5.85,2.01
77,227119787,-0.9106,-0.3779,0.1475,-3.90,5.98,2.13
78,227125381,-0.9229,-0.3755,0.1514,-3.72,6.22,2.44
79,227129785,-0.9307,-0.3809,0.1519,-3.54,6.28,2.44
80,227134788,-0.9390,-0.3784,0.1489,-3.29,6.46,2.62
81,227139787,-0.9424,-0.3794,0.1489,-2.68,6.40,2.74
82,227144787,-0.9487,-0.3818,0.1519,-2.20,6.46,2.99
83,227149789,-0.9536,-0.3843,0.1484,-1.59,6.46,3.05
84,227154786,-0.9541,-0.3857,0.1514,-0.85,6.40,3.23
85,227159787,-0.9629,-0.3877,0.1455,0.12,6.34,3.48
86,227164786,-0.9609,-0.3862,0.1519,1.16,6.10,3.54
87,227169785,-0.9624,-0.3882,0.1523,2.07,5.98,3.72
88,227174787,-0.9600,-0.3892,0.1450,3.05,5.91,3.72
89,227179787,-0.9570,-0.3853,0.1460,4.21,5.67,3.84
90,227184786,-0.9595,-0.3804,0.1387,5.43,5.49,4.02
91,227189879,-0.9575,-0.3755,0.1436,6.22,5.18,3.72
92,227194788,-0.9541,-0.3706,0.1401,7.13,4.82,3.66
93,227199789,-0.9517,-0.3633,0.1421,7.80,4.57,3.41
94,227204786,-0.9458,-0.3647,0.1450,8.17,4.15,2.93
95,227209785,-0.9438,-0.3584,0.1436,8.23,3.96,2.62
96,227214785,-0.9434,-0.3550,0.1455,8.29,3.54,2.13
97,227219787,-0.9380,-0.3525,0.1426,7.99,3.11,1.77
98,227224798,-0.9321,-0.3452,0.1401,7.62,2.93,1.10
99,227229787,-0.9292,-0.3442,0.1353,7.07,2.50,0.67
100,227234786,-0.9253,-0.3384,0.1396,6.59,2.07,0.12
101,227239787,-0.9258,-0.3403,0.1396,5.98,1.77,-0.37
102,227244785,-0.9219,-0.3418,0.1367,5.24,1.46,-0.91
103,227249787,-0.9248,-0.3359,0.1387,4.63,0.98,-1.52
104,227254786,-0.9214,-0.3374,0.1323,3.90,0.49,-1.95
105,227259789,-0.9224,-0.3374,0.1392,3.05,0.06,-2.26
106,227264786,-0.9219,-0.3345,0.1426,2.44,-0.18,-2.68
107,227269785,-0.9185,-0.3340,0.1382,1.71,-0.49,-2.93
108,227274787,-0.9233,-0.3350,0.1382,0.98,-1.04,-3.11
109,227279786,-0.9214,-0.3350,0.1411,0.12,-1.34,-3.23
110,227284787,-0.9272,-0.3389,0.1348,-0.30,-1.52,-3.35
111,227289787,-0.9253,-0.3408,0.1377,-1.04,-1.59,-3.35
112,227294787,-0.9321,-0.3384,0.1396,-1.52,-1.77,-3.29
113,227299787,-0.9282,-0.3389,0.1387,-1.95,-2.07,-3.17
114,227304787,-0.9321,-0.3433,0.1387,-2.38,-2.13,-2.99
115,227309785,-0.9292,-0.3472,0.1387,-2.74,-2.32,-2.80
116,227314785,-0.9277,-0.3472,0.1489,-2.87,-2.50,-2.50
117,227319787,-0.9268,-0.3486,0.1392,-2.93,-2.62,-2.20
118,227324787,-0.9219,-0.3481,0.1401,-2.80,-2.68,-1.83
119,227329787,-0.9194,-0.3462,0.1426,-2.87,-2.68,-1.34
120,227334786,-0.9175,-0.3511,0.1362,-2.74,-2.74,-0.91
121,227339787,-0.9160,-0.3511,0.1333,-2.56,-2.74,-0.55
122,227344787,-0.9136,-0.3486,0.1328,-2.26,-2.93,-0.06
123,227349787,-0.9082,-0.3511,0.1387,-1.95,-2.93,0.49
124,227354786,-0.9062,-0.3511,0.1426,-1.52,-2.87,1.04
125,227359787,-0.9053,-0.3486,0.1401,-1.10,-2.80,1.34
126,227364786,-0.9033,-0.3516,0.1416,-0.73,-2.87,1.89
127,227369788,-0.9004,-0.3501,0.1445,-0.37,-2.87,2.38
128,227374786,-0.9033,-0.3496,0.1382,0.00,-2.87,2.74
129,227379787,-0.9014,-0.3481,0.1362,0.30,-2.87,3.23
130,227384785,-0.9019,-0.3491,0.1367,0.73,-2.93,3.72
131,227389787,-0.9009,-0.3501,0.1387,0.85,-2.87,4.09
132,227394789,-0.9033,-0.3486,0.1372,1.10,-3.05,4.33
133,227399787,-0.9043,-0.3481,0.1318,1.22,-3.05,4.70
134,227404787,-0.9038,-0.3457,0.1309,1.40,-2.99,5.12
135,227409785,-0.9004,-0.3501,0.1294,1.34,-3.23,5.30
136,227414785,-0.9053,-0.3511,0.1323,1.34,-3.17,5.67
137,227419785,-0.9038,-0.3486,0.1318,1.16,-3.35,6.04
138,227424787,-0.9077,-0.3467,0.1318,0.91,-3.35,6.40
139,227429811,-0.9082,-0.3491,0.1304,0.55,-3.41,6.59
140,227434786,-0.9053,-0.3496,0.1362,0.18,-3.48,6.89
141,227439785,-0.9048,-0.3472,0.1357,-0.37,-3.66,7.07
142,227444787,-0.9043,-0.3511,0.1323,-1.16,-3.78,7.32
143,227449952,-0.9009,-0.3486,0.1328,-1.83,-3.84,7.62
144,227454788,-0.9014,-0.3472,0.1289,-2.62,-3.90,7.80
145,227459785,-0.9009,-0.3481,0.1377,-3.72,-4.02,8.17
146,227464834,-0.9033,-0.3472,0.1333,-4.63,-4.15,8.23
147,227469788,-0.9014,-0.3501,0.1294,-5.85,-4.21,8.60
148,227474786,-0.9053,-0.3491,0.1362,-6.95,-4.39,8.84
149,227479787,-0.9121,-0.3501,0.1372,-8.29,-4.63,9.02
150,227484787,-0.9126,-0.3477,0.1367,-9.63,-4.76,9.15
151,227489789,-0.9150,-0.3472,0.1377,-10.73,-4.82,9.27
152,227494786,-0.9155,-0.3452,0.1387,-12.01,-5.12,9.51
153,227499787,-0.9189,-0.3467,0.1348,-13.23,-5.30,9.57
154,227504786,-0.9233,-0.3452,0.1367,-14.57,-5.55,9.76
155,227509785,-0.9277,-0.3428,0.1426,-15.85,-5.73,9.63
156,227514787,-0.9287,-0.3457,0.1426,-16.95,-5.91,9.76
157,227519785,-0.9336,-0.3423,0.1440,-17.99,-6.10,9.82
158,227524785,-0.9321,-0.3433,0.1460,-19.33,-6.40,9.70
159,227529787,-0.9351,-0.3452,0.1533,-20.43,-6.59,9.70
160,227534786,-0.9395,-0.3403,0.1445,-21.52,-6.77,9.76
161,227539785,-0.9399,-0.3398,0.1514,-22.62,-6.95,9.51
162,227544787,-0.9365,-0.3369,0.1455,-23.60,-7.07,9.63
163,227549787,-0.9390,-0.3384,0.1484,-24.39,-7.44,9.45
164,227554789,-0.9404,-0.3350,0.1499,-25.37,-7.68,9.33
165,227559787,-0.9399,-0.3374,0.1465,-26.34,-8.05,9.09
166,227564786,-0.9409,-0.3389,0.1450,-26.95,-8.29,9.09
167,227569787,-0.9395,-0.3359,0.1479,-27.68,-8.48,8.90
168,227574787,-0.9390,-0.3320,0.1421,-28.35,-8.84,8.72
169,227579785,-0.9395,-0.3369,0.1440,-28.96,-9.09,8.41
170,227584785,-0.9380,-0.3296,0.1460,-29.51,-9.33,8.23
171,227589787,-0.9399,-0.3311,0.1455,-30.06,-9.63,7.99
172,227595309,-0.9414,-0.3325,0.1479,-30.67,-9.94,7.68
173,227599787,-0.9443,-0.3311,0.1460,-31.10,-10.06,7.44
174,227604787,-0.9409,-0.3296,0.1460,-31.52,-10.24,7.20
175,227609787,-0.9438,-0.3286,0.1416,-31.83,-10.67,6.95
176,227614785,-0.9424,-0.3271,0.1475,-32.07,-10.79,6.59
177,227619786,-0.9482,-0.3271,0.1431,-32.32,-11.04,6.28
178,227624789,-0.9473,-0.3281,0.1440,-32.38,-11.28,5.98
179,227629786,-0.9468,-0.3228,0.1401,-32.56,-11.40,5.55
180,227635356,-0.9424,-0.3252,0.1509,-32.56,-11.71,5.30
181,227639787,-0.9424,-0.3257,0.1440,-32.26,-12.01,4.94
182,227644786,-0.9429,-0.3262,0.1401,-32.20,-12.13,4.57
183,227649787,-0.9414,-0.3213,0.1426,-31.77,-12.44,4.15
184,227654787,-0.9443,-0.3252,0.1396,-31.59,-12.62,3.90
185,227659787,-0.9463,-0.3223,0.1436,-31.22,-12.74,3.48
186,227664786,-0.9453,-0.3223,0.1357,-30.73,-12.93,3.11
187,227669787,-0.9463,-0.3223,0.1450,-30.12,-13.11,2.87
188,227674787,-0.9448,-0.3188,0.1387,-29.70,-13.29,2.44
189,227679786,-0.9448,-0.3198,0.1343,-29.15,-13.41,2.13
190,227684787,-0.9409,-0.3179,0.1338,-28.48,-13.54,1.77
191,227689788,-0.9429,-0.3125,0.1304,-27.74,-13.66,1.40
192,227694787,-0.9409,-0.3149,0.1270,-27.07,-13.72,0.98
193,227699786,-0.9448,-0.3198,0.1265,-26.34,-13.96,0.73
194,227704787,-0.9429,-0.3179,0.1274,-25.49,-13.90,0.30
195,227709788,-0.9453,-0.3169,0.1289,-24.70,-13.96,0.12
196,227714787,-0.9429,-0.3174,0.1226,-23.72,-13.96,-0.24
197,227719786,-0.9414,-0.3130,0.1187,-22.87,-14.15,-0.67
198,227724787,-0.9414,-0.3115,0.1167,-22.13,-14.02,-0.85
199,227729787,-0.9424,-0.3154,0.1177,-21.16,-13.90,-1.16
200,227734787,-0.9399,-0.3149,0.1216,-20.24,-13.84,-1.40
201,227739786,-0.9429,-0.3115,0.1172,-19.27,-13.78,-1.65
202,227744787,-0.9409,-0.3110,0.1152,-18.41,-13.66,-1.95
203,227749788,-0.9385,-0.3135,0.1245,-17.38,-13.60,-2.07
204,227754787,-0.9365,-0.3130,0.1113,-16.34,-13.29,-2.32
205,227759786,-0.9390,-0.3154,0.1143,-15.43,-13.23,-2.44
206,227764787,-0.9351,-0.3140,0.1118,-14.27,-12.99,-2.56
207,227769788,-0.9365,-0.3145,0.1128,-12.99,-12.74,-2.87
208,227774787,-0.9355,-0.3135,0.1064,-11.95,-12.44,-2.80
209,227779786,-0.9385,-0.3145,0.1118,-10.61,-12.20,-2.93
210,227784787,-0.9355,-0.3174,0.1094,-9.39,-11.95,-2.99
211,227789787,-0.9375,-0.3184,0.1055,-8.11,-11.59,-2.99
212,227794786,-0.9341,-0.3188,0.1050,-6.77,-11.28,-2.93
213,227799787,-0.9316,-0.3188,0.1050,-5.37,-10.79,-2.80
214,227804786,-0.9316,-0.3242,0.0957,-3.96,-10.43,-2.80
215,227809787,-0.9331,-0.3247,0.0986,-2.50,-10.06,-2.80
216,227814786,-0.9331,-0.3267,0.0967,-1.10,-9.70,-2.74
217,227819785,-0.9307,-0.3252,0.0962,0.24,-9.15,-2.62
218,227824787,-0.9336,-0.3257,0.1001,1.77,-8.78,-2.38
219,227829789,-0.9346,-0.3228,0.0967,3.23,-8.35,-2.20
220,227834786,-0.9272,-0.3276,0.0840,4.57,-7.87,-1.95
221,227839787,-0.9302,-0.3247,0.0913,5.91,-7.26,-1.83
222,227844786,-0.9302,-0.3242,0.0908,7.26,-6.71,-1.65
223,227849787,-0.9277,-0.3276,0.0879,8.35,-6.40,-1.46
224,227854786,-0.9272,-0.3271,0.0864,9.51,-5.91,-1.28
225,227859898,-0.9316,-0.3276,0.0903,10.55,-5.12,-1.04
226,227864788,-0.9316,-0.3262,0.0864,11.40,-4.76,-0.67
227,227869787,-0.9282,-0.3257,0.0884,12.20,-4.09,-0.61
228,227874787,-0.9282,-0.3276,0.0815,12.87,-3.48,-0.37
229,227879788,-0.9243,-0.3311,0.0854,13.41,-2.80,-0.12
230,227884787,-0.9268,-0.3267,0.0825,13.90,-2.38,0.12
231,227889786,-0.9263,-0.3262,0.0869,14.33,-1.59,0.24
232,227894787,-0.9204,-0.3237,0.0796,14.51,-1.04,0.43
233,227899788,-0.9229,-0.3252,0.0801,14.70,-0.30,0.67
234,227904787,-0.9229,-0.3257,0.0830,14.70,0.18,0.67
235,227909785,-0.9194,-0.3276,0.0791,14.82,1.04,0.98
236,227914785,-0.9189,-0.3257,0.0767,14.70,1.52,1.10
237,227919787,-0.9219,-0.3257,0.0835,14.57,2.13,1.28
238,227924786,-0.9175,-0.3252,0.0859,14.39,2.93,1.34
239,227929787,-0.9189,-0.3291,0.0830,14.27,3.60,1.65
240,227934786,-0.9155,-0.3257,0.0776,14.02,4.09,1.71
241,227939785,-0.9160,-0.3267,0.0811,13.90,4.70,1.95
242,227944787,-0.9155,-0.3262,0.0723,13.54,5.55,2.13
243,227949789,-0.9146,-0.3218,0.0767,13.29,6.10,2.32
244,227954786,-0.9141,-0.3257,0.0840,13.11,6.59,2.32
245,227959787,-0.9180,-0.3281,0.0776,12.87,7.07,2.62
246,227964786,-0.9155,-0.3296,0.0762,12.74,7.74,2.62
247,227969787,-0.9141,-0.3315,0.0815,12.62,8.35,2.80
248,227974786,-0.9131,-0.3281,0.0791,12.62,8.78,3.05
249,227979787,-0.9102,-0.3267,0.0786,12.68,9.33,3.23
250,227984786,-0.9116,-0.3306,0.0903,12.56,9.82,3.41
251,227989787,-0.9146,-0.3330,0.0859,12.68,10.18,3.60
252,227994787,-0.9165,-0.3335,0.0815,12.80,10.73,3.78
253,227999787,-0.9121,-0.3350,0.0933,13.05,11.04,3.90
254,228004786,-0.9165,-0.3350,0.0884,13.23,11.46,4.02
255,228009787,-0.9204,-0.3350,0.0903,13.54,11.83,4.21
256,228014786,-0.9209,-0.3354,0.0928,13.96,12.13,4.27
257,228019787,-0.9224,-0.3364,0.0938,14.33,12.56,4.39
258,228024785,-0.9238,-0.3384,0.0869,14.76,12.93,4.51
259,228029789,-0.9248,-0.3403,0.0952,15.30,13.29,4.70
260,228034786,-0.9253,-0.3433,0.0986,15.85,13.54,4.88
261,228039785,-0.9253,-0.3403,0.0996,16.40,13.84,5.00
262,228044787,-0.9292,-0.3403,0.1089,17.07,14.09,5.18
263,228049789,-0.9263,-0.3369,0.1006,17.80,14.27,5.18
264,228054788,-0.9277,-0.3423,0.1030,18.35,14.51,5.37
265,228059785,-0.9282,-0.3394,0.1064,19.02,14.63,5.37
266,228064785,-0.9282,-0.3413,0.1113,19.76,14.88,5.43
267,228069785,-0.9312,-0.3384,0.1064,20.30,15.00,5.49
268,228074786,-0.9287,-0.3408,0.1128,20.79,15.12,5.55
269,228079788,-0.9312,-0.3374,0.1064,21.40,15.24,5.61
270,228084787,-0.9292,-0.3364,0.1157,21.95,15.24,5.55
271,228089786,-0.9326,-0.3403,0.1104,22.56,15.37,5.49
272,228094785,-0.9307,-0.3403,0.1221,22.87,15.37,5.43
273,228099785,-0.9302,-0.3379,0.1177,23.35,15.43,5.49
274,228104789,-0.9268,-0.3374,0.1128,23.66,15.37,5.30
275,228109789,-0.9277,-0.3398,0.1274,24.09,15.37,5.24
276,228114786,-0.9331,-0.3359,0.1230,24.39,15.24,5.06
277,228119789,-0.9355,-0.3384,0.1206,24.63,15.24,4.88
278,228124786,-0.9390,-0.3374,0.1260,24.63,15.12,4.70
279,228129785,-0.9351,-0.3398,0.1245,24.94,14.94,4.33
280,228134787,-0.9351,-0.3418,0.1226,25.06,14.76,4.21
281,228139787,-0.9297,-0.3389,0.1299,25.24,14.57,3.84
282,228144786,-0.9282,-0.3379,0.1279,25.37,14.33,3.60
283,228150257,-0.9312,-0.3374,0.1270,25.43,14.02,3.35
284,228154787,-0.9282,-0.3369,0.1279,25.73,13.84,3.05
285,228159787,-0.9302,-0.3389,0.1235,25.73,13.54,2.74
286,228164787,-0.9302,-0.3467,0.1357,25.55,13.17,2.38
287,228169787,-0.9331,-0.3398,0.1333,25.61,13.05,2.07
288,228174787,-0.9312,-0.3418,0.1338,25.61,12.74,1.71
289,228179788,-0.9312,-0.3403,0.1313,25.24,12.32,1.46
290,228184787,-0.9307,-0.3418,0.1304,25.12,11.95,1.16
291,228189786,-0.9341,-0.3408,0.1343,24.94,11.59,0.73
292,228194789,-0.9380,-0.3389,0.1343,24.51,11.22,0.49
293,228199786,-0.9395,-0.3467,0.1328,24.27,10.79,0.24
294,228204786,-0.9390,-0.3423,0.1318,23.90,10.61,-0.12
295,228209787,-0.9399,-0.3438,0.1265,23.48,10.24,-0.37
296,228214786,-0.9385,-0.3438,0.1230,23.23,9.94,-0.61
297,228219787,-0.9429,-0.3472,0.1299,22.87,9.63,-0.85
298,228224786,-0.9360,-0.3477,0.1323,22.56,9.21,-1.22
299,228229785,-0.9395,-0.3442,0.1313,22.20,8.72,-1.40
300,228234785,-0.9326,-0.3457,0.1270,21.89,8.41,-1.46
301,228239785,-0.9351,-0.3486,0.1279,21.40,8.17,-1.77
302,228244787,-0.9336,-0.3472,0.1250,21.22,7.50,-1.77
303,228249789,-0.9346,-0.3481,0.1289,20.73,7.26,-2.01
304,228254786,-0.9292,-0.3511,0.1304,20.30,6.89,-2.07
305,228260236,-0.9287,-0.3496,0.1289,19.70,6.59,-2.20
306,228264787,-0.9253,-0.3472,0.1260,19.15,6.10,-2.38
307,228269787,-0.9248,-0.3472,0.1255,18.78,5.79,-2.38
308,228274787,-0.9219,-0.3501,0.1157,18.11,5.43,-2.44
309,228279786,-0.9238,-0.3516,0.1206,17.68,5.12,-2.50
310,228284788,-0.9224,-0.3462,0.1162,17.01,4.88,-2.50
311,228289787,-0.9199,-0.3467,0.1167,16.77,4.63,-2.44
312,228294787,-0.9209,-0.3472,0.1245,15.98,4.39,-2.50
313,228299787,-0.9175,-0.3501,0.1128,15.37,3.96,-2.44
314,228304787,-0.9214,-0.3496,0.1191,14.76,3.84,-2.44
315,228309787,-0.9199,-0.3467,0.1182,14.15,3.54,-2.32
316,228314787,-0.9204,-0.3525,0.1113,13.72,3.23,-2.20
317,228319787,-0.9175,-0.3525,0.1113,12.99,2.80,-2.20
318,228325260,-0.9194,-0.3496,0.1133,12.26,2.62,-2.07
319,228329786,-0.9175,-0.3516,0.1128,11.65,2.38,-2.01
320,228334785,-0.9199,-0.3477,0.1094,11.04,2.13,-1.83
321,228339785,-0.9175,-0.3477,0.1128,10.30,1.71,-1.71
322,228344995,-0.9121,-0.3457,0.1094,9.45,1.65,-1.59
323,228349787,-0.9126,-0.3521,0.1157,8.84,1.46,-1.59
324,228354786,-0.9165,-0.3472,0.1138,8.05,1.22,-1.34
325,228359787,-0.9116,-0.3491,0.1128,7.32,1.04,-1.16
326,228364786,-0.9116,-0.3481,0.1167,6.59,0.85,-0.91
327,228369856,-0.9185,-0.3472,0.1157,5.79,0.49,-0.85
328,228374786,-0.9199,-0.3486,0.1133,5.06,0.49,-0.73
329,228379787,-0.9160,-0.3472,0.1128,4.33,0.18,-0.61
330,228384787,-0.9155,-0.3438,0.1104,3.48,0.00,-0.43
331,228389789,-0.9121,-0.3491,0.1035,2.80,-0.12,-0.37
332,228394786,-0.9146,-0.3442,0.1104,2.01,-0.37,-0.12
333,228399787,-0.9116,-0.3438,0.1118,1.22,-0.43,-0.06
334,228404786,-0.9204,-0.3413,0.1064,0.43,-0.61,0.00
335,228409787,-0.9165,-0.3423,0.1118,-0.30,-0.91,0.12
336,228414787,-0.9170,-0.3481,0.1133,-1.16,-1.10,0.18
337,228419787,-0.9189,-0.3438,0.1143,-1.83,-1.10,0.37
338,228424786,-0.9224,-0.3394,0.1182,-2.50,-1.40,0.43
339,228429787,-0.9194,-0.3384,0.1074,-3.29,-1.52,0.61
340,228434785,-0.9204,-0.3403,0.1108,-3.84,-1.77,0.55
341,228439785,-0.9224,-0.3384,0.1167,-4.45,-1.83,0.73
342,228444785,-0.9180,-0.3369,0.1064,-4.94,-1.89,0.85
343,228449790,-0.9155,-0.3398,0.1099,-5.49,-2.07,0.91
344,228454785,-0.9209,-0.3379,0.1123,-5.91,-2.07,0.98
345,228459787,-0.9199,-0.3379,0.1157,-6.22,-2.32,1.04
346,228464786,-0.9282,-0.3335,0.1118,-6.40,-2.32,1.22
347,228469787,-0.9229,-0.3389,0.1162,-6.71,-2.44,1.34
348,228474786,-0.9287,-0.3379,0.1167,-6.95,-2.56,1.46
349,228479787,-0.9248,-0.3379,0.1123,-7.26,-2.74,1.52
350,228484786,-0.9243,-0.3379,0.1104,-7.38,-2.87,1.52
351,228489787,-0.9263,-0.3394,0.1099,-7.38,-2.87,1.71
352,228494787,-0.9253,-0.3403,0.1079,-7.62,-2.99,1.71
353,228499787,-0.9248,-0.3379,0.1035,-7.74,-3.11,1.89
354,228504788,-0.9233,-0.3384,0.1094,-7.68,-3.11,2.01
355,228509785,-0.9258,-0.3354,0.0991,-7.68,-3.29,2.13
356,228514787,-0.9258,-0.3403,0.1050,-7.68,-3.29,2.32
357,228519787,-0.9302,-0.3330,0.1025,-7.80,-3.41,2.32
358,228524787,-0.9302,-0.3364,0.1016,-7.80,-3.72,2.44
359,228529787,-0.9238,-0.3394,0.1055,-7.68,-3.66,2.56
360,228534787,-0.9263,-0.3389,0.1040,-7.62,-3.90,2.56
361,228539785,-0.9243,-0.3394,0.1074,-7.74,-3.78,2.62
362,228544785,-0.9302,-0.3413,0.1108,-7.62,-4.21,2.80
363,228549788,-0.9243,-0.3354,0.0991,-7.62,-4.09,2.93
364,228554785,-0.9214,-0.3359,0.1021,-7.50,-4.27,2.99
365,228559787,-0.9229,-0.3359,0.1055,-7.32,-4.27,3.05
366,228564786,-0.9194,-0.3369,0.1055,-7.32,-4.45,3.11
367,228569788,-0.9204,-0.3384,0.1064,-7.01,-4.57,3.29
368,228574787,-0.9219,-0.3369,0.1021,-6.77,-4.51,3.41
369,228579787,-0.9189,-0.3345,0.1108,-6.40,-4.63,3.35
370,228584787,-0.9204,-0.3418,0.1025,-6.16,-4.76,3.48
371,228589787,-0.9233,-0.3389,0.1040,-5.85,-4.70,3.54
372,228594787,-0.9224,-0.3384,0.1011,-5.55,-5.00,3.54
373,228599789,-0.9199,-0.3389,0.0972,-5.30,-4.94,3.60
374,228604786,-0.9243,-0.3413,0.0986,-5.06,-4.94,3.66
375,228609787,-0.9214,-0.3394,0.1035,-4.94,-4.88,3.72
376,228614787,-0.9243,-0.3379,0.1050,-4.63,-5.12,3.60
377,228619787,-0.9258,-0.3418,0.1021,-4.33,-5.00,3.60
378,228624786,-0.9282,-0.3398,0.1011,-4.09,-4.94,3.60
379,228629787,-0.9277,-0.3408,0.0996,-3.66,-4.94,3.66
380,228634786,-0.9258,-0.3418,0.1025,-3.41,-5.00,3.72
381,228639785,-0.9258,-0.3374,0.1040,-3.23,-4.88,3.66
382,228644785,-0.9238,-0.3394,0.1069,-2.99,-4.94,3.60
383,228649785,-0.9258,-0.3433,0.1001,-2.62,-4.82,3.54
384,228654787,-0.9233,-0.3398,0.1011,-2.44,-4.88,3.48
385,228659789,-0.9224,-0.3398,0.1035,-2.13,-4.82,3.41
386,228664786,-0.9238,-0.3384,0.1021,-1.89,-4.82,3.35
387,228669787,-0.9253,-0.3389,0.0967,-1.65,-4.70,3.48
388,228674786,-0.9253,-0.3413,0.0977,-1.46,-4.70,3.35
389,228679787,-0.9268,-0.3418,0.0962,-1.10,-4.57,3.29
390,228684786,-0.9253,-0.3442,0.0991,-0.85,-4.51,3.23
391,228689787,-0.9268,-0.3442,0.0972,-0.61,-4.39,3.17
392,228694874,-0.9272,-0.3428,0.0957,-0.30,-4.45,3.11
393,228699787,-0.9229,-0.3477,0.1011,-0.12,-4.39,3.17
394,228704787,-0.9243,-0.3438,0.0996,0.12,-4.39,3.05
395,228709785,-0.9248,-0.3452,0.0923,0.49,-4.21,2.99
396,228714789,-0.9243,-0.3423,0.0957,0.73,-4.21,2.93
397,228719787,-0.9268,-0.3433,0.0942,1.04,-4.02,2.99
398,228724787,-0.9243,-0.3447,0.0957,1.28,-4.02,2.93
399,228729787,-0.9224,-0.3481,0.1011,1.52,-3.96,2.87
400,228734787,-0.9224,-0.3491,0.0908,1.77,-3.84,2.74
401,228739785,-0.9185,-0.3501,0.0933,1.95,-3.66,2.80
402,228744787,-0.9204,-0.3481,0.0933,2.32,-3.72,2.87
403,228749786,-0.9238,-0.3438,0.0889,2.50,-3.66,2.68
404,228754951,-0.9258,-0.3477,0.0928,2.74,-3.41,2.62
405,228759787,-0.9263,-0.3447,0.0898,2.99,-3.54,2.62
406,228764787,-0.9238,-0.3428,0.0864,3.23,-3.35,2.62
407,228769786,-0.9185,-0.3428,0.0928,3.41,-3.29,2.56
408,228774789,-0.9204,-0.3457,0.0879,3.54,-3.17,2.56
409,228779786,-0.9209,-0.3423,0.0908,3.54,-3.05,2.50
410,228784787,-0.9175,-0.3418,0.0938,3.66,-2.87,2.32
411,228789787,-0.9243,-0.3462,0.0947,3.72,-3.05,2.20
412,228794787,-0.9268,-0.3442,0.0894,3.78,-2.80,2.26
413,228799787,-0.9268,-0.3462,0.0967,3.72,-2.74,2.20
414,228804787,-0.9272,-0.3438,0.0957,3.66,-2.62,2.07
415,228809788,-0.9253,-0.3452,0.0894,3.66,-2.38,2.01
416,228814787,-0.9238,-0.3452,0.0957,3.60,-2.26,2.01
417,228819787,-0.9229,-0.3442,0.0947,3.60,-2.13,1.89
418,228824787,-0.9209,-0.3462,0.0952,3.54,-2.07,1.83
419,228829787,-0.9229,-0.3418,0.0977,3.35,-1.77,1.83
420,228834787,-0.9263,-0.3438,0.0898,3.23,-1.83,1.71
421,228839787,-0.9253,-0.3447,0.0928,3.23,-1.65,1.71
422,228844787,-0.9248,-0.3472,0.0977,3.23,-1.65,1.59
423,228849785,-0.9224,-0.3428,0.0952,3.29,-1.52,1.65
424,228854785,-0.9248,-0.3433,0.0928,3.11,-1.28,1.46
425,228859787,-0.9199,-0.3433,0.0967,3.29,-1.16,1.52
426,228864788,-0.9175,-0.3423,0.0928,3.17,-1.16,1.40
427,228869787,-0.9209,-0.3442,0.0986,3.11,-1.10,1.34
428,228874787,-0.9253,-0.3423,0.0962,3.11,-1.04,1.46
429,228879787,-0.9238,-0.3394,0.0913,3.11,-0.91,1.28
430,228884787,-0.9268,-0.3418,0.0942,3.17,-0.85,1.28
431,228889787,-0.9263,-0.3408,0.0908,3.23,-0.61,1.16
432,228894787,-0.9243,-0.3413,0.0923,3.29,-0.73,1.22
433,228899787,-0.9272,-0.3442,0.0952,3.23,-0.49,1.16
434,228904788,-0.9312,-0.3403,0.0977,3.29,-0.49,0.98
435,228910264,-0.9331,-0.3442,0.0972,3.54,-0.18,1.16
436,228914788,-0.9292,-0.3442,0.0952,3.54,-0.37,1.10
437,228919953,-0.9272,-0.3481,0.0952,3.78,-0.24,1.16
438,228924787,-0.9277,-0.3486,0.1021,3.90,-0.18,1.16
439,228929787,-0.9224,-0.3452,0.0952,4.15,-0.06,1.16
440,228934787,-0.9238,-0.3457,0.0977,4.33,0.00,1.22
441,228939787,-0.9258,-0.3433,0.0991,4.51,0.00,1.16
442,228944787,-0.9243,-0.3433,0.1040,4.70,0.18,1.28
443,228949785,-0.9214,-0.3418,0.1001,4.88,0.24,1.22
444,228954785,-0.9209,-0.3433,0.0996,5.06,0.24,1.34
445,228960187,-0.9229,-0.3413,0.0938,5.43,0.43,1.40
446,228964787,-0.9199,-0.3428,0.0957,5.43,0.37,1.40
447,228969789,-0.9194,-0.3384,0.0991,5.67,0.37,1.40
448,228974786,-0.9199,-0.3452,0.1016,5.79,0.37,1.40
449,228979787,-0.9204,-0.3423,0.0913,5.85,0.49,1.46
450,228984786,-0.9185,-0.3433,0.0957,5.85,0.43,1.46
451,228989787,-0.9229,-0.3428,0.0981,5.91,0.49,1.46
452,228994787,-0.9253,-0.3481,0.0996,5.91,0.37,1.46
453,228999787,-0.9238,-0.3413,0.0996,5.91,0.49,1.52
454,229004787,-0.9272,-0.3418,0.1040,5.91,0.43,1.52
455,229009787,-0.9248,-0.3428,0.0981,5.79,0.61,1.65
456,229014788,-0.9272,-0.3433,0.1045,5.61,0.49,1.65
457,229019785,-0.9253,-0.3389,0.1006,5.43,0.43,1.59
458,229024787,-0.9224,-0.3423,0.1016,5.37,0.55,1.77
459,229029787,-0.9243,-0.3413,0.0947,5.06,0.49,1.71
460,229034787,-0.9238,-0.3398,0.0977,5.00,0.55,1.71
461,229039787,-0.9243,-0.3394,0.1050,4.82,0.37,1.77
462,229044787,-0.9253,-0.3398,0.0986,4.63,0.43,1.77
463,229049785,-0.9194,-0.3359,0.0933,4.39,0.43,1.77
464,229054785,-0.9209,-0.3452,0.0967,4.27,0.30,1.89
465,229059785,-0.9204,-0.3403,0.1050,4.02,0.18,1.89
466,229064805,-0.9204,-0.3394,0.0967,3.84,0.00,1.89
467,229069788,-0.9209,-0.3413,0.1021,3.66,0.00,1.89
468,229074787,-0.9199,-0.3379,0.1040,3.41,-0.12,1.83
469,229079787,-0.9189,-0.3320,0.0967,3.11,-0.12,1.89
470,229084787,-0.9233,-0.3350,0.1108,2.74,-0.18,1.71
471,229089787,-0.9229,-0.3340,0.1030,2.62,-0.37,1.65
472,229094787,-0.9238,-0.3345,0.0996,2.26,-0.55,1.71
473,229099787,-0.9229,-0.3354,0.1030,1.89,-0.43,1.46
474,229104788,-0.9277,-0.3354,0.1055,1.65,-0.55,1.40
475,229110349,-0.9297,-0.3364,0.1089,1.40,-0.73,1.40
476,229114858,-0.9312,-0.3350,0.1099,1.10,-0.79,1.22
477,229119821,-0.9312,-0.3350,0.1099,0.98,-0.73,1.16
478,229124788,-0.9336,-0.3364,0.1128,0.85,-0.79,1.10
479,229130402,-0.9292,-0.3354,0.1118,0.73,-1.04,1.04
480,229134787,-0.9336,-0.3350,0.1084,0.73,-1.04,1.04
481,229139787,-0.9307,-0.3345,0.1099,0.73,-1.10,1.16
482,229144787,-0.9258,-0.3340,0.1074,0.85,-0.98,1.04
483,229149785,-0.9336,-0.3408,0.1069,1.04,-1.16,1.16
484,229154787,-0.9307,-0.3354,0.1050,1.28,-1.22,1.10
485,229159787,-0.9282,-0.3379,0.1040,1.46,-1.34,1.10
486,229164785,-0.9287,-0.3359,0.1064,1.89,-1.28,1.10
487,229169788,-0.9312,-0.3384,0.1060,2.07,-1.65,1.22
488,229174786,-0.9316,-0.3350,0.1040,2.38,-1.71,1.40
489,229179787,-0.9312,-0.3354,0.1060,2.56,-1.59,1.40
490,229184787,-0.9297,-0.3330,0.1040,2.93,-1.65,1.46
491,229189786,-0.9233,-0.3335,0.1040,3.05,-1.77,1.65
492,229194788,-0.9292,-0.3325,0.1060,3.35,-1.83,1.65
493,229199787,-0.9292,-0.3384,0.0967,3.48,-1.77,1.77
494,229204788,-0.9272,-0.3296,0.1016,3.66,-1.77,1.89
495,229209787,-0.9326,-0.3359,0.1001,3.72,-1.71,2.01
496,229214787,-0.9331,-0.3335,0.0991,3.60,-2.13,2.07
497,229219787,-0.9321,-0.3340,0.0967,3.72,-2.13,2.07
498,229224785,-0.9316,-0.3340,0.0952,3.66,-2.20,2.38
499,229229787,-0.9326,-0.3315,0.0972,3.41,-2.20,2.26
500,229234788,-0.9321,-0.3301,0.0977,3.29,-2.20,2.38
501,229239787,-0.9282,-0.3320,0.0918,3.05,-2.26,2.50
502,229244787,-0.9302,-0.3301,0.0889,2.87,-2.38,2.50
503,229249787,-0.9277,-0.3286,0.0981,2.62,-2.50,2.68
504,229254787,-0.9292,-0.3301,0.0981,2.44,-2.38,2.68
505,229259785,-0.9263,-0.3296,0.0981,2.20,-2.26,2.68
506,229264785,-0.9243,-0.3286,0.0942,1.89,-2.32,2.80
507,229269787,-0.9248,-0.3311,0.0928,1.65,-2.44,2.93
508,229274788,-0.9277,-0.3325,0.0942,1.40,-2.38,3.05
509,229279787,-0.9263,-0.3306,0.0913,1.22,-2.44,3.11
510,229284787,-0.9268,-0.3345,0.0942,0.98,-2.38,3.17
511,229289787,-0.9312,-0.3325,0.0903,0.91,-2.44,3.17
512,229294787,-0.9287,-0.3354,0.0913,0.67,-2.44,3.23
513,229299787,-0.9229,-0.3340,0.0923,0.55,-2.32,3.29
514,229304787,-0.9268,-0.3330,0.0957,0.55,-2.20,3.48
515,229309802,-0.9248,-0.3335,0.0903,0.67,-2.26,3.60
516,229314787,-0.9224,-0.3354,0.0898,0.55,-2.13,3.54
517,229319785,-0.9233,-0.3354,0.0898,0.61,-2.20,3.66
518,229324785,-0.9229,-0.3408,0.0894,0.85,-2.01,3.66
519,229329788,-0.9263,-0.3374,0.0986,0.98,-1.95,3.78
520,229334789,-0.9214,-0.3389,0.0938,1.28,-2.07,3.90
521,229339787,-0.9214,-0.3398,0.0864,1.40,-1.83,3.90
522,229344787,-0.9214,-0.3398,0.0923,1.71,-1.83,4.09
523,229349787,-0.9204,-0.3438,0.0889,1.95,-1.77,3.96
524,229354787,-0.9224,-0.3389,0.0874,2.32,-1.77,4.02
525,229359785,-0.9219,-0.3394,0.0918,2.56,-1.71,4.09
526,229364785,-0.9253,-0.3423,0.0928,2.87,-1.59,4.09
527,229369788,-0.9189,-0.3408,0.0898,3.05,-1.52,3.96
528,229374786,-0.9229,-0.3438,0.0962,3.29,-1.40,4.09
529,229379787,-0.9248,-0.3433,0.0957,3.60,-1.28,3.96
530,229384786,-0.9219,-0.3413,0.0952,3.90,-1.22,4.02
531,229390162,-0.9214,-0.3457,0.0889,4.09,-1.10,4.02
532,229394788,-0.9204,-0.3452,0.0869,4.45,-0.98,4.02
533,229399786,-0.9224,-0.3501,0.0864,4.57,-0.91,3.96
534,229404787,-0.9209,-0.3486,0.0850,5.06,-0.79,4.09
535,229409787,-0.9180,-0.3472,0.0918,5.12,-0.61,3.78
536,229414788,-0.9204,-0.3501,0.0894,5.43,-0.61,3.78
537,229419787,-0.9199,-0.3462,0.0884,5.73,-0.43,3.72
538,229424788,-0.9189,-0.3477,0.0913,5.85,-0.49,3.78
539,229429785,-0.9199,-0.3501,0.0923,6.04,-0.30,3.66
540,229434787,-0.9224,-0.3496,0.0879,6.10,-0.37,3.60
541,229439786,-0.9229,-0.3477,0.0898,6.16,-0.18,3.54
542,229444787,-0.9224,-0.3491,0.0923,6.16,-0.18,3.35
543,229450320,-0.9263,-0.3477,0.0957,6.16,0.00,3.29
544,229454787,-0.9209,-0.3511,0.0928,6.22,0.24,3.11
545,229459786,-0.9229,-0.3496,0.0942,6.10,0.24,3.05
546,229464785,-0.9219,-0.3521,0.0933,5.98,0.24,2.93
547,229469800,-0.9229,-0.3535,0.0903,6.10,0.24,2.80
548,229474787,-0.9189,-0.3472,0.0981,5.91,0.43,2.80
549,229479787,-0.9214,-0.3516,0.0947,5.85,0.43,2.68
550,229484787,-0.9219,-0.3540,0.0933,5.73,0.55,2.56
551,229489787,-0.9204,-0.3535,0.0884,5.55,0.55,2.44
552,229494787,-0.9160,-0.3525,0.0967,5.43,0.55,2.26
553,229499787,-0.9185,-0.3516,0.0923,5.30,0.55,2.20
554,229504787,-0.9160,-0.3501,0.0942,5.30,0.73,2.13
555,229509790,-0.9180,-0.3555,0.0962,5.24,0.67,1.95
556,229514787,-0.9170,-0.3506,0.0903,5.00,0.67,1.89
557,229519786,-0.9194,-0.3521,0.0933,4.94,0.67,1.77
558,229524808,-0.9263,-0.3511,0.0981,5.00,0.61,1.52
559,229529787,-0.9258,-0.3501,0.0996,4.82,0.67,1.46
560,229534787,-0.9277,-0.3530,0.0947,4.76,0.73,1.40
561,229539787,-0.9302,-0.3521,0.0957,4.76,0.67,1.28
562,229544787,-0.9277,-0.3535,0.0972,4.82,0.67,1.16
563,229549787,-0.9272,-0.3584,0.0977,4.70,0.61,1.10
564,229554787,-0.9297,-0.3535,0.0981,4.82,0.67,1.04
565,229560269,-0.9297,-0.3511,0.1045,4.51,0.79,1.04
566,229564785,-0.9272,-0.3481,0.0933,4.51,0.61,0.91
567,229569785,-0.9253,-0.3496,0.1025,4.51,0.79,0.79
568,229574789,-0.9238,-0.3486,0.1035,4.45,0.67,0.73
569,229579786,-0.9253,-0.3491,0.0972,4.33,0.73,0.67
570,229584787,-0.9219,-0.3521,0.1025,4.21,0.61,0.49
571,229589787,-0.9214,-0.3462,0.0996,4.27,0.67,0.43
572,229594787,-0.9248,-0.3486,0.1001,4.09,0.61,0.37
573,229599787,-0.9214,-0.3491,0.1025,4.21,0.61,0.30
574,229604787,-0.9224,-0.3496,0.1021,4.21,0.37,0.24
575,229609787,-0.9238,-0.3491,0.0996,4.09,0.37,0.06
576,229614852,-0.9229,-0.3467,0.0962,4.15,0.30,0.00
577,229619787,-0.9243,-0.3442,0.1011,4.02,0.24,-0.06
578,229624787,-0.9277,-0.3472,0.1025,4.09,0.24,-0.18
579,229629787,-0.9277,-0.3447,0.1040,4.15,0.24,-0.24
580,229634787,-0.9209,-0.3452,0.1045,4.02,0.24,-0.37
581,229639787,-0.9160,-0.3486,0.1001,4.15,0.00,-0.24
582,229644786,-0.9229,-0.3491,0.1035,4.21,0.00,-0.43
583,229649796,-0.9204,-0.3447,0.1035,4.09,-0.06,-0.49
584,229654787,-0.9248,-0.3467,0.1021,4.21,-0.12,-0.49
585,229659787,-0.9248,-0.3438,0.1079,4.15,-0.06,-0.55
586,229664786,-0.9229,-0.3447,0.1025,4.21,-0.24,-0.55
587,229669785,-0.9238,-0.3413,0.1011,4.21,-0.43,-0.67
588,229674785,-0.9248,-0.3423,0.1016,4.27,-0.43,-0.85
589,229679787,-0.9214,-0.3428,0.1064,4.09,-0.43,-0.79
590,229684787,-0.9233,-0.3413,0.1016,3.96,-0.49,-0.91
591,229689787,-0.9263,-0.3384,0.1060,4.09,-0.55,-0.91
592,229694787,-0.9297,-0.3433,0.1040,4.15,-0.55,-1.04
593,229699785,-0.9277,-0.3418,0.1035,3.96,-0.67,-0.98
594,229704787,-0.9282,-0.3403,0.1069,3.78,-0.85,-1.04
595,229709786,-0.9302,-0.3379,0.0977,3.66,-0.85,-1.10
596,229714788,-0.9302,-0.3364,0.1060,3.48,-1.04,-1.10
597,229719787,-0.9253,-0.3350,0.1060,3.41,-0.91,-1.16
598,229724788,-0.9238,-0.3354,0.1035,3.17,-1.04,-1.16
599,229729787,-0.9194,-0.3374,0.1030,2.99,-0.98,-1.22
600,229734787,-0.9258,-0.3315,0.1045,2.80,-1.10,-1.16
601,229739787,-0.9243,-0.3325,0.1011,2.56,-1.22,-1.22
602,229744787,-0.9272,-0.3340,0.1035,2.32,-1.34,-1.16
603,229749786,-0.9229,-0.3301,0.1045,2.32,-1.46,-1.16
604,229754788,-0.9302,-0.3345,0.0962,2.26,-1.52,-0.98
605,229759787,-0.9316,-0.3306,0.0991,2.13,-1.71,-0.98
606,229764787,-0.9253,-0.3311,0.0962,2.01,-1.59,-0.85
607,229769785,-0.9282,-0.3330,0.0981,2.01,-1.71,-0.85
608,229774785,-0.9272,-0.3335,0.1030,1.89,-1.77,-0.73
609,229779787,-0.9233,-0.3306,0.0991,1.71,-1.83,-0.61
610,229784788,-0.9263,-0.3325,0.0977,1.71,-1.95,-0.55
611,229789787,-0.9268,-0.3296,0.1001,1.59,-1.89,-0.49
612,229794786,-0.9277,-0.3340,0.0977,1.65,-2.07,-0.43
613,229799787,-0.9224,-0.3315,0.0991,1.65,-1.95,-0.24
614,229804786,-0.9258,-0.3306,0.0986,1.46,-2.01,-0.18
615,229809787,-0.9282,-0.3320,0.1016,1.34,-2.13,-0.06
616,229814787,-0.9233,-0.3325,0.0972,1.52,-2.26,0.00
617,229819787,-0.9238,-0.3340,0.0908,1.40,-2.32,0.06
618,229824787,-0.9204,-0.3306,0.0938,1.46,-2.38,0.12
619,229829786,-0.9219,-0.3311,0.0903,1.46,-2.32,0.43
620,229834787,-0.9238,-0.3340,0.0933,1.40,-2.32,0.49
621,229839787,-0.9243,-0.3320,0.0918,1.52,-2.32,0.67
622,229844787,-0.9248,-0.3306,0.0938,1.52,-2.44,0.79
623,229849787,-0.9282,-0.3301,0.0947,1.46,-2.44,0.91
624,229854786,-0.9263,-0.3320,0.0898,1.46,-2.56,1.10
625,229860280,-0.9233,-0.3296,0.0879,1.65,-2.50,1.22
626,229864787,-0.9248,-0.3315,0.0942,1.59,-2.74,1.40
627,229869786,-0.9292,-0.3330,0.0913,1.65,-2.56,1.40
628,229874785,-0.9253,-0.3345,0.0933,1.59,-2.38,1.46
629,229879785,-0.9268,-0.3267,0.0947,1.65,-2.50,1.77
630,229884787,-0.9297,-0.3306,0.0908,1.71,-2.38,1.83
631,229889787,-0.9282,-0.3364,0.0850,1.77,-2.38,1.95
632,229894787,-0.9258,-0.3315,0.0918,1.83,-2.44,2.13
633,229899787,-0.9243,-0.3315,0.0957,1.89,-2.38,2.26
634,229904787,-0.9233,-0.3364,0.0894,1.77,-2.44,2.44
635,229909787,-0.9277,-0.3320,0.0874,1.89,-2.50,2.56
636,229914787,-0.9272,-0.3330,0.0894,1.95,-2.26,2.62
637,229919787,-0.9272,-0.3315,0.0869,1.95,-2.20,2.87
638,229924786,-0.9258,-0.3340,0.0942,2.13,-2.32,2.99
639,229929788,-0.9277,-0.3384,0.0913,2.13,-2.01,2.99
640,229934787,-0.9268,-0.3350,0.0903,2.07,-2.13,3.11
641,229939908,-0.9272,-0.3320,0.0874,2.26,-1.95,3.29
642,229944787,-0.9238,-0.3340,0.0962,2.38,-1.95,3.41
643,229949787,-0.9243,-0.3330,0.0977,2.44,-1.89,3.35
644,229954787,-0.9272,-0.3364,0.0898,2.44,-1.83,3.60
645,229959787,-0.9258,-0.3374,0.0894,2.56,-1.77,3.54
646,229964787,-0.9243,-0.3369,0.0898,2.68,-1.77,3.72
647,229969785,-0.9219,-0.3369,0.0913,2.74,-1.65,3.72
648,229974785,-0.9272,-0.3389,0.0913,2.99,-1.65,3.78
649,229979785,-0.9224,-0.3398,0.0874,3.05,-1.59,3.90
650,229984787,-0.9243,-0.3423,0.0889,3.17,-1.40,4.02
651,229989789,-0.9229,-0.3447,0.0879,3.48,-1.34,3.96
652,229994786,-0.9219,-0.3413,0.0889,3.48,-1.34,4.02
653,229999787,-0.9229,-0.3477,0.0864,3.84,-1.16,4.09
654,230004786,-0.9214,-0.3457,0.0884,4.02,-1.10,4.09
655,230009787,-0.9224,-0.3413,0.0854,4.21,-1.04,4.02
656,230014786,-0.9248,-0.3472,0.0869,4.45,-0.98,4.21
657,230019787,-0.9233,-0.3462,0.0908,4.76,-0.79,4.15
658,230024786,-0.9219,-0.3481,0.0835,4.88,-0.67,4.15
659,230029789,-0.9189,-0.3491,0.0879,5.00,-0.61,4.09
660,230034786,-0.9209,-0.3496,0.0854,5.24,-0.55,4.15
661,230039787,-0.9194,-0.3472,0.0889,5.43,-0.30,4.15
662,230044786,-0.9214,-0.3472,0.0845,5.49,-0.61,4.02
663,230049790,-0.9209,-0.3481,0.0874,5.61,-0.30,3.90
664,230054786,-0.9253,-0.3491,0.0854,5.55,-0.12,3.96
665,230059787,-0.9214,-0.3506,0.0854,5.67,-0.18,3.84
666,230064786,-0.9248,-0.3472,0.0952,5.85,-0.06,3.84
667,230069787,-0.9165,-0.3516,0.0894,5.79,-0.12,3.72
668,230074786,-0.9194,-0.3525,0.0869,5.98,0.12,3.66
669,230079785,-0.9209,-0.3535,0.0903,5.98,0.18,3.66
670,230084787,-0.9189,-0.3506,0.0879,5.91,0.00,3.48
671,230089787,-0.9194,-0.3521,0.0894,5.91,0.12,3.35
672,230094786,-0.9214,-0.3516,0.0894,5.79,0.43,3.35
673,230099787,-0.9243,-0.3516,0.0947,5.79,0.43,3.23
674,230104786,-0.9219,-0.3540,0.0918,5.73,0.37,3.11
675,230109787,-0.9224,-0.3535,0.0908,5.61,0.43,2.99
676,230114786,-0.9238,-0.3550,0.0894,5.37,0.43,2.87
677,230119790,-0.9243,-0.3535,0.0967,5.24,0.67,2.68
678,230124786,-0.9209,-0.3545,0.0938,4.94,0.61,2.62
679,230129787,-0.9229,-0.3516,0.0903,4.88,0.79,2.56
680,230134786,-0.9233,-0.3535,0.0938,4.76,0.85,2.32
681,230139789,-0.9229,-0.3535,0.0918,4.57,0.91,2.13
682,230144786,-0.9209,-0.3516,0.0923,4.57,0.98,2.01
683,230149785,-0.9189,-0.3564,0.0913,4.33,0.79,1.95
684,230154787,-0.9175,-0.3540,0.0923,4.33,0.85,1.71
685,230159789,-0.9146,-0.3486,0.0947,4.27,0.85,1.71
686,230164787,-0.9180,-0.3525,0.0986,4.21,0.85,1.59
687,230169787,-0.9185,-0.3521,0.0947,4.21,0.79,1.34
688,230174787,-0.9238,-0.3550,0.0957,4.21,0.79,1.28
689,230179785,-0.9209,-0.3516,0.0894,4.27,0.67,1.16
690,230184786,-0.9238,-0.3550,0.0938,4.15,0.85,0.85
691,230189787,-0.9277,-0.3545,0.0996,4.21,0.91,0.91
692,230194788,-0.9302,-0.3579,0.0962,4.33,0.85,0.79
693,230199789,-0.9277,-0.3599,0.0996,4.21,0.73,0.61
694,230204787,-0.9268,-0.3594,0.0962,4.27,0.73,0.49
695,230209787,-0.9272,-0.3535,0.1021,4.15,0.79,0.55
696,230214786,-0.9189,-0.3545,0.0967,4.27,0.73,0.43
697,230219787,-0.9224,-0.3545,0.0972,4.33,0.67,0.30
698,230224787,-0.9214,-0.3594,0.0938,4.15,0.73,0.18
699,230229787,-0.9185,-0.3560,0.0952,4.33,0.55,0.12
700,230234787,-0.9194,-0.3555,0.0889,4.15,0.73,0.12
701,230239786,-0.9170,-0.3579,0.0986,4.09,0.67,0.00
702,230245320,-0.9150,-0.3501,0.0908,4.02,0.67,-0.06
703,230249787,-0.9170,-0.3501,0.0947,3.90,0.61,-0.18
704,230254786,-0.9204,-0.3525,0.0933,3.78,0.55,-0.24
705,230259787,-0.9185,-0.3525,0.0957,3.78,0.55,-0.24
706,230264789,-0.9155,-0.3501,0.0918,3.84,0.61,-0.43
707,230269789,-0.9209,-0.3545,0.0952,3.60,0.43,-0.30
708,230274786,-0.9209,-0.3511,0.0957,3.54,0.24,-0.49
709,230279786,-0.9209,-0.3511,0.0947,3.48,0.37,-0.55
710,230284786,-0.9214,-0.3511,0.0923,3.41,0.30,-0.55
711,230289787,-0.9204,-0.3516,0.0923,3.35,0.30,-0.49
712,230294788,-0.9204,-0.3506,0.0967,3.41,0.30,-0.67
713,230299787,-0.9214,-0.3535,0.0996,3.29,0.37,-0.67
714,230304787,-0.9219,-0.3516,0.0957,3.41,0.24,-0.55
715,230309787,-0.9238,-0.3491,0.0947,3.48,0.12,-0.55
716,230314786,-0.9238,-0.3540,0.0952,3.48,0.00,-0.49
717,230319787,-0.9238,-0.3530,0.0972,3.48,0.06,-0.43
718,230324787,-0.9175,-0.3506,0.0952,3.54,0.00,-0.43
719,230329787,-0.9160,-0.3501,0.0938,3.54,-0.18,-0.37
720,230334787,-0.9194,-0.3501,0.0967,3.66,-0.18,-0.43
721,230339788,-0.9175,-0.3491,0.0928,3.48,-0.12,-0.12
722,230344786,-0.9209,-0.3477,0.0928,3.41,-0.43,-0.18
723,230349787,-0.9243,-0.3511,0.0981,3.29,-0.43,-0.18
724,230354786,-0.9204,-0.3472,0.1021,3.35,-0.49,-0.06
725,230359787,-0.9238,-0.3477,0.0967,3.11,-0.61,0.00
726,230364786,-0.9282,-0.3457,0.0972,2.93,-0.43,0.00
727,230369787,-0.9292,-0.3423,0.0957,2.87,-0.67,-0.06
728,230374787,-0.9258,-0.3438,0.0962,2.80,-0.73,0.12
729,230379785,-0.9238,-0.3403,0.0972,2.50,-0.85,0.12
730,230384785,-0.9209,-0.3442,0.0928,2.32,-0.91,0.18
731,230389785,-0.9194,-0.3403,0.1030,2.13,-0.85,0.30
732,230394787,-0.9189,-0.3403,0.0977,1.83,-0.98,0.24
733,230399787,-0.9209,-0.3438,0.0952,1.59,-1.10,0.43
734,230404866,-0.9175,-0.3398,0.0947,1.40,-1.28,0.37
735,230409787,-0.9199,-0.3413,0.0962,1.16,-1.40,0.43
736,230414787,-0.9204,-0.3389,0.0938,0.91,-1.46,0.55
737,230419787,-0.9204,-0.3389,0.1030,0.73,-1.52,0.67
738,230424786,-0.9194,-0.3384,0.0981,0.43,-1.59,0.61
739,230429787,-0.9160,-0.3403,0.0996,0.24,-1.71,0.79
740,230434787,-0.9199,-0.3379,0.1021,0.12,-1.89,0.91
741,230439787,-0.9180,-0.3403,0.0977,0.06,-1.77,1.04
742,230444786,-0.9185,-0.3413,0.0972,-0.18,-1.89,1.04
743,230449789,-0.9243,-0.3398,0.0972,-0.24,-2.01,1.16
744,230454786,-0.9224,-0.3384,0.0996,-0.12,-2.01,1.22
745,230459785,-0.9229,-0.3457,0.0928,-0.18,-2.01,1.46
746,230464787,-0.9219,-0.3423,0.1011,-0.06,-2.13,1.59
747,230469787,-0.9248,-0.3442,0.1035,0.12,-2.26,1.59
748,230474787,-0.9229,-0.3374,0.1006,0.37,-2.26,1.83
749,230479785,-0.9248,-0.3423,0.0977,0.43,-2.38,1.89
750,230484785,-0.9248,-0.3413,0.0923,0.61,-2.50,2.01
751,230489785,-0.9253,-0.3389,0.0981,0.79,-2.50,2.13
752,230494787,-0.9229,-0.3438,0.0972,1.04,-2.62,2.20
753,230499835,-0.9204,-0.3418,0.0996,1.22,-2.62,2.38
754,230504787,-0.9214,-0.3433,0.0957,1.46,-2.68,2.44
755,230509787,-0.9165,-0.3433,0.0952,1.65,-2.74,2.56
756,230514788,-0.9229,-0.3394,0.0952,1.71,-2.80,2.68
757,230519785,-0.9204,-0.3384,0.1006,1.89,-2.87,2.74
758,230524787,-0.9199,-0.3413,0.0977,2.01,-2.93,2.80
759,230529789,-0.9219,-0.3423,0.1060,2.20,-2.99,2.80
760,230534785,-0.9209,-0.3433,0.1006,2.26,-3.05,2.93
761,230539787,-0.9209,-0.3442,0.0986,2.26,-3.17,3.11
762,230544785,-0.9170,-0.3418,0.1025,2.20,-3.35,3.11
763,230549789,-0.9180,-0.3423,0.1016,2.13,-3.29,3.23
764,230555030,-0.9214,-0.3413,0.0923,2.07,-3.35,3.35
765,230559789,-0.9194,-0.3438,0.0967,2.01,-3.48,3.29
766,230564785,-0.9224,-0.3423,0.1006,1.83,-3.54,3.48
767,230569787,-0.9219,-0.3433,0.1045,1.46,-3.60,3.60
768,230574785,-0.9224,-0.3413,0.0991,1.22,-3.54,3.66
769,230579787,-0.9263,-0.3403,0.0977,0.85,-3.60,3.54
770,230584787,-0.9243,-0.3398,0.0991,0.61,-3.66,3.66
771,230589785,-0.9243,-0.3442,0.1021,0.24,-3.72,3.66
772,230594785,-0.9229,-0.3428,0.1001,0.06,-3.78,3.66
773,230599787,-0.9248,-0.3413,0.1001,-0.37,-3.96,3.66
774,230604789,-0.9277,-0.3447,0.0967,-0.55,-3.96,3.60
775,230609786,-0.9248,-0.3467,0.1011,-0.85,-3.78,3.66
776,230614787,-0.9233,-0.3442,0.0952,-1.10,-3.96,3.66
777,230619787,-0.9214,-0.3428,0.0972,-1.34,-4.02,3.72
778,230624787,-0.9229,-0.3418,0.0957,-1.52,-4.09,3.66
779,230629787,-0.9229,-0.3477,0.0972,-1.71,-4.21,3.60
780,230634786,-0.9209,-0.3442,0.0991,-1.77,-4.09,3.54
781,230639785,-0.9263,-0.3467,0.0957,-1.89,-4.09,3.48
782,230644787,-0.9272,-0.3477,0.0991,-1.95,-4.15,3.48
783,230649786,-0.9238,-0.3462,0.0972,-1.83,-4.15,3.48
784,230654788,-0.9219,-0.3457,0.0986,-1.89,-4.21,3.41
785,230659785,-0.9243,-0.3433,0.0962,-1.89,-4.21,3.35
786,230664787,-0.9233,-0.3511,0.0972,-1.65,-4.02,3.35
787,230669787,-0.9243,-0.3491,0.0918,-1.52,-4.27,3.35
788,230674787,-0.9243,-0.3506,0.0933,-1.40,-4.39,3.29
789,230679787,-0.9219,-0.3467,0.0923,-1.16,-4.21,3.23
790,230684787,-0.9277,-0.3457,0.0991,-1.04,-4.27,3.17
791,230689785,-0.9253,-0.3452,0.0957,-0.79,-4.27,3.05
792,230694785,-0.9253,-0.3496,0.0918,-0.49,-4.33,3.05
793,230699787,-0.9224,-0.3501,0.0923,-0.12,-4.15,2.93
794,230704788,-0.9282,-0.3496,0.0933,0.06,-4.27,2.87
795,230709787,-0.9258,-0.3442,0.0952,0.24,-4.09,2.93
796,230714787,-0.9258,-0.3491,0.0913,0.61,-4.27,2.87
797,230719787,-0.9214,-0.3462,0.0962,0.85,-4.09,2.80
798,230724787,-0.9248,-0.3516,0.0981,1.16,-4.09,2.68
799,230729787,-0.9229,-0.3496,0.1040,1.40,-4.09,2.62
800,230734787,-0.9214,-0.3521,0.0977,1.65,-3.84,2.62
801,230739787,-0.9204,-0.3486,0.0938,1.89,-3.84,2.56
802,230744787,-0.9194,-0.3486,0.0933,2.01,-3.72,2.50
803,230749787,-0.9189,-0.3506,0.0942,2.38,-3.66,2.44
804,230754788,-0.9209,-0.3491,0.0933,2.44,-3.66,2.50
805,230759785,-0.9238,-0.3506,0.0938,2.68,-3.66,2.26
806,230764787,-0.9199,-0.3481,0.0942,2.80,-3.54,2.38
807,230769787,-0.9194,-0.3486,0.0918,2.87,-3.35,2.20
808,230774787,-0.9238,-0.3511,0.0923,3.05,-3.41,2.13
809,230779787,-0.9214,-0.3486,0.0967,2.99,-3.35,2.01
810,230784786,-0.9170,-0.3506,0.0908,2.99,-3.23,2.01
811,230789785,-0.9219,-0.3486,0.0981,3.11,-3.17,1.95
812,230794785,-0.9233,-0.3511,0.0928,3.05,-3.05,1.83
813,230799785,-0.9248,-0.3477,0.1001,3.05,-2.87,1.89
814,230804787,-0.9243,-0.3496,0.0972,2.80,-2.80,1.65
815,230809789,-0.9238,-0.3516,0.0986,2.74,-2.87,1.59
816,230814786,-0.9219,-0.3501,0.0952,2.62,-2.68,1.59
817,230819785,-0.9204,-0.3472,0.0952,2.50,-2.62,1.46
818,230824787,-0.9194,-0.3442,0.0952,2.56,-2.56,1.40
819,230829787,-0.9185,-0.3452,0.0967,2.44,-2.32,1.34
820,230834786,-0.9214,-0.3491,0.0938,2.50,-2.32,1.28
821,230839787,-0.9209,-0.3506,0.0942,2.50,-2.32,1.22
822,230844818,-0.9229,-0.3462,0.0947,2.44,-2.26,1.10
823,230849788,-0.9199,-0.3481,0.0942,2.38,-2.20,1.04
824,230854786,-0.9170,-0.3472,0.0942,2.38,-2.01,1.10
825,230859787,-0.9175,-0.3481,0.0967,2.38,-2.01,1.10
826,230864786,-0.9214,-0.3433,0.0952,2.44,-1.89,0.85
827,230869787,-0.9253,-0.3452,0.0967,2.44,-1.95,0.98
828,230874786,-0.9282,-0.3403,0.0903,2.44,-1.83,0.85
829,230879785,-0.9272,-0.3442,0.0952,2.44,-1.83,0.91
830,230884787,-0.9292,-0.3452,0.0928,2.56,-1.71,0.79
831,230889786,-0.9277,-0.3462,0.0962,2.62,-1.71,0.85
832,230894787,-0.9282,-0.3481,0.0962,2.56,-1.59,0.73
833,230899785,-0.9292,-0.3442,0.0977,2.50,-1.52,0.73
834,230904787,-0.9307,-0.3467,0.0942,2.68,-1.46,0.67
835,230909787,-0.9287,-0.3433,0.0996,2.62,-1.34,0.79
836,230914786,-0.9277,-0.3389,0.0947,2.62,-1.46,0.67
837,230919787,-0.9297,-0.3438,0.0947,2.68,-1.34,0.73
838,230924786,-0.9243,-0.3438,0.0942,2.87,-1.22,0.85
839,230929785,-0.9253,-0.3428,0.0913,2.93,-1.28,0.91
840,230934789,-0.9229,-0.3413,0.0942,2.87,-0.98,0.79
841,230939786,-0.9233,-0.3413,0.0981,3.05,-0.98,0.79
842,230944787,-0.9204,-0.3428,0.1001,3.05,-1.04,0.91
843,230949811,-0.9209,-0.3423,0.0967,3.11,-0.98,0.91
844,230954787,-0.9180,-0.3442,0.0947,3.29,-0.79,0.85
845,230959787,-0.9204,-0.3433,0.0938,3.48,-0.79,0.98
846,230964785,-0.9243,-0.3418,0.1001,3.54,-0.73,1.04
847,230969787,-0.9194,-0.3433,0.1016,3.84,-0.67,1.04
848,230974786,-0.9199,-0.3398,0.0977,4.02,-0.61,1.04
849,230979787,-0.9214,-0.3457,0.0986,4.21,-0.61,1.10
850,230984833,-0.9209,-0.3428,0.0972,4.51,-0.61,1.16
851,230989787,-0.9224,-0.3418,0.0962,4.82,-0.61,1.16
852,230994786,-0.9194,-0.3418,0.1045,5.06,-0.67,1.22
853,230999785,-0.9185,-0.3438,0.0933,5.24,-0.55,1.22
854,231004785,-0.9170,-0.3394,0.1030,5.37,-0.61,1.40
855,231009787,-0.9214,-0.3442,0.1006,5.55,-0.49,1.40
856,231014789,-0.9209,-0.3442,0.0986,5.79,-0.43,1.52
857,231019786,-0.9209,-0.3438,0.1030,5.73,-0.43,1.46
858,231024787,-0.9209,-0.3413,0.1025,5.91,-0.30,1.40
859,231029787,-0.9165,-0.3428,0.1040,6.16,-0.55,1.52
860,231034788,-0.9170,-0.3442,0.1050,6.16,-0.55,1.71
861,231039787,-0.9160,-0.3398,0.1074,6.10,-0.43,1.59
862,231044787,-0.9160,-0.3457,0.1035,6.16,-0.43,1.59
863,231050135,-0.9165,-0.3433,0.0967,6.22,-0.67,1.59
864,231054787,-0.9136,-0.3447,0.1030,6.10,-0.55,1.65
865,231059786,-0.9185,-0.3418,0.1006,6.04,-0.55,1.52
866,231064788,-0.9214,-0.3438,0.1055,5.91,-0.73,1.65
867,231069785,-0.9233,-0.3452,0.1045,5.79,-0.61,1.71
868,231074787,-0.9229,-0.3428,0.1050,5.55,-0.79,1.65
869,231079786,-0.9263,-0.3428,0.1050,5.43,-0.55,1.71
870,231084787,-0.9268,-0.3491,0.1060,5.12,-0.67,1.77
871,231089787,-0.9258,-0.3438,0.1069,4.94,-0.85,1.83
872,231094787,-0.9243,-0.3428,0.1040,4.88,-0.91,1.83
873,231099785,-0.9209,-0.3452,0.1064,4.63,-0.79,1.95
874,231104785,-0.9185,-0.3447,0.1074,4.27,-0.98,2.01
875,231109785,-0.9243,-0.3442,0.1060,4.09,-1.10,2.13
876,231114790,-0.9233,-0.3418,0.1055,3.84,-1.22,2.26
877,231119787,-0.9204,-0.3413,0.1084,3.72,-1.28,2.26
878,231124786,-0.9243,-0.3398,0.1050,3.29,-1.34,2.38
879,231129787,-0.9224,-0.3408,0.1055,3.05,-1.52,2.56
880,231134786,-0.9238,-0.3438,0.1138,2.74,-1.52,2.56
881,231139787,-0.9180,-0.3423,0.1108,2.44,-1.65,2.80
882,231144787,-0.9233,-0.3457,0.1104,2.07,-1.71,2.80
883,231149787,-0.9214,-0.3433,0.1064,1.71,-1.89,2.93
884,231154786,-0.9224,-0.3457,0.1143,1.46,-2.07,2.99
885,231159787,-0.9238,-0.3433,0.1118,1.16,-2.13,2.99
886,231164787,-0.9229,-0.3447,0.1045,0.91,-2.26,3.11
887,231170349,-0.9282,-0.3433,0.1143,0.67,-2.32,3.23
888,231174787,-0.9277,-0.3452,0.1118,0.37,-2.62,3.35
889,231179786,-0.9282,-0.3418,0.1104,0.24,-2.80,3.35
890,231184787,-0.9263,-0.3472,0.1084,-0.06,-2.87,3.35
891,231189789,-0.9258,-0.3442,0.1123,-0.24,-3.05,3.41
892,231194788,-0.9229,-0.3467,0.1133,-0.37,-3.17,3.48
893,231199785,-0.9233,-0.3457,0.1055,-0.43,-3.29,3.54
894,231204786,-0.9253,-0.3472,0.1118,-0.61,-3.60,3.60
895,231209803,-0.9248,-0.3447,0.1133,-0.73,-3.66,3.66
896,231214788,-0.9209,-0.3481,0.1123,-0.79,-3.90,3.66
897,231219787,-0.9204,-0.3403,0.1099,-0.85,-3.84,3.66
898,231224787,-0.9238,-0.3452,0.1147,-0.85,-3.96,3.72
899,231230149,-0.9253,-0.3496,0.1143,-0.98,-4.09,3.72
900,231234787,-0.9219,-0.3481,0.1162,-0.98,-4.33,3.66
901,231239786,-0.9233,-0.3506,0.1143,-0.98,-4.45,3.72
902,231244788,-0.9268,-0.3501,0.1104,-1.04,-4.51,3.72
903,231249835,-0.9263,-0.3481,0.1191,-0.98,-4.63,3.66
904,231254835,-0.9272,-0.3491,0.1118,-1.16,-4.70,3.54
905,231259786,-0.9268,-0.3491,0.1138,-1.22,-4.82,3.54
906,231264787,-0.9287,-0.3462,0.1118,-1.10,-5.00,3.48
907,231270202,-0.9253,-0.3472,0.1147,-1.22,-4.94,3.35
908,231274800,-0.9277,-0.3516,0.1162,-1.10,-5.12,3.41
909,231279949,-0.9219,-0.3506,0.1064,-1.16,-5.12,3.41
910,231284788,-0.9224,-0.3477,0.1099,-1.16,-5.30,3.35
911,231289786,-0.9224,-0.3467,0.1152,-1.10,-5.49,3.23
912,231294787,-0.9258,-0.3525,0.1113,-1.10,-5.43,2.99
913,231299786,-0.9272,-0.3516,0.1050,-1.16,-5.61,2.99
914,231304785,-0.9263,-0.3486,0.1147,-1.16,-5.73,2.87
915,231309787,-0.9263,-0.3516,0.1079,-1.16,-5.73,2.80
916,231314785,-0.9263,-0.3530,0.1138,-1.10,-5.73,2.62
917,231319785,-0.9229,-0.3496,0.1069,-1.04,-5.85,2.62
918,231324787,-0.9248,-0.3506,0.1006,-1.04,-5.85,2.44
919,231330267,-0.9229,-0.3472,0.1045,-1.04,-6.10,2.38
920,231334788,-0.9248,-0.3486,0.1094,-1.16,-5.85,2.20
921,231339786,-0.9209,-0.3491,0.1035,-1.22,-5.85,2.13
922,231344787,-0.9268,-0.3477,0.1055,-1.28,-5.91,1.95
923,231349786,-0.9224,-0.3491,0.1050,-1.46,-5.91,1.89
924,231354787,-0.9243,-0.3477,0.1064,-1.46,-5.91,1.77
925,231359786,-0.9229,-0.3511,0.0991,-1.59,-5.85,1.71
926,231364888,-0.9209,-0.3501,0.1060,-1.59,-5.85,1.65
927,231369996,-0.9185,-0.3496,0.1089,-1.59,-5.79,1.59
928,231374787,-0.9214,-0.3486,0.1006,-1.77,-5.67,1.40
929,231379786,-0.9214,-0.3516,0.0981,-1.83,-5.67,1.34
930,231384787,-0.9219,-0.3472,0.1030,-1.83,-5.79,1.34
931,231389786,-0.9209,-0.3506,0.1069,-1.89,-5.61,1.22
932,231394788,-0.9248,-0.3501,0.0957,-1.83,-5.55,1.10
933,231399786,-0.9248,-0.3491,0.1035,-1.95,-5.49,1.16
934,231404787,-0.9224,-0.3481,0.1021,-1.95,-5.55,1.10
935,231410084,-0.9204,-0.3501,0.0952,-2.07,-5.37,0.98
936,231414787,-0.9229,-0.3506,0.1040,-2.07,-5.18,1.10
937,231419842,-0.9229,-0.3481,0.0913,-1.89,-5.06,0.91
938,231424787,-0.9258,-0.3506,0.0952,-2.01,-5.00,0.98
939,231429787,-0.9238,-0.3433,0.0981,-1.89,-4.94,0.85
940,231434787,-0.9253,-0.3481,0.1030,-1.89,-4.76,0.98
941,231439787,-0.9258,-0.3491,0.1021,-1.83,-4.76,0.85
942,231444786,-0.9233,-0.3457,0.1001,-1.71,-4.57,0.91
943,231449787,-0.9248,-0.3442,0.1021,-1.65,-4.45,0.79
944,231454787,-0.9258,-0.3447,0.0967,-1.59,-4.27,0.67
945,231460159,-0.9233,-0.3457,0.0952,-1.46,-4.09,0.79
946,231464787,-0.9268,-0.3433,0.0981,-1.22,-3.96,0.85
947,231469787,-0.9219,-0.3433,0.0986,-1.16,-3.78,0.98
948,231474787,-0.9263,-0.3447,0.1040,-0.98,-3.66,0.91
949,231479892,-0.9199,-0.3442,0.0972,-0.79,-3.41,0.91
950,231484787,-0.9233,-0.3433,0.0962,-0.73,-3.35,0.85
951,231489785,-0.9219,-0.3408,0.0977,-0.61,-3.17,0.79
952,231494787,-0.9199,-0.3457,0.0933,-0.30,-3.05,0.98
953,231499787,-0.9219,-0.3398,0.1030,-0.12,-2.87,0.85
954,231504787,-0.9224,-0.3413,0.0903,0.00,-2.74,0.85
955,231509785,-0.9214,-0.3408,0.0991,0.24,-2.62,0.98
956,231514785,-0.9253,-0.3384,0.0977,0.30,-2.44,0.85
957,231519901,-0.9258,-0.3418,0.1001,0.55,-2.26,0.91
958,231524787,-0.9277,-0.3379,0.0996,0.91,-2.01,0.91
959,231529787,-0.9287,-0.3374,0.1035,1.04,-1.89,0.98
960,231534787,-0.9258,-0.3408,0.0928,1.16,-1.77,1.04
961,231539785,-0.9209,-0.3379,0.0967,1.28,-1.46,1.04
962,231544787,-0.9214,-0.3394,0.0928,1.65,-1.40,1.04
963,231549787,-0.9214,-0.3394,0.0967,1.95,-1.22,1.10
964,231554787,-0.9229,-0.3384,0.1021,2.26,-1.04,1.22
965,231559785,-0.9248,-0.3359,0.0991,2.56,-0.85,1.16
966,231565724,-0.9277,-0.3374,0.1016,2.99,-0.85,1.22
967,231569787,-0.9258,-0.3345,0.0967,3.17,-0.73,1.22
968,231574787,-0.9180,-0.3364,0.0986,3.60,-0.85,1.22
969,231579786,-0.9199,-0.3350,0.0977,4.02,-0.43,1.34
970,231584787,-0.9185,-0.3345,0.0957,4.51,-0.24,1.40
971,231589787,-0.9189,-0.3335,0.1001,4.76,-0.24,1.46
972,231594787,-0.9214,-0.3369,0.0996,5.24,-0.12,1.46
973,231599786,-0.9219,-0.3364,0.0977,5.49,-0.18,1.46
974,231604787,-0.9277,-0.3369,0.1030,5.98,0.06,1.59
975,231609788,-0.9282,-0.3345,0.0986,6.34,0.18,1.52
976,231614785,-0.9302,-0.3340,0.1025,6.71,0.06,1.59
977,231619785,-0.9316,-0.3354,0.1069,7.07,0.12,1.59
978,231624797,-0.9292,-0.3350,0.1030,7.20,0.37,1.71
979,231629787,-0.9326,-0.3389,0.0942,7.44,0.49,1.65
980,231634786,-0.9312,-0.3374,0.1055,7.68,0.61,1.71
981,231639786,-0.9331,-0.3354,0.1050,7.87,0.67,1.71
982,231644787,-0.9272,-0.3354,0.1099,8.05,0.85,1.83
983,231649787,-0.9287,-0.3389,0.1055,8.17,0.85,2.01
984,231654787,-0.9302,-0.3330,0.1045,8.29,0.91,1.95
985,231659786,-0.9253,-0.3311,0.1064,8.35,1.04,1.95
986,231664788,-0.9233,-0.3306,0.1099,8.48,1.22,2.01
987,231669787,-0.9263,-0.3291,0.1060,8.48,1.34,2.13
988,231674788,-0.9214,-0.3311,0.1006,8.60,1.16,2.20
989,231679787,-0.9189,-0.3306,0.1016,8.48,1.34,2.13
990,231684786,-0.9185,-0.3306,0.1064,8.48,1.22,2.20
991,231689789,-0.9219,-0.3247,0.1128,8.41,1.16,2.20
992,231694786,-0.9233,-0.3257,0.1040,8.23,1.28,2.32
993,231699787,-0.9263,-0.3271,0.1089,8.05,1.34,2.32
994,231704786,-0.9268,-0.3267,0.1035,7.99,1.34,2.32
995,231709787,-0.9258,-0.3262,0.1074,7.80,1.34,2.32
996,231714786,-0.9248,-0.3228,0.1113,7.62,1.52,2.32
997,231719785,-0.9238,-0.3247,0.1079,7.50,1.34,2.32
998,231724787,-0.9248,-0.3242,0.1099,7.38,1.40,2.32
999,231729786,-0.9258,-0.3311,0.1143,7.26,1.46,2.44
1000,231734789,-0.9302,-0.3271,0.1089,7.44,1.40,2.50
1001,231739786,-0.9248,-0.3281,0.1118,7.38,1.46,2.62
1002,231744788,-0.9277,-0.3267,0.1138,7.44,1.65,2.74
1003,231749787,-0.9282,-0.3257,0.1123,7.56,1.71,2.74
1004,231754787,-0.9307,-0.3262,0.1084,7.80,1.71,2.74
1005,231759786,-0.9316,-0.3247,0.1113,7.93,1.77,2.93
1006,231764787,-0.9321,-0.3301,0.1069,8.29,1.71,2.87
1007,231769787,-0.9302,-0.3267,0.1123,8.48,1.77,2.99
1008,231774787,-0.9355,-0.3311,0.1128,8.78,1.71,2.99
1009,231779787,-0.9321,-0.3267,0.1108,9.21,1.71,3.17
1010,231784787,-0.9351,-0.3311,0.1138,9.51,1.71,3.17
1011,231789866,-0.9307,-0.3296,0.1128,10.12,1.71,3.23
1012,231794787,-0.9321,-0.3291,0.1113,10.37,1.59,3.29
1013,231799786,-0.9297,-0.3301,0.1094,10.79,1.71,3.48
1014,231804787,-0.9292,-0.3320,0.1118,11.28,1.71,3.66
1015,231809787,-0.9287,-0.3315,0.1035,11.59,1.77,3.60
1016,231814787,-0.9268,-0.3325,0.1084,12.20,1.77,3.78
1017,231819785,-0.9268,-0.3325,0.1045,12.50,1.77,3.90
1018,231824786,-0.9297,-0.3364,0.1099,13.17,1.71,3.96
1019,231829787,-0.9282,-0.3369,0.1084,13.54,1.65,4.15
1020,231834786,-0.9346,-0.3418,0.1040,13.90,1.83,4.33
1021,231839787,-0.9302,-0.3364,0.1064,14.39,1.83,4.45
1022,231844786,-0.9277,-0.3345,0.1050,14.94,1.89,4.51
1023,231849787,-0.9307,-0.3428,0.1011,15.30,2.07,4.63
1024,231854786,-0.9346,-0.3379,0.1045,16.04,1.83,4.88
1025,231859787,-0.9268,-0.3433,0.1030,16.46,2.01,5.00
1026,231864786,-0.9258,-0.3408,0.1021,16.83,2.13,5.00
1027,231869789,-0.9238,-0.3467,0.0986,17.38,1.89,5.24
1028,231874786,-0.9243,-0.3486,0.1006,17.80,2.01,5.49
1029,231879787,-0.9248,-0.3506,0.1045,18.11,2.20,5.43
1030,231884786,-0.9204,-0.3481,0.0996,18.41,2.20,5.61
1031,231889787,-0.9189,-0.3540,0.1025,18.78,2.26,5.67
1032,231894787,-0.9243,-0.3525,0.0991,19.02,2.44,5.73
1033,231899787,-0.9199,-0.3525,0.1011,19.27,2.56,5.73
1034,231904786,-0.9194,-0.3545,0.0981,19.57,2.87,5.91
1035,231909789,-0.9185,-0.3564,0.1035,19.82,2.87,5.79
1036,231914786,-0.9209,-0.3545,0.1016,20.00,2.99,5.85
1037,231919785,-0.9136,-0.3569,0.1006,20.18,3.05,5.67
1038,231924785,-0.9165,-0.3564,0.0986,20.18,3.11,5.67
1039,231929787,-0.9180,-0.3604,0.1030,20.24,3.29,5.61
1040,231934786,-0.9209,-0.3604,0.1050,20.30,3.41,5.49
1041,231939787,-0.9214,-0.3638,0.1006,20.30,3.48,5.30
1042,231944786,-0.9141,-0.3618,0.1006,20.30,3.72,5.30
1043,231949787,-0.9165,-0.3608,0.1021,20.12,3.60,5.12
1044,231954786,-0.9175,-0.3623,0.1016,19.88,3.78,5.00
1045,231959787,-0.9175,-0.3628,0.0913,19.82,3.90,4.82
1046,231964786,-0.9189,-0.3643,0.0991,19.76,3.96,4.63
1047,231969787,-0.9092,-0.3687,0.1025,19.39,4.15,4.57
1048,231974786,-0.9136,-0.3672,0.1016,19.21,4.39,4.39
1049,231979787,-0.9126,-0.3647,0.0947,18.90,4.39,4.21
1050,231984787,-0.9136,-0.3672,0.1025,18.48,4.39,3.90
1051,231989785,-0.9194,-0.3711,0.0981,18.23,4.51,3.84
1052,231994787,-0.9155,-0.3726,0.1055,17.93,4.70,3.72
1053,231999787,-0.9170,-0.3735,0.0996,17.38,4.57,3.54
1054,232004787,-0.9102,-0.3745,0.0986,17.07,4.88,3.48
1055,232009787,-0.9150,-0.3735,0.1045,16.83,4.88,3.35
1056,232014787,-0.9170,-0.3755,0.1050,16.40,5.00,3.17
1057,232019786,-0.9150,-0.3726,0.1030,16.16,5.00,3.11
1058,232024785,-0.9141,-0.3726,0.1025,15.85,4.94,3.05
1059,232029785,-0.9136,-0.3774,0.1035,15.43,4.94,2.99
1060,232034787,-0.9185,-0.3721,0.1133,15.30,5.18,2.80
1061,232039787,-0.9175,-0.3765,0.1060,15.06,5.00,2.80
1062,232044787,-0.9155,-0.3740,0.1108,14.82,5.00,2.74
1063,232049786,-0.9106,-0.3711,0.1123,14.45,4.88,2.68
1064,232054787,-0.9106,-0.3721,0.1084,14.27,4.82,2.56
1065,232059787,-0.9111,-0.3711,0.1104,13.96,4.94,2.44
1066,232064787,-0.9111,-0.3696,0.1118,13.66,4.94,2.44
1067,232069913,-0.9097,-0.3701,0.1113,13.23,4.82,2.26
1068,232074788,-0.9092,-0.3652,0.1157,12.74,4.88,2.13
1069,232080204,-0.9087,-0.3657,0.1206,12.26,4.57,2.01
1070,232084798,-0.9092,-0.3657,0.1177,11.77,4.51,1.83
1071,232089832,-0.9111,-0.3623,0.1157,11.34,4.45,1.65
1072,232094786,-0.9150,-0.3638,0.1147,10.55,4.33,1.52
1073,232099788,-0.9155,-0.3599,0.1211,10.24,4.27,1.40
1074,232104789,-0.9214,-0.3569,0.1182,9.70,4.02,1.16
1075,232109786,-0.9287,-0.3613,0.1138,9.21,3.96,1.04
1076,232114826,-0.9243,-0.3564,0.1187,8.72,3.84,0.85
1077,232119785,-0.9277,-0.3584,0.1216,8.29,3.72,0.91
1078,232124785,-0.9263,-0.3604,0.1187,7.93,3.41,0.73
1079,232129785,-0.9287,-0.3579,0.1206,7.56,3.29,0.55
1080,232134787,-0.9268,-0.3564,0.1274,7.13,3.11,0.55
1081,232139787,-0.9263,-0.3569,0.1274,6.59,2.87,0.37
1082,232144787,-0.9282,-0.3564,0.1284,6.22,2.80,0.30
1083,232149785,-0.9287,-0.3589,0.1284,5.85,2.56,0.24
1084,232154789,-0.9272,-0.3535,0.1182,5.49,2.32,0.06
1085,232159787,-0.9277,-0.3564,0.1294,5.12,2.20,0.06
1086,232164788,-0.9272,-0.3525,0.1289,4.70,1.95,0.00
1087,232169787,-0.9268,-0.3516,0.1260,4.39,1.77,-0.06
1088,232174787,-0.9258,-0.3521,0.1338,3.96,1.46,0.06
1089,232179787,-0.9253,-0.3486,0.1245,3.72,1.28,-0.06
1090,232184787,-0.9233,-0.3452,0.1230,3.41,1.04,-0.06
1091,232189786,-0.9272,-0.3457,0.1211,3.23,0.73,-0.12
1092,232194787,-0.9224,-0.3481,0.1240,2.99,0.55,-0.18
1093,232199787,-0.9199,-0.3462,0.1274,3.05,0.30,-0.18
1094,232204788,-0.9219,-0.3486,0.1294,2.87,0.06,-0.12
1095,232209787,-0.9214,-0.3477,0.1299,2.68,-0.24,-0.12
1096,232214787,-0.9204,-0.3452,0.1274,2.74,-0.61,-0.12
1097,232219787,-0.9268,-0.3521,0.1230,2.62,-0.98,0.00
1098,232224786,-0.9258,-0.3506,0.1221,2.68,-1.16,0.00
1099,232229785,-0.9268,-0.3462,0.1221,2.62,-1.46,0.18
1100,232235146,-0.9263,-0.3496,0.1255,2.68,-1.65,0.18
1101,232239787,-0.9243,-0.3486,0.1245,2.56,-1.95,0.24
1102,232244789,-0.9219,-0.3457,0.1240,2.44,-2.32,0.37
1103,232249786,-0.9204,-0.3442,0.1206,2.38,-2.62,0.49
1104,232254789,-0.9165,-0.3447,0.1284,2.26,-2.87,0.61
1105,232259786,-0.9131,-0.3408,0.1265,2.20,-3.17,0.79
1106,232264787,-0.9189,-0.3418,0.1289,2.01,-3.29,0.98
1107,232269786,-0.9146,-0.3384,0.1260,1.83,-3.72,1.04
1108,232274789,-0.9131,-0.3398,0.1235,1.77,-3.84,1.16
1109,232279786,-0.9185,-0.3403,0.1167,1.52,-4.02,1.22
1110,232284787,-0.9185,-0.3394,0.1221,1.10,-4.39,1.40
1111,232289785,-0.9165,-0.3384,0.1206,0.91,-4.51,1.46
1112,232295678,-0.9165,-0.3408,0.1162,0.37,-4.82,1.65
1113,232299790,-0.9209,-0.3394,0.1240,-0.12,-4.82,1.77
1114,232304786,-0.9219,-0.3389,0.1206,-0.30,-5.00,1.83
1115,232309787,-0.9243,-0.3350,0.1260,-0.85,-5.37,2.01
1116,232314786,-0.9268,-0.3345,0.1211,-1.46,-5.55,2.01
1117,232319787,-0.9263,-0.3418,0.1152,-1.95,-5.61,2.13
1118,232324787,-0.9282,-0.3364,0.1279,-2.50,-5.55,2.26
1119,232329785,-0.9297,-0.3369,0.1245,-3.17,-5.79,2.20
1120,232334785,-0.9258,-0.3379,0.1221,-3.78,-5.98,2.32
1121,232339787,-0.9282,-0.3369,0.1196,-4.33,-5.98,2.38
1122,232344787,-0.9253,-0.3350,0.1206,-5.18,-6.16,2.38
1123,232349786,-0.9307,-0.3359,0.1143,-5.73,-6.28,2.44
1124,232354787,-0.9307,-0.3398,0.1230,-6.22,-6.34,2.50
1125,232359786,-0.9277,-0.3379,0.1152,-6.95,-6.46,2.50
1126,232364787,-0.9263,-0.3364,0.1182,-7.38,-6.59,2.56
1127,232369787,-0.9248,-0.3418,0.1230,-7.99,-6.77,2.56
1128,232374864,-0.9292,-0.3423,0.1108,-8.48,-6.77,2.50
1129,232379786,-0.9292,-0.3398,0.1079,-9.02,-7.07,2.44
1130,232384786,-0.9272,-0.3408,0.1094,-9.57,-7.26,2.26
1131,232389785,-0.9336,-0.3394,0.1147,-10.12,-7.50,1.89
1132,232394785,-0.9365,-0.3389,0.1064,-10.79,-7.62,1.46
1133,232399785,-0.9409,-0.3442,0.1094,-11.22,-7.68,1.10
1134,232405251,-0.9375,-0.3521,0.1104,-11.71,-7.93,0.73
1135,232409788,-0.9365,-0.3574,0.1104,-12.13,-7.93,0.24
1136,232414786,-0.9336,-0.3633,0.1074,-12.62,-8.11,-0.12
1137,232419787,-0.9321,-0.3633,0.1060,-12.99,-8.11,-0.43
1138,232424785,-0.9331,-0.3735,0.1089,-13.29,-8.17,-0.67
1139,232429787,-0.9331,-0.3818,0.1040,-13.54,-8.35,-0.91
1140,232434785,-0.9263,-0.3887,0.1064,-13.78,-8.11,-0.98
1141,232439785,-0.9185,-0.3940,0.1079,-13.90,-8.23,-1.10
1142,232444787,-0.9062,-0.3989,0.1079,-14.27,-8.29,-1.28
1143,232449789,-0.9028,-0.4004,0.1060,-14.76,-8.35,-1.65
1144,232454787,-0.9023,-0.4082,0.0928,-15.43,-8.54,-2.07
1145,232459788,-0.9106,-0.4087,0.0986,-16.22,-8.72,-2.68
1146,232464785,-0.9165,-0.4150,0.1094,-17.13,-8.78,-3.35
1147,232469787,-0.9185,-0.4258,0.0986,-18.41,-8.96,-4.15
1148,232474786,-0.9146,-0.4302,0.0986,-19.76,-9.21,-5.06
1149,232479787,-0.9229,-0.4443,0.0972,-21.34,-9.33,-6.10
1150,232484789,-0.9282,-0.4653,0.0874,-23.54,-9.70,-7.01
1151,232489786,-0.9287,-0.4771,0.1025,-25.98,-9.82,-7.87
1152,232494785,-0.9336,-0.4883,0.1113,-28.84,-10.06,-8.78
1153,232500027,-0.9395,-0.4980,0.1006,-32.26,-10.30,-9.76
1154,232504787,-0.9272,-0.5186,0.1025,-35.85,-10.73,-10.73
1155,232509787,-0.9253,-0.5327,0.1221,-40.30,-11.04,-11.77
1156,232514785,-0.9346,-0.5474,0.1104,-45.49,-11.46,-12.74
1157,232519898,-0.9521,-0.5557,0.1182,-51.22,-11.95,-13.96
1158,232524786,-0.9619,-0.5664,0.1401,-57.74,-12.56,-15.00
1159,232529785,-0.9648,-0.5776,0.1211,-64.82,-13.05,-16.34
1160,232534785,-0.9609,-0.5898,0.1182,-72.38,-13.90,-17.87
1161,232539785,-0.9590,-0.6011,0.1211,-80.24,-14.70,-19.51
1162,232544787,-0.9497,-0.6060,0.1221,-88.48,-16.04,-21.22
1163,232549787,-0.9385,-0.6143,0.1245,-96.65,-17.44,-23.05
1164,232554787,-0.9409,-0.6143,0.1396,-104.82,-18.78,-24.82
1165,232559787,-0.9258,-0.6333,0.1162,-112.56,-20.49,-26.89
1166,232564788,-0.9424,-0.6348,0.1455,-120.06,-22.20,-28.90
1167,232569787,-0.9502,-0.6387,0.1602,-127.20,-23.90,-30.91
1168,232574787,-0.9580,-0.6509,0.1479,-133.90,-25.55,-32.99
1169,232579787,-0.9639,-0.6592,0.1611,-140.06,-27.38,-35.24
1170,232585279,-0.9624,-0.6562,0.1738,-145.49,-29.09,-37.62
1171,232589787,-0.9614,-0.6665,0.1655,-150.24,-30.98,-39.88
1172,232594786,-0.9697,-0.6816,0.1724,-154.39,-32.80,-42.13
1173,232599789,-0.9731,-0.6909,0.1812,-157.87,-34.70,-44.51
1174,232604785,-0.9731,-0.7026,0.1851,-160.73,-36.59,-46.89
1175,232609789,-0.9697,-0.7090,0.1919,-162.99,-38.48,-49.15
1176,232614786,-0.9648,-0.7153,0.2031,-164.51,-40.18,-51.28
1177,232619787,-0.9546,-0.7207,0.2046,-165.49,-42.13,-53.48
1178,232624787,-0.9531,-0.7329,0.2085,-165.55,-43.66,-55.43
1179,232629787,-0.9497,-0.7383,0.2124,-165.00,-45.30,-57.56
1180,232634785,-0.9512,-0.7471,0.2119,-163.90,-46.83,-59.21
1181,232639785,-0.9536,-0.7524,0.2129,-161.95,-48.35,-60.98
1182,232644849,-0.9531,-0.7524,0.2036,-159.33,-50.06,-62.56
1183,232649787,-0.9487,-0.7646,0.2090,-156.28,-51.71,-64.21
1184,232654971,-0.9385,-0.7832,0.2061,-152.56,-53.23,-65.55
1185,232659787,-0.9717,-0.7842,0.1982,-148.66,-54.76,-66.46
1186,232664785,-0.9966,-0.7871,0.2036,-144.70,-56.16,-67.50
1187,232669789,-1.0054,-0.7930,0.1992,-140.79,-57.74,-68.41
1188,232674786,-0.9888,-0.7930,0.1909,-136.89,-59.09,-69.33
1189,232679787,-0.9839,-0.7983,0.1943,-132.99,-60.49,-70.00
1190,232684789,-0.9858,-0.7979,0.1938,-129.09,-61.89,-70.55
1191,232689786,-0.9902,-0.7954,0.1968,-125.55,-63.17,-71.28
1192,232694787,-0.9902,-0.7939,0.1919,-122.13,-64.39,-71.77
1193,232699788,-0.9839,-0.7856,0.1924,-118.84,-65.55,-72.44
1194,232704864,-0.9941,-0.7891,0.1978,-115.79,-66.71,-72.93
1195,232709787,-1.0088,-0.7852,0.1924,-113.17,-67.74,-73.54
1196,232714787,-1.0142,-0.7886,0.1899,-110.98,-68.66,-73.90
1197,232719787,-1.0103,-0.7832,0.1973,-109.33,-69.39,-74.27
1198,232724786,-1.0015,-0.7769,0.1919,-107.80,-70.12,-74.39
1199,232729787,-1.0083,-0.7886,0.1890,-106.34,-70.79,-74.51
1200,232734785,-1.0146,-0.7920,0.1914,-105.43,-71.34,-74.39
1201,232739787,-1.0210,-0.7871,0.1890,-104.21,-71.83,-74.33
1202,232744785,-1.0244,-0.7803,0.1772,-102.80,-72.62,-74.02
1203,232749787,-1.0244,-0.7803,0.1670,-101.22,-73.29,-73.78
1204,232754788,-1.0317,-0.7695,0.1558,-99.70,-74.02,-73.54
1205,232759787,-1.0293,-0.7793,0.1777,-98.29,-74.82,-73.05
1206,232765316,-1.0229,-0.7456,0.1577,-96.59,-75.49,-72.74
1207,232769787,-1.0127,-0.7456,0.1475,-95.73,-76.10,-72.50
1208,232774785,-1.0039,-0.7388,0.1548,-94.45,-76.95,-72.20
1209,232779789,-1.0054,-0.7300,0.1616,-93.66,-77.80,-71.89
1210,232784786,-1.0024,-0.7212,0.1592,-93.29,-78.48,-71.77
1211,232789807,-0.9902,-0.7124,0.1641,-93.05,-79.09,-71.46
1212,232794787,-0.9897,-0.7021,0.1650,-93.17,-79.33,-71.22
1213,232799786,-0.9785,-0.6860,0.1646,-93.54,-79.76,-71.10
1214,232804785,-0.9653,-0.6763,0.1597,-93.96,-80.06,-71.04
1215,232809787,-0.9536,-0.6626,0.1660,-94.88,-80.43,-70.98
1216,232814787,-0.9434,-0.6470,0.1646,-95.61,-80.73,-71.10
1217,232819787,-0.9307,-0.6411,0.1709,-96.65,-80.91,-71.16
1218,232824786,-0.9194,-0.6279,0.1704,-97.93,-81.04,-71.34
1219,232829787,-0.9097,-0.6196,0.1665,-99.39,-81.10,-71.59
1220,232834785,-0.8945,-0.6050,0.1636,-100.85,-80.98,-71.77
1221,232839787,-0.8779,-0.5903,0.1631,-102.50,-80.98,-72.07
1222,232844786,-0.8633,-0.5786,0.1689,-104.21,-80.67,-72.50
1223,232849787,-0.8540,-0.5703,0.1616,-105.91,-80.61,-72.74
1224,232854786,-0.8389,-0.5659,0.1655,-107.56,-80.24,-73.11
1225,232859787,-0.8389,-0.5596,0.1660,-109.21,-79.82,-73.35
1226,232864787,-0.8345,-0.5498,0.1641,-110.91,-79.45,-73.41
1227,232869787,-0.8267,-0.5405,0.1602,-112.56,-78.84,-73.60
1228,232874786,-0.8164,-0.5337,0.1602,-114.09,-78.23,-73.60
1229,232879789,-0.8032,-0.5205,0.1611,-115.43,-77.74,-73.54
1230,232884786,-0.7847,-0.5049,0.1562,-116.40,-76.83,-73.54
1231,232889789,-0.7739,-0.4941,0.1538,-117.32,-76.16,-73.78
1232,232894786,-0.7642,-0.4893,0.1499,-118.05,-75.37,-73.78
1233,232899789,-0.7622,-0.4824,0.1479,-118.35,-74.45,-73.72
1234,232904786,-0.7549,-0.4736,0.1460,-118.90,-73.60,-73.72
1235,232909787,-0.7437,-0.4702,0.1416,-119.21,-72.56,-73.66
1236,232914786,-0.7344,-0.4595,0.1367,-119.33,-71.52,-73.41
1237,232919787,-0.7217,-0.4507,0.1357,-119.15,-70.55,-73.35
1238,232924786,-0.7178,-0.4473,0.1328,-118.90,-69.51,-73.17
1239,232929787,-0.7080,-0.4438,0.1318,-118.35,-68.48,-73.05
1240,232934786,-0.7002,-0.4380,0.1279,-117.80,-67.26,-72.62
1241,232939787,-0.6987,-0.4316,0.1226,-117.07,-66.22,-72.38
1242,232944785,-0.6880,-0.4248,0.1284,-115.98,-65.00,-71.95
1243,232949787,-0.6797,-0.4248,0.1284,-114.57,-63.60,-71.71
1244,232954787,-0.6787,-0.4243,0.1240,-113.23,-62.32,-71.40
1245,232959786,-0.6777,-0.4189,0.1211,-111.77,-60.91,-70.98
1246,232964787,-0.6851,-0.4316,0.1196,-110.55,-59.33,-70.49
1247,232969787,-0.6772,-0.4146,0.1147,-109.39,-58.05,-69.76
1248,232974785,-0.6738,-0.4214,0.0859,-107.74,-57.01,-69.27
1249,232979788,-0.6763,-0.4214,0.0854,-105.79,-55.98,-68.78
1250,232984786,-0.6772,-0.4209,0.0850,-103.84,-55.06,-68.17
1251,232989787,-0.6670,-0.4155,0.0708,-101.71,-54.21,-67.50
1252,232994787,-0.6699,-0.4165,0.0527,-99.45,-53.48,-67.01
1253,232999787,-0.6680,-0.4150,0.0586,-97.07,-52.62,-66.59
1254,233004786,-0.6655,-0.4146,0.0615,-94.57,-51.83,-65.91
1255,233009788,-0.6592,-0.4121,0.0596,-92.01,-51.22,-65.37
1256,233014786,-0.6484,-0.4141,0.0474,-89.21,-50.30,-64.82
1257,233019787,-0.6431,-0.4165,0.0625,-86.52,-49.70,-64.27
1258,233024786,-0.6348,-0.3799,0.0596,-83.78,-48.72,-63.66
1259,233029789,-0.6191,0.0498,0.2979,-81.34,-47.62,-63.11
1260,233035275,-0.6631,0.1743,0.1436,-80.85,-46.52,-62.80
1261,233039787,-0.6626,0.0703,0.0864,-80.61,-47.20,-59.88
1262,233044786,-0.6899,0.0649,0.2729,-79.76,-46.77,-56.59
1263,233049787,-0.6709,-0.0737,0.1831,-77.01,-46.04,-53.60
1264,233054788,-0.6367,-0.2490,-0.0063,-73.78,-46.95,-49.94
1265,233059787,-0.6475,-0.3418,0.0444,-70.00,-47.50,-46.46
1266,233064787,-0.6641,-0.3501,0.1167,-65.98,-47.13,-43.54
1267,233069787,-0.6704,-0.3311,0.0000,-61.71,-47.26,-40.79
1268,233074787,-0.6865,-0.2949,-0.0698,-57.50,-47.93,-38.17
1269,233079787,-0.6914,-0.2632,-0.0317,-53.17,-48.05,-35.61
1270,233084787,-0.6685,-0.2256,-0.0791,-48.78,-47.74,-32.68
1271,233089787,-0.6475,-0.2007,-0.1899,-44.51,-47.74,-29.76
1272,233094787,-0.6289,-0.1860,-0.1919,-40.61,-47.50,-26.46
1273,233099785,-0.6289,-0.1997,-0.1343,-37.38,-46.89,-23.11
1274,233104788,-0.6357,-0.2188,-0.0786,-35.37,-45.91,-19.21
1275,233109787,-0.6509,-0.2520,-0.0342,-33.48,-44.27,-15.49
1276,233114787,-0.6465,-0.3203,0.0576,-32.93,-43.29,-11.89
1277,233119787,-0.6411,-0.3794,0.0615,-31.34,-41.71,-8.48
1278,233124789,-0.6235,-0.4575,0.0908,-30.55,-29.76,-5.49
1279,233129788,-0.6006,-0.5171,0.1011,-26.04,-39.09,-3.17
1280,233134879,-0.5513,-0.5645,0.1206,-20.98,-38.29,-1.04
1281,233139790,-0.5376,-0.6362,0.0977,-15.98,-37.68,0.43
1282,233144787,-0.5215,-0.7378,0.0859,-10.73,-39.21,1.52
1283,233149787,-0.5361,-0.7505,0.0371,-5.43,-39.94,2.62
1284,233154798,-0.5464,-0.7695,0.0879,0.98,-41.46,2.80
1285,233159785,-0.5474,-0.7969,0.0967,8.29,-42.20,2.50
1286,233164787,-0.5889,-0.7949,0.0444,15.43,-42.74,1.89
1287,233169795,-0.5732,-0.8086,0.0093,23.17,-45.67,0.91
1288,233174908,-0.5830,-0.8145,-0.0068,28.54,-47.80,0.12
1289,233179787,-0.6040,-0.8003,-0.0225,35.24,-52.56,-0.98
1290,233184787,-0.6333,-0.7578,-0.0195,41.89,-55.49,-2.07
1291,233189788,-0.6284,-0.7935,-0.0698,48.29,-58.11,-3.35
1292,233194788,-0.6689,-0.7642,-0.0264,54.15,-60.98,-3.84
1293,233199785,-0.6475,-0.7437,-0.0039,59.51,-63.41,-4.21
1294,233204786,-0.6279,-0.7036,0.0581,63.96,-65.43,-4.70
1295,233209785,-0.6191,-0.6792,0.0356,67.56,-68.17,-5.06
1296,233214785,-0.6255,-0.6875,0.0337,70.12,-70.79,-5.55
1297,233219785,-0.6489,-0.7046,0.0718,72.01,-73.23,-6.16
1298,233224785,-0.6797,-0.7471,0.2021,73.29,-72.99,-6.59
1299,233229785,-0.6919,-0.7671,0.1460,71.89,-76.65,-7.13
1300,233234785,-0.6929,-0.7710,0.0249,71.16,-79.33,-7.62
1301,233239785,-0.6699,-0.7334,0.2051,70.43,-80.37,-7.93
1302,233244785,-0.6411,-0.7266,0.2261,68.11,-82.13,-8.29
1303,233249785,-0.6201,-0.7148,0.1104,65.79,-84.51,-8.54
1304,233254785,-0.5889,-0.7295,0.1426,62.50,-87.32,-8.48
1305,233259785,-0.5830,-0.7407,0.2339,57.93,-89.33,-8.35
1306,233264785,-0.4907,-0.7983,0.2329,52.13,-90.55,-7.62
1307,233269785,-0.4639,-0.7515,0.1704,44.51,-92.01,-5.61
1308,233274785,-0.4990,-0.6650,0.2358,35.55,-92.93,-3.48
1309,233279785,-0.5464,-0.5854,0.2612,26.52,-93.84,-1.89
1310,233284787,-0.5679,-0.5830,0.2261,17.74,-93.84,-1.28
1311,233289789,-0.5635,-0.6606,0.2354,9.09,-94.33,-0.61
1312,233294787,-0.5469,-0.7373,0.2725,0.55,-94.15,0.98
1313,233299787,-0.5381,-0.7651,0.2529,-7.56,-94.45,3.17
1314,233304786,-0.5298,-0.7612,0.2339,-15.43,-94.33,5.91
1315,233309788,-0.5332,-0.7373,0.2373,-22.68,-94.21,8.90
1316,233314786,-0.5415,-0.7144,0.2310,-29.51,-94.45,12.01
1317,233319787,-0.5493,-0.7100,0.2036,-35.67,-94.33,14.88
1318,233324786,-0.5493,-0.7139,0.2036,-41.10,-94.33,17.93
1319,233329787,-0.5483,-0.7192,0.2100,-45.67,-94.63,20.73
1320,233334786,-0.5469,-0.7280,0.2065,-49.45,-94.45,23.66
1321,233339785,-0.5449,-0.7397,0.1997,-52.44,-94.63,26.71
1322,233344787,-0.5474,-0.7393,0.2046,-54.45,-94.76,29.57
1323,233349786,-0.5503,-0.7441,0.2109,-55.61,-95.12,31.83
1324,233354787,-0.5615,-0.7476,0.2031,-56.71,-95.30,34.63
1325,233359785,-0.5718,-0.7471,0.2129,-57.26,-95.73,37.44
1326,233364785,-0.5835,-0.7446,0.2104,-57.38,-95.91,40.67
1327,233369785,-0.5898,-0.7407,0.2114,-57.32,-96.16,42.87
1328,233374785,-0.6030,-0.7393,0.2148,-56.89,-96.59,45.37
1329,233379787,-0.6104,-0.7378,0.2290,-56.46,-96.65,47.93
1330,233384786,-0.6177,-0.7393,0.2280,-55.98,-96.95,50.37
1331,233389813,-0.6313,-0.7393,0.2236,-55.24,-97.07,52.74
1332,233394786,-0.6426,-0.7314,0.2354,-54.39,-97.01,55.06
1333,233399787,-0.6538,-0.7261,0.2397,-53.78,-97.07,57.20
1334,233404880,-0.6616,-0.7168,0.2383,-53.05,-97.01,59.21
1335,233409787,-0.6738,-0.7197,0.2505,-52.26,-96.83,61.10
1336,233414786,-0.6802,-0.7207,0.2627,-51.59,-96.71,62.93
1337,233419785,-0.6797,-0.7246,0.2593,-50.91,-96.46,64.76
1338,233424785,-0.6802,-0.7183,0.2637,-50.24,-96.16,66.59
1339,233429787,-0.6831,-0.7148,0.2607,-49.39,-95.91,68.17
1340,233434786,-0.6753,-0.7139,0.2573,-48.78,-95.43,69.70
1341,233439787,-0.6738,-0.7124,0.2539,-47.99,-95.00,71.10
1342,233444786,-0.6704,-0.7065,0.2534,-47.32,-94.63,72.44
1343,233449787,-0.6709,-0.7012,0.2476,-46.77,-94.45,73.54
1344,233454787,-0.6670,-0.6880,0.2495,-46.46,-93.72,74.63
1345,233459785,-0.6514,-0.6904,0.2573,-46.34,-93.66,75.49
1346,233465265,-0.6699,-0.7012,0.2661,-46.59,-93.05,76.65
1347,233469789,-0.6787,-0.6768,0.2661,-47.01,-92.50,77.32
1348,233474786,-0.6509,-0.6855,0.2607,-47.80,-91.52,77.87
1349,233479785,-0.7012,-0.6914,0.2812,-49.09,-90.91,78.54
1350,233484787,-0.7197,-0.6753,0.2607,-50.61,-90.06,78.96
1351,233489787,-0.6982,-0.7109,0.2446,-52.56,-89.45,79.27
1352,233494789,-0.7578,-0.6953,0.2720,-54.51,-88.35,79.88
1353,233499786,-0.7686,-0.6553,0.2603,-56.65,-87.44,79.88
1354,233504787,-0.7271,-0.6733,0.2446,-58.41,-86.65,79.76
1355,233509787,-0.7705,-0.6865,0.2651,-60.12,-85.91,79.82
1356,233514787,-0.7793,-0.6426,0.2725,-61.77,-84.88,79.63
1357,233519786,-0.7847,-0.6313,0.2593,-62.87,-84.09,79.27
1358,233524787,-0.7319,-0.6777,0.2524,-63.66,-83.23,78.96
1359,233530169,-0.7886,-0.6504,0.2729,-64.33,-82.26,78.78
1360,233534788,-0.7891,-0.6274,0.2617,-64.51,-81.40,78.60
1361,233539786,-0.7847,-0.6299,0.2529,-64.21,-80.61,78.05
1362,233544785,-0.7441,-0.6777,0.2642,-63.84,-79.94,77.68
1363,233549787,-0.7988,-0.6294,0.2788,-63.60,-79.21,77.50
1364,233554788,-0.7983,-0.6016,0.2568,-63.05,-78.29,76.77
1365,233559787,-0.7056,-0.6860,0.2769,-62.32,-77.38,76.16
1366,233564788,-0.8013,-0.6875,0.2822,-62.20,-76.59,75.98
1367,233569794,-0.8232,-0.5815,0.2437,-61.83,-75.73,75.24
1368,233574786,-0.8247,-0.5483,0.2266,-61.04,-75.30,74.02
1369,233579785,-0.7505,-0.6338,0.2778,-60.43,-74.39,72.99
1370,233584787,-0.8594,-0.5972,0.2979,-60.18,-73.35,72.32
1371,233589793,-0.8672,-0.5293,0.2534,-59.88,-72.62,71.34
1372,233594787,-0.7925,-0.6113,0.2539,-59.21,-72.07,69.88
1373,233599790,-0.8457,-0.6777,0.2720,-59.09,-70.98,69.09
1374,233604786,-0.9058,-0.5835,0.2402,-59.33,-70.18,68.29
1375,233609787,-0.9126,-0.5298,0.2119,-59.02,-69.51,66.83
1376,233614786,-0.8257,-0.6050,0.2773,-58.66,-68.72,65.24
1377,233619785,-0.9146,-0.6338,0.2710,-59.39,-67.50,64.57
1378,233624788,-0.9341,-0.5522,0.2075,-60.06,-66.71,63.41
1379,233629786,-0.9346,-0.4976,0.1670,-60.06,-65.91,61.28
1380,233634787,-0.9424,-0.5171,0.2197,-60.06,-65.37,59.82
1381,233639787,-0.8550,-0.5952,0.2393,-60.24,-64.33,58.11
1382,233644787,-0.9126,-0.6050,0.2026,-61.59,-63.54,57.01
1383,233649786,-0.9165,-0.5166,0.1738,-62.74,-62.93,55.55
1384,233654787,-0.9175,-0.4785,0.1753,-63.96,-62.07,53.66
1385,233659787,-0.9321,-0.4775,0.2017,-65.12,-61.28,51.40
1386,233664787,-0.9399,-0.5063,0.1865,-66.65,-60.24,49.39
1387,233669787,-0.9351,-0.5098,0.1992,-68.48,-59.57,47.38
1388,233674786,-0.9282,-0.5034,0.2314,-70.06,-58.41,45.49
1389,233679787,-0.9277,-0.5029,0.2339,-72.01,-57.32,43.72
1390,233684786,-0.9272,-0.5088,0.2354,-74.15,-56.16,41.89
1391,233689787,-0.9141,-0.5225,0.2168,-76.46,-55.12,40.18
1392,233694786,-0.9019,-0.5391,0.2036,-78.96,-54.02,38.66
1393,233699787,-0.8784,-0.5498,0.2070,-81.46,-52.74,37.32
1394,233704786,-0.8618,-0.5454,0.2046,-84.33,-51.95,35.85
1395,233709787,-0.8779,-0.5239,0.2056,-87.07,-50.85,34.51
1396,233714786,-0.9014,-0.5073,0.2124,-89.76,-49.57,33.11
1397,233719785,-0.9116,-0.4893,0.2026,-92.56,-48.23,31.40
1398,233724787,-0.9146,-0.4595,0.1968,-95.30,-46.95,29.57
1399,233729786,-0.9072,-0.4409,0.1904,-97.62,-45.55,27.74
1400,233734787,-0.8994,-0.4404,0.1748,-99.76,-44.33,25.73
1401,233739787,-0.8843,-0.4541,0.1719,-101.59,-43.23,23.96
1402,233744786,-0.8818,-0.4668,0.1738,-103.23,-42.07,22.07
1403,233750344,-0.8740,-0.4736,0.1831,-104.51,-40.91,20.67
1404,233754787,-0.8735,-0.4751,0.1934,-105.43,-40.00,19.09
1405,233759787,-0.8755,-0.4775,0.1938,-106.40,-38.72,17.68
1406,233764787,-0.8843,-0.4800,0.2080,-107.01,-37.62,16.34
1407,233769787,-0.8867,-0.4775,0.2236,-107.56,-36.40,15.18
1408,233774789,-0.8979,-0.4814,0.2222,-107.93,-35.18,14.09
1409,233779787,-0.8901,-0.4937,0.2290,-108.35,-33.90,13.05
1410,233784787,-0.8491,-0.5347,0.2246,-109.02,-32.26,12.32
1411,233789842,-0.8906,-0.4927,0.1963,-109.57,-30.91,11.77
1412,233794788,-0.8843,-0.4380,0.1851,-109.94,-29.82,11.04
1413,233799787,-0.8857,-0.4160,0.1797,-109.76,-28.66,10.12
1414,233804787,-0.9028,-0.4214,0.1909,-109.15,-27.62,9.21
1415,233809786,-0.9058,-0.4434,0.1885,-108.41,-26.40,8.35
1416,233814788,-0.9004,-0.4595,0.1885,-107.50,-25.30,7.93
1417,233819787,-0.8906,-0.4673,0.1938,-106.22,-24.21,7.38
1418,233824787,-0.8760,-0.4702,0.2012,-104.82,-23.05,7.20
1419,233829785,-0.8613,-0.4707,0.1934,-103.17,-21.95,6.95
1420,233834789,-0.8389,-0.4673,0.1968,-101.22,-21.10,6.71
1421,233839787,-0.8340,-0.4707,0.1875,-99.21,-20.06,6.83
1422,233844787,-0.8076,-0.4658,0.2051,-97.26,-19.39,6.77
1423,233849786,-0.8350,-0.4419,0.1963,-95.30,-18.35,6.89
1424,233854787,-0.8384,-0.4141,0.2051,-92.93,-17.56,6.71
1425,233859787,-0.8423,-0.4111,0.1777,-90.06,-16.77,6.52
1426,233864787,-0.8569,-0.4346,0.2021,-86.83,-16.16,6.46
1427,233869786,-0.8491,-0.4619,0.2310,-83.35,-15.24,6.46
1428,233874787,-0.8115,-0.5010,0.2100,-80.18,-14.39,6.89
1429,233879787,-0.8560,-0.4761,0.1846,-77.20,-13.90,7.50
1430,233884787,-0.8574,-0.4487,0.2271,-73.66,-13.17,7.93
1431,233889786,-0.8647,-0.4390,0.2041,-69.57,-12.74,8.29
1432,233894787,-0.8813,-0.4434,0.1719,-65.49,-12.13,8.41
1433,233899786,-0.8740,-0.4551,0.1914,-61.10,-11.89,8.60
1434,233904788,-0.8809,-0.4580,0.2036,-56.71,-11.34,8.78
1435,233909787,-0.8745,-0.4561,0.1782,-52.01,-11.22,9.15
1436,233914787,-0.8706,-0.4541,0.1685,-47.50,-11.10,9.33
1437,233919786,-0.8740,-0.4565,0.1870,-43.05,-10.79,9.51
1438,233924787,-0.8848,-0.4604,0.1914,-38.66,-10.43,9.82
1439,233929787,-0.8838,-0.4614,0.1763,-34.63,-10.24,9.88
1440,233934787,-0.8853,-0.4575,0.1836,-30.73,-10.12,10.12
1441,233939786,-0.8872,-0.4556,0.1987,-27.07,-9.76,10.12
1442,233944787,-0.8823,-0.4590,0.1973,-23.66,-9.45,10.06
1443,233949787,-0.8818,-0.4570,0.1860,-20.30,-9.15,10.00
1444,233954787,-0.8789,-0.4595,0.1909,-17.20,-8.78,10.00
1445,233959786,-0.8750,-0.4624,0.1948,-14.33,-8.41,9.88
1446,233964787,-0.8726,-0.4629,0.1870,-12.07,-8.23,9.88
1447,233969789,-0.8701,-0.4629,0.1821,-8.96,-7.99,9.82
1448,233974787,-0.8755,-0.4697,0.1880,-7.01,-7.68,9.70
1449,233979786,-0.8760,-0.4756,0.1899,-4.39,-7.32,9.57
1450,233984787,-0.8755,-0.4746,0.1895,-2.80,-7.01,9.57
1451,233989787,-0.8745,-0.4771,0.1860,-0.79,-6.77,9.57
1452,233994787,-0.8789,-0.4805,0.1909,0.79,-6.46,9.39
1453,234000228,-0.8823,-0.4858,0.1948,2.62,-6.10,9.21
1454,234004787,-0.8867,-0.4868,0.1880,3.48,-5.79,9.21
1455,234010259,-0.8926,-0.4824,0.1899,4.63,-5.37,9.09
1456,234014787,-0.8896,-0.4849,0.1938,5.12,-5.06,8.96
1457,234019788,-0.8955,-0.4839,0.1958,5.67,-4.70,8.96
1458,234024787,-0.8931,-0.4800,0.1904,5.91,-4.33,8.60
1459,234029785,-0.8940,-0.4751,0.1963,5.98,-3.96,8.29
1460,234034787,-0.8950,-0.4756,0.1943,5.85,-3.66,8.11
1461,234039902,-0.8872,-0.4751,0.1943,5.61,-3.05,7.68
1462,234044787,-0.8887,-0.4761,0.2051,5.24,-2.99,7.38
1463,234049786,-0.8818,-0.4746,0.2192,4.94,-2.32,7.07
1464,234054787,-0.8735,-0.4746,0.2056,4.57,-2.01,6.77
1465,234059787,-0.8672,-0.4746,0.1821,4.02,-1.65,6.59
1466,234064787,-0.8638,-0.4751,0.1938,3.54,-1.46,6.34
1467,234069786,-0.8638,-0.4707,0.2036,3.17,-1.10,6.16
1468,234074787,-0.8594,-0.4731,0.1978,2.74,-0.85,5.79
1469,234079787,-0.8599,-0.4702,0.1875,2.38,-0.67,5.73
1470,234084787,-0.8589,-0.4731,0.1860,2.07,-0.49,5.55
1471,234089786,-0.8579,-0.4751,0.2007,1.83,-0.24,5.37
1472,234094787,-0.8525,-0.4800,0.1987,1.71,0.00,5.37
1473,234099862,-0.8496,-0.4800,0.2158,1.40,0.06,5.37
1474,234104788,-0.8457,-0.4858,0.2217,1.40,0.24,5.55
1475,234109786,-0.8379,-0.4961,0.2207,1.46,0.55,5.55
1476,234114787,-0.8394,-0.4956,0.2017,1.46,0.61,5.67
1477,234119788,-0.8418,-0.4888,0.1846,1.71,0.73,5.91
1478,234124787,-0.8369,-0.4819,0.1807,1.77,0.73,5.98
1479,234129786,-0.8389,-0.4780,0.1890,1.95,0.85,6.16
1480,234134787,-0.8340,-0.4746,0.1890,1.83,0.79,6.28
1481,234139786,-0.8242,-0.4810,0.1846,1.95,0.98,6.46
1482,234144786,-0.8174,-0.4810,0.1870,1.77,0.91,6.59
1483,234149788,-0.8110,-0.4731,0.1777,1.59,1.10,6.83
1484,234154787,-0.8008,-0.4766,0.1772,1.34,1.10,6.95
1485,234159787,-0.7959,-0.4785,0.1729,0.98,1.16,7.20
1486,234164787,-0.7905,-0.4785,0.1709,0.67,1.28,7.38
1487,234169786,-0.7900,-0.4810,0.1729,0.12,1.34,7.56
1488,234174890,-0.7920,-0.4775,0.1753,-0.30,1.40,7.56
1489,234179841,-0.7988,-0.4780,0.1738,-0.79,1.40,7.87
1490,234184788,-0.8037,-0.4829,0.1670,-1.16,1.22,8.05
1491,234189786,-0.8071,-0.4873,0.1626,-1.59,1.40,8.05
1492,234194788,-0.8110,-0.4902,0.1650,-1.95,1.28,8.29
1493,234199787,-0.8149,-0.4888,0.1523,-2.50,1.46,8.48
1494,234204787,-0.8149,-0.4912,0.1509,-2.80,1.40,8.54
1495,234209786,-0.8022,-0.4990,0.1567,-3.17,1.40,8.72
1496,234214786,-0.8140,-0.5142,0.1812,-3.84,1.34,8.96
1497,234219787,-0.8125,-0.5010,0.2119,-4.76,1.71,9.09
1498,234224787,-0.8003,-0.4829,0.2144,-5.49,1.83,9.21
1499,234229788,-0.7983,-0.4834,0.1875,-6.22,1.89,9.15
1500,234234786,-0.7993,-0.4907,0.1782,-6.71,1.95,9.15
1501,234239785,-0.8022,-0.4858,0.1943,-6.95,1.89,9.09
1502,234244787,-0.8037,-0.4790,0.1846,-6.95,1.65,9.09
1503,234249787,-0.8120,-0.4922,0.1787,-6.46,1.59,8.78
1504,234254788,-0.8154,-0.4966,0.1958,-5.98,1.34,8.66
1505,234259785,-0.8145,-0.4941,0.2134,-5.24,1.34,8.60
1506,234264789,-0.8174,-0.4956,0.2012,-4.39,1.04,8.41
1507,234269787,-0.8232,-0.5020,0.1875,-3.11,0.67,8.29
1508,234274787,-0.8330,-0.5054,0.1919,-1.77,0.43,8.17
1509,234279785,-0.8433,-0.5024,0.1978,-0.24,0.06,8.05
1510,234284787,-0.8511,-0.4917,0.1934,1.28,-0.37,7.87
1511,234289787,-0.8608,-0.4897,0.1919,2.99,-0.73,7.74
1512,234294789,-0.8701,-0.4897,0.1914,4.82,-1.22,7.50
1513,234299885,-0.8706,-0.4927,0.1816,6.95,-1.71,7.26
1514,234304787,-0.8701,-0.4980,0.1885,9.02,-2.13,7.20
1515,234309787,-0.8721,-0.4990,0.1870,11.10,-2.44,6.95
1516,234314787,-0.8633,-0.4971,0.1914,13.11,-2.99,6.83
1517,234319964,-0.8545,-0.5020,0.1890,14.82,-3.29,6.65
1518,234324787,-0.8711,-0.5024,0.1934,16.52,-3.66,6.65
1519,234329787,-0.8521,-0.5249,0.2217,17.68,-4.15,6.59
1520,234334785,-0.8730,-0.5098,0.2109,18.66,-4.27,6.77
1521,234339787,-0.8789,-0.4937,0.1792,19.51,-4.63,6.77
1522,234344786,-0.8843,-0.4888,0.1890,20.55,-5.12,6.65
1523,234349786,-0.8975,-0.4917,0.2153,21.59,-5.24,6.46
1524,234355107,-0.8989,-0.4932,0.2183,22.56,-5.61,6.34
1525,234359787,-0.8979,-0.5005,0.1870,23.48,-5.85,6.28
1526,234364787,-0.8892,-0.5098,0.1953,24.63,-6.28,6.16
1527,234369789,-0.8711,-0.4897,0.2129,25.30,-6.52,6.04
1528,234374787,-0.8794,-0.4766,0.2280,26.10,-6.59,5.79
1529,234379787,-0.8848,-0.4849,0.2305,26.52,-6.65,5.79
1530,234384785,-0.8716,-0.4854,0.2065,26.95,-6.77,5.55
1531,234389787,-0.8687,-0.4897,0.2085,27.26,-7.32,5.43
1532,234394787,-0.8804,-0.4873,0.2300,27.56,-7.56,5.30
1533,234399787,-0.8809,-0.4873,0.2310,27.99,-7.56,5.00
1534,234404786,-0.8774,-0.4849,0.2070,28.17,-7.87,4.88
1535,234409787,-0.8750,-0.4795,0.2085,28.60,-8.05,4.63
1536,234414786,-0.8755,-0.4653,0.2217,28.96,-8.17,4.39
1537,234419787,-0.8716,-0.4663,0.2085,29.39,-8.23,4.09
1538,234424787,-0.8662,-0.4639,0.1968,29.76,-8.72,3.84
1539,234429787,-0.8667,-0.4722,0.2021,30.12,-8.90,3.48
1540,234434786,-0.8643,-0.4678,0.2134,30.61,-9.02,3.29
1541,234439787,-0.8643,-0.4639,0.2051,31.04,-9.27,2.93
1542,234444828,-0.8633,-0.4595,0.1992,31.46,-9.57,2.62
1543,234449786,-0.8584,-0.4575,0.2026,32.07,-9.76,2.32
1544,234454787,-0.8623,-0.4565,0.2031,32.56,-10.00,2.07
1545,234459786,-0.8608,-0.4604,0.1978,33.17,-10.18,1.83
1546,234464787,-0.8628,-0.4688,0.1997,33.78,-10.49,1.52
1547,234469786,-0.8643,-0.4727,0.1919,34.51,-10.85,1.22
1548,234474787,-0.8618,-0.4751,0.1885,35.12,-10.98,1.22
1549,234479785,-0.8633,-0.4746,0.1860,35.91,-11.28,1.04
1550,234484785,-0.8623,-0.4746,0.1714,36.46,-11.71,0.79
1551,234489787,-0.8618,-0.4761,0.1768,37.26,-12.07,0.73
1552,234494787,-0.8613,-0.4736,0.1768,38.11,-12.26,0.67
1553,234499786,-0.8677,-0.4756,0.1709,38.66,-12.62,0.49
1554,234504891,-0.8735,-0.4727,0.1616,39.21,-12.99,0.43
1555,234509787,-0.8730,-0.4702,0.1602,39.76,-13.23,0.30
1556,234514787,-0.8726,-0.4722,0.1602,40.24,-13.41,0.24
1557,234519787,-0.8730,-0.4653,0.1509,40.49,-13.78,0.12
1558,234525023,-0.8784,-0.4688,0.1519,40.67,-14.09,0.00
1559,234529787,-0.8779,-0.4644,0.1450,40.85,-14.27,-0.12
1560,234534787,-0.8804,-0.4658,0.1401,40.91,-14.33,0.00
1561,234539785,-0.8794,-0.4678,0.1411,40.49,-14.76,-0.12
1562,234544785,-0.8823,-0.4673,0.1475,40.12,-14.88,-0.12
1563,234549786,-0.8857,-0.4595,0.1494,39.02,-14.88,-0.06
1564,234554787,-0.8882,-0.4629,0.1519,37.80,-14.76,0.06
1565,234559786,-0.8872,-0.4590,0.1445,36.40,-14.63,-0.06
1566,234564787,-0.8843,-0.4595,0.1538,34.57,-14.76,0.06
1567,234569786,-0.8848,-0.4575,0.1602,32.44,-14.70,0.12
1568,234574787,-0.8818,-0.4551,0.1592,29.94,-14.39,0.18
1569,234579786,-0.8794,-0.4590,0.1567,27.44,-14.15,0.37
1570,234584785,-0.8774,-0.4531,0.1616,24.70,-13.72,0.55
1571,234589787,-0.8730,-0.4575,0.1616,21.89,-13.35,0.91
1572,234594787,-0.8745,-0.4614,0.1650,19.02,-13.17,1.16
1573,234599789,-0.8735,-0.4663,0.1758,15.91,-12.87,1.46
1574,234604787,-0.8755,-0.4663,0.1704,13.05,-12.38,1.83
1575,234609787,-0.8711,-0.4653,0.1758,9.94,-11.77,2.32
1576,234614787,-0.8735,-0.4741,0.1802,7.50,-11.28,2.80
1577,234619786,-0.8784,-0.4761,0.1890,4.45,-10.67,3.41
1578,234624787,-0.8774,-0.4751,0.1958,1.10,-10.06,4.09
1579,234629786,-0.8750,-0.4800,0.1914,-2.26,-9.21,4.76
1580,234634787,-0.8701,-0.4702,0.1797,-5.61,-8.60,5.61
1581,234639786,-0.8652,-0.4673,0.1802,-9.02,-7.13,6.46
1582,234645012,-0.8657,-0.4692,0.1792,-13.17,-5.37,7.74
1583,234649787,-0.8696,-0.4692,0.1699,-16.10,-4.02,8.66
1584,234654787,-0.8633,-0.4736,0.1782,-19.57,-2.07,9.82
1585,234659787,-0.8569,-0.4746,0.1938,-22.93,-0.61,11.04
1586,234664786,-0.8687,-0.4614,0.1621,-26.22,0.91,12.38
1587,234669787,-0.9043,-0.3994,-0.1177,-28.17,6.34,14.45
1588,234674787,-0.9507,-0.3267,-0.5176,-28.17,21.28,18.54
1589,234679787,-0.9341,-0.3467,-0.4106,-27.80,40.37,23.29
1590,234684819,-0.8540,-0.4077,-0.0962,-28.54,54.70,27.38
1591,234689787,-0.8003,-0.4536,0.0947,-29.76,61.95,30.06
1592,234694789,-0.7871,-0.4707,0.1729,-31.22,64.63,31.89
1593,234699786,-0.7998,-0.4751,0.2129,-32.44,65.55,33.23
1594,234704787,-0.8242,-0.4736,0.2324,-33.29,66.04,34.27
1595,234709786,-0.8481,-0.4678,0.2197,-33.78,66.28,35.37
1596,234714787,-0.8730,-0.4644,0.2124,-33.66,66.52,36.22
1597,234720341,-0.8911,-0.4570,0.2061,-32.93,66.65,37.13
1598,234724787,-0.8970,-0.4458,0.2051,-31.89,66.65,37.62
1599,234729787,-0.8979,-0.4468,0.1919,-30.12,66.46,38.23
1600,234734785,-0.8955,-0.4521,0.1968,-27.87,66.22,38.84
1601,234739788,-0.8970,-0.4502,0.1987,-25.24,65.91,39.39
1602,234744787,-0.8979,-0.4473,0.1890,-22.38,65.43,39.82
1603,234749787,-0.8921,-0.4478,0.1865,-19.45,64.88,40.18
1604,234754785,-0.8853,-0.4434,0.1802,-16.40,64.51,40.37
1605,234759789,-0.8794,-0.4297,0.1865,-13.29,64.02,40.49
1606,234764787,-0.8535,-0.4434,0.2163,-10.30,63.35,40.49
1607,234769786,-0.8364,-0.4438,0.2075,-7.99,63.17,40.61
1608,234774787,-0.7935,-0.4082,0.1934,-5.98,62.74,40.55
1609,234779786,-0.8149,-0.3843,0.1855,-4.27,62.07,40.55
1610,234784843,-0.8457,-0.3774,0.1846,-2.44,61.71,40.24
1611,234789789,-0.8623,-0.3828,0.1719,-0.24,61.04,39.94
1612,234794787,-0.8750,-0.3857,0.1748,1.95,60.43,39.45
1613,234799787,-0.7925,-0.4585,0.2261,3.84,59.88,38.90
1614,234804785,-0.8750,-0.4712,0.1738,4.76,59.51,38.84
1615,234809787,-0.8960,-0.4062,0.1294,6.40,58.78,38.48
1616,234814786,-0.8633,-0.3130,0.1450,8.35,57.80,37.80
1617,234819785,-0.8350,-0.3491,0.2148,10.06,57.44,36.95
1618,234824787,-0.8916,-0.3540,0.1909,11.59,56.89,36.52
1619,234829786,-0.8906,-0.3999,0.1338,12.87,56.04,36.10
1620,234834789,-0.8574,-0.3462,0.1396,14.82,55.12,35.43
1621,234839787,-0.8711,-0.3765,0.1597,15.91,54.51,35.06
1622,234844787,-0.9019,-0.3599,0.1460,17.26,53.60,34.45
1623,234849787,-0.8799,-0.3677,0.1445,18.72,52.80,33.84
1624,234854785,-0.9185,-0.3657,0.1313,19.94,51.83,33.23
1625,234859786,-0.9390,-0.3779,0.1274,21.40,50.85,32.68
1626,234864787,-0.9199,-0.3687,0.1113,22.93,50.06,32.07
1627,234869786,-0.9658,-0.3696,0.1045,24.76,49.02,31.40
1628,234874787,-0.9395,-0.3491,0.1025,26.89,47.68,30.61
1629,234879786,-0.9492,-0.3486,0.0908,29.09,46.59,29.82
1630,234884787,-0.9507,-0.2988,0.0928,31.65,45.24,28.96
1631,234889786,-0.9561,-0.3247,0.0996,34.21,43.84,28.11
1632,234894787,-0.9644,-0.3511,0.0649,37.01,42.56,27.32
1633,234899787,-0.9526,-0.3208,0.0581,40.06,40.98,26.46
1634,234904787,-0.9453,-0.3188,0.0854,43.11,39.57,25.24
1635,234909786,-0.9712,-0.3745,0.0610,46.16,37.87,24.15
1636,234914787,-0.9790,-0.3809,0.0396,49.70,36.04,23.23
1637,234919787,-0.9673,-0.3408,0.0596,52.99,34.51,22.32
1638,234924787,-0.9570,-0.2988,0.0527,56.52,32.80,21.16
1639,234929786,-0.9429,-0.2808,0.0439,59.88,31.04,19.88
1640,234934787,-0.9429,-0.2920,0.0527,63.41,29.15,18.60
1641,234939786,-0.9365,-0.3013,0.0654,66.40,27.38,17.32
1642,234944788,-0.9277,-0.3149,0.0669,69.02,25.73,15.98
1643,234949785,-0.9189,-0.3154,0.0615,71.34,24.09,14.70
1644,234954786,-0.9131,-0.3052,0.0654,73.23,22.50,13.48
1645,234959785,-0.9014,-0.2896,0.0654,74.45,20.85,12.13
1646,234964787,-0.9082,-0.2852,0.0840,75.67,19.15,10.67
1647,234969865,-0.8989,-0.3076,0.0986,76.71,17.68,9.51
1648,234975071,-0.9033,-0.3066,0.0732,77.38,16.04,8.35
1649,234979787,-0.9097,-0.3071,0.0615,77.68,14.51,7.13
1650,234984787,-0.9102,-0.3047,0.0732,77.87,12.87,6.04
1651,234989788,-0.9155,-0.2881,0.0728,77.56,11.10,4.88
1652,234994786,-0.9131,-0.2744,0.0493,77.01,9.57,3.60
1653,234999787,-0.9263,-0.2832,0.0503,76.59,7.80,2.44
1654,235004787,-0.9126,-0.2939,0.0771,75.73,6.34,1.52
1655,235009787,-0.9136,-0.3003,0.0732,74.70,4.94,0.61
1656,235014787,-0.9043,-0.3008,0.0557,73.54,3.35,-0.37
1657,235019787,-0.8970,-0.2773,0.0566,72.26,1.89,-1.28
1658,235024787,-0.9019,-0.2700,0.0566,71.10,0.12,-2.13
1659,235029787,-0.8911,-0.2734,0.0747,69.76,-1.34,-2.87
1660,235034786,-0.8867,-0.2939,0.0630,68.35,-2.74,-3.54
1661,235039787,-0.8877,-0.2939,0.0332,66.95,-4.33,-4.21
1662,235044787,-0.8867,-0.2954,0.0483,65.73,-6.16,-4.82
1663,235049787,-0.8779,-0.2896,0.0781,65.00,-7.68,-5.37
1664,235054785,-0.8833,-0.2900,0.0488,64.21,-9.27,-5.79
1665,235059787,-0.8823,-0.2754,0.0068,63.78,-10.98,-6.16
1666,235064787,-0.8926,-0.2637,-0.0059,63.90,-13.05,-6.59
1667,235069788,-0.8906,-0.2886,0.0278,64.21,-14.82,-6.77
1668,235074786,-0.8916,-0.3105,0.0386,64.51,-16.59,-6.89
1669,235079787,-0.8970,-0.3188,0.0361,64.82,-18.29,-6.95
1670,235084787,-0.8867,-0.2925,-0.0083,65.00,-19.94,-6.95
1671,235089787,-0.8931,-0.2881,0.0239,65.43,-22.32,-7.01
1672,235094787,-0.8687,-0.2925,0.1113,65.85,-23.54,-6.95
1673,235099786,-0.8774,-0.3042,0.0332,65.55,-24.82,-6.71
1674,235104787,-0.8696,-0.3032,-0.0605,63.90,-26.46,-6.52
1675,235109786,-0.8779,-0.3032,0.0142,61.83,-27.99,-6.28
1676,235114787,-0.8628,-0.3193,0.1157,59.33,-28.72,-6.10
1677,235119787,-0.8799,-0.3359,0.0112,56.59,-29.63,-5.73
1678,235124787,-0.8877,-0.3149,-0.0317,53.60,-30.73,-5.30
1679,235129786,-0.8877,-0.2939,-0.0132,50.85,-31.52,-5.00
1680,235134787,-0.9038,-0.2930,-0.0439,46.83,-32.44,-4.88
1681,235139786,-0.9434,-0.3359,-0.1938,31.59,-30.98,-5.12
1682,235144785,-1.0083,-0.3911,-0.2944,0.85,-26.34,-5.79
1683,235149787,-0.9907,-0.3892,-0.3135,-35.12,-20.55,-7.26
1684,235154786,-0.9321,-0.3223,-0.3677,-62.56,-17.07,-9.15
1685,235159787,-0.9014,-0.2798,-0.1831,-77.01,-15.85,-10.85
1686,235164786,-0.8848,-0.3242,0.0400,-80.43,-15.24,-11.83
1687,235169787,-0.9287,-0.3882,-0.0352,-77.07,-16.28,-11.89
1688,235174787,-0.9429,-0.3965,-0.0674,-70.37,-18.41,-11.22
1689,235179787,-0.9385,-0.3652,0.0210,-62.44,-20.67,-10.85
1690,235184786,-0.9468,-0.2920,0.0454,-54.51,-22.44,-10.67
1691,235189786,-0.9224,-0.2817,0.0264,-46.46,-24.70,-10.73
1692,235194788,-0.9199,-0.3237,0.0137,-38.41,-26.89,-10.61
1693,235199788,-0.9482,-0.3516,0.0864,-30.85,-28.29,-10.18
1694,235204785,-0.9614,-0.3823,0.0615,-23.54,-29.76,-9.51
1695,235209789,-1.0029,-0.3828,-0.0566,-16.95,-31.71,-8.84
1696,235214787,-1.0000,-0.3809,0.0381,-11.59,-33.35,-8.05
1697,235219786,-1.0156,-0.3877,0.2056,-8.23,-33.72,-7.56
1698,235224787,-1.0098,-0.3989,0.2769,-6.71,-33.17,-6.89
1699,235229786,-0.9692,-0.4131,0.1953,-7.07,-32.93,-6.22
1700,235234787,-0.9282,-0.3984,0.1279,-9.51,-32.80,-5.73
1701,235239786,-0.9136,-0.3999,0.1484,-13.84,-32.44,-5.24
1702,235244816,-0.9209,-0.4009,0.1831,-19.94,-31.65,-5.18
1703,235249786,-0.9536,-0.4033,0.1606,-26.89,-31.04,-5.37
1704,235254788,-0.9946,-0.3931,0.1597,-33.66,-30.12,-5.61
1705,235259785,-1.0078,-0.3804,0.1919,-39.02,-29.57,-5.79
1706,235264876,-1.0288,-0.3760,0.1870,-42.38,-29.21,-5.85
1707,235269786,-1.0405,-0.3667,0.1826,-44.02,-29.45,-5.85
1708,235274787,-1.0371,-0.3628,0.2061,-44.27,-29.82,-5.49
1709,235279786,-1.0269,-0.3740,0.2002,-43.48,-30.00,-5.18
1710,235284787,-0.9990,-0.3770,0.2026,-42.13,-30.61,-4.70
1711,235289786,-0.9844,-0.3882,0.2144,-40.91,-31.16,-4.15
1712,235294787,-0.9688,-0.3916,0.2290,-39.33,-31.71,-3.66
1713,235299785,-0.9561,-0.3892,0.2285,-38.11,-32.20,-3.17
1714,235304789,-0.9478,-0.3901,0.2334,-36.22,-32.74,-2.38
1715,235309786,-0.9448,-0.3916,0.2476,-34.94,-33.05,-1.89
1716,235314787,-0.9478,-0.3999,0.2441,-32.93,-33.48,-1.16
1717,235319786,-0.9365,-0.3940,0.2402,-31.83,-33.84,-0.67
1718,235324811,-0.9316,-0.3950,0.2515,-30.18,-34.39,-0.18
1719,235329787,-0.9326,-0.3896,0.2646,-28.90,-34.51,0.18
1720,235334790,-0.9321,-0.3931,0.2349,-26.95,-34.82,0.79
1721,235339786,-0.9341,-0.4014,0.2432,-25.06,-35.49,1.40
1722,235344787,-0.9482,-0.4268,0.2607,-22.99,-35.61,1.95
1723,235349787,-0.9209,-0.4121,0.2578,-21.40,-35.98,2.44
1724,235354786,-0.9146,-0.4136,0.2441,-19.57,-36.10,2.80
1725,235359787,-0.9131,-0.4224,0.2603,-17.20,-36.34,3.48
1726,235364786,-0.9019,-0.4053,0.2881,-15.67,-36.28,3.96
1727,235369785,-0.8877,-0.4028,0.2324,-13.41,-36.46,4.45
1728,235374787,-0.8823,-0.4033,0.2598,-11.16,-36.59,5.00
1729,235379786,-0.8774,-0.4072,0.2866,-8.54,-36.46,5.49
1730,235384787,-0.8721,-0.4097,0.2822,-5.98,-36.34,6.04
1731,235389786,-0.8657,-0.4097,0.2559,-3.48,-36.46,6.65
1732,235394787,-0.8604,-0.4111,0.2783,-0.85,-36.28,7.13
1733,235399786,-0.8516,-0.4092,0.2852,1.04,-36.04,7.68
1734,235404789,-0.8496,-0.4155,0.2549,1.77,-35.43,7.99
1735,235409786,-0.8467,-0.4229,0.2285,0.37,-34.27,7.99
1736,235414787,-0.8438,-0.4189,0.2266,-3.60,-32.38,7.56
1737,235419787,-0.7778,-0.3750,0.2456,-10.12,-29.94,6.83
1738,235424785,-0.7388,-0.3726,0.2417,-18.96,-26.89,5.61
1739,235429787,-0.7949,-0.4487,0.2231,-27.74,-24.02,4.63
1740,235434787,-0.7832,-0.4810,0.2871,-34.57,-21.71,4.27
1741,235439786,-0.7881,-0.4482,0.3535,-39.15,-19.70,4.21
1742,235444787,-0.7910,-0.3984,0.3564,-41.71,-17.99,4.21
1743,235449786,-0.7993,-0.3677,0.3491,-43.05,-16.89,4.45
1744,235454787,-0.8081,-0.3726,0.3770,-43.29,-16.16,4.94
1745,235459786,-0.8125,-0.4106,0.3862,-43.17,-15.18,5.79
1746,235464785,-0.8198,-0.4429,0.3765,-42.74,-14.51,6.77
1747,235469785,-0.8188,-0.4624,0.3481,-42.20,-13.84,7.62
1748,235474864,-0.8247,-0.4590,0.3564,-41.71,-13.23,8.60
1749,235479786,-0.8276,-0.4409,0.3677,-41.04,-12.62,9.51
1750,235485211,-0.8359,-0.4482,0.3550,-40.55,-12.07,10.73
1751,235489787,-0.8320,-0.4185,0.3462,-40.30,-11.77,11.40
1752,235494787,-0.8057,-0.4219,0.3486,-39.82,-11.28,12.38
1753,235499787,-0.8706,-0.4434,0.3281,-39.63,-10.79,13.23
1754,235505000,-0.8862,-0.4624,0.3174,-39.76,-10.49,14.15
1755,235509787,-0.8936,-0.4771,0.3193,-40.00,-10.00,15.30
1756,235514787,-0.9058,-0.4761,0.3198,-40.18,-9.70,16.10
1757,235519788,-0.9282,-0.4648,0.3188,-40.49,-9.15,17.13
1758,235524786,-0.9434,-0.4561,0.3032,-40.67,-8.66,18.11
1759,235529787,-0.9507,-0.4614,0.2886,-40.67,-8.35,18.90
1760,235534788,-0.9595,-0.4604,0.2744,-40.55,-7.99,19.70
1761,235539787,-0.9658,-0.4609,0.2661,-40.18,-7.87,20.55
1762,235544786,-0.9658,-0.4531,0.2432,-39.39,-7.80,21.22
1763,235549787,-0.9644,-0.4502,0.2261,-38.23,-7.74,21.71
1764,235554787,-0.9722,-0.4414,0.2275,-36.65,-7.74,22.26
1765,235559786,-0.9761,-0.4404,0.2144,-34.88,-7.56,22.74
1766,235564787,-0.9800,-0.4414,0.2144,-32.50,-7.80,23.05
1767,235569790,-0.9863,-0.4395,0.1987,-29.88,-7.93,23.54
1768,235574786,-0.9917,-0.4351,0.1938,-26.83,-8.05,23.84
1769,235579787,-0.9932,-0.4360,0.1890,-23.41,-8.11,24.09
1770,235584791,-0.9980,-0.4297,0.1841,-19.94,-8.23,24.39
1771,235589787,-0.9902,-0.4282,0.1743,-15.98,-8.35,24.51
1772,235594786,-1.0000,-0.4341,0.1562,-11.77,-8.78,24.51
1773,235599847,-0.9971,-0.4351,0.1685,-7.44,-9.02,24.76
1774,235604787,-0.9907,-0.4287,0.1646,-3.17,-9.39,24.70
1775,235609785,-0.9771,-0.4194,0.1631,1.28,-9.45,24.88
1776,235614785,-0.9639,-0.4102,0.1675,5.55,-9.88,24.88
1777,235619785,-0.9561,-0.4053,0.1763,9.63,-10.06,24.70
1778,235624787,-0.9414,-0.4019,0.1763,13.48,-10.06,24.57
1779,235629786,-0.9297,-0.3989,0.1797,17.13,-10.24,24.51
1780,235634787,-0.9219,-0.4009,0.1860,20.30,-10.06,24.27
1781,235639786,-0.9150,-0.3994,0.1772,22.62,-9.63,24.09
1782,235644948,-0.9150,-0.4014,0.1538,23.96,-8.90,23.41
1783,235649788,-0.9165,-0.4077,0.1392,24.15,-7.99,22.93
1784,235654787,-0.9146,-0.4170,0.1260,22.99,-6.52,22.20
1785,235659787,-0.9189,-0.4160,0.1172,20.91,-4.88,21.46
1786,235664786,-0.9248,-0.4170,0.1182,18.17,-2.99,20.73
1787,235669787,-0.9312,-0.4175,0.1284,15.30,-0.98,19.82
1788,235674785,-0.9326,-0.4146,0.1445,12.68,0.73,19.09
1789,235679789,-0.9360,-0.4116,0.1670,10.67,2.13,18.48
1790,235684787,-0.9404,-0.4062,0.1777,9.27,3.41,17.80
1791,235689786,-0.9395,-0.3984,0.1938,8.29,4.33,17.13
1792,235694787,-0.9346,-0.3950,0.2051,8.05,5.12,16.65
1793,235699786,-0.9316,-0.3867,0.1963,7.93,5.55,16.10
1794,235704787,-0.9263,-0.3828,0.1997,8.11,5.91,15.55
1795,235709785,-0.9189,-0.3833,0.1924,8.23,6.10,15.00
1796,235714786,-0.9165,-0.3896,0.1948,8.23,6.34,14.51
1797,235719787,-0.9097,-0.3843,0.1904,8.11,6.46,14.02
1798,235724965,-0.9043,-0.3760,0.1890,7.93,6.65,13.48
1799,235729787,-0.8994,-0.3638,0.1885,7.56,6.71,12.93
1800,235734787,-0.8989,-0.3633,0.1860,7.20,6.95,12.26
1801,235739787,-0.9014,-0.3560,0.1846,6.83,7.20,11.46
1802,235744787,-0.8999,-0.3545,0.1821,6.34,7.38,10.61
1803,235749787,-0.8994,-0.3521,0.1851,5.67,7.50,9.82
1804,235754786,-0.9023,-0.3496,0.1816,5.24,7.99,8.90
1805,235759933,-0.9126,-0.3545,0.1729,4.82,8.11,7.93
1806,235764787,-0.9136,-0.3584,0.1616,4.33,8.41,6.95
1807,235769786,-0.9189,-0.3633,0.1577,3.78,8.72,6.04
1808,235774785,-0.9248,-0.3638,0.1538,3.35,8.84,5.06
1809,235779787,-0.9326,-0.3638,0.1509,2.80,9.09,4.15
1810,235784787,-0.9277,-0.3657,0.1357,2.62,9.02,3.23
1811,235789787,-0.9307,-0.3677,0.1338,2.38,9.21,2.13
1812,235794786,-0.9258,-0.3652,0.1230,2.07,9.21,1.22
1813,235799787,-0.9248,-0.3687,0.1196,2.07,9.15,0.18
1814,235804786,-0.9272,-0.3657,0.1230,2.01,9.27,-0.79
1815,235809787,-0.9214,-0.3555,0.1611,1.95,9.45,-1.89
1816,235814785,-0.9331,-0.3496,0.1650,1.77,9.76,-2.99
1817,235819787,-0.9258,-0.3599,0.1357,2.07,10.00,-4.21
1818,235824787,-0.9131,-0.3608,0.1279,2.80,10.00,-5.49
1819,235829786,-0.9087,-0.3613,0.1411,3.84,10.18,-6.71
1820,235834787,-0.9072,-0.3569,0.1313,5.37,10.49,-8.05
1821,235839786,-0.9009,-0.3511,0.1030,7.44,10.37,-9.51
1822,235845270,-0.9058,-0.3477,0.1094,9.82,10.30,-10.79
1823,235849787,-0.9111,-0.3413,0.1162,12.68,10.24,-12.32
1824,235854787,-0.9136,-0.3442,0.1079,15.98,10.18,-13.78
1825,235859787,-0.9165,-0.3555,0.1040,19.63,9.94,-15.06
1826,235864786,-0.9126,-0.3574,0.1196,23.48,9.82,-16.40
1827,235869787,-0.9058,-0.3491,0.1245,27.62,9.70,-17.74
1828,235874787,-0.9033,-0.3545,0.1157,32.01,9.51,-19.09
1829,235879787,-0.9062,-0.3608,0.1138,36.59,9.15,-20.37
1830,235884786,-0.9077,-0.3711,0.1313,41.28,8.90,-21.52
1831,235889787,-0.9028,-0.3774,0.1309,45.98,8.66,-22.62
1832,235894787,-0.9014,-0.3828,0.1338,50.43,8.23,-23.54
1833,235899787,-0.8867,-0.3853,0.1455,54.63,8.05,-24.57
1834,235904786,-0.8867,-0.3804,0.1553,58.41,8.05,-25.43
1835,235909787,-0.8789,-0.3755,0.1567,61.71,7.68,-26.34
1836,235914786,-0.8760,-0.3711,0.1597,64.45,7.50,-27.20
1837,235919786,-0.8740,-0.3774,0.1626,66.71,7.38,-28.17
1838,235924786,-0.8613,-0.3789,0.1743,68.54,7.32,-28.90
1839,235929787,-0.8638,-0.3799,0.1611,69.70,7.32,-29.57
1840,235934786,-0.8779,-0.3794,0.1733,70.30,7.32,-30.37
1841,235939786,-0.8872,-0.3872,0.1841,70.55,7.32,-31.04
1842,235945112,-0.8872,-0.3926,0.1875,70.49,7.62,-31.59
1843,235949787,-0.8799,-0.3911,0.1797,69.82,7.74,-32.01
1844,235954787,-0.8848,-0.3882,0.1777,68.78,7.93,-32.32
1845,235959787,-0.8901,-0.3823,0.1768,67.38,8.35,-32.56
1846,235964787,-0.9053,-0.3867,0.1753,65.18,8.48,-32.68
1847,235969787,-0.9170,-0.3911,0.1865,62.68,8.90,-32.74
1848,235974837,-0.9097,-0.3911,0.1865,59.88,9.27,-32.74
1849,235979785,-0.8984,-0.3833,0.1880,56.89,9.57,-32.74
1850,235984785,-0.8979,-0.3877,0.1743,53.54,10.00,-32.62
1851,235989787,-0.8994,-0.3950,0.1812,50.06,10.24,-32.38
1852,235994787,-0.8945,-0.4102,0.1851,46.28,10.85,-32.13
1853,235999787,-0.8940,-0.4126,0.1851,42.44,11.22,-31.65
1854,236004786,-0.8794,-0.4097,0.1860,38.78,11.52,-31.10
1855,236009787,-0.8672,-0.4092,0.1792,35.12,11.77,-30.61
1856,236014786,-0.8672,-0.4126,0.1758,31.34,12.20,-30.06
1857,236019787,-0.8735,-0.4111,0.1846,27.93,12.44,-29.45
1858,236024787,-0.8774,-0.4097,0.1895,24.63,12.68,-28.84
1859,236029787,-0.8774,-0.4067,0.1699,21.83,12.93,-28.17
1860,236034786,-0.8789,-0.4155,0.1631,19.33,12.87,-27.32
1861,236039790,-0.8818,-0.4219,0.1689,17.20,12.99,-26.46
1862,236044787,-0.8784,-0.4204,0.1675,15.37,12.93,-25.67
1863,236049788,-0.8789,-0.4102,0.1597,13.72,12.87,-24.88
1864,236054785,-0.8755,-0.4116,0.1636,12.56,12.68,-24.02
1865,236059874,-0.8813,-0.4141,0.1714,11.83,12.56,-23.05
1866,236064787,-0.8809,-0.4136,0.1670,11.10,12.26,-22.07
1867,236069786,-0.8784,-0.4155,0.1602,10.67,11.83,-21.28
1868,236074788,-0.8784,-0.4180,0.1655,10.43,11.59,-20.43
1869,236079786,-0.8789,-0.4136,0.1758,10.30,11.22,-19.57
1870,236084787,-0.8809,-0.4175,0.1680,10.06,11.04,-18.72
1871,236089785,-0.8799,-0.4165,0.1680,9.76,10.67,-18.05
1872,236094835,-0.8896,-0.4165,0.1709,9.76,10.06,-17.01
1873,236099787,-0.8862,-0.4160,0.1777,9.88,9.63,-16.34
1874,236104809,-0.8872,-0.4165,0.1782,9.82,9.27,-15.55
1875,236109787,-0.8931,-0.4150,0.1831,9.82,9.09,-15.00
1876,236114787,-0.8960,-0.4165,0.1846,9.57,8.54,-14.45
1877,236119788,-0.8945,-0.4185,0.1895,9.51,8.35,-13.84
1878,236125059,-0.8979,-0.4136,0.1870,9.15,7.93,-13.48
1879,236129787,-0.8970,-0.4116,0.1938,8.78,7.56,-13.17
1880,236134787,-0.9014,-0.4092,0.1973,8.35,7.26,-12.80
1881,236139787,-0.9038,-0.4067,0.2021,7.87,7.07,-12.50
1882,236144801,-0.9043,-0.4077,0.2041,7.26,6.83,-12.32
1883,236149787,-0.9165,-0.4082,0.2114,6.71,6.52,-12.20
1884,236155178,-0.9175,-0.4092,0.2080,5.91,6.16,-12.13
1885,236159787,-0.9131,-0.4072,0.2051,5.55,5.98,-12.20
1886,236164787,-0.9185,-0.4087,0.2070,4.94,5.79,-12.26
1887,236169788,-0.9219,-0.4053,0.2075,4.45,5.49,-12.26
1888,236174786,-0.9233,-0.4014,0.2061,3.96,5.24,-12.38
1889,236179787,-0.9224,-0.4014,0.2012,3.78,5.00,-12.38
1890,236184805,-0.9224,-0.4009,0.1929,3.78,4.76,-12.62
1891,236189785,-0.9180,-0.4043,0.1953,4.09,4.39,-12.80
1892,236194789,-0.9204,-0.4053,0.1929,4.39,4.02,-12.99
1893,236199787,-0.9175,-0.4053,0.1948,5.00,3.78,-13.17
1894,236205040,-0.9150,-0.4062,0.1904,5.85,3.17,-13.29
1895,236209787,-0.9141,-0.4062,0.1929,6.52,3.05,-13.48
1896,236214787,-0.9126,-0.4106,0.1865,7.32,2.56,-13.72
1897,236219785,-0.9106,-0.4111,0.1885,8.17,2.20,-13.96
1898,236224787,-0.9058,-0.4082,0.1919,9.09,1.77,-14.09
1899,236229786,-0.9038,-0.4062,0.1880,10.12,1.40,-14.21
1900,236234787,-0.9033,-0.4102,0.1865,11.22,0.98,-14.39
1901,236239786,-0.9023,-0.4077,0.1841,12.13,0.67,-14.63
1902,236244787,-0.9043,-0.4116,0.1929,13.17,0.24,-14.88
1903,236249786,-0.8999,-0.4043,0.1904,14.02,-0.06,-14.94
1904,236254789,-0.9014,-0.4072,0.1904,15.06,-0.43,-15.30
1905,236259787,-0.9038,-0.4111,0.1836,15.55,-0.67,-15.30
1906,236264787,-0.9023,-0.4097,0.1807,16.22,-1.10,-15.49
1907,236269788,-0.8975,-0.4121,0.1875,16.77,-1.28,-15.61
1908,236275305,-0.8921,-0.4141,0.1841,17.13,-1.59,-15.73
1909,236279787,-0.8931,-0.4150,0.1846,17.20,-1.95,-15.91
1910,236284786,-0.8882,-0.4141,0.1880,17.13,-2.20,-15.98
1911,236289786,-0.8911,-0.4175,0.1909,16.95,-2.38,-15.98
1912,236294787,-0.8872,-0.4150,0.1895,16.52,-2.50,-16.04
1913,236299786,-0.8862,-0.4170,0.1860,15.98,-2.80,-15.98
1914,236304787,-0.8823,-0.4233,0.1904,15.24,-2.80,-16.10
1915,236309786,-0.8809,-0.4243,0.1890,14.21,-2.99,-15.98
1916,236314787,-0.8809,-0.4253,0.1914,13.17,-3.05,-15.91
1917,236319786,-0.8809,-0.4287,0.1914,11.83,-2.93,-15.73
1918,236324787,-0.8789,-0.4302,0.1914,10.37,-2.99,-15.55
1919,236329785,-0.8818,-0.4336,0.1924,8.78,-3.23,-15.37
1920,236334842,-0.8838,-0.4341,0.1938,7.26,-3.23,-15.12
1921,236339787,-0.8843,-0.4312,0.1841,5.61,-3.17,-15.00
1922,236344787,-0.8877,-0.4370,0.1890,3.84,-3.11,-14.70
1923,236349786,-0.8877,-0.4380,0.1909,2.01,-2.99,-14.45
1924,236354786,-0.8921,-0.4404,0.1943,0.06,-2.99,-14.09
1925,236359787,-0.8936,-0.4414,0.1904,-1.77,-2.93,-13.60
1926,236364787,-0.8906,-0.4404,0.1890,-3.66,-2.80,-13.35
1927,236369787,-0.8882,-0.4429,0.1860,-5.61,-2.87,-13.05
1928,236374787,-0.8872,-0.4458,0.1885,-7.20,-2.80,-12.62
1929,236379789,-0.8872,-0.4478,0.1831,-8.78,-2.62,-12.20
1930,236385092,-0.8921,-0.4473,0.1865,-10.12,-2.56,-11.83
1931,236389787,-0.8862,-0.4512,0.1846,-11.40,-2.68,-11.28
1932,236394787,-0.8896,-0.4497,0.1797,-12.68,-2.68,-10.85
1933,236399787,-0.8892,-0.4585,0.1816,-13.60,-2.68,-10.37
1934,236404786,-0.8926,-0.4604,0.1812,-14.57,-2.68,-9.88
1935,236409788,-0.8882,-0.4648,0.1763,-15.49,-2.74,-9.15
1936,236414787,-0.8901,-0.4614,0.1733,-16.28,-2.74,-8.60
1937,236419786,-0.8853,-0.4624,0.1768,-16.89,-2.87,-7.99
1938,236424789,-0.8867,-0.4653,0.1772,-17.44,-2.87,-7.38
1939,236429794,-0.8804,-0.4658,0.1782,-17.80,-2.87,-6.71
1940,236434787,-0.8813,-0.4717,0.1685,-17.99,-2.99,-6.16
1941,236439786,-0.8789,-0.4683,0.1724,-18.23,-3.17,-5.24
1942,236444787,-0.8784,-0.4702,0.1626,-18.41,-3.29,-4.51
1943,236449786,-0.8711,-0.4707,0.1650,-18.35,-3.41,-3.84
1944,236454787,-0.8730,-0.4692,0.1636,-18.35,-3.72,-3.11
1945,236459787,-0.8770,-0.4756,0.1616,-18.05,-3.66,-2.26
1946,236464786,-0.8770,-0.4761,0.1665,-17.62,-3.96,-1.28
1947,236469787,-0.8755,-0.4814,0.1646,-17.07,-4.21,-0.55
1948,236474787,-0.8726,-0.4814,0.1538,-16.71,-4.45,0.18
1949,236479788,-0.8750,-0.4819,0.1548,-15.91,-4.51,1.16
1950,236484786,-0.8711,-0.4868,0.1577,-15.30,-4.70,2.01
1951,236489787,-0.8696,-0.4819,0.1582,-14.45,-5.00,2.87
1952,236494786,-0.8687,-0.4824,0.1543,-13.60,-5.37,3.78
1953,236499786,-0.8652,-0.4810,0.1538,-12.68,-5.67,4.63
1954,236504787,-0.8677,-0.4829,0.1533,-11.59,-6.04,5.49
1955,236509787,-0.8657,-0.4814,0.1548,-10.61,-6.22,6.28
1956,236514787,-0.8589,-0.4839,0.1504,-9.70,-6.52,7.13
1957,236519786,-0.8579,-0.4810,0.1465,-8.96,-6.77,7.87
1958,236524790,-0.8564,-0.4834,0.1465,-8.17,-6.95,8.60
1959,236529789,-0.8511,-0.4849,0.1450,-7.68,-7.32,9.33
1960,236534785,-0.8530,-0.4834,0.1470,-7.20,-7.44,9.94
1961,236539786,-0.8511,-0.4858,0.1494,-6.71,-7.56,10.61
1962,236544788,-0.8511,-0.4873,0.1475,-6.28,-7.68,11.22
1963,236549789,-0.8472,-0.4878,0.1465,-5.85,-7.80,11.77
1964,236554786,-0.8428,-0.4854,0.1440,-5.67,-8.05,12.26
1965,236559785,-0.8403,-0.4912,0.1411,-5.24,-7.99,12.87
1966,236564785,-0.8418,-0.4873,0.1475,-5.18,-8.29,13.29
1967,236569786,-0.8389,-0.4907,0.1421,-5.00,-8.29,13.78
1968,236574787,-0.8457,-0.4868,0.1406,-4.88,-8.35,14.15
1969,236579787,-0.8418,-0.4902,0.1382,-4.76,-8.60,14.63
1970,236584786,-0.8452,-0.4883,0.1401,-4.57,-8.72,14.82
1971,236589915,-0.8403,-0.4858,0.1401,-4.27,-8.78,15.12
1972,236594786,-0.8413,-0.4805,0.1309,-4.09,-8.78,15.30
1973,236600251,-0.8379,-0.4897,0.1333,-3.66,-8.78,15.55
1974,236604788,-0.8403,-0.4844,0.1343,-3.11,-8.84,15.73
1975,236609785,-0.8379,-0.4883,0.1338,-2.74,-8.96,15.85
1976,236614787,-0.8350,-0.4912,0.1333,-2.07,-8.90,15.85
1977,236619787,-0.8418,-0.4863,0.1309,-1.52,-8.78,15.91
1978,236624785,-0.8389,-0.4873,0.1299,-0.98,-8.90,15.79
1979,236629789,-0.8320,-0.4883,0.1323,-0.61,-8.84,15.67
1980,236634786,-0.8384,-0.4858,0.1343,-0.12,-8.78,15.67
1981,236639819,-0.8398,-0.4888,0.1323,0.24,-8.66,15.43
1982,236644787,-0.8315,-0.4995,0.1338,0.49,-8.54,15.30
1983,236649786,-0.8340,-0.4971,0.1382,0.73,-8.35,15.06
1984,236654787,-0.8491,-0.4868,0.1313,0.55,-8.23,14.76
1985,236659787,-0.8433,-0.4932,0.1343,0.24,-8.05,14.57
1986,236664786,-0.8535,-0.4917,0.1362,-0.37,-7.68,14.15
1987,236669842,-0.8574,-0.4878,0.1362,-0.91,-7.62,13.84
1988,236674983,-0.8516,-0.4839,0.1348,-1.83,-7.32,13.41
1989,236679785,-0.8574,-0.4863,0.1348,-2.87,-7.07,12.93
1990,236684829,-0.8545,-0.4824,0.1362,-3.90,-6.83,12.56
1991,236689914,-0.8496,-0.4810,0.1367,-5.00,-6.65,12.01
1992,236694787,-0.8486,-0.4771,0.1353,-6.28,-6.34,11.40
1993,236699786,-0.8511,-0.4810,0.1367,-7.44,-5.98,10.91
1994,236704785,-0.8472,-0.4834,0.1382,-8.48,-5.79,10.43
1995,236709789,-0.8521,-0.4854,0.1416,-9.76,-5.49,9.94
1996,236714786,-0.8555,-0.4878,0.1406,-10.91,-5.37,9.39
1997,236719787,-0.8564,-0.4873,0.1362,-12.01,-4.88,8.90
1998,236724787,-0.8633,-0.4785,0.1460,-12.93,-4.76,8.41
1999,236729788,-0.8672,-0.4648,0.1484,-13.90,-4.45,7.93
2000,236734789,-0.8647,-0.4629,0.1465,-14.82,-4.45,7.38
2001,236739787,-0.8711,-0.4653,0.1553,-15.43,-4.15,7.07
2002,236744787,-0.8716,-0.4673,0.1602,-15.73,-4.02,6.71
2003,236749787,-0.8701,-0.4702,0.1577,-16.04,-3.66,6.40
2004,236754786,-0.8691,-0.4717,0.1533,-16.10,-3.78,6.16
2005,236759787,-0.8779,-0.4658,0.1611,-15.85,-3.72,5.98
2006,236764786,-0.8794,-0.4648,0.1616,-15.61,-3.60,5.79
2007,236769787,-0.8809,-0.4614,0.1636,-15.06,-3.54,5.79
2008,236774787,-0.8833,-0.4639,0.1553,-14.51,-3.54,5.55
2009,236779787,-0.8784,-0.4658,0.1655,-13.72,-3.41,5.55
2010,236784787,-0.8760,-0.4658,0.1689,-12.80,-3.35,5.37
2011,236789787,-0.8765,-0.4648,0.1655,-11.89,-3.48,5.37
2012,236795291,-0.8755,-0.4595,0.1650,-10.73,-3.29,5.30
2013,236799787,-0.8730,-0.4639,0.1685,-9.76,-3.29,5.24
2014,236804786,-0.8721,-0.4590,0.1694,-8.78,-3.35,5.18
2015,236809787,-0.8726,-0.4604,0.1738,-7.68,-3.29,5.12
2016,236814787,-0.8789,-0.4629,0.1758,-6.71,-3.23,5.12
2017,236819787,-0.8701,-0.4648,0.1777,-5.79,-3.35,5.00
2018,236824786,-0.8701,-0.4639,0.1694,-4.82,-3.23,5.00
2019,236829787,-0.8721,-0.4634,0.1704,-3.90,-3.23,5.00
2020,236834787,-0.8750,-0.4648,0.1738,-3.17,-3.23,4.94
2021,236839788,-0.8721,-0.4624,0.1743,-2.56,-3.11,5.06
2022,236844785,-0.8667,-0.4639,0.1772,-2.07,-2.87,5.12
2023,236849787,-0.8672,-0.4604,0.1709,-1.40,-2.93,5.06
2024,236854787,-0.8652,-0.4653,0.1846,-1.16,-2.68,5.18
2025,236859888,-0.8711,-0.4644,0.1816,-0.67,-2.80,5.24
2026,236864786,-0.8687,-0.4614,0.1826,-0.24,-2.56,5.06
2027,236869787,-0.8662,-0.4639,0.1792,0.06,-2.50,5.18
2028,236875351,-0.8638,-0.4580,0.1768,0.37,-2.20,5.24
2029,236879787,-0.8628,-0.4590,0.1846,0.73,-2.13,5.30
2030,236884787,-0.8608,-0.4604,0.1743,0.98,-1.95,5.37
2031,236889787,-0.8618,-0.4648,0.1738,1.16,-1.95,5.30
2032,236894786,-0.8643,-0.4668,0.1709,1.46,-1.77,5.43
2033,236899787,-0.8643,-0.4624,0.1719,1.71,-1.65,5.43
2034,236904786,-0.8628,-0.4634,0.1733,1.83,-1.52,5.55
2035,236909785,-0.8643,-0.4595,0.1782,2.07,-1.40,5.61
2036,236915508,-0.8613,-0.4609,0.1699,2.20,-1.22,5.73
2037,236919787,-0.8589,-0.4595,0.1802,2.32,-1.04,5.91
2038,236924787,-0.8579,-0.4614,0.1763,2.56,-1.04,5.91
2039,236929787,-0.8613,-0.4614,0.1748,2.56,-0.91,5.91
2040,236934786,-0.8608,-0.4614,0.1758,2.74,-0.67,6.04
2041,236939787,-0.8589,-0.4653,0.1743,2.87,-0.79,6.10
2042,236944787,-0.8560,-0.4609,0.1763,2.93,-0.61,6.16
2043,236949787,-0.8564,-0.4604,0.1772,2.99,-0.55,6.22
2044,236955089,-0.8623,-0.4604,0.1758,3.05,-0.24,6.28
2045,236959787,-0.8594,-0.4600,0.1704,3.11,-0.18,6.46
2046,236964787,-0.8647,-0.4580,0.1699,3.11,-0.18,6.46
2047,236969787,-0.8672,-0.4619,0.1694,3.35,-0.06,6.46
2048,236974786,-0.8687,-0.4575,0.1694,3.48,0.06,6.52
2049,236979788,-0.8657,-0.4565,0.1772,3.48,0.12,6.46
2050,236984787,-0.8691,-0.4531,0.1680,3.54,0.30,6.40
2051,236989788,-0.8687,-0.4546,0.1670,3.72,0.43,6.40
2052,236994786,-0.8682,-0.4521,0.1665,3.72,0.49,6.40
2053,236999787,-0.8701,-0.4526,0.1641,3.96,0.55,6.40
2054,237004785,-0.8691,-0.4502,0.1680,4.09,0.61,6.34
2055,237009787,-0.8760,-0.4575,0.1660,4.21,0.49,6.34
2056,237014787,-0.8716,-0.4526,0.1636,4.39,0.55,6.16
2057,237019787,-0.8730,-0.4526,0.1631,4.51,0.61,6.22
2058,237024786,-0.8701,-0.4546,0.1543,4.57,0.61,6.22
2059,237029787,-0.8740,-0.4512,0.1646,4.57,0.67,6.10
2060,237034787,-0.8726,-0.4546,0.1636,4.70,0.85,6.10
2061,237039787,-0.8765,-0.4487,0.1655,4.82,0.79,6.04
2062,237044785,-0.8779,-0.4521,0.1655,4.82,0.73,5.85
2063,237049787,-0.8789,-0.4478,0.1626,5.06,0.79,5.79
2064,237054787,-0.8799,-0.4502,0.1611,5.18,0.73,5.67
2065,237059787,-0.8833,-0.4517,0.1611,5.30,0.79,5.55
2066,237064811,-0.8813,-0.4482,0.1602,5.49,0.79,5.61
2067,237069787,-0.8828,-0.4478,0.1670,5.55,0.85,5.43
2068,237074787,-0.8823,-0.4526,0.1553,5.73,0.73,5.43
2069,237079788,-0.8828,-0.4541,0.1587,5.85,0.61,5.30
2070,237084786,-0.8789,-0.4541,0.1572,6.04,0.61,5.18
2071,237089787,-0.8843,-0.4507,0.1611,6.10,0.37,5.18
2072,237094787,-0.8809,-0.4546,0.1597,6.40,0.55,5.00
2073,237099787,-0.8828,-0.4546,0.1606,6.59,0.43,4.88
2074,237104785,-0.8833,-0.4531,0.1523,6.65,0.30,4.82
2075,237109789,-0.8828,-0.4536,0.1577,6.71,0.30,4.82
2076,237114787,-0.8789,-0.4546,0.1567,6.77,0.24,4.63
2077,237119787,-0.8818,-0.4517,0.1558,6.71,0.18,4.63
2078,237124787,-0.8813,-0.4512,0.1562,6.71,0.06,4.51
2079,237129787,-0.8809,-0.4512,0.1577,6.71,0.12,4.45
2080,237134787,-0.8794,-0.4497,0.1562,6.65,0.00,4.33
2081,237139786,-0.8799,-0.4478,0.1577,6.46,-0.06,4.21
2082,237144787,-0.8774,-0.4517,0.1548,6.46,-0.18,4.21
2083,237149786,-0.8760,-0.4473,0.1553,6.10,-0.30,3.96
2084,237154787,-0.8774,-0.4478,0.1582,6.04,-0.24,3.90
2085,237159786,-0.8789,-0.4448,0.1558,5.67,-0.37,3.84
2086,237164787,-0.8794,-0.4448,0.1519,5.37,-0.37,3.84
2087,237169786,-0.8770,-0.4507,0.1577,5.24,-0.30,3.72
2088,237174785,-0.8765,-0.4468,0.1528,4.94,-0.43,3.72
2089,237179787,-0.8735,-0.4517,0.1567,4.63,-0.61,3.66
2090,237184787,-0.8701,-0.4468,0.1514,4.51,-0.67,3.54
2091,237189785,-0.8721,-0.4473,0.1548,4.27,-0.73,3.60
2092,237194854,-0.8784,-0.4487,0.1523,4.02,-0.85,3.54
2093,237199787,-0.8784,-0.4468,0.1479,3.66,-0.79,3.48
2094,237205347,-0.8730,-0.4453,0.1494,3.48,-1.04,3.41
2095,237209787,-0.8716,-0.4448,0.1494,3.41,-1.10,3.35
2096,237214787,-0.8735,-0.4419,0.1494,3.17,-1.22,3.29
2097,237219787,-0.8760,-0.4434,0.1514,2.99,-1.40,3.23
2098,237224786,-0.8735,-0.4414,0.1445,2.87,-1.46,3.35
2099,237229787,-0.8784,-0.4434,0.1436,2.62,-1.71,3.17
2100,237234787,-0.8804,-0.4512,0.1479,2.56,-1.71,3.17
2101,237239787,-0.8770,-0.4492,0.1436,2.44,-1.89,3.23
2102,237244786,-0.8745,-0.4443,0.1465,2.26,-2.01,3.29
2103,237249787,-0.8779,-0.4419,0.1465,2.01,-2.07,3.17
2104,237254786,-0.8828,-0.4404,0.1460,1.89,-2.26,3.29
2105,237259786,-0.8779,-0.4453,0.1421,1.71,-2.13,3.23
2106,237264787,-0.8755,-0.4453,0.1484,1.34,-2.26,3.17
2107,237269786,-0.8804,-0.4443,0.1519,1.10,-2.32,3.23
2108,237274924,-0.8794,-0.4438,0.1445,0.79,-2.32,3.17
2109,237279787,-0.8774,-0.4473,0.1504,0.30,-2.62,3.29
2110,237284787,-0.8794,-0.4478,0.1475,-0.06,-2.62,3.41
2111,237289787,-0.8789,-0.4463,0.1523,-0.30,-2.68,3.35
2112,237294786,-0.8765,-0.4468,0.1484,-0.79,-2.68,3.35
2113,237299788,-0.8755,-0.4478,0.1479,-1.34,-2.62,3.48
2114,237304787,-0.8726,-0.4482,0.1440,-1.71,-2.62,3.48
2115,237309786,-0.8770,-0.4429,0.1484,-2.01,-2.68,3.48
2116,237314785,-0.8770,-0.4463,0.1489,-2.50,-2.68,3.72
2117,237319787,-0.8774,-0.4473,0.1523,-2.87,-2.56,3.72
2118,237324787,-0.8774,-0.4473,0.1445,-3.17,-2.68,3.90
2119,237329787,-0.8823,-0.4458,0.1436,-3.48,-2.80,3.90
2120,237334786,-0.8804,-0.4468,0.1426,-3.72,-2.74,3.90
2121,237339787,-0.8813,-0.4482,0.1460,-4.02,-2.80,4.02
2122,237344787,-0.8774,-0.4429,0.1494,-4.33,-2.80,4.02
2123,237349788,-0.8809,-0.4468,0.1494,-4.57,-2.80,4.15
2124,237355266,-0.8853,-0.4463,0.1470,-4.82,-2.74,4.21
2125,237359787,-0.8804,-0.4492,0.1484,-4.94,-2.68,4.33
2126,237364787,-0.8838,-0.4497,0.1553,-5.18,-2.68,4.45
2127,237369787,-0.8848,-0.4482,0.1533,-5.61,-2.80,4.45
2128,237374787,-0.8833,-0.4463,0.1519,-5.61,-2.62,4.63
2129,237379787,-0.8828,-0.4463,0.1562,-5.79,-2.74,4.63
2130,237384787,-0.8809,-0.4429,0.1499,-5.98,-2.62,4.76
2131,237389787,-0.8809,-0.4385,0.1489,-6.04,-2.56,4.82
2132,237394786,-0.8770,-0.4429,0.1479,-6.04,-2.56,4.88
2133,237399787,-0.8770,-0.4409,0.1475,-5.98,-2.56,4.82
2134,237405302,-0.8765,-0.4399,0.1504,-5.98,-2.38,4.94
2135,237409787,-0.8784,-0.4414,0.1519,-5.91,-2.44,4.94
2136,237415182,-0.8799,-0.4365,0.1475,-5.73,-2.50,4.94
2137,237419787,-0.8779,-0.4355,0.1465,-5.79,-2.26,4.94
2138,237424787,-0.8804,-0.4365,0.1489,-5.61,-2.26,4.88
2139,237429787,-0.8818,-0.4404,0.1484,-5.49,-2.13,4.88
2140,237434786,-0.8813,-0.4409,0.1514,-5.43,-2.01,5.00
2141,237439787,-0.8813,-0.4434,0.1416,-5.30,-2.13,5.00
2142,237444787,-0.8857,-0.4443,0.1504,-5.24,-2.07,5.12
2143,237449787,-0.8882,-0.4473,0.1514,-5.24,-1.95,5.12
2144,237454787,-0.8901,-0.4453,0.1479,-5.12,-1.77,5.18
2145,237459787,-0.8887,-0.4429,0.1484,-4.94,-1.83,5.18
2146,237464787,-0.8862,-0.4438,0.1509,-5.06,-1.77,5.24
2147,237469787,-0.8901,-0.4404,0.1475,-4.76,-1.59,5.24
2148,237474786,-0.8857,-0.4429,0.1460,-4.70,-1.52,5.30
2149,237479788,-0.8867,-0.4385,0.1450,-4.57,-1.46,5.30
2150,237484787,-0.8838,-0.4380,0.1489,-4.33,-1.40,5.37
2151,237489787,-0.8892,-0.4424,0.1523,-4.21,-1.28,5.30
2152,237494786,-0.8911,-0.4390,0.1479,-4.09,-1.22,5.30
2153,237499787,-0.8916,-0.4375,0.1514,-3.96,-1.10,5.24
2154,237504787,-0.8931,-0.4438,0.1519,-3.78,-0.91,5.37
2155,237509787,-0.8989,-0.4487,0.1465,-3.66,-0.85,5.43
2156,237514785,-0.8965,-0.4448,0.1465,-3.48,-0.73,5.43
2157,237519786,-0.8984,-0.4448,0.1460,-3.41,-0.73,5.61
2158,237524787,-0.8984,-0.4468,0.1431,-3.41,-0.67,5.55
2159,237529786,-0.8984,-0.4448,0.1431,-3.29,-0.43,5.61
2160,237534787,-0.8936,-0.4404,0.1382,-3.23,-0.49,5.67
2161,237539786,-0.8940,-0.4365,0.1426,-3.11,-0.43,5.61
2162,237545090,-0.8906,-0.4380,0.1426,-3.11,-0.37,5.73
2163,237549787,-0.8921,-0.4331,0.1372,-2.87,-0.24,5.61
2164,237554787,-0.8882,-0.4307,0.1470,-2.74,-0.12,5.85
2165,237559787,-0.8911,-0.4316,0.1401,-2.62,-0.06,5.73
2166,237564786,-0.8975,-0.4302,0.1426,-2.44,0.06,5.79
2167,237569787,-0.8926,-0.4287,0.1362,-2.13,0.18,5.91
2168,237574787,-0.8911,-0.4321,0.1362,-2.13,0.18,5.79
2169,237579788,-0.8896,-0.4268,0.1387,-1.65,0.24,5.91
2170,237584786,-0.8911,-0.4302,0.1382,-1.46,0.30,5.91
2171,237589787,-0.8848,-0.4307,0.1353,-1.22,0.30,6.10
2172,237594787,-0.8906,-0.4321,0.1323,-0.85,0.43,6.10
2173,237599787,-0.8862,-0.4355,0.1343,-0.37,0.43,6.28
2174,237604790,-0.8828,-0.4326,0.1318,-0.18,0.43,6.28
2175,237609786,-0.8823,-0.4312,0.1338,0.06,0.37,6.46
2176,237614785,-0.8799,-0.4326,0.1289,0.61,0.43,6.46
2177,237619787,-0.8755,-0.4346,0.1289,0.98,0.30,6.40
2178,237624787,-0.8730,-0.4351,0.1357,1.28,0.30,6.52
2179,237629787,-0.8735,-0.4307,0.1294,1.52,0.30,6.71
2180,237634786,-0.8472,-0.4087,0.1519,1.65,0.37,6.77
2181,237639787,-0.8647,-0.4194,0.1260,1.40,0.55,6.71
