# skilleye imu stream v1
# device=xiao_esp32c6 imu=mpu6050 addr=0x68
# rate_hz=200 accel_range_g=16 gyro_range_dps=2000 dlpf_hz=94
# units: accel in g, gyro in deg/s, t_us in microseconds since boot (monotonic)
# no shared clock with the camera -- tap the racket once before each take
# so both recordings share a spike to align on
seq,t_us,ax,ay,az,gx,gy,gz
0,326481984,-0.5254,-0.6401,-0.4229,34.15,22.99,36.40
1,326487297,-0.5293,-0.6372,-0.4229,33.54,22.26,35.61
2,326491984,-0.5234,-0.6357,-0.4238,32.74,21.65,34.70
3,326497077,-0.5259,-0.6396,-0.4180,32.07,20.85,33.78
4,326501986,-0.5278,-0.6416,-0.4165,31.22,19.94,32.93
5,326506982,-0.5254,-0.6353,-0.4189,30.18,19.27,31.95
6,326511982,-0.5259,-0.6348,-0.4092,29.33,18.48,31.16
7,326516982,-0.5269,-0.6357,-0.4106,28.29,17.74,30.30
8,326521982,-0.5298,-0.6367,-0.4155,27.20,16.89,29.45
9,326526982,-0.5312,-0.6353,-0.4126,26.04,16.04,28.54
10,326531982,-0.5347,-0.6377,-0.4146,24.94,15.37,27.62
11,326536986,-0.5332,-0.6372,-0.4141,23.66,14.57,26.71
12,326541984,-0.5347,-0.6333,-0.4126,22.32,13.78,25.85
13,326546984,-0.5405,-0.6387,-0.4116,20.85,12.93,25.12
14,326552422,-0.5386,-0.6392,-0.4185,19.33,12.20,24.15
15,326556984,-0.5332,-0.6406,-0.4199,17.80,11.40,23.23
16,326561984,-0.5342,-0.6382,-0.4155,16.16,10.61,22.50
17,326566984,-0.5347,-0.6411,-0.4131,14.39,9.94,21.65
18,326571984,-0.5337,-0.6426,-0.4126,12.74,9.15,20.91
19,326576984,-0.5376,-0.6475,-0.4126,11.22,8.60,20.18
20,326581986,-0.5371,-0.6440,-0.4121,9.57,7.87,19.27
21,326586984,-0.5435,-0.6401,-0.4185,7.99,7.32,18.54
22,326591984,-0.5381,-0.6436,-0.4141,6.46,6.89,17.80
23,326596985,-0.5396,-0.6436,-0.4146,5.00,6.22,17.07
24,326601984,-0.5400,-0.6406,-0.4141,3.54,5.85,16.34
25,326606984,-0.5469,-0.6445,-0.4209,2.20,5.12,15.67
26,326611986,-0.5527,-0.6455,-0.4233,0.79,4.63,14.88
27,326616984,-0.5552,-0.6475,-0.4253,-0.55,4.09,14.21
28,326621984,-0.5562,-0.6475,-0.4263,-1.71,3.54,13.54
29,326626984,-0.5527,-0.6431,-0.4312,-2.68,2.93,12.87
30,326631983,-0.5552,-0.6499,-0.4316,-3.66,2.50,12.32
31,326636984,-0.5547,-0.6499,-0.4312,-4.51,1.83,11.65
32,326641984,-0.5537,-0.6470,-0.4312,-5.24,1.52,11.04
33,326646984,-0.5479,-0.6479,-0.4292,-5.79,0.98,10.43
34,326651984,-0.5493,-0.6499,-0.4370,-6.22,0.43,9.94
35,326656984,-0.5518,-0.6533,-0.4336,-6.59,0.06,9.33
36,326661984,-0.5508,-0.6465,-0.4365,-6.77,-0.30,8.72
37,326666984,-0.5522,-0.6504,-0.4375,-6.83,-0.73,8.17
38,326671984,-0.5508,-0.6484,-0.4419,-6.59,-1.10,7.68
39,326676984,-0.5503,-0.6479,-0.4434,-6.16,-1.40,7.13
40,326681984,-0.5532,-0.6455,-0.4424,-5.61,-1.77,6.59
41,326686984,-0.5508,-0.6436,-0.4346,-4.94,-2.13,5.91
42,326691984,-0.5479,-0.6411,-0.4443,-4.33,-2.44,5.43
43,326696985,-0.5547,-0.6411,-0.4375,-3.66,-2.93,4.88
44,326701984,-0.5586,-0.6406,-0.4453,-2.80,-3.23,4.45
45,326706984,-0.5610,-0.6382,-0.4463,-1.95,-3.41,3.96
46,326711986,-0.5581,-0.6416,-0.4458,-1.04,-3.72,3.48
47,326716983,-0.5576,-0.6382,-0.4512,-0.18,-4.09,3.05
48,326721984,-0.5591,-0.6348,-0.4497,0.73,-4.33,2.68
49,326726984,-0.5601,-0.6387,-0.4507,1.59,-4.70,2.32
50,326731984,-0.5620,-0.6392,-0.4507,2.38,-5.06,1.83
51,326736984,-0.5635,-0.6382,-0.4556,3.17,-5.37,1.52
52,326741984,-0.5591,-0.6382,-0.4536,3.72,-5.67,1.04
53,326746984,-0.5601,-0.6367,-0.4565,4.33,-5.79,0.73
54,326751984,-0.5586,-0.6353,-0.4580,4.70,-5.98,0.43
55,326756984,-0.5605,-0.6338,-0.4551,5.18,-6.40,0.00
56,326761983,-0.5596,-0.6323,-0.4600,5.55,-6.40,-0.37
57,326766986,-0.5596,-0.6343,-0.4609,5.79,-6.65,-0.85
58,326771984,-0.5542,-0.6392,-0.4590,5.91,-6.65,-1.34
59,326776984,-0.5532,-0.6348,-0.4570,6.04,-6.77,-1.83
60,326781984,-0.5532,-0.6348,-0.4595,6.16,-6.89,-2.44
61,326786984,-0.5542,-0.6367,-0.4546,6.22,-6.95,-2.99
62,326791984,-0.5557,-0.6396,-0.4629,6.16,-6.83,-3.60
63,326796983,-0.5532,-0.6372,-0.4609,5.98,-7.13,-4.39
64,326801983,-0.5532,-0.6401,-0.4648,5.79,-6.95,-5.00
65,326806984,-0.5537,-0.6416,-0.4629,5.55,-7.07,-5.85
66,326811984,-0.5508,-0.6440,-0.4717,5.18,-7.13,-6.59
67,326816982,-0.5439,-0.6460,-0.4634,4.88,-6.95,-7.32
68,326821982,-0.5415,-0.6499,-0.4712,4.57,-7.07,-8.11
69,326826984,-0.5391,-0.6558,-0.4658,4.02,-7.13,-8.90
70,326831986,-0.5322,-0.6606,-0.4692,3.41,-7.13,-9.88
71,326836983,-0.5332,-0.6577,-0.4712,2.68,-7.20,-10.85
72,326841984,-0.5278,-0.6611,-0.4712,1.89,-7.20,-11.83
73,326846984,-0.5229,-0.6611,-0.4731,1.16,-7.20,-13.05
74,326851984,-0.5200,-0.6621,-0.4648,0.43,-7.32,-14.15
75,326856984,-0.5205,-0.6665,-0.4668,-0.06,-7.44,-15.49
76,326861984,-0.5278,-0.6733,-0.4644,-0.61,-7.50,-16.89
77,326866984,-0.5347,-0.6768,-0.4648,-1.10,-7.44,-18.05
78,326871984,-0.5391,-0.6782,-0.4707,-1.65,-7.62,-19.21
79,326876984,-0.5376,-0.6880,-0.4697,-2.20,-7.74,-20.37
80,326881984,-0.5400,-0.6968,-0.4663,-2.68,-7.93,-21.59
81,326886984,-0.5396,-0.7041,-0.4697,-3.11,-7.93,-22.80
82,326891984,-0.5464,-0.7065,-0.4653,-3.41,-8.05,-23.90
83,326896984,-0.5522,-0.7095,-0.4619,-3.66,-8.29,-24.94
84,326901984,-0.5493,-0.7070,-0.4619,-3.60,-8.41,-26.22
85,326906984,-0.5552,-0.7129,-0.4590,-3.48,-8.48,-27.38
86,326911985,-0.5571,-0.7124,-0.4648,-3.11,-8.60,-28.54
87,326916984,-0.5591,-0.7139,-0.4624,-2.56,-8.72,-29.88
88,326921984,-0.5610,-0.7134,-0.4526,-1.77,-8.72,-31.16
89,326926984,-0.5645,-0.7153,-0.4580,-0.91,-8.66,-32.74
90,326931984,-0.5679,-0.7153,-0.4585,-0.06,-9.09,-34.21
91,326936984,-0.5645,-0.7202,-0.4541,0.49,-9.02,-35.61
92,326941984,-0.5723,-0.7202,-0.4600,1.46,-9.21,-37.01
93,326947012,-0.5728,-0.7231,-0.4624,2.26,-9.33,-38.48
94,326951986,-0.5786,-0.7217,-0.4619,2.99,-9.39,-39.82
95,326956984,-0.5811,-0.7231,-0.4614,3.66,-9.76,-41.16
96,326961984,-0.5835,-0.7241,-0.4629,4.21,-9.82,-42.44
97,326966984,-0.5850,-0.7280,-0.4639,4.45,-10.30,-43.60
98,326971984,-0.5874,-0.7368,-0.4673,4.63,-10.43,-44.63
99,326976984,-0.5840,-0.7373,-0.4639,4.39,-10.73,-45.49
100,326981984,-0.5752,-0.7417,-0.4546,3.90,-10.73,-46.46
101,326986984,-0.5723,-0.7427,-0.4609,3.29,-10.91,-47.26
102,326991984,-0.5649,-0.7437,-0.4595,2.38,-11.16,-48.05
103,326997422,-0.5615,-0.7417,-0.4482,1.52,-11.16,-48.84
104,327001984,-0.5542,-0.7441,-0.4468,0.61,-11.22,-49.63
105,327007270,-0.5430,-0.7422,-0.4482,-0.18,-11.16,-50.49
106,327011984,-0.5474,-0.7368,-0.4512,-0.43,-10.98,-51.28
107,327016983,-0.5454,-0.7349,-0.4414,-0.67,-10.98,-52.20
108,327021986,-0.5405,-0.7339,-0.4517,-0.49,-10.91,-53.11
109,327027473,-0.5405,-0.7305,-0.4502,-0.30,-10.98,-53.78
110,327031984,-0.5381,-0.7314,-0.4556,0.18,-11.04,-54.51
111,327036984,-0.5415,-0.7275,-0.4580,0.61,-11.16,-55.24
112,327041983,-0.5415,-0.7266,-0.4604,1.16,-11.52,-55.98
113,327046984,-0.5425,-0.7246,-0.4653,1.83,-11.77,-56.59
114,327051984,-0.5366,-0.7236,-0.4751,2.38,-12.20,-57.13
115,327056984,-0.5303,-0.7290,-0.4800,2.74,-12.56,-57.68
116,327061984,-0.5200,-0.7310,-0.4819,3.11,-13.05,-58.05
117,327066984,-0.5176,-0.7295,-0.4775,3.23,-13.60,-58.41
118,327072398,-0.5132,-0.7261,-0.4780,3.41,-14.09,-58.72
119,327076984,-0.5054,-0.7295,-0.4780,3.29,-14.57,-59.02
120,327081984,-0.4995,-0.7275,-0.4785,3.23,-14.94,-59.39
121,327086984,-0.4966,-0.7256,-0.4775,2.87,-15.49,-59.70
122,327091983,-0.4961,-0.7251,-0.4800,2.50,-15.73,-60.00
123,327096986,-0.4878,-0.7266,-0.4800,2.26,-15.98,-60.30
124,327101982,-0.4854,-0.7300,-0.4717,1.83,-16.16,-60.79
125,327106995,-0.4849,-0.7285,-0.4736,1.34,-16.22,-61.10
126,327111982,-0.4834,-0.7339,-0.4727,0.91,-16.46,-61.71
127,327116984,-0.4858,-0.7402,-0.4785,0.61,-16.52,-62.13
128,327121982,-0.4824,-0.7427,-0.4736,0.18,-16.89,-62.68
129,327126985,-0.4883,-0.7461,-0.4780,0.12,-16.83,-63.11
130,327131984,-0.4868,-0.7437,-0.4814,0.00,-17.20,-63.66
131,327136984,-0.4917,-0.7480,-0.4829,-0.12,-17.26,-64.27
132,327141984,-0.4912,-0.7480,-0.4854,-0.37,-17.32,-64.82
133,327146984,-0.4868,-0.7554,-0.4780,-0.61,-17.80,-65.30
134,327151984,-0.4766,-0.7612,-0.4854,-0.98,-17.93,-65.91
135,327156984,-0.4634,-0.7676,-0.4849,-1.40,-18.11,-66.40
136,327161984,-0.4570,-0.7661,-0.4805,-1.59,-18.29,-66.89
137,327166984,-0.4585,-0.7637,-0.4824,-2.20,-18.41,-67.44
138,327171985,-0.4590,-0.7666,-0.4756,-2.99,-18.41,-68.05
139,327176984,-0.4551,-0.7700,-0.4785,-4.15,-18.48,-68.48
140,327181984,-0.4487,-0.7769,-0.4653,-5.18,-18.48,-68.96
141,327186984,-0.4419,-0.7793,-0.4673,-6.16,-18.29,-69.39
142,327191983,-0.4370,-0.7803,-0.4668,-7.26,-18.11,-69.76
143,327196986,-0.4399,-0.7812,-0.4648,-8.11,-17.87,-70.30
144,327201984,-0.4419,-0.7856,-0.4575,-8.78,-17.56,-70.73
145,327206984,-0.4536,-0.7856,-0.4697,-9.45,-17.26,-71.28
146,327211984,-0.4414,-0.7959,-0.4653,-10.00,-17.13,-71.71
147,327216984,-0.4253,-0.8022,-0.4683,-10.55,-17.13,-72.07
148,327221984,-0.4189,-0.8076,-0.4663,-10.67,-17.07,-72.44
149,327226985,-0.4233,-0.8130,-0.4595,-10.98,-16.95,-72.80
150,327231983,-0.4268,-0.8188,-0.4546,-11.10,-17.01,-73.35
151,327236983,-0.4258,-0.8213,-0.4546,-11.22,-17.01,-73.66
152,327241984,-0.4233,-0.8228,-0.4536,-10.98,-17.07,-74.27
153,327246984,-0.4180,-0.8252,-0.4526,-10.85,-17.01,-74.70
154,327252076,-0.3984,-0.8345,-0.4404,-10.18,-17.07,-75.18
155,327256984,-0.3882,-0.8291,-0.4438,-9.27,-17.07,-75.49
156,327261984,-0.3799,-0.8252,-0.4409,-8.05,-17.07,-75.79
157,327266984,-0.3813,-0.8257,-0.4404,-6.52,-17.26,-76.16
158,327271984,-0.3789,-0.8286,-0.4346,-5.12,-17.50,-76.52
159,327277255,-0.3682,-0.8301,-0.4297,-3.66,-17.38,-76.89
160,327281984,-0.3618,-0.8335,-0.4282,-2.44,-17.38,-77.07
161,327287433,-0.3447,-0.8335,-0.4185,-0.85,-17.44,-77.32
162,327291985,-0.3359,-0.8330,-0.4092,0.30,-17.13,-77.44
163,327296984,-0.3281,-0.8384,-0.4072,1.52,-17.13,-77.56
164,327301984,-0.3188,-0.8354,-0.4106,3.05,-17.20,-77.74
165,327307467,-0.3052,-0.8438,-0.4043,4.39,-17.20,-78.05
166,327311984,-0.2993,-0.8394,-0.4062,5.12,-17.26,-78.23
167,327316984,-0.2925,-0.8481,-0.4014,6.04,-17.32,-78.48
168,327321984,-0.3032,-0.8525,-0.3950,6.52,-17.32,-78.84
169,327326985,-0.2949,-0.8584,-0.4072,7.13,-17.44,-79.09
170,327331984,-0.2681,-0.8682,-0.4062,7.62,-17.62,-79.39
171,327336982,-0.2593,-0.8696,-0.4033,8.23,-17.93,-79.57
172,327341984,-0.2573,-0.8721,-0.4014,8.78,-17.93,-79.94
173,327346984,-0.2686,-0.8774,-0.4058,9.70,-18.35,-80.30
174,327351984,-0.2739,-0.8799,-0.4048,10.67,-18.72,-80.49
175,327356984,-0.2754,-0.8823,-0.4058,11.89,-19.09,-80.91
176,327361982,-0.2739,-0.8862,-0.4019,13.35,-19.33,-81.34
177,327366984,-0.2720,-0.8872,-0.4175,14.94,-19.63,-81.59
178,327371984,-0.2617,-0.8965,-0.4185,16.65,-20.12,-82.01
179,327376984,-0.2563,-0.9009,-0.4199,18.72,-20.55,-82.26
180,327381984,-0.2617,-0.8984,-0.4238,20.98,-20.98,-82.44
181,327386984,-0.2593,-0.9116,-0.4316,23.29,-21.40,-82.62
182,327391984,-0.2573,-0.9146,-0.4302,25.49,-21.83,-82.80
183,327396984,-0.2534,-0.9204,-0.4404,27.74,-22.26,-82.93
184,327401982,-0.2520,-0.9253,-0.4468,30.00,-22.68,-83.11
185,327406984,-0.2495,-0.9307,-0.4443,32.32,-23.05,-83.35
186,327411986,-0.2412,-0.9287,-0.4443,34.45,-23.60,-83.54
187,327416983,-0.2349,-0.9268,-0.4512,36.52,-23.78,-83.90
188,327421982,-0.2314,-0.9292,-0.4580,38.41,-24.39,-84.33
189,327426984,-0.2285,-0.9287,-0.4619,40.37,-24.70,-84.82
190,327431985,-0.2339,-0.9263,-0.4614,42.01,-24.88,-85.30
191,327436984,-0.2305,-0.9287,-0.4663,43.35,-25.24,-86.04
192,327441984,-0.2173,-0.9316,-0.4668,44.02,-25.43,-86.71
193,327446984,-0.2124,-0.9297,-0.4585,44.57,-25.24,-87.56
194,327451984,-0.2046,-0.9409,-0.4609,44.63,-25.37,-88.17
195,327457493,-0.2051,-0.9390,-0.4629,44.51,-25.24,-89.15
196,327461984,-0.2036,-0.9380,-0.4517,44.63,-25.06,-89.88
197,327466984,-0.2041,-0.9336,-0.4561,44.57,-24.76,-90.85
198,327472385,-0.1924,-0.9370,-0.4507,44.45,-24.21,-92.07
199,327476984,-0.1899,-0.9409,-0.4561,44.45,-24.09,-92.87
200,327481984,-0.1865,-0.9424,-0.4580,44.09,-23.66,-93.78
201,327486984,-0.1807,-0.9375,-0.4482,43.78,-23.29,-94.70
202,327491984,-0.1792,-0.9336,-0.4448,43.48,-22.68,-95.73
203,327496984,-0.1733,-0.9370,-0.4434,43.11,-22.38,-96.59
204,327501984,-0.1660,-0.9326,-0.4385,42.32,-21.65,-97.68
205,327507190,-0.1553,-0.9297,-0.4326,41.28,-20.91,-98.84
206,327511985,-0.1475,-0.9287,-0.4312,40.61,-20.24,-99.63
207,327516984,-0.1445,-0.9297,-0.4277,39.63,-19.63,-100.43
208,327521985,-0.1392,-0.9292,-0.4307,38.48,-18.96,-101.22
209,327526984,-0.1318,-0.9297,-0.4287,37.56,-18.35,-101.83
210,327531986,-0.1279,-0.9287,-0.4272,36.52,-17.74,-102.44
211,327536984,-0.1226,-0.9287,-0.4268,35.61,-16.95,-102.93
212,327541984,-0.1118,-0.9272,-0.4204,34.45,-16.22,-103.41
213,327546984,-0.1074,-0.9263,-0.4180,34.02,-15.79,-103.60
214,327551984,-0.0977,-0.9258,-0.4272,33.66,-15.00,-103.84
215,327556984,-0.0879,-0.9199,-0.4243,33.54,-14.21,-103.90
216,327561984,-0.0796,-0.9023,-0.4268,34.02,-13.48,-104.09
217,327566982,-0.0718,-0.8931,-0.4253,34.94,-12.68,-104.27
218,327571984,-0.0615,-0.8872,-0.4165,35.98,-12.26,-104.33
219,327576984,-0.0532,-0.8784,-0.4170,37.80,-11.40,-104.33
220,327581984,-0.0518,-0.8667,-0.4146,39.63,-10.79,-104.39
221,327586984,-0.0454,-0.8569,-0.4121,41.52,-10.12,-104.27
222,327591984,-0.0449,-0.8530,-0.4058,43.66,-9.57,-104.09
223,327596984,-0.0415,-0.8462,-0.4014,45.49,-9.02,-103.72
224,327601984,-0.0317,-0.8354,-0.3965,47.38,-8.48,-103.29
225,327606984,-0.0308,-0.8301,-0.3906,49.21,-7.87,-102.62
226,327612234,-0.0234,-0.8218,-0.3936,51.04,-7.26,-102.01
227,327616984,-0.0127,-0.8169,-0.3940,52.62,-7.13,-101.40
228,327621984,-0.0088,-0.8037,-0.3916,53.84,-6.77,-100.55
229,327626984,0.0112,-0.7910,-0.3931,54.94,-6.71,-99.51
230,327632455,0.0166,-0.7803,-0.3950,55.73,-6.65,-98.72
231,327637464,0.0322,-0.7705,-0.3882,56.40,-6.71,-97.62
232,327641984,0.0430,-0.7646,-0.3882,56.83,-7.20,-96.71
233,327647471,0.0493,-0.7554,-0.3853,56.95,-7.62,-95.67
234,327651984,0.0610,-0.7456,-0.3848,56.83,-7.87,-94.63
235,327656984,0.0664,-0.7393,-0.3853,56.59,-8.11,-93.60
236,327662194,0.0659,-0.7227,-0.3794,56.04,-8.17,-92.68
237,327666984,0.0703,-0.7065,-0.3730,55.37,-8.41,-91.83
238,327671984,0.0728,-0.6987,-0.3691,54.21,-8.35,-91.04
239,327677261,0.0703,-0.6914,-0.3643,52.68,-8.29,-90.43
240,327681984,0.0718,-0.6865,-0.3613,51.04,-8.05,-89.70
241,327686984,0.0776,-0.6802,-0.3521,49.09,-7.87,-89.02
242,327691984,0.0791,-0.6729,-0.3540,46.95,-7.62,-88.29
243,327696983,0.0879,-0.6714,-0.3486,44.82,-7.38,-87.74
244,327701984,0.0869,-0.6636,-0.3472,42.68,-7.01,-86.83
245,327706984,0.0835,-0.6660,-0.3379,40.55,-6.83,-86.04
246,327711982,0.0894,-0.6704,-0.3398,38.60,-6.52,-85.06
247,327716982,0.0938,-0.6699,-0.3428,36.83,-6.28,-83.96
248,327722275,0.0991,-0.6572,-0.3423,35.37,-6.16,-83.11
249,327726984,0.1074,-0.6494,-0.3364,34.09,-6.22,-81.95
250,327731984,0.1128,-0.6436,-0.3438,33.05,-6.10,-80.85
251,327736985,0.1240,-0.6411,-0.3438,32.50,-6.28,-79.88
252,327741984,0.1255,-0.6367,-0.3389,31.89,-6.65,-78.78
253,327746984,0.1382,-0.6367,-0.3291,31.65,-7.07,-77.80
254,327751984,0.1406,-0.6348,-0.3345,31.59,-7.38,-76.77
255,327756984,0.1484,-0.6367,-0.3340,31.40,-7.87,-75.61
256,327761984,0.1484,-0.6372,-0.3325,31.34,-8.41,-74.57
257,327766984,0.1533,-0.6367,-0.3267,31.34,-8.78,-73.41
258,327771982,0.1558,-0.6392,-0.3203,31.46,-9.15,-72.32
259,327776984,0.1558,-0.6406,-0.3223,31.40,-9.51,-71.10
260,327781984,0.1528,-0.6406,-0.3159,31.40,-10.00,-70.00
261,327786984,0.1548,-0.6392,-0.3140,31.34,-10.00,-68.72
262,327791984,0.1523,-0.6401,-0.3052,31.28,-10.30,-67.50
263,327796984,0.1582,-0.6426,-0.2998,30.91,-10.61,-66.46
264,327801984,0.1548,-0.6440,-0.2905,30.49,-10.85,-65.24
265,327806984,0.1528,-0.6450,-0.2783,29.70,-11.16,-63.96
266,327811984,0.1543,-0.6489,-0.2866,28.78,-11.40,-62.74
267,327816984,0.1621,-0.6582,-0.2729,28.05,-11.65,-61.40
268,327821984,0.1680,-0.6592,-0.2729,27.32,-11.95,-60.12
269,327826984,0.1714,-0.6616,-0.2617,26.95,-12.13,-58.72
270,327831984,0.1826,-0.6846,-0.2822,26.59,-12.68,-57.38
271,327837459,0.1968,-0.7061,-0.2905,26.22,-12.93,-55.91
272,327842453,0.1943,-0.6899,-0.2710,26.04,-13.29,-54.57
273,327846987,0.1870,-0.6870,-0.2793,26.28,-13.41,-53.41
274,327851984,0.1880,-0.6963,-0.2900,26.59,-14.02,-52.26
275,327856984,0.2119,-0.6978,-0.2915,26.77,-14.45,-50.98
276,327861984,0.2280,-0.7012,-0.2852,27.01,-15.12,-49.76
277,327867108,0.2510,-0.7251,-0.3267,27.01,-15.79,-48.54
278,327871983,0.2837,-0.7017,-0.3442,26.40,-16.71,-47.13
279,327876984,0.3115,-0.6665,-0.3950,25.85,-17.87,-46.22
280,327881984,0.3213,-0.6548,-0.4409,24.76,-18.90,-45.43
281,327886984,0.3291,-0.6470,-0.4238,22.93,-20.06,-44.88
282,327891984,0.3223,-0.6548,-0.3740,20.37,-20.67,-44.15
283,327896984,0.3047,-0.6665,-0.3247,17.38,-21.16,-43.41
284,327901987,0.2944,-0.6514,-0.3008,13.72,-21.95,-42.44
285,327906984,0.3042,-0.6362,-0.2920,11.46,-22.26,-41.83
286,327911984,0.3159,-0.6177,-0.2896,9.39,-22.80,-41.16
287,327916984,0.3237,-0.6035,-0.2974,7.68,-23.72,-40.61
288,327921984,0.3311,-0.6108,-0.2949,5.98,-24.63,-40.12
289,327927479,0.3262,-0.6230,-0.2783,3.48,-25.55,-39.15
290,327932496,0.3325,-0.6426,-0.2568,1.34,-26.10,-38.54
291,327936985,0.3315,-0.6504,-0.2373,-0.55,-26.59,-37.68
292,327941984,0.3286,-0.6685,-0.2104,-3.05,-26.65,-36.59
293,327946983,0.3296,-0.6938,-0.1787,-5.06,-26.77,-35.37
294,327951984,0.3320,-0.7173,-0.1567,-7.01,-26.77,-33.90
295,327956984,0.3521,-0.7339,-0.1494,-7.99,-26.59,-32.99
296,327961984,0.3730,-0.7603,-0.1240,-8.72,-26.52,-31.77
297,327966984,0.3828,-0.7803,-0.1143,-9.33,-26.28,-30.49
298,327971984,0.3804,-0.7725,-0.1294,-9.88,-25.98,-29.39
299,327976983,0.3813,-0.7651,-0.1240,-10.00,-25.61,-28.60
300,327981984,0.3721,-0.7544,-0.1172,-9.88,-25.24,-27.93
301,327986984,0.3740,-0.7505,-0.1206,-9.82,-24.94,-27.20
302,327991984,0.3955,-0.7471,-0.1079,-9.45,-24.51,-26.59
303,327996983,0.4160,-0.7476,-0.1064,-9.02,-24.21,-25.85
304,328001982,0.4336,-0.7471,-0.1099,-8.35,-23.84,-25.18
305,328006983,0.4448,-0.7485,-0.1113,-7.56,-23.66,-24.39
306,328011985,0.4634,-0.7471,-0.1089,-6.46,-23.35,-23.48
307,328016982,0.4639,-0.7461,-0.1025,-5.61,-23.23,-22.62
308,328021985,0.4941,-0.7510,-0.1157,-5.06,-23.05,-21.65
309,328026984,0.5078,-0.7563,-0.1157,-4.70,-23.05,-20.67
310,328031984,0.5220,-0.7622,-0.1079,-4.57,-22.99,-19.57
311,328036984,0.5420,-0.7700,-0.1128,-5.12,-22.87,-18.35
312,328041983,0.5605,-0.7793,-0.1143,-6.10,-22.99,-16.95
313,328046985,0.5806,-0.7886,-0.1206,-7.32,-22.93,-15.43
314,328051984,0.5977,-0.7969,-0.1289,-9.02,-23.05,-13.84
315,328056984,0.6079,-0.8052,-0.1299,-11.04,-23.17,-12.44
316,328061984,0.6196,-0.8179,-0.1392,-13.05,-22.93,-10.98
317,328066984,0.6216,-0.8247,-0.1460,-15.18,-22.80,-9.70
318,328071984,0.6304,-0.8296,-0.1509,-17.56,-22.74,-8.48
319,328076984,0.6313,-0.8350,-0.1543,-20.00,-22.44,-7.26
320,328081984,0.6313,-0.8525,-0.1509,-22.20,-22.07,-6.16
321,328086984,0.6382,-0.8594,-0.1519,-24.45,-21.89,-5.12
322,328091984,0.6421,-0.8672,-0.1543,-26.04,-21.40,-3.96
323,328096984,0.6284,-0.8604,-0.1494,-27.32,-21.16,-2.99
324,328101984,0.6226,-0.8721,-0.1436,-28.41,-20.85,-2.20
325,328106985,0.6157,-0.8789,-0.1567,-29.15,-20.61,-1.46
326,328111984,0.6021,-0.8809,-0.1553,-29.51,-20.18,-0.73
327,328116985,0.5952,-0.8848,-0.1660,-29.76,-19.76,-0.18
328,328121984,0.5986,-0.8823,-0.1768,-29.39,-19.27,0.37
329,328126984,0.6152,-0.8887,-0.1816,-29.45,-18.54,0.73
330,328131984,0.6021,-0.9058,-0.2036,-29.70,-17.87,1.16
331,328137351,0.6064,-0.9058,-0.2300,-29.94,-16.65,1.59
332,328141985,0.6128,-0.9048,-0.2417,-30.30,-15.98,1.83
333,328146984,0.6104,-0.9106,-0.2617,-31.04,-14.94,1.83
334,328151983,0.6182,-0.9092,-0.2710,-31.59,-13.48,2.01
335,328156984,0.6152,-0.9067,-0.2817,-32.62,-11.46,1.89
336,328161984,0.6162,-0.8979,-0.3076,-33.29,-10.06,1.65
337,328166984,0.6030,-0.8979,-0.3218,-34.09,-8.17,1.34
338,328171985,0.6001,-0.8730,-0.3354,-34.57,-6.16,0.98
339,328176983,0.6079,-0.8506,-0.3374,-34.88,-4.15,0.37
340,328181984,0.6021,-0.8428,-0.3521,-34.51,-2.07,-0.24
341,328186984,0.5850,-0.8252,-0.3335,-33.72,0.24,-0.91
342,328191983,0.5962,-0.7856,-0.4243,-31.40,2.56,-1.71
343,328196986,0.6084,-0.7817,-0.3911,-28.96,4.33,-2.62
344,328201984,0.5991,-0.7837,-0.3813,-26.46,6.10,-3.48
345,328207452,0.5723,-0.7808,-0.3838,-23.72,7.93,-4.33
346,328211984,0.5625,-0.7715,-0.3735,-21.16,9.45,-4.94
347,328216984,0.5537,-0.7515,-0.3618,-16.95,11.95,-5.91
348,328221984,0.5552,-0.7456,-0.3657,-12.93,13.78,-6.71
349,328226984,0.5532,-0.7427,-0.3696,-8.78,15.37,-7.50
350,328232482,0.5469,-0.7373,-0.3604,-4.82,17.20,-8.17
351,328236984,0.5347,-0.7314,-0.3457,-0.73,18.66,-8.78
352,328241984,0.5039,-0.7373,-0.3081,3.35,20.61,-9.33
353,328246985,0.5317,-0.7017,-0.3721,7.32,22.20,-9.76
354,328251984,0.5298,-0.7119,-0.3330,11.04,23.41,-10.30
355,328256984,0.5498,-0.6919,-0.3525,14.39,24.51,-10.73
356,328261984,0.5557,-0.6968,-0.3364,16.65,25.49,-11.22
357,328266984,0.5562,-0.7144,-0.3125,17.99,26.52,-11.77
358,328271984,0.5557,-0.7222,-0.2974,18.54,27.80,-12.13
359,328276984,0.5508,-0.7300,-0.2710,18.41,29.02,-12.32
360,328281984,0.5430,-0.7202,-0.2700,17.74,30.43,-12.50
361,328286984,0.5474,-0.7070,-0.2710,16.83,31.65,-12.74
362,328292401,0.5469,-0.6992,-0.2783,15.55,32.74,-12.80
363,328296984,0.5420,-0.7031,-0.2529,14.09,33.90,-12.99
364,328301983,0.5283,-0.6992,-0.2383,12.74,34.94,-12.93
365,328306983,0.5298,-0.7002,-0.2524,11.40,35.91,-13.05
366,328311984,0.5312,-0.6987,-0.2451,10.06,36.52,-13.23
367,328316984,0.5229,-0.7017,-0.2461,8.35,37.07,-13.11
368,328321983,0.5156,-0.7070,-0.2280,6.52,37.38,-13.23
369,328326984,0.5107,-0.7114,-0.2163,4.39,37.99,-12.87
370,328331984,0.5122,-0.7139,-0.2192,1.95,38.35,-12.44
371,328336984,0.5098,-0.7183,-0.2075,-0.55,38.78,-11.89
372,328342186,0.5039,-0.7153,-0.2056,-3.29,39.21,-11.34
373,328346985,0.4956,-0.7251,-0.2017,-6.04,39.27,-10.73
374,328351984,0.4961,-0.7275,-0.1997,-8.96,39.39,-10.00
375,328356984,0.5190,-0.7378,-0.2031,-11.89,39.45,-9.21
376,328361984,0.5186,-0.7334,-0.2002,-14.94,39.33,-8.29
377,328366984,0.5044,-0.7363,-0.2041,-17.74,39.15,-7.32
378,328371984,0.4971,-0.7222,-0.2041,-20.49,39.09,-6.59
379,328376983,0.4956,-0.7236,-0.1924,-23.29,38.72,-5.67
380,328381984,0.5024,-0.7241,-0.1826,-25.61,38.78,-4.88
381,328386984,0.5015,-0.7300,-0.1855,-27.62,38.60,-3.96
382,328391984,0.5039,-0.7251,-0.1826,-28.96,38.60,-3.17
383,328396984,0.4961,-0.7183,-0.1748,-29.94,38.72,-2.56
384,328401984,0.4966,-0.7119,-0.1763,-30.18,38.60,-1.89
385,328406984,0.4902,-0.7065,-0.1753,-29.70,38.72,-1.28
386,328411984,0.4902,-0.7021,-0.1680,-28.78,38.72,-0.79
387,328416984,0.4912,-0.6929,-0.1733,-27.38,38.84,-0.43
388,328421984,0.4873,-0.6934,-0.1558,-25.98,38.96,-0.24
389,328427424,0.4878,-0.6958,-0.1553,-24.33,39.09,0.00
390,328431984,0.4966,-0.6846,-0.1514,-22.62,39.33,0.18
391,328437406,0.4995,-0.6870,-0.1455,-21.10,39.51,0.43
392,328441984,0.5034,-0.6992,-0.1372,-19.88,39.57,0.67
393,328446984,0.5078,-0.7021,-0.1348,-19.02,39.63,0.98
394,328451985,0.5073,-0.7114,-0.1206,-18.66,39.82,1.52
395,328456984,0.4976,-0.7251,-0.1060,-18.72,39.94,2.07
396,328461984,0.5010,-0.7329,-0.0991,-19.02,40.00,2.80
397,328467455,0.5044,-0.7544,-0.0947,-19.82,40.00,3.78
398,328471984,0.5122,-0.7734,-0.0889,-20.85,39.82,5.12
399,328476984,0.5176,-0.7979,-0.0796,-22.01,39.70,6.71
400,328481984,0.5220,-0.8125,-0.0747,-23.11,39.27,8.48
401,328486984,0.5278,-0.8325,-0.0703,-23.90,39.15,10.49
402,328491984,0.5342,-0.8452,-0.0674,-24.27,38.90,12.62
403,328497424,0.5410,-0.8530,-0.0645,-24.15,38.48,14.76
404,328501984,0.5469,-0.8525,-0.0737,-23.17,38.05,16.95
405,328506984,0.5488,-0.8530,-0.0752,-21.65,37.62,19.15
406,328511983,0.5508,-0.8452,-0.0869,-19.33,37.13,21.04
407,328516982,0.5620,-0.8345,-0.0854,-16.40,36.65,23.05
408,328521982,0.5640,-0.8203,-0.0981,-12.80,35.91,24.82
409,328526983,0.5601,-0.8184,-0.1094,-8.90,35.30,26.34
410,328531985,0.5610,-0.7993,-0.1060,-5.24,34.82,27.99
411,328536984,0.5469,-0.8047,-0.1309,-1.89,33.96,29.57
412,328541984,0.5908,-0.7407,-0.0850,1.22,33.29,30.49
413,328547152,0.6240,-0.7339,-0.0776,4.76,33.23,30.85
414,328551985,0.5952,-0.7554,-0.1074,8.05,32.99,31.16
415,328556984,0.5791,-0.7285,-0.0972,10.91,32.38,31.59
416,328561984,0.5815,-0.7241,-0.0752,13.72,31.89,31.65
417,328566984,0.5811,-0.7388,-0.0752,16.40,31.34,31.65
418,328571984,0.5820,-0.7461,-0.0806,18.78,30.79,31.71
419,328576984,0.5957,-0.7471,-0.0688,20.73,30.06,31.34
420,328581984,0.5913,-0.7520,-0.0605,22.93,29.57,30.91
421,328586984,0.5947,-0.7622,-0.0684,24.63,29.02,30.55
422,328591984,0.5986,-0.7622,-0.0552,26.04,28.41,30.00
423,328596983,0.6030,-0.7695,-0.0542,27.38,27.87,29.27
424,328601982,0.6001,-0.7886,-0.0483,28.35,27.38,28.41
425,328606982,0.6025,-0.7930,-0.0356,28.90,27.20,27.68
426,328611982,0.6055,-0.8130,-0.0396,29.39,26.46,26.95
427,328616982,0.6143,-0.8110,-0.0391,29.27,25.98,26.16
428,328622159,0.6270,-0.8115,-0.0283,28.72,25.43,25.24
429,328626984,0.6304,-0.8247,-0.0322,28.11,24.82,24.21
430,328631984,0.6323,-0.8267,-0.0376,26.77,24.27,23.41
431,328636982,0.6436,-0.8218,-0.0312,25.30,23.41,22.50
432,328641984,0.6421,-0.8315,-0.0322,23.66,22.50,21.40
433,328646984,0.6421,-0.8354,-0.0337,22.01,21.65,20.37
434,328651984,0.6465,-0.8477,-0.0356,20.06,20.61,19.33
435,328656985,0.6382,-0.8574,-0.0312,18.17,19.70,18.17
436,328661984,0.6309,-0.8623,-0.0337,16.04,18.48,16.65
437,328666984,0.6216,-0.8696,-0.0498,14.76,17.38,15.73
438,328672345,0.6108,-0.8774,-0.0522,13.17,16.10,14.33
439,328676984,0.6094,-0.8779,-0.0630,12.01,15.06,13.48
440,328681984,0.6030,-0.8892,-0.0688,10.73,13.78,12.50
441,328686984,0.5957,-0.8911,-0.0703,9.27,12.62,11.46
442,328691984,0.5942,-0.8975,-0.0815,7.50,11.10,10.43
443,328696984,0.5938,-0.8926,-0.0850,6.10,10.06,10.06
444,328701984,0.5918,-0.8945,-0.0972,4.45,8.84,9.39
445,328706984,0.5854,-0.8955,-0.1001,2.32,7.62,8.78
446,328711983,0.5752,-0.9009,-0.1045,0.18,6.40,8.41
447,328716985,0.5659,-0.9062,-0.1118,-2.20,5.18,7.80
448,328721984,0.5688,-0.9067,-0.1216,-4.51,4.27,7.56
449,328726984,0.5669,-0.9077,-0.1357,-6.65,3.29,7.26
450,328731984,0.5659,-0.9033,-0.1519,-8.84,2.26,6.65
451,328736984,0.5649,-0.9004,-0.1665,-10.12,1.71,6.40
452,328741984,0.5664,-0.8979,-0.1733,-11.52,0.85,5.91
453,328747417,0.5654,-0.8887,-0.1924,-12.93,0.00,5.12
454,328751984,0.5664,-0.8813,-0.2041,-13.72,-0.49,4.63
455,328756984,0.5625,-0.8740,-0.2124,-14.63,-1.10,3.66
456,328761985,0.5630,-0.8687,-0.2197,-15.37,-1.52,2.93
457,328766984,0.5620,-0.8633,-0.2246,-16.22,-2.01,1.89
458,328771984,0.5615,-0.8584,-0.2407,-16.95,-2.38,0.73
459,328776984,0.5566,-0.8530,-0.2461,-17.56,-2.68,-0.55
460,328781986,0.5498,-0.8472,-0.2593,-18.35,-2.93,-2.07
461,328786984,0.5527,-0.8472,-0.2690,-18.96,-3.05,-3.23
462,328791984,0.5527,-0.8428,-0.2808,-19.51,-3.23,-4.76
463,328796983,0.5562,-0.8477,-0.2886,-20.24,-3.17,-6.28
464,328801984,0.5547,-0.8525,-0.2969,-20.85,-3.05,-7.93
465,328806984,0.5532,-0.8428,-0.3120,-21.40,-2.80,-9.70
466,328811984,0.5547,-0.8447,-0.3276,-22.07,-2.44,-11.34
467,328816984,0.5601,-0.8452,-0.3433,-22.56,-2.13,-13.29
468,328821984,0.5601,-0.8398,-0.3579,-23.29,-1.65,-14.82
469,328827194,0.5679,-0.8398,-0.3779,-24.39,-1.04,-17.01
470,328831984,0.5684,-0.8379,-0.3833,-25.18,-0.73,-18.35
471,328836987,0.5806,-0.8389,-0.3936,-26.65,0.12,-20.30
472,328841984,0.5811,-0.8447,-0.4106,-27.87,0.67,-21.40
473,328846984,0.5737,-0.8462,-0.4146,-29.39,1.40,-22.87
474,328851984,0.5791,-0.8525,-0.4204,-31.16,2.44,-24.21
475,328856984,0.5835,-0.8594,-0.4443,-32.80,3.41,-25.43
476,328861984,0.5884,-0.8574,-0.4590,-34.70,4.33,-26.59
477,328867205,0.5889,-0.8638,-0.4746,-37.07,5.55,-27.80
478,328871984,0.5938,-0.8623,-0.4854,-38.60,6.52,-28.60
479,328876984,0.5933,-0.8574,-0.4980,-40.91,7.74,-29.82
480,328881984,0.5884,-0.8486,-0.5146,-42.93,9.09,-30.73
481,328886984,0.5864,-0.8438,-0.5322,-44.94,10.24,-31.65
482,328891984,0.5840,-0.8413,-0.5439,-47.01,11.34,-32.56
483,328896984,0.5786,-0.8296,-0.5703,-49.02,12.56,-33.35
484,328902331,0.5835,-0.8228,-0.5864,-51.16,13.90,-34.33
485,328906985,0.5811,-0.8037,-0.6055,-53.23,14.88,-35.06
486,328911984,0.5918,-0.7949,-0.6289,-55.37,15.98,-35.91
487,328916984,0.5952,-0.7876,-0.6455,-57.68,17.32,-36.77
488,328921984,0.6025,-0.7842,-0.6587,-59.94,18.48,-37.38
489,328926984,0.6050,-0.7690,-0.6689,-62.13,19.82,-38.05
490,328931985,0.6050,-0.7607,-0.6792,-64.57,21.22,-38.78
491,328936984,0.6133,-0.7505,-0.6914,-66.89,22.68,-39.51
492,328942357,0.6113,-0.7393,-0.7007,-68.84,24.27,-40.30
493,328946984,0.6030,-0.7300,-0.6953,-71.04,25.73,-41.16
494,328951984,0.5962,-0.7192,-0.7061,-72.87,27.50,-41.89
495,328956984,0.5918,-0.7080,-0.7036,-74.51,29.33,-43.05
496,328961984,0.5889,-0.6929,-0.6924,-75.73,31.28,-44.02
497,328966985,0.5728,-0.6851,-0.6919,-76.65,33.17,-44.94
498,328971984,0.5669,-0.6714,-0.6865,-77.01,35.12,-46.10
499,328976987,0.5625,-0.6562,-0.6851,-77.07,37.20,-47.20
500,328982444,0.5723,-0.6440,-0.6748,-76.59,39.09,-48.29
501,328986984,0.5708,-0.6431,-0.6689,-75.43,41.10,-49.33
502,328991984,0.5698,-0.6372,-0.6621,-74.02,43.05,-50.37
503,328996984,0.5620,-0.6328,-0.6489,-72.13,45.12,-51.28
504,329001984,0.5586,-0.6182,-0.6367,-70.06,47.01,-52.44
505,329006984,0.5654,-0.6108,-0.6274,-67.87,49.15,-53.29
506,329011984,0.5684,-0.6074,-0.6138,-65.55,51.10,-54.27
507,329016984,0.5562,-0.5967,-0.6011,-63.23,53.05,-55.12
508,329021983,0.5542,-0.5889,-0.5801,-61.16,54.76,-55.85
509,329026984,0.5601,-0.5796,-0.5562,-59.39,56.65,-56.71
510,329031984,0.5610,-0.5771,-0.5342,-57.99,58.48,-57.38
511,329036984,0.5654,-0.5620,-0.5127,-56.89,60.24,-58.05
512,329041984,0.5645,-0.5493,-0.4912,-56.10,61.77,-58.48
513,329046984,0.5591,-0.5420,-0.4766,-55.61,63.29,-58.78
514,329051985,0.5630,-0.5386,-0.4561,-55.37,64.70,-58.96
515,329056984,0.5645,-0.5293,-0.4424,-55.24,65.85,-59.02
516,329061984,0.5674,-0.5273,-0.4292,-55.43,67.20,-58.84
517,329066986,0.5767,-0.5200,-0.4028,-55.49,68.48,-58.54
518,329071983,0.5771,-0.5132,-0.3823,-55.79,69.51,-57.93
519,329077285,0.5791,-0.5068,-0.3555,-56.16,70.30,-57.32
520,329081985,0.5771,-0.5039,-0.3330,-56.65,71.65,-56.65
521,329086984,0.5825,-0.4917,-0.3179,-57.38,72.80,-55.73
522,329091988,0.5903,-0.4756,-0.3018,-58.05,73.66,-54.76
523,329096984,0.5889,-0.4600,-0.2695,-58.66,74.76,-53.48
524,329101984,0.5786,-0.4448,-0.2358,-59.33,75.67,-52.26
525,329106984,0.5518,-0.4258,-0.2207,-59.82,76.59,-50.98
526,329111984,0.5708,-0.4141,-0.1904,-60.37,77.56,-49.57
527,329116985,0.5811,-0.4043,-0.1636,-60.55,78.72,-47.99
528,329121984,0.5723,-0.3950,-0.1348,-60.61,79.63,-46.40
529,329126984,0.5723,-0.3813,-0.1123,-60.61,80.67,-44.57
530,329131986,0.5645,-0.3667,-0.0908,-60.55,81.71,-42.56
531,329136983,0.5640,-0.3521,-0.0786,-60.37,82.62,-40.43
532,329141984,0.5635,-0.3433,-0.0625,-59.82,83.35,-38.29
533,329146984,0.5645,-0.3271,-0.0410,-59.21,85.61,-36.16
534,329151984,0.5664,-0.3130,-0.0317,-58.17,85.79,-33.78
535,329156984,0.5518,-0.3125,-0.0254,-56.83,85.79,-31.28
536,329161984,0.5454,-0.2969,-0.0034,-55.49,85.73,-28.72
537,329166984,0.5547,-0.2856,0.0015,-53.66,86.46,-26.22
538,329171985,0.5527,-0.2856,0.0151,-51.83,88.29,-23.29
539,329176984,0.5469,-0.2725,0.0234,-49.82,89.27,-20.61
540,329181984,0.5562,-0.2671,0.0386,-47.80,90.24,-17.74
541,329186984,0.5479,-0.2729,0.0581,-45.30,91.34,-14.76
542,329191983,0.5396,-0.2637,0.0562,-42.93,92.32,-11.77
543,329196984,0.5503,-0.2539,0.0723,-40.24,93.35,-8.78
544,329201983,0.5469,-0.2500,0.0835,-37.62,94.45,-5.61
545,329206985,0.5371,-0.2471,0.1016,-34.94,95.73,-2.50
546,329211984,0.5239,-0.2495,0.1118,-32.38,96.89,0.49
547,329216984,0.5190,-0.2437,0.1211,-30.06,98.05,3.60
548,329221984,0.5269,-0.2363,0.1318,-28.23,99.27,6.59
549,329226984,0.5273,-0.2339,0.1426,-26.65,100.61,9.70
550,329231983,0.5176,-0.2358,0.1582,-25.12,101.65,12.74
551,329236984,0.5073,-0.2520,0.1650,-23.48,103.23,16.34
552,329241985,0.4966,-0.2603,0.1782,-22.68,104.02,18.96
553,329246984,0.5010,-0.2705,0.1963,-21.77,105.12,22.13
554,329251984,0.5107,-0.2808,0.2100,-20.98,106.16,26.22
555,329256984,0.5122,-0.2944,0.2153,-20.67,106.71,28.90
556,329261984,0.5103,-0.3145,0.2285,-20.37,107.01,32.56
557,329266984,0.5117,-0.3330,0.2280,-20.55,107.01,36.52
558,329271985,0.5166,-0.3423,0.2437,-20.73,106.83,40.55
559,329276984,0.5234,-0.3477,0.2515,-21.10,106.40,44.88
560,329281984,0.5283,-0.3545,0.2725,-21.83,105.91,49.45
561,329286984,0.5283,-0.3618,0.2847,-22.56,105.30,53.90
562,329291984,0.5327,-0.3667,0.3018,-23.66,104.45,58.48
563,329297411,0.5356,-0.3774,0.3179,-24.88,103.35,64.15
564,329301986,0.5327,-0.3794,0.3208,-25.73,102.50,67.80
565,329306983,0.5239,-0.3804,0.3384,-26.46,101.40,72.68
566,329311984,0.5205,-0.4004,0.3530,-26.95,99.88,77.38
567,329316984,0.5083,-0.4097,0.3672,-26.77,98.60,82.32
568,329321984,0.5078,-0.4282,0.3813,-26.59,96.95,87.13
569,329326984,0.5098,-0.4351,0.3857,-26.04,95.61,91.28
570,329331984,0.5024,-0.4346,0.4058,-25.00,93.90,95.98
571,329336984,0.4956,-0.4497,0.4229,-23.84,92.32,100.37
572,329341984,0.4771,-0.4580,0.4292,-22.20,90.43,104.70
573,329346984,0.4824,-0.4766,0.4375,-20.24,87.93,108.84
574,329351984,0.5015,-0.4824,0.4712,-18.23,87.62,113.23
575,329356984,0.5156,-0.4941,0.4844,-16.16,85.43,117.26
576,329361984,0.5171,-0.5161,0.5039,-14.09,84.09,121.40
577,329366984,0.5107,-0.5322,0.5264,-12.20,81.28,125.49
578,329371985,0.5176,-0.5488,0.5493,-10.06,78.96,129.45
579,329376983,0.5200,-0.5537,0.5737,-7.80,76.46,133.54
580,329381984,0.5205,-0.5708,0.6006,-5.06,73.90,137.44
581,329386984,0.5088,-0.5801,0.6157,-1.77,71.40,141.10
582,329391984,0.4985,-0.5952,0.6436,2.07,68.84,144.70
583,329396983,0.4829,-0.6079,0.6626,6.52,66.22,148.35
584,329401983,0.4805,-0.6333,0.6738,11.52,63.78,151.89
585,329406984,0.4731,-0.6655,0.6841,16.83,60.85,155.30
586,329411984,0.4692,-0.6992,0.7021,22.56,58.23,158.90
587,329416984,0.4580,-0.7295,0.7178,28.05,55.37,162.50
588,329421984,0.4512,-0.7466,0.7432,33.35,52.38,165.85
589,329426984,0.4434,-0.7651,0.7637,38.60,49.88,169.02
590,329431984,0.4346,-0.7886,0.8032,43.72,47.07,171.83
591,329436984,0.4258,-0.8257,0.8394,48.84,44.33,174.45
592,329441985,0.4229,-0.8691,0.8965,54.51,41.52,177.44
593,329446984,0.4185,-0.8940,0.9014,58.17,39.51,179.21
594,329451984,0.3916,-0.9097,0.9365,62.74,36.65,181.04
595,329456984,0.4048,-0.9800,0.9839,67.50,33.78,182.62
596,329461984,0.3584,-1.0269,0.9927,72.32,30.67,183.96
597,329466984,0.3301,-1.0078,1.0127,77.62,26.95,184.82
598,329471984,0.3174,-1.0449,1.0781,83.29,22.87,185.12
599,329476985,0.3037,-1.1064,1.0986,89.45,18.66,185.37
600,329481984,0.3081,-1.1895,1.1089,95.12,13.90,185.18
601,329486984,0.2524,-1.2476,1.1528,100.49,8.72,184.51
602,329491984,0.2021,-1.2339,1.2109,105.49,3.41,183.23
603,329496983,0.1860,-1.2627,1.2568,109.51,-2.20,181.28
604,329501982,0.1260,-1.3008,1.2627,112.68,-7.93,179.15
605,329507084,0.1147,-1.3315,1.2979,115.18,-15.49,175.79
606,329511986,0.1108,-1.3530,1.3628,115.91,-20.73,173.35
607,329516982,0.1113,-1.3833,1.3701,116.16,-27.56,169.88
608,329521998,0.1118,-1.4307,1.4014,114.82,-36.52,165.43
609,329526984,0.0825,-1.4629,1.4302,112.87,-44.27,161.46
610,329531986,0.0420,-1.4805,1.4780,110.98,-52.26,157.26
611,329536983,0.0254,-1.4771,1.4941,108.72,-60.37,152.56
612,329541984,0.0151,-1.5273,1.5220,106.22,-69.15,147.68
613,329546984,-0.0518,-1.5986,1.5347,104.09,-78.23,142.68
614,329551984,-0.0796,-1.6528,1.5420,102.87,-87.74,137.26
615,329556984,-0.0835,-1.6636,1.5342,102.26,-97.44,131.77
616,329561982,-0.1084,-1.6948,1.5605,102.32,-107.32,125.61
617,329566984,-0.1880,-1.7319,1.5713,102.74,-117.20,119.51
618,329571983,-0.1992,-1.7500,1.5649,103.78,-127.07,113.11
619,329576984,-0.2041,-1.7617,1.5620,105.67,-136.83,106.40
620,329581985,-0.2124,-1.7759,1.5645,107.80,-146.71,99.63
621,329586984,-0.2363,-1.8027,1.5620,109.88,-156.28,92.80
622,329591984,-0.2451,-1.7983,1.5103,111.46,-165.79,86.46
623,329596984,-0.2651,-1.8184,1.5508,112.32,-175.61,79.63
624,329601984,-0.2900,-1.8311,1.5142,112.62,-184.94,72.99
625,329606982,-0.3218,-1.8428,1.4902,112.56,-194.45,66.28
626,329611984,-0.3535,-1.8418,1.4775,112.07,-204.33,59.76
627,329616984,-0.3818,-1.8472,1.4697,111.16,-214.02,53.35
628,329621984,-0.4092,-1.8555,1.4331,110.00,-223.60,47.26
629,329626984,-0.4268,-1.8589,1.3911,109.09,-233.05,41.59
630,329631984,-0.4492,-1.8623,1.3652,108.29,-242.26,36.34
631,329636984,-0.4624,-1.8545,1.3281,108.11,-250.98,31.46
632,329641984,-0.4746,-1.8433,1.2837,108.05,-259.70,26.95
633,329646987,-0.4839,-1.8232,1.2461,108.48,-267.80,22.74
634,329651984,-0.4971,-1.7930,1.2031,109.09,-275.49,19.09
635,329656984,-0.5078,-1.7622,1.1519,110.12,-282.68,15.61
636,329661993,-0.5234,-1.7344,1.1011,111.52,-289.88,12.50
637,329666984,-0.5410,-1.7148,1.0405,113.29,-296.46,9.94
638,329671984,-0.5488,-1.6914,0.9771,115.12,-302.74,7.87
639,329676984,-0.5532,-1.6733,0.9028,117.01,-308.90,6.40
640,329682032,-0.5547,-1.6553,0.8257,118.84,-314.57,5.37
641,329686984,-0.5586,-1.6255,0.7710,120.00,-320.24,4.82
642,329691984,-0.5610,-1.6045,0.7046,120.61,-325.00,4.45
643,329696984,-0.5669,-1.5806,0.6387,120.67,-329.45,4.45
644,329701984,-0.5781,-1.5669,0.5767,120.79,-333.54,4.88
645,329706983,-0.5762,-1.5596,0.5166,120.98,-337.01,5.73
646,329711984,-0.5933,-1.5596,0.4458,121.46,-340.43,7.01
647,329716984,-0.6025,-1.5532,0.3716,122.56,-343.11,8.48
648,329721984,-0.5962,-1.5430,0.3105,124.33,-345.37,10.43
649,329726984,-0.6133,-1.5342,0.2407,126.71,-346.83,12.44
650,329731984,-0.6235,-1.5210,0.1758,130.18,-347.62,14.82
651,329736984,-0.6211,-1.5190,0.0962,134.02,-347.56,17.26
652,329741985,-0.6157,-1.5132,0.0283,138.78,-346.77,20.00
653,329746984,-0.6138,-1.5049,-0.0386,143.60,-345.00,22.68
654,329751982,-0.6069,-1.5112,-0.1133,148.48,-342.26,25.55
655,329756984,-0.6099,-1.5425,-0.1558,153.54,-338.54,28.54
656,329761984,-0.6162,-1.5063,-0.2476,158.54,-334.51,31.59
657,329766984,-0.6147,-1.4951,-0.3066,163.60,-329.94,34.33
658,329771984,-0.6172,-1.4917,-0.3647,167.13,-324.27,36.65
659,329776984,-0.6211,-1.4956,-0.4170,169.45,-318.23,38.60
660,329781985,-0.6177,-1.4985,-0.4624,170.18,-311.34,40.30
661,329786984,-0.6084,-1.4956,-0.5186,169.70,-304.39,41.28
662,329792553,-0.5952,-1.4844,-0.5601,167.80,-297.01,41.77
663,329796984,-0.5845,-1.4844,-0.6094,164.88,-289.21,41.89
664,329801982,-0.5674,-1.4722,-0.6548,160.91,-281.16,41.16
665,329806982,-0.5479,-1.4604,-0.6948,156.22,-272.99,39.94
666,329811982,-0.5337,-1.4541,-0.7271,150.79,-264.57,38.23
667,329816984,-0.5176,-1.4512,-0.7651,144.82,-255.91,36.28
668,329822296,-0.4980,-1.4546,-0.7930,138.60,-247.38,33.66
669,329826984,-0.4854,-1.4536,-0.8184,131.28,-238.41,30.79
670,329831984,-0.4619,-1.4502,-0.8379,126.04,-229.33,27.50
671,329836984,-0.4438,-1.4468,-0.8501,118.84,-220.06,23.60
672,329841984,-0.4277,-1.4385,-0.8613,111.95,-210.79,19.39
673,329846983,-0.4038,-1.4243,-0.8687,105.00,-201.59,14.76
674,329851984,-0.3799,-1.4062,-0.8691,98.35,-192.50,9.88
675,329856984,-0.3560,-1.3872,-0.8628,92.20,-183.78,4.94
676,329861984,-0.3345,-1.3750,-0.8594,86.89,-175.43,-0.12
677,329866984,-0.3047,-1.3569,-0.8545,82.26,-167.20,-5.18
678,329871984,-0.2778,-1.3423,-0.8457,78.48,-159.45,-10.18
679,329876984,-0.2446,-1.3169,-0.8315,75.73,-152.01,-15.00
680,329881984,-0.2124,-1.2969,-0.8179,73.48,-145.12,-19.51
681,329886984,-0.1831,-1.2749,-0.8032,71.65,-138.35,-23.84
682,329891984,-0.1499,-1.2500,-0.7944,70.06,-131.95,-27.80
683,329896982,-0.1108,-1.2173,-0.7686,68.17,-124.51,-32.07
684,329901984,-0.0894,-1.2041,-0.7529,66.89,-119.82,-34.88
685,329906984,-0.0562,-1.1782,-0.7324,65.18,-114.09,-37.87
686,329911984,-0.0298,-1.1538,-0.7095,63.35,-108.60,-40.49
687,329916984,0.0039,-1.1318,-0.6870,61.28,-103.11,-43.05
688,329921984,0.0293,-1.1035,-0.6660,58.78,-97.07,-45.61
689,329926984,0.0566,-1.0874,-0.6460,57.07,-92.99,-47.01
690,329931984,0.0820,-1.0654,-0.6270,54.88,-88.29,-48.66
691,329936983,0.1167,-1.0459,-0.6133,52.93,-83.78,-49.88
692,329942393,0.1519,-1.0181,-0.5869,50.30,-78.66,-51.10
693,329947381,0.1748,-0.9995,-0.5732,48.17,-74.51,-51.83
694,329951987,0.2051,-0.9858,-0.5566,45.98,-70.79,-52.32
695,329956984,0.2227,-0.9707,-0.5371,44.51,-67.80,-52.56
696,329961984,0.2471,-0.9487,-0.5303,42.01,-64.15,-52.62
697,329966984,0.2769,-0.9390,-0.5117,39.88,-60.73,-52.44
698,329971984,0.2944,-0.9287,-0.5059,37.50,-57.13,-51.89
699,329976984,0.3110,-0.9180,-0.4888,35.06,-53.78,-51.28
700,329981984,0.3291,-0.9048,-0.4897,32.44,-50.55,-50.37
701,329986984,0.3496,-0.8896,-0.4731,29.88,-47.44,-49.33
702,329991985,0.3716,-0.8706,-0.4604,26.59,-43.48,-47.93
703,329996987,0.3882,-0.8535,-0.4507,23.90,-40.61,-46.52
704,330002480,0.3999,-0.8418,-0.4414,21.40,-37.62,-45.12
705,330006984,0.4131,-0.8291,-0.4277,19.57,-35.49,-43.78
706,330011984,0.4185,-0.8159,-0.4219,17.20,-32.74,-42.20
707,330017533,0.4336,-0.7964,-0.4204,14.70,-29.57,-40.24
708,330021984,0.4404,-0.7891,-0.4180,13.17,-27.50,-38.84
709,330027433,0.4517,-0.7700,-0.4019,10.98,-24.33,-36.89
710,330031984,0.4585,-0.7642,-0.3955,9.76,-22.13,-35.55
711,330036984,0.4678,-0.7539,-0.3853,7.99,-19.70,-33.72
712,330041984,0.4761,-0.7471,-0.3701,6.34,-17.32,-32.07
713,330046984,0.4854,-0.7422,-0.3579,4.63,-14.76,-30.43
714,330052465,0.4990,-0.7334,-0.3472,2.38,-11.71,-28.48
715,330056984,0.4976,-0.7261,-0.3306,1.10,-9.94,-27.20
716,330061984,0.5083,-0.7275,-0.3208,-0.73,-7.62,-25.49
717,330066983,0.5073,-0.7314,-0.3047,-2.68,-5.49,-23.90
718,330071985,0.5137,-0.7354,-0.2915,-4.76,-3.35,-22.32
719,330076984,0.5151,-0.7314,-0.2759,-7.01,-1.59,-20.55
720,330081982,0.5229,-0.7275,-0.2646,-9.39,0.30,-18.90
721,330087080,0.5278,-0.7285,-0.2476,-12.56,2.44,-16.95
722,330091984,0.5342,-0.7319,-0.2310,-14.57,3.84,-15.73
723,330096982,0.5347,-0.7305,-0.2236,-17.07,5.37,-14.27
724,330102181,0.5400,-0.7246,-0.2056,-19.82,7.07,-12.56
725,330106984,0.5415,-0.7261,-0.1963,-21.59,7.99,-11.34
726,330111982,0.5483,-0.7231,-0.1846,-23.60,9.15,-9.94
727,330116984,0.5508,-0.7222,-0.1694,-25.37,10.37,-8.66
728,330121982,0.5498,-0.7231,-0.1538,-26.83,11.52,-7.44
729,330127014,0.5439,-0.7236,-0.1455,-28.41,12.62,-6.04
730,330131984,0.5479,-0.7246,-0.1304,-29.57,13.54,-4.88
731,330136984,0.5474,-0.7241,-0.1226,-30.18,14.27,-3.90
732,330142331,0.5508,-0.7310,-0.1030,-31.34,15.18,-2.56
733,330146984,0.5522,-0.7285,-0.0923,-31.95,15.49,-1.71
734,330151984,0.5493,-0.7383,-0.0747,-32.80,16.10,-0.30
735,330156984,0.5493,-0.7402,-0.0635,-33.60,16.59,0.73
736,330161984,0.5483,-0.7451,-0.0605,-34.15,16.65,1.83
737,330166984,0.5464,-0.7495,-0.0479,-34.88,16.77,2.93
738,330171983,0.5459,-0.7607,-0.0337,-35.67,16.65,3.96
739,330177158,0.5430,-0.7695,-0.0234,-36.40,16.22,5.00
740,330181983,0.5405,-0.7788,-0.0249,-37.20,15.79,6.16
741,330186984,0.5430,-0.7788,-0.0107,-37.99,15.06,7.20
742,330191984,0.5322,-0.7852,0.0034,-38.90,14.39,8.17
743,330196986,0.5317,-0.7866,0.0127,-39.70,13.48,9.27
744,330201985,0.5244,-0.7930,0.0161,-40.37,12.62,10.12
745,330206984,0.5273,-0.7925,0.0190,-41.04,11.52,10.91
746,330211986,0.5229,-0.7939,0.0244,-41.52,10.67,11.83
747,330216984,0.5225,-0.7993,0.0308,-41.95,9.57,12.56
748,330222475,0.5146,-0.8018,0.0249,-42.50,8.23,13.54
749,330226984,0.5088,-0.8062,0.0210,-43.11,6.83,14.21
750,330231984,0.5093,-0.8125,0.0122,-43.84,5.37,15.06
751,330236984,0.5078,-0.8105,0.0127,-44.88,4.02,15.79
752,330241984,0.4985,-0.8135,0.0166,-46.28,2.50,16.59
753,330246984,0.4951,-0.8066,0.0186,-47.80,1.10,17.13
754,330251984,0.4897,-0.8027,0.0107,-49.63,-0.43,17.62
755,330256984,0.4912,-0.8066,0.0073,-51.59,-1.77,17.99
756,330261984,0.5044,-0.7710,-0.0171,-53.48,-3.11,18.35
757,330266984,0.5093,-0.7939,0.0093,-54.88,-4.45,18.66
758,330271984,0.4717,-0.8145,-0.0020,-56.22,-5.49,19.27
759,330276984,0.4438,-0.8218,-0.0190,-57.62,-6.71,19.82
760,330281985,0.4287,-0.8174,0.0000,-59.02,-7.62,20.18
761,330286984,0.4297,-0.8101,0.0098,-60.43,-8.41,20.61
762,330291984,0.4380,-0.7988,-0.0034,-61.83,-9.09,20.79
763,330296986,0.4409,-0.7930,-0.0205,-63.23,-9.82,21.10
764,330301983,0.4409,-0.8013,-0.0107,-64.39,-10.24,21.28
765,330306984,0.4858,-0.8276,-0.0498,-65.55,-10.79,21.65
766,330311984,0.4536,-0.8115,-0.0645,-65.91,-11.16,22.07
767,330316984,0.4175,-0.8169,-0.0601,-66.16,-11.52,22.32
768,330321984,0.4067,-0.8262,-0.0615,-65.98,-11.59,22.74
769,330326984,0.4043,-0.8325,-0.0767,-65.67,-11.59,23.41
770,330331983,0.4160,-0.8999,-0.0879,-65.79,-11.83,24.09
771,330336984,0.3857,-0.8882,-0.0767,-67.99,-11.65,25.00
772,330341984,0.4121,-0.8999,-0.0986,-71.40,-11.34,25.91
773,330346984,0.3809,-0.8730,-0.1030,-75.37,-11.10,26.34
774,330351986,0.3745,-0.8745,-0.1216,-79.21,-10.49,26.71
775,330357455,0.3779,-0.8784,-0.1108,-83.41,-9.82,27.20
776,330361984,0.3853,-0.8770,-0.1206,-87.56,-8.90,27.56
777,330366984,0.3789,-0.8794,-0.1382,-91.52,-8.05,27.62
778,330371984,0.3579,-0.8755,-0.1250,-94.76,-7.20,27.62
779,330377007,0.3525,-0.8696,-0.1240,-97.50,-5.85,27.62
780,330381984,0.3408,-0.8545,-0.1411,-99.70,-4.57,27.44
781,330386985,0.3301,-0.8398,-0.1436,-101.28,-3.35,27.32
782,330391984,0.3179,-0.8320,-0.1294,-102.44,-2.01,27.20
783,330396984,0.3130,-0.8369,-0.1240,-103.23,-0.49,27.07
784,330401982,0.3110,-0.8452,-0.1245,-103.60,0.79,27.20
785,330407011,0.3066,-0.8516,-0.1069,-103.48,2.32,27.50
786,330411986,0.2964,-0.8481,-0.0933,-103.35,4.02,27.93
787,330416982,0.2798,-0.8433,-0.0869,-102.80,5.55,28.41
788,330421982,0.2881,-0.8345,-0.1030,-102.01,6.95,29.09
789,330426982,0.2939,-0.8232,-0.0991,-101.16,8.48,29.82
790,330431984,0.2964,-0.8247,-0.0996,-100.18,9.76,30.85
791,330436985,0.3057,-0.8242,-0.1035,-99.33,11.28,31.77
792,330441984,0.3086,-0.8257,-0.1138,-98.23,12.74,33.05
793,330446984,0.3115,-0.8208,-0.1211,-97.07,14.51,34.70
794,330451984,0.3140,-0.8232,-0.1123,-96.16,15.55,35.85
795,330456984,0.3242,-0.8262,-0.1216,-95.00,16.95,37.38
796,330461984,0.3271,-0.8198,-0.1323,-93.90,18.05,38.78
797,330466984,0.3374,-0.8218,-0.1250,-92.80,19.45,40.49
798,330471984,0.3374,-0.8120,-0.1338,-91.95,20.73,42.01
799,330476984,0.3325,-0.8115,-0.1377,-91.46,21.77,43.54
800,330481988,0.3325,-0.8066,-0.1445,-90.91,23.29,45.55
801,330486988,0.3301,-0.7974,-0.1411,-90.98,24.57,47.01
802,330491984,0.3296,-0.7944,-0.1426,-91.04,25.73,48.35
803,330496984,0.3271,-0.7954,-0.1509,-91.40,26.89,50.06
804,330501986,0.3232,-0.7866,-0.1484,-91.95,28.05,51.65
805,330506983,0.3188,-0.7783,-0.1509,-92.62,29.45,53.23
806,330511984,0.3179,-0.7690,-0.1479,-93.54,30.67,54.88
807,330516984,0.3174,-0.7646,-0.1548,-94.57,31.77,56.40
808,330521984,0.3101,-0.7559,-0.1567,-95.61,33.05,57.93
809,330526984,0.3022,-0.7505,-0.1611,-96.77,34.39,59.57
810,330531984,0.2988,-0.7402,-0.1680,-97.99,35.61,60.98
811,330536984,0.2910,-0.7363,-0.1704,-99.27,36.65,62.50
812,330541984,0.2822,-0.7241,-0.1729,-100.79,38.05,64.15
813,330546983,0.2881,-0.7192,-0.1763,-102.44,39.21,65.73
814,330551984,0.2822,-0.7231,-0.1787,-104.27,40.37,67.32
815,330556984,0.2827,-0.7178,-0.1816,-106.28,41.65,68.90
816,330561984,0.2764,-0.7202,-0.1841,-108.54,42.74,70.61
817,330566983,0.2661,-0.7173,-0.1865,-110.79,44.15,72.44
818,330571984,0.2559,-0.7090,-0.1890,-113.23,45.37,74.27
819,330576984,0.2554,-0.7075,-0.1865,-115.67,46.46,76.10
820,330581984,0.2402,-0.7036,-0.1973,-118.23,47.74,78.05
821,330586983,0.2349,-0.6987,-0.1943,-121.16,49.33,80.49
822,330591985,0.2339,-0.6914,-0.2012,-123.23,50.30,82.13
823,330596984,0.2285,-0.6934,-0.2021,-125.73,51.52,84.02
824,330601985,0.2246,-0.6899,-0.2046,-128.41,52.93,87.44
825,330606984,0.2183,-0.6831,-0.2061,-129.94,53.78,87.62
826,330611983,0.1982,-0.6782,-0.2080,-131.89,54.94,90.37
827,330616984,0.1890,-0.6665,-0.2144,-133.72,55.91,92.50
828,330621984,0.1758,-0.6655,-0.2202,-135.24,56.83,94.57
829,330626983,0.1626,-0.6499,-0.2188,-136.83,57.62,96.71
830,330631984,0.1519,-0.6357,-0.2158,-138.17,58.48,98.72
831,330636982,0.1416,-0.6343,-0.2202,-139.51,58.90,100.61
832,330641989,0.1387,-0.6230,-0.2236,-140.98,59.45,102.93
833,330646984,0.1357,-0.6167,-0.2310,-142.20,59.70,104.45
834,330651993,0.1284,-0.6138,-0.2266,-143.66,59.76,106.22
835,330656984,0.1255,-0.6074,-0.2314,-145.49,59.88,108.54
836,330661985,0.1201,-0.6055,-0.2368,-146.89,59.63,109.94
837,330666984,0.1133,-0.6094,-0.2388,-148.60,59.63,111.89
838,330671984,0.1138,-0.6162,-0.2417,-150.37,59.15,113.96
839,330676984,0.1064,-0.6304,-0.2490,-152.50,58.72,116.28
840,330681984,0.1089,-0.6431,-0.2588,-154.45,58.17,119.02
841,330686983,0.1055,-0.6587,-0.2656,-156.65,57.50,122.01
842,330691986,0.1040,-0.6743,-0.2681,-158.66,56.89,125.49
843,330696984,0.0972,-0.6855,-0.2715,-160.61,55.91,129.33
844,330701985,0.0942,-0.6953,-0.2759,-162.20,55.24,133.48
845,330706982,0.0854,-0.6982,-0.2832,-163.60,54.57,137.56
846,330711982,0.0728,-0.6978,-0.2871,-164.57,53.78,142.87
847,330716984,0.0586,-0.6899,-0.2974,-164.94,52.99,147.26
848,330721984,0.0459,-0.6841,-0.3013,-164.57,52.01,151.65
849,330726983,0.0386,-0.6816,-0.3003,-164.02,51.34,155.06
850,330731982,0.0215,-0.6636,-0.3149,-162.68,50.18,160.06
851,330736986,0.0146,-0.6431,-0.3228,-161.04,49.09,163.96
852,330741984,0.0000,-0.6416,-0.3252,-158.96,47.80,167.74
853,330746984,-0.0063,-0.6265,-0.3286,-156.52,46.71,171.16
854,330751984,-0.0244,-0.6206,-0.3398,-153.72,45.43,174.51
855,330756984,-0.0239,-0.6396,-0.3467,-150.55,44.15,177.99
856,330761984,-0.0376,-0.6602,-0.3579,-147.26,42.56,181.65
857,330766984,-0.0479,-0.6646,-0.3696,-143.84,41.10,185.37
858,330771984,-0.0596,-0.6802,-0.3774,-140.24,39.57,189.39
859,330776984,-0.0801,-0.6904,-0.3984,-136.28,37.99,193.48
860,330781984,-0.0889,-0.6885,-0.4058,-132.07,36.28,197.38
861,330786988,-0.0898,-0.6948,-0.4165,-127.80,34.57,201.22
862,330791984,-0.0879,-0.6938,-0.4263,-122.99,32.87,204.94
863,330796984,-0.0918,-0.6938,-0.4336,-117.93,31.28,208.54
864,330801984,-0.1040,-0.6919,-0.4429,-112.68,29.70,211.95
865,330806984,-0.1201,-0.6841,-0.4434,-107.38,28.35,215.12
866,330811986,-0.1338,-0.6743,-0.4473,-101.83,26.95,218.17
867,330816984,-0.1533,-0.6641,-0.4448,-96.22,25.73,220.91
868,330821984,-0.1660,-0.6650,-0.4556,-90.55,24.33,223.66
869,330826984,-0.1782,-0.6758,-0.4561,-85.00,22.99,226.34
870,330831984,-0.1777,-0.6851,-0.4663,-79.70,21.52,229.15
871,330836983,-0.1855,-0.7051,-0.4678,-74.57,20.12,232.13
872,330841986,-0.1890,-0.7197,-0.4668,-69.45,18.72,235.43
873,330846983,-0.1914,-0.7217,-0.4707,-64.51,17.20,238.96
874,330851984,-0.1963,-0.7300,-0.4766,-59.51,15.55,242.62
875,330856984,-0.2026,-0.7378,-0.4814,-54.57,13.96,246.40
876,330861984,-0.2144,-0.7378,-0.4883,-49.15,12.20,250.24
877,330866983,-0.2212,-0.7329,-0.4863,-43.41,10.61,253.78
878,330871984,-0.2324,-0.7275,-0.4839,-37.32,9.21,257.26
879,330876982,-0.2466,-0.7207,-0.4878,-30.91,7.62,260.73
880,330882159,-0.2642,-0.7188,-0.4897,-24.02,6.34,264.15
881,330886984,-0.2769,-0.7104,-0.4912,-16.89,4.88,267.44
882,330891984,-0.2949,-0.7070,-0.4966,-9.27,3.48,270.85
883,330896984,-0.3159,-0.7178,-0.5020,-1.65,2.26,274.21
884,330902368,-0.3384,-0.7246,-0.5083,5.98,0.85,277.62
885,330906985,-0.3545,-0.7373,-0.5273,13.23,0.06,280.98
886,330911983,-0.3750,-0.7476,-0.5264,20.43,-0.67,283.90
887,330916984,-0.4136,-0.7451,-0.5376,27.20,-0.79,286.65
888,330921984,-0.4404,-0.7480,-0.5552,33.90,-0.85,289.15
889,330926984,-0.4756,-0.7588,-0.5684,40.49,-0.55,291.40
890,330931984,-0.5044,-0.7627,-0.5820,46.65,-0.24,293.48
891,330936984,-0.5410,-0.7812,-0.6035,52.32,0.37,295.18
892,330941984,-0.5771,-0.7915,-0.6182,57.20,0.98,296.52
893,330946983,-0.6133,-0.8130,-0.6328,61.10,1.77,297.50
894,330951986,-0.6514,-0.8242,-0.6323,63.78,2.93,297.99
895,330956984,-0.6929,-0.8335,-0.6353,65.49,4.21,298.17
896,330961984,-0.7231,-0.8384,-0.6440,66.46,5.49,297.87
897,330966984,-0.7461,-0.8394,-0.6323,67.07,7.13,297.26
898,330971984,-0.7739,-0.8408,-0.6279,67.44,8.54,296.52
899,330976984,-0.7891,-0.8354,-0.6250,67.99,9.88,295.61
900,330981984,-0.8091,-0.8379,-0.6206,68.96,10.98,294.63
901,330987368,-0.8228,-0.8428,-0.6113,70.43,12.26,293.84
902,330992392,-0.8438,-0.8462,-0.6079,72.13,13.48,292.99
903,330996984,-0.8594,-0.8384,-0.6050,74.33,14.76,292.07
904,331001983,-0.8867,-0.8447,-0.5913,77.20,16.52,291.22
905,331006982,-0.9043,-0.8540,-0.6001,80.73,18.17,290.37
906,331011986,-0.9316,-0.8525,-0.6104,85.24,20.06,289.33
907,331016982,-0.9648,-0.8481,-0.6060,90.37,22.44,288.29
908,331021984,-0.9995,-0.8442,-0.6079,95.61,25.12,286.89
909,331026984,-1.0327,-0.8486,-0.6182,100.37,28.11,285.00
910,331031984,-1.0488,-0.8433,-0.6201,104.63,31.28,282.87
911,331036986,-1.0562,-0.8501,-0.5996,108.11,34.57,280.49
912,331041983,-1.0518,-0.8506,-0.5991,111.10,38.11,277.93
913,331046984,-1.0459,-0.8555,-0.5942,113.78,41.46,275.24
914,331051984,-1.0474,-0.8506,-0.5854,116.16,44.70,272.44
915,331056984,-1.0474,-0.8477,-0.5845,118.48,47.80,269.51
916,331061984,-1.0410,-0.8408,-0.5688,120.67,50.67,266.52
917,331066984,-1.0391,-0.8325,-0.5688,122.99,53.60,263.29
918,331071983,-1.0356,-0.8242,-0.5571,125.79,55.98,260.12
919,331076982,-1.0283,-0.8154,-0.5464,128.96,58.48,256.71
920,331081982,-1.0225,-0.8076,-0.5439,130.37,60.85,253.17
921,331086982,-1.0220,-0.8037,-0.5430,134.57,62.80,249.70
922,331091986,-1.0244,-0.7886,-0.5327,138.60,64.63,246.04
923,331096984,-1.0200,-0.7812,-0.5327,143.29,66.46,241.52
924,331101984,-1.0166,-0.7715,-0.5220,146.34,67.93,238.29
925,331106984,-1.0146,-0.7739,-0.5161,149.51,69.33,234.39
926,331111983,-1.0044,-0.7749,-0.5107,152.44,70.61,230.37
927,331116984,-0.9917,-0.7700,-0.5039,154.82,71.77,226.22
928,331121984,-0.9907,-0.7676,-0.4946,157.01,72.93,222.07
929,331126985,-0.9902,-0.7666,-0.4893,158.23,73.96,217.99
930,331131984,-0.9893,-0.7646,-0.4771,158.84,74.57,213.78
931,331136983,-0.9790,-0.7637,-0.4688,158.90,75.37,209.39
932,331141984,-0.9775,-0.7632,-0.4658,158.54,76.16,204.94
933,331146984,-0.9741,-0.7598,-0.4517,158.11,76.89,200.37
934,331151984,-0.9702,-0.7534,-0.4419,157.87,77.68,195.79
935,331156984,-0.9658,-0.7490,-0.4341,157.99,78.48,190.79
936,331161984,-0.9595,-0.7383,-0.4312,158.54,79.27,185.73
937,331166984,-0.9531,-0.7339,-0.4204,159.45,80.06,180.55
938,331172427,-0.9536,-0.7261,-0.4087,161.04,80.98,174.39
939,331176984,-0.9551,-0.7217,-0.4038,162.26,81.52,170.24
940,331181983,-0.9585,-0.7188,-0.4033,164.45,82.26,165.00
941,331186983,-0.9526,-0.7183,-0.4019,166.34,82.80,159.76
942,331191983,-0.9443,-0.7183,-0.3799,168.23,82.87,154.70
943,331196986,-0.9351,-0.7202,-0.3774,169.88,83.17,149.45
944,331201983,-0.9209,-0.7222,-0.3706,170.98,84.09,144.51
945,331206982,-0.9131,-0.7241,-0.3638,171.59,84.39,139.51
946,331211982,-0.9058,-0.7207,-0.3496,171.77,83.84,134.82
947,331216984,-0.8950,-0.7183,-0.3433,171.71,83.41,130.00
948,331221986,-0.8950,-0.7202,-0.3325,171.22,83.23,125.37
949,331226982,-0.8867,-0.7139,-0.3296,170.37,82.07,120.91
950,331231984,-0.8691,-0.7085,-0.3232,169.27,81.34,116.52
951,331236984,-0.8599,-0.7007,-0.3130,167.99,80.43,112.26
952,331241984,-0.8486,-0.6904,-0.3027,166.52,79.39,107.80
953,331246984,-0.8442,-0.6836,-0.2891,164.51,78.05,102.62
954,331251984,-0.8433,-0.6812,-0.2891,163.35,77.32,99.21
