# skilleye imu stream v1
# device=xiao_esp32c6 imu=mpu6050 addr=0x68
# rate_hz=200 accel_range_g=16 gyro_range_dps=2000 dlpf_hz=94
# units: accel in g, gyro in deg/s, t_us in microseconds since boot (monotonic)
# no shared clock with the camera -- tap the racket once before each take
# so both recordings share a spike to align on
seq,t_us,ax,ay,az,gx,gy,gz
0,164600495,-0.9424,0.1304,-0.0991,-7.44,4.45,5.98
1,164605752,-0.9502,0.1304,-0.1055,-8.29,4.39,5.30
2,164610443,-0.9517,0.1357,-0.1035,-9.15,4.21,4.88
3,164615442,-0.9546,0.1387,-0.1011,-10.00,4.21,4.45
4,164620442,-0.9585,0.1372,-0.1069,-10.98,4.02,3.72
5,164625441,-0.9546,0.1348,-0.1084,-12.07,3.84,3.05
6,164630442,-0.9497,0.1387,-0.1108,-13.17,3.84,2.56
7,164635442,-0.9507,0.1353,-0.1143,-13.90,3.41,1.95
8,164640442,-0.9502,0.1353,-0.1089,-15.00,3.35,1.46
9,164645441,-0.9458,0.1416,-0.1055,-15.91,3.11,0.98
10,164650442,-0.9448,0.1416,-0.1089,-16.65,2.93,0.43
11,164655443,-0.9482,0.1421,-0.1094,-17.38,2.68,-0.12
12,164660442,-0.9487,0.1436,-0.1084,-18.17,2.56,-0.67
13,164665440,-0.9443,0.1460,-0.1113,-18.96,2.32,-1.22
14,164670443,-0.9419,0.1450,-0.1113,-19.57,2.13,-1.83
15,164676331,-0.9399,0.1455,-0.1074,-20.43,1.89,-2.38
16,164680443,-0.9434,0.1523,-0.1064,-20.91,1.71,-2.93
17,164685443,-0.9370,0.1494,-0.1113,-21.83,1.52,-3.29
18,164690442,-0.9326,0.1465,-0.1094,-22.62,1.28,-3.72
19,164695440,-0.9302,0.1455,-0.1074,-23.35,0.91,-4.15
20,164700440,-0.9341,0.1479,-0.1001,-24.09,0.61,-4.51
21,164705440,-0.9346,0.1470,-0.1025,-24.94,0.18,-4.88
22,164710443,-0.9326,0.1445,-0.1016,-25.61,-0.06,-5.12
23,164715442,-0.9297,0.1455,-0.0967,-26.28,-0.18,-5.24
24,164720441,-0.9268,0.1445,-0.1016,-26.95,-0.55,-5.55
25,164725444,-0.9277,0.1411,-0.1011,-27.62,-0.73,-5.67
26,164730441,-0.9282,0.1465,-0.0981,-28.11,-0.91,-5.91
27,164735442,-0.9229,0.1479,-0.0972,-28.54,-1.16,-6.10
28,164740441,-0.9248,0.1514,-0.1040,-28.84,-1.28,-6.28
29,164745440,-0.9248,0.1509,-0.1050,-29.02,-1.52,-6.46
30,164750443,-0.9229,0.1499,-0.1016,-29.09,-1.77,-6.71
31,164755442,-0.9248,0.1470,-0.0967,-28.96,-1.89,-6.83
32,164760442,-0.9199,0.1519,-0.0996,-28.72,-1.95,-6.89
33,164765443,-0.9248,0.1528,-0.0986,-28.35,-2.26,-7.13
34,164770442,-0.9243,0.1504,-0.1006,-27.87,-2.38,-7.26
35,164775441,-0.9321,0.1509,-0.1035,-27.01,-2.32,-7.26
36,164780444,-0.9312,0.1460,-0.0962,-26.22,-2.38,-7.38
37,164785441,-0.9287,0.1470,-0.0967,-25.24,-2.44,-7.32
38,164790443,-0.9277,0.1475,-0.0972,-24.02,-2.44,-7.32
39,164795441,-0.9282,0.1450,-0.0996,-22.87,-2.50,-7.26
40,164800440,-0.9336,0.1460,-0.1035,-21.40,-2.50,-7.26
41,164805440,-0.9365,0.1484,-0.0967,-20.00,-2.68,-7.26
42,164810443,-0.9326,0.1479,-0.1011,-18.35,-2.68,-7.20
43,164815442,-0.9355,0.1475,-0.0977,-16.83,-3.05,-7.20
44,164820441,-0.9385,0.1494,-0.1016,-15.18,-3.17,-7.20
45,164825700,-0.9302,0.1514,-0.0957,-13.17,-3.48,-7.26
46,164830442,-0.9321,0.1543,-0.0991,-11.77,-3.72,-7.44
47,164835443,-0.9316,0.1548,-0.0962,-9.88,-3.96,-7.32
48,164840442,-0.9355,0.1528,-0.0977,-7.99,-4.39,-7.38
49,164845443,-0.9385,0.1611,-0.0996,-6.16,-4.76,-7.44
50,164850442,-0.9443,0.1543,-0.1064,-4.33,-5.00,-7.50
51,164855443,-0.9487,0.1572,-0.1069,-2.32,-5.37,-7.62
52,164860442,-0.9424,0.1631,-0.1030,-0.18,-5.73,-7.56
53,164865441,-0.9390,0.1636,-0.1016,1.52,-6.22,-7.68
54,164870442,-0.9331,0.1621,-0.0972,3.41,-6.46,-7.80
55,164875443,-0.9351,0.1611,-0.0962,5.06,-6.65,-7.74
56,164880442,-0.9375,0.1631,-0.1021,6.59,-7.20,-7.74
57,164885443,-0.9341,0.1631,-0.1011,7.99,-7.50,-7.74
58,164890442,-0.9438,0.1582,-0.0879,9.27,-7.68,-7.68
59,164895442,-0.9644,0.1641,-0.0728,9.88,-7.80,-7.62
60,164900442,-0.9438,0.1602,-0.1128,10.18,-8.29,-7.74
61,164905440,-0.9341,0.1602,-0.1099,10.37,-8.78,-7.62
62,164910507,-0.9312,0.1621,-0.0962,10.30,-8.84,-7.56
63,164915444,-0.9243,0.1616,-0.0791,10.30,-9.02,-7.56
64,164920441,-0.9194,0.1484,-0.1206,9.70,-9.33,-7.44
65,164925442,-0.9346,0.1538,-0.1313,8.78,-9.70,-7.38
66,164930441,-0.9526,0.1567,-0.1069,7.68,-10.06,-7.26
67,164935442,-0.9644,0.1597,-0.0972,6.52,-10.18,-7.26
68,164940441,-0.9790,0.1602,-0.1079,5.24,-10.18,-7.13
69,164945442,-0.9800,0.1670,-0.1143,4.09,-10.12,-7.07
70,164950441,-0.9736,0.1641,-0.1133,2.93,-10.24,-6.95
71,164955442,-0.9663,0.1646,-0.1143,1.77,-10.18,-6.83
72,164960441,-0.9639,0.1636,-0.1206,0.73,-10.18,-6.65
73,164965442,-0.9658,0.1616,-0.1309,0.06,-10.37,-6.28
74,164970441,-0.9707,0.1621,-0.1289,-0.79,-10.30,-5.98
75,164975442,-0.9775,0.1709,-0.1299,-1.34,-10.24,-5.61
76,164980441,-0.9819,0.1689,-0.1396,-1.89,-10.24,-5.24
77,164985442,-0.9868,0.1665,-0.1401,-2.44,-10.12,-4.82
78,164990441,-0.9937,0.1636,-0.1323,-3.17,-9.88,-4.21
79,164995442,-0.9888,0.1646,-0.1338,-3.84,-9.45,-3.60
80,165000441,-0.9780,0.1636,-0.1338,-4.57,-9.21,-3.11
81,165005441,-0.9731,0.1519,-0.1372,-5.06,-8.84,-2.44
82,165010477,-0.9707,0.1553,-0.1357,-5.37,-8.35,-1.77
83,165015444,-0.9624,0.1562,-0.1416,-5.55,-7.93,-0.98
84,165020441,-0.9565,0.1606,-0.1367,-5.61,-7.50,-0.18
85,165025440,-0.9556,0.1621,-0.1387,-5.49,-6.95,0.67
86,165030442,-0.9517,0.1606,-0.1362,-5.00,-6.59,1.52
87,165035442,-0.9507,0.1587,-0.1455,-4.27,-6.22,2.44
88,165040441,-0.9473,0.1582,-0.1440,-3.41,-5.85,3.48
89,165045440,-0.9517,0.1631,-0.1426,-2.50,-5.24,4.57
90,165050442,-0.9565,0.1592,-0.1470,-1.46,-4.76,5.79
91,165055441,-0.9648,0.1562,-0.1494,-0.30,-4.33,6.95
92,165060442,-0.9697,0.1548,-0.1558,0.73,-3.72,8.29
93,165065443,-0.9712,0.1523,-0.1523,1.89,-3.05,9.57
94,165070442,-0.9761,0.1494,-0.1509,3.11,-2.56,10.85
95,165075441,-0.9893,0.1470,-0.1514,4.27,-1.95,12.38
96,165080442,-0.9883,0.1543,-0.1543,5.30,-1.34,13.84
97,165085898,-0.9883,0.1509,-0.1602,6.46,-0.73,15.30
98,165090442,-0.9844,0.1528,-0.1597,7.50,-0.18,16.71
99,165095443,-0.9819,0.1548,-0.1680,8.60,0.24,18.17
100,165100442,-0.9873,0.1489,-0.1592,9.76,0.73,19.57
101,165105440,-0.9922,0.1484,-0.1626,11.16,1.22,21.10
102,165110440,-0.9902,0.1548,-0.1675,12.38,1.71,22.50
103,165115830,-0.9907,0.1548,-0.1689,13.66,2.13,23.72
104,165120442,-0.9990,0.1582,-0.1699,15.12,2.68,25.18
105,165125444,-0.9995,0.1641,-0.1792,16.59,2.99,26.52
106,165130441,-1.0024,0.1753,-0.1748,18.17,3.54,27.80
107,165135442,-0.9966,0.1812,-0.1768,19.63,4.15,29.15
108,165140441,-0.9961,0.1787,-0.1851,21.16,4.57,30.37
109,165145442,-0.9990,0.1792,-0.1860,22.56,5.18,31.65
110,165150441,-0.9980,0.1836,-0.1831,24.02,5.61,32.87
111,165155442,-1.0073,0.1875,-0.1870,25.12,6.22,34.02
112,165160441,-1.0054,0.1841,-0.1899,25.98,7.01,35.18
113,165165442,-1.0078,0.1919,-0.1885,26.40,7.87,36.40
114,165170441,-0.9976,0.2002,-0.1904,26.83,8.78,37.26
115,165175442,-1.0020,0.2036,-0.1904,26.89,9.51,37.99
116,165180441,-1.0112,0.2124,-0.2031,26.89,10.37,38.78
117,165185443,-1.0044,0.2207,-0.1890,26.71,11.28,39.51
118,165190440,-0.9883,0.2358,-0.2090,26.83,12.13,39.94
119,165195443,-1.0430,0.2246,-0.2305,26.83,13.05,40.37
120,165200442,-1.0708,0.2383,-0.2144,25.98,13.84,40.61
121,165205440,-1.0918,0.2202,-0.2100,24.63,14.76,41.04
122,165210440,-1.0942,0.2241,-0.2046,23.11,16.04,41.16
123,165215440,-1.0801,0.2388,-0.1982,21.04,17.38,41.34
124,165220455,-1.0659,0.2368,-0.1997,19.02,18.60,41.52
125,165225555,-1.0557,0.2349,-0.2085,16.65,19.76,41.46
126,165230442,-1.0420,0.2344,-0.1943,14.27,20.73,41.71
127,165235442,-1.0522,0.2358,-0.1948,11.52,21.89,41.77
128,165240442,-1.0591,0.2368,-0.2139,8.78,22.80,41.83
129,165245443,-1.0615,0.2358,-0.2065,5.91,23.84,41.83
130,165250442,-1.0649,0.2383,-0.1924,3.05,24.82,41.95
131,165255442,-1.0654,0.2490,-0.1992,0.24,25.67,41.95
132,165260442,-1.0635,0.2603,-0.2109,-2.62,26.59,41.77
133,165265441,-1.0713,0.2622,-0.2026,-5.18,27.56,41.71
134,165270442,-1.0679,0.2617,-0.2041,-7.87,28.35,41.83
135,165275442,-1.0708,0.2651,-0.2061,-10.43,29.27,42.01
136,165280442,-1.0718,0.2695,-0.2217,-12.99,29.94,42.07
137,165285441,-1.0684,0.2720,-0.2197,-15.67,30.85,42.20
138,165290442,-1.0630,0.2739,-0.2241,-18.48,31.28,42.44
139,165295443,-1.0601,0.2749,-0.2314,-21.22,31.71,42.62
140,165300442,-1.0581,0.2759,-0.2256,-23.96,32.07,42.87
141,165305441,-1.0547,0.2812,-0.2432,-26.77,32.32,43.23
142,165310442,-1.0122,0.3047,-0.2305,-29.51,32.26,43.29
143,165315440,-1.0181,0.3101,-0.2710,-31.95,32.38,43.48
144,165320441,-1.0391,0.3154,-0.2764,-34.51,32.01,43.72
145,165325444,-1.0327,0.3281,-0.2764,-36.83,31.52,43.96
146,165330442,-1.0356,0.3218,-0.2622,-39.51,31.22,44.09
147,165335442,-1.0347,0.3091,-0.2461,-42.56,30.91,44.51
148,165340442,-1.0249,0.3032,-0.2437,-45.85,31.04,45.12
149,165345443,-1.0029,0.3096,-0.2441,-49.57,31.04,45.91
150,165350442,-0.9849,0.3164,-0.2446,-53.35,30.98,46.65
151,165355442,-0.9663,0.3188,-0.2373,-57.26,31.04,47.38
152,165360442,-0.9482,0.3228,-0.2324,-61.28,31.22,48.17
153,165365441,-0.9380,0.3301,-0.2354,-65.24,31.16,49.21
154,165370442,-0.9258,0.3389,-0.2280,-69.21,31.52,50.00
155,165375443,-0.9224,0.3491,-0.2256,-72.99,31.83,50.79
156,165380442,-0.9170,0.3628,-0.2310,-76.77,32.56,51.71
157,165385441,-0.9199,0.3760,-0.2358,-80.00,32.93,52.62
158,165390442,-0.9248,0.3818,-0.2441,-83.35,33.35,53.48
159,165395442,-0.9253,0.3867,-0.2524,-86.28,33.72,54.51
160,165400442,-0.9229,0.3960,-0.2544,-89.21,34.39,55.67
161,165405441,-0.9175,0.3999,-0.2456,-91.77,34.70,56.89
162,165410442,-0.9248,0.4058,-0.2544,-94.09,35.30,58.41
163,165415441,-0.9380,0.4092,-0.2520,-96.40,36.04,60.06
164,165420440,-0.9526,0.4175,-0.2578,-98.35,37.01,61.95
165,165425443,-0.9644,0.4258,-0.2627,-99.94,37.93,63.90
166,165430442,-0.9741,0.4336,-0.2671,-100.85,38.84,65.55
167,165435442,-0.9780,0.4473,-0.2671,-101.59,39.94,67.99
168,165440442,-0.9771,0.4717,-0.2812,-101.65,41.04,70.43
169,165445441,-0.9673,0.4897,-0.2925,-100.55,41.83,72.99
170,165450442,-0.9619,0.5122,-0.3281,-98.23,42.62,75.43
171,165455442,-0.9697,0.5088,-0.2563,-95.00,43.78,77.99
172,165460442,-0.9854,0.5098,-0.2192,-91.65,45.49,81.40
173,165465441,-1.0112,0.5220,-0.2690,-87.87,47.74,85.24
174,165470442,-1.0273,0.5459,-0.3047,-83.48,49.39,88.23
175,165475442,-1.0361,0.5757,-0.2920,-78.17,51.52,90.79
176,165480442,-1.0376,0.6084,-0.2656,-72.38,53.78,93.72
177,165485441,-1.0366,0.6367,-0.2832,-65.85,56.52,96.59
178,165490442,-1.0342,0.6714,-0.3008,-58.96,59.21,99.51
179,165495443,-1.0400,0.7095,-0.2715,-51.77,62.20,102.38
180,165500442,-1.0498,0.7280,-0.2612,-44.70,65.43,105.00
181,165505443,-1.0522,0.7378,-0.2881,-37.93,68.72,107.99
182,165510442,-1.0640,0.7437,-0.2974,-31.65,71.95,111.22
183,165515442,-1.0625,0.7490,-0.2827,-25.98,75.24,114.57
184,165520442,-1.0532,0.7578,-0.2798,-20.98,78.48,117.87
185,165525991,-1.0312,0.7788,-0.2910,-15.67,82.26,122.26
186,165530443,-1.0083,0.8037,-0.3140,-12.74,84.88,124.88
187,165535442,-0.9878,0.8291,-0.3032,-9.27,86.89,128.23
188,165540442,-0.9780,0.8496,-0.3120,-6.34,88.23,131.46
189,165545443,-0.9673,0.8652,-0.3340,-3.84,90.85,134.45
190,165550442,-0.9678,0.8765,-0.3281,-1.59,92.87,137.26
191,165555991,-0.9478,0.9023,-0.3237,0.12,95.18,140.18
192,165560443,-0.9409,0.9043,-0.3281,1.04,96.59,142.07
193,165565443,-0.9492,0.8999,-0.3491,1.40,98.29,144.15
194,165570442,-0.9590,0.9268,-0.3516,1.10,99.57,146.16
195,165575441,-0.9517,0.9448,-0.3481,0.30,100.67,147.99
196,165580442,-0.9429,0.9590,-0.3706,-1.04,101.71,149.63
197,165585754,-0.9282,0.9648,-0.3936,-3.35,102.56,151.22
198,165590443,-0.9136,0.9565,-0.3940,-5.18,103.05,152.32
199,165595441,-0.8887,0.9424,-0.3960,-7.38,103.66,153.66
200,165600442,-0.8682,0.9404,-0.4277,-9.70,103.66,155.00
201,165605442,-0.8496,0.9478,-0.4448,-11.83,103.78,156.22
202,165610442,-0.8252,0.9482,-0.4321,-13.78,103.96,157.20
203,165615441,-0.8159,0.9473,-0.4395,-15.49,104.39,158.05
204,165620442,-0.7988,0.9390,-0.4526,-17.13,104.51,158.78
205,165625442,-0.7837,0.9292,-0.4639,-18.66,104.57,159.57
206,165630444,-0.7617,0.9121,-0.4380,-19.63,105.00,160.18
207,165635442,-0.7310,0.8999,-0.4541,-20.18,105.55,160.67
208,165640441,-0.6992,0.8911,-0.4814,-20.00,105.85,161.22
209,165645444,-0.6597,0.8853,-0.4897,-19.15,106.34,161.71
210,165650441,-0.6216,0.8906,-0.4917,-17.56,106.83,161.95
211,165655442,-0.6011,0.8896,-0.5000,-15.30,107.32,162.01
212,165660441,-0.5796,0.8857,-0.5122,-12.32,107.93,161.89
213,165665442,-0.5688,0.8804,-0.5015,-8.78,108.60,161.52
214,165670445,-0.5601,0.8906,-0.5000,-4.02,110.00,160.91
215,165675444,-0.5508,0.8906,-0.5029,-1.04,110.91,160.24
216,165680440,-0.5381,0.8872,-0.5063,2.93,112.32,159.39
217,165685444,-0.5151,0.8765,-0.4980,6.22,113.72,158.29
218,165690440,-0.4990,0.8604,-0.5015,9.02,115.30,157.44
219,165695444,-0.4756,0.8521,-0.5239,11.28,116.77,156.52
220,165700440,-0.4634,0.8472,-0.5190,12.87,118.17,155.55
221,165705442,-0.4619,0.7549,-0.5347,13.48,119.63,154.63
222,165710440,-0.1538,0.2695,-1.2227,17.32,114.94,160.61
223,165715444,-0.2466,0.5244,-0.3779,20.98,112.68,162.93
224,165720440,-0.3047,0.4697,-0.2412,23.41,115.49,163.23
225,165725661,-0.3267,0.6338,-0.4868,26.34,116.46,163.48
226,165730441,-0.3130,0.7651,-0.9204,30.06,115.12,163.48
227,165735444,-0.2583,0.8706,-0.5449,34.70,114.45,163.90
228,165740441,-0.2173,0.8057,-0.3013,39.15,116.16,164.33
229,165745441,-0.2085,0.6387,-0.6475,44.39,116.59,164.82
230,165750441,-0.2197,0.4922,-0.7979,50.30,115.24,165.18
231,165755443,-0.2251,0.4458,-0.5024,56.89,115.55,165.30
232,165760441,-0.2314,0.5083,-0.3921,63.72,117.07,165.12
233,165765441,-0.2500,0.6797,-0.6719,70.79,117.62,163.90
234,165770441,-0.2681,0.8311,-0.7295,77.68,117.62,162.01
235,165775443,-0.2686,0.9072,-0.4668,83.84,119.15,159.51
236,165780441,-0.2676,0.8945,-0.4346,88.66,121.71,156.65
237,165785441,-0.2832,0.8115,-0.6655,92.13,123.48,153.60
238,165790441,-0.3408,0.7305,-0.6626,94.21,124.88,150.00
239,165795441,-0.3257,0.6802,-0.4116,93.84,127.62,146.28
240,165800440,-0.2686,0.6665,-0.4380,92.13,130.67,142.38
241,165805550,-0.2422,0.7788,-0.5845,89.63,132.99,138.29
242,165810441,-0.2354,0.8501,-0.5093,85.98,135.43,133.90
243,165815442,-0.2539,0.8579,-0.3950,81.10,138.17,129.45
244,165820441,-0.2031,0.8125,-0.3921,75.37,140.85,125.55
245,165825441,-0.1675,0.7520,-0.5161,68.78,142.62,121.83
246,165830440,-0.1758,0.7217,-0.4644,61.65,144.33,118.35
247,165835444,-0.1772,0.6909,-0.3438,53.78,146.22,115.06
248,165840442,-0.1606,0.6895,-0.4102,45.00,147.87,111.83
249,165845442,-0.1538,0.7124,-0.4985,35.61,148.78,109.09
250,165850441,-0.1377,0.7476,-0.4204,26.16,149.57,106.65
251,165855442,-0.1279,0.7495,-0.3608,16.52,150.24,104.57
252,165860441,-0.1113,0.7227,-0.4395,7.13,150.30,102.87
253,165865442,-0.0879,0.6768,-0.4849,-1.83,149.63,101.28
254,165870441,-0.0693,0.6401,-0.3813,-10.00,148.90,99.88
255,165875442,-0.0586,0.6177,-0.3389,-17.38,148.29,98.72
256,165880441,-0.0542,0.6323,-0.4150,-23.60,147.38,97.50
257,165885442,-0.0474,0.6538,-0.4243,-28.84,145.73,96.16
258,165890441,-0.0493,0.6753,-0.3325,-33.11,144.94,94.94
259,165895442,-0.0439,0.6729,-0.3184,-36.40,143.96,93.84
260,165900441,-0.0342,0.6719,-0.3491,-38.90,142.93,92.80
261,165905604,-0.0342,0.6348,-0.3413,-40.49,141.83,91.59
262,165910442,-0.0366,0.6045,-0.2852,-41.52,141.16,90.43
263,165915442,-0.0337,0.5962,-0.2754,-42.13,140.49,89.63
264,165920442,-0.0249,0.5991,-0.3164,-42.01,139.39,87.44
265,165925441,-0.0200,0.6104,-0.3032,-41.65,138.41,86.71
266,165930442,-0.0205,0.6235,-0.2437,-40.91,137.56,86.71
267,165935443,-0.0151,0.6299,-0.2612,-40.00,136.83,86.34
268,165940442,0.0005,0.6162,-0.3037,-38.48,135.37,84.57
269,165945441,0.0122,0.5991,-0.2715,-37.13,133.84,83.29
270,165950442,0.0288,0.5898,-0.2183,-35.37,132.38,82.01
271,165955442,0.0415,0.5703,-0.2466,-33.84,130.55,80.67
272,165960442,0.0640,0.5591,-0.3105,-31.77,127.80,79.39
273,165965440,0.0879,0.5728,-0.2817,-29.88,124.82,78.17
274,165970443,0.1201,0.5732,-0.2393,-27.80,121.52,77.07
275,165975442,0.1611,0.5566,-0.2617,-25.98,117.68,76.10
276,165980442,0.2021,0.4766,-0.3008,-24.15,113.17,75.85
277,165985441,0.2427,0.4062,-0.2690,-22.38,108.17,76.89
278,165990442,0.2778,0.3716,-0.2080,-20.43,103.29,78.78
279,165995442,0.2910,0.3955,-0.2275,-18.23,98.41,80.91
280,166000442,0.3091,0.4067,-0.2451,-16.04,93.48,82.62
281,166005441,0.3184,0.4336,-0.2319,-13.60,89.09,83.96
282,166010442,0.3281,0.4502,-0.2495,-11.04,84.82,84.70
283,166015442,0.3467,0.4443,-0.2783,-8.29,79.02,84.70
284,166020442,0.3735,0.4482,-0.2905,-5.24,73.72,84.94
285,166025441,0.3896,0.4419,-0.2847,-1.83,68.54,84.51
286,166030442,0.3960,0.4248,-0.2803,2.07,63.35,83.90
287,166035441,0.3892,0.4292,-0.2842,6.65,58.05,83.41
288,166040444,0.3726,0.4482,-0.2988,11.65,53.17,81.95
289,166045442,0.3638,0.4556,-0.2905,17.26,48.66,79.76
290,166050442,0.3604,0.4648,-0.3018,23.29,44.45,77.07
291,166055443,0.3574,0.4673,-0.3159,30.00,40.43,74.09
292,166060442,0.3589,0.4595,-0.3003,37.13,36.89,70.85
293,166065442,0.3594,0.4434,-0.2905,44.57,34.21,67.68
294,166070442,0.3628,0.4146,-0.3125,52.20,32.01,65.00
295,166075443,0.3887,0.3467,-0.3750,60.61,30.18,62.32
296,166080442,0.4028,0.3418,-0.3398,69.57,29.27,60.79
297,166085442,0.4077,0.3530,-0.3218,78.90,29.15,59.45
298,166090442,0.4521,0.3394,-0.4028,88.41,28.96,58.23
299,166095441,0.5215,0.3296,-0.4561,97.87,28.66,57.68
300,166100442,0.5640,0.3237,-0.4707,107.13,28.29,57.38
301,166105442,0.5830,0.3228,-0.5049,116.10,27.87,57.07
302,166110442,0.5762,0.3267,-0.5376,124.82,27.74,57.20
303,166115443,0.5605,0.3354,-0.5391,131.46,27.87,57.32
304,166120443,0.5586,0.3374,-0.5479,137.26,27.99,57.62
305,166125442,0.5679,0.3198,-0.5918,141.52,28.41,58.11
306,166130442,0.5708,0.3447,-0.5659,143.72,29.15,58.54
307,166135440,0.5630,0.3481,-0.5908,143.78,30.12,58.60
308,166140440,0.5708,0.3384,-0.6406,142.20,31.40,58.60
309,166145444,0.5669,0.3521,-0.6172,139.51,32.87,58.41
310,166150441,0.5811,0.3521,-0.6675,135.79,34.82,57.87
311,166155442,0.6030,0.3535,-0.7246,130.98,36.52,57.26
312,166160441,0.6235,0.3647,-0.7583,128.17,37.99,56.65
313,166165442,0.6313,0.3823,-0.8164,123.41,39.63,55.85
314,166170441,0.6201,0.4492,-0.8496,119.88,41.28,54.88
315,166175442,0.6538,0.3936,-0.9360,117.93,42.80,54.15
316,166180441,0.6597,0.3926,-0.9448,116.59,44.51,53.72
317,166185443,0.6738,0.4077,-0.9658,115.12,46.22,53.17
318,166190440,0.6772,0.4199,-1.0005,113.96,47.87,52.62
319,166195443,0.6816,0.4448,-1.0488,113.23,49.70,52.01
320,166200442,0.6982,0.4502,-1.0645,113.11,51.28,51.52
321,166205442,0.7197,0.4600,-1.0762,113.78,53.05,51.59
322,166210441,0.7334,0.4683,-1.0835,115.06,54.82,51.59
323,166215442,0.7393,0.4790,-1.0811,117.07,56.71,51.65
324,166220441,0.7427,0.4839,-1.0942,119.70,58.41,51.77
325,166225442,0.7563,0.4849,-1.0903,122.99,60.37,52.13
326,166230441,0.7095,0.4868,-1.1050,126.89,62.07,52.44
327,166235443,0.7598,0.4819,-1.0986,129.76,63.96,52.93
328,166240441,0.7856,0.4751,-1.0815,135.12,65.91,53.54
329,166245444,0.7827,0.4619,-1.0698,139.63,67.99,54.02
330,166250441,0.7754,0.4473,-1.0503,144.15,70.18,54.45
331,166255442,0.7759,0.4395,-1.0366,148.66,72.50,54.76
332,166260441,0.7764,0.4312,-1.0190,153.29,74.70,54.94
333,166265442,0.7715,0.4175,-1.0024,158.05,77.01,55.06
334,166270441,0.7715,0.4023,-0.9971,162.13,78.72,55.06
335,166275442,0.7749,0.3940,-0.9775,168.17,81.59,54.82
336,166280441,0.7739,0.3989,-0.9639,172.87,84.45,54.09
337,166285444,0.7954,0.3926,-0.9463,177.32,86.34,53.11
338,166290441,0.8120,0.3833,-0.9238,180.67,86.10,52.20
339,166295442,0.8350,0.3706,-0.9019,184.82,88.66,51.22
340,166300441,0.8018,0.3672,-0.9062,189.27,90.79,50.06
341,166305442,0.7754,0.3657,-0.8652,193.35,93.05,48.66
342,166310441,0.7686,0.3540,-0.8740,197.20,95.43,47.13
343,166315525,0.7793,0.3408,-0.8604,200.98,97.87,45.12
344,166320441,0.7773,0.3262,-0.8516,202.93,99.57,43.72
345,166325518,0.7646,0.3237,-0.8286,205.06,102.20,41.40
346,166330441,0.7676,0.3115,-0.8320,205.79,103.66,39.57
347,166335442,0.7729,0.3091,-0.8320,206.04,105.55,37.32
348,166340441,0.7607,0.2993,-0.7808,205.91,107.56,35.06
349,166345444,0.7510,0.2954,-0.8071,205.24,109.33,32.56
350,166350441,0.7544,0.2964,-0.7744,204.33,111.04,30.18
351,166355442,0.7559,0.2861,-0.7539,202.93,112.87,27.62
352,166360441,0.7437,0.2959,-0.7290,201.89,114.70,25.06
353,166365444,0.7329,0.3003,-0.7134,200.85,116.34,22.32
354,166370441,0.7256,0.2852,-0.6890,200.06,118.11,19.45
355,166375442,0.7139,0.2847,-0.6582,199.76,119.82,16.59
356,166380441,0.7041,0.2871,-0.6426,199.76,121.59,13.35
357,166385442,0.7002,0.2842,-0.6172,200.18,122.93,10.24
358,166390441,0.7051,0.2920,-0.6104,201.40,124.27,7.01
359,166395444,0.7095,0.2886,-0.6113,203.48,125.43,3.84
360,166400441,0.6885,0.2827,-0.5571,206.52,126.77,0.49
361,166405477,0.6768,0.2944,-0.6060,210.24,127.80,-2.93
362,166410444,0.6719,0.2974,-0.5781,214.88,128.72,-6.16
363,166415442,0.6670,0.3071,-0.5518,220.12,129.76,-9.45
364,166420442,0.6646,0.3027,-0.5547,225.49,130.61,-12.68
365,166425441,0.6621,0.3047,-0.5459,231.22,131.40,-15.73
366,166430442,0.6460,0.3115,-0.5283,237.01,131.95,-18.96
367,166435442,0.6211,0.3184,-0.5200,242.38,132.56,-22.20
368,166440442,0.6104,0.3286,-0.5220,247.01,132.87,-25.61
369,166445440,0.5996,0.3350,-0.4956,250.67,132.87,-29.15
370,166450444,0.5977,0.3447,-0.4707,253.54,132.74,-32.87
371,166455442,0.5957,0.3555,-0.4512,255.49,132.50,-36.59
372,166460441,0.5874,0.3545,-0.4287,256.65,131.71,-40.43
373,166465442,0.5747,0.3589,-0.3979,256.77,131.10,-44.09
374,166470441,0.5518,0.3794,-0.3882,256.16,130.37,-47.99
375,166475442,0.5425,0.3931,-0.3623,255.30,129.27,-52.13
376,166480441,0.5400,0.4087,-0.3457,254.02,128.17,-55.98
377,166485442,0.5371,0.4092,-0.3257,252.50,127.07,-59.94
378,166490441,0.5181,0.4170,-0.3101,250.98,125.79,-63.78
379,166495442,0.5010,0.4209,-0.2964,249.02,124.57,-67.50
380,166500441,0.4912,0.4194,-0.2891,246.71,123.11,-71.16
381,166505442,0.4995,0.4277,-0.2832,244.27,121.71,-74.63
382,166510441,0.4771,0.4536,-0.2593,240.37,120.55,-77.87
383,166515442,0.4341,0.4028,-0.3135,235.98,118.90,-81.34
384,166520441,0.4165,0.4150,-0.2637,231.59,116.83,-84.76
385,166525442,0.4229,0.4443,-0.2231,227.74,115.18,-87.80
386,166530441,0.4102,0.5078,-0.2231,224.39,113.96,-90.67
387,166535955,0.3862,0.5210,-0.2222,220.85,111.95,-94.39
388,166540442,0.3901,0.5063,-0.2212,218.90,110.61,-96.95
389,166545444,0.3916,0.4961,-0.2046,216.59,108.96,-100.06
390,166550441,0.3896,0.5020,-0.1890,214.70,107.07,-102.87
391,166555444,0.3789,0.5195,-0.1836,213.23,105.49,-105.49
392,166560441,0.3569,0.5317,-0.1694,212.20,103.66,-108.23
393,166565442,0.3340,0.5547,-0.1558,211.52,102.13,-110.85
394,166570441,0.3174,0.5557,-0.1470,211.22,100.37,-113.29
395,166575442,0.3018,0.5664,-0.1421,211.28,98.84,-115.73
396,166580441,0.2881,0.5718,-0.1328,211.89,97.50,-117.93
397,166585442,0.2695,0.5303,-0.0918,212.32,96.28,-119.57
398,166590441,0.2603,0.5830,-0.1885,212.80,95.00,-121.59
399,166595442,0.2173,0.6396,-0.2031,214.63,92.93,-123.96
400,166600441,0.2476,0.6104,-0.1177,217.80,91.10,-125.79
401,166605444,0.2437,0.6152,-0.1235,221.89,88.90,-127.20
402,166610441,0.1992,0.6201,-0.0796,225.91,86.95,-128.41
403,166615444,0.1772,0.6353,-0.1113,229.88,86.77,-130.18
404,166620441,0.1807,0.6484,-0.1191,233.66,85.30,-131.89
405,166625441,0.1797,0.6631,-0.0933,237.26,83.84,-133.48
406,166630443,0.1660,0.6738,-0.0811,240.30,81.71,-134.82
407,166635443,0.1523,0.6797,-0.0913,242.44,79.57,-135.98
408,166640442,0.1372,0.6802,-0.0879,244.02,77.62,-137.26
409,166645441,0.1240,0.6758,-0.0659,244.33,75.67,-138.54
410,166650440,0.1128,0.6797,-0.0723,243.72,73.72,-139.94
411,166655444,0.1064,0.6777,-0.0815,242.32,71.77,-141.16
412,166660441,0.0952,0.6846,-0.0825,239.88,69.39,-142.74
413,166665919,0.0840,0.6870,-0.0986,236.28,66.77,-144.39
414,166670442,0.0781,0.6914,-0.0996,233.90,65.12,-145.73
415,166675442,0.0771,0.6934,-0.1045,230.79,62.74,-147.32
416,166680442,0.0771,0.7002,-0.1001,227.99,60.55,-148.72
417,166685444,0.0669,0.7031,-0.0991,225.49,58.29,-150.12
418,166690441,0.0645,0.7119,-0.0903,223.17,56.22,-151.71
419,166695444,0.0610,0.7065,-0.0757,220.79,54.02,-153.29
420,166700441,0.0498,0.7046,-0.0679,218.35,52.01,-154.82
421,166705590,0.0469,0.7026,-0.0557,215.43,49.94,-156.71
422,166710442,0.0347,0.7002,-0.0410,212.20,47.74,-158.41
423,166715442,0.0186,0.7007,-0.0215,208.29,45.49,-160.37
424,166720442,0.0151,0.7090,-0.0132,203.90,43.23,-162.44
425,166725443,0.0137,0.7197,-0.0103,198.96,40.73,-164.82
426,166730442,0.0029,0.7407,-0.0098,193.78,38.05,-167.32
427,166735442,-0.0005,0.7627,-0.0107,189.02,35.30,-170.18
428,166740442,-0.0117,0.7812,-0.0039,184.63,32.32,-173.11
429,166745441,-0.0283,0.8037,0.0034,180.61,29.02,-175.98
430,166750523,-0.0356,0.8228,0.0103,176.71,25.73,-178.96
431,166755477,-0.0591,0.8452,0.0176,173.05,22.20,-182.13
432,166760442,-0.0923,0.8721,0.0293,169.51,18.35,-185.49
433,166765442,-0.1128,0.8936,0.0435,165.98,14.51,-189.09
434,166770442,-0.1206,0.9111,0.0562,162.68,10.49,-192.80
435,166775441,-0.1372,0.9316,0.0718,159.15,6.65,-196.65
436,166780442,-0.1621,0.9404,0.0986,155.30,2.80,-200.73
437,166785442,-0.1870,0.9473,0.1162,151.10,-1.22,-204.70
438,166790442,-0.2192,0.9541,0.1479,146.65,-5.24,-208.90
439,166795441,-0.2632,0.9644,0.1646,142.07,-9.27,-213.11
440,166800442,-0.2993,0.9888,0.1777,137.20,-13.41,-217.32
441,166805442,-0.3408,1.0132,0.1934,131.71,-17.68,-221.77
442,166810442,-0.3789,1.0283,0.2065,128.35,-21.89,-226.10
443,166815533,-0.4351,1.0405,0.2207,123.96,-26.22,-230.00
444,166820442,-0.5020,1.0542,0.2437,120.06,-30.55,-233.90
445,166825441,-0.5713,1.0557,0.2612,116.34,-35.06,-237.26
446,166830444,-0.6328,1.0630,0.2754,112.93,-39.57,-240.43
447,166835442,-0.6929,1.0728,0.2974,109.70,-44.21,-243.41
448,166840442,-0.7500,1.0835,0.3198,106.71,-48.78,-246.34
449,166845440,-0.8003,1.0884,0.3481,103.90,-53.48,-248.96
450,166850440,-0.8550,1.0894,0.3696,101.65,-58.48,-251.34
451,166855440,-0.9111,1.0967,0.4053,99.27,-63.48,-253.48
452,166860443,-0.9722,1.1084,0.4468,97.01,-68.84,-255.24
453,166865442,-1.0317,1.1270,0.4673,95.06,-74.39,-256.46
454,166870441,-1.0952,1.1543,0.4946,93.11,-80.30,-257.50
455,166875442,-1.1660,1.1875,0.5146,90.91,-86.46,-257.74
456,166880441,-1.2744,1.2856,0.5679,89.09,-92.62,-257.99
457,166885442,-1.2622,1.2432,0.5234,86.22,-99.21,-257.74
458,166890441,-1.3394,1.2437,0.5811,81.95,-105.85,-256.34
459,166895442,-1.4214,1.2905,0.5796,77.32,-112.99,-254.21
460,166900441,-1.4653,1.3423,0.5825,72.13,-120.79,-251.65
461,166905442,-1.4961,1.3442,0.6299,65.91,-128.72,-248.90
462,166910441,-1.5464,1.3330,0.6616,59.39,-136.83,-245.67
463,166915442,-1.5854,1.3384,0.6826,52.62,-144.88,-241.83
464,166920441,-1.6357,1.3384,0.6631,45.06,-153.29,-237.74
465,166925442,-1.7002,1.3286,0.6909,37.44,-162.32,-233.48
466,166930441,-1.7456,1.2988,0.6738,29.63,-171.46,-229.15
467,166935442,-1.7720,1.2847,0.6401,22.50,-180.98,-224.94
468,166940441,-1.8418,1.2920,0.6157,16.16,-190.98,-220.85
469,166945442,-1.9146,1.3086,0.5708,12.01,-201.34,-216.95
470,166950441,-1.9839,1.3213,0.5317,10.91,-212.20,-213.11
471,166955441,-2.0283,1.3354,0.4966,12.74,-223.29,-209.45
472,166960442,-2.0962,1.3413,0.4644,17.44,-235.12,-205.55
473,166965444,-2.1519,1.3530,0.4341,25.30,-247.38,-201.77
474,166970441,-2.2251,1.3530,0.4126,35.06,-260.06,-197.87
475,166975442,-2.3218,1.3726,0.3838,46.52,-273.54,-193.72
476,166980441,-2.4395,1.3506,0.3833,58.78,-287.68,-189.33
477,166985444,-2.5088,1.3599,0.3213,70.98,-302.80,-184.39
478,166990441,-2.5762,1.3682,0.2910,83.78,-318.60,-179.15
479,166995442,-2.6499,1.3613,0.2676,97.01,-335.12,-173.54
480,167000441,-2.7266,1.3613,0.2393,110.24,-352.01,-167.01
481,167005440,-2.8125,1.3540,0.1968,122.87,-369.51,-159.76
482,167010444,-2.8901,1.3545,0.1606,134.94,-387.01,-151.52
483,167015442,-2.9697,1.3672,0.1250,146.89,-404.57,-142.44
484,167020442,-3.0742,1.3496,0.0820,157.93,-422.01,-132.32
485,167025443,-3.1650,1.3408,0.0454,167.50,-439.27,-121.10
486,167030442,-3.2476,1.3340,0.0190,175.85,-455.98,-108.78
487,167035443,-3.3472,1.3350,-0.0249,182.62,-472.07,-95.43
488,167040442,-3.4429,1.3335,-0.0898,187.80,-487.38,-81.22
489,167045441,-3.5518,1.3101,-0.1455,191.34,-502.20,-65.91
490,167050442,-3.6592,1.3120,-0.1982,193.72,-515.79,-49.94
491,167055440,-3.7412,1.3110,-0.2495,195.24,-526.04,-36.71
492,167060440,-3.8804,1.3169,-0.3262,197.62,-540.06,-15.91
493,167065444,-3.9741,1.3218,-0.3955,200.12,-550.43,2.13
494,167070441,-4.0562,1.3188,-0.4517,202.68,-557.80,16.89
495,167075442,-4.1846,1.3291,-0.5371,207.74,-568.05,39.63
496,167080443,-4.3076,1.3467,-0.6035,212.93,-574.94,58.96
497,167085446,-4.4048,1.3667,-0.6499,217.74,-580.12,74.76
498,167090442,-4.5298,1.3931,-0.7065,224.21,-585.61,94.39
499,167095442,-4.6411,1.3989,-0.7456,230.79,-590.43,114.94
500,167100441,-4.7505,1.4224,-0.7866,236.89,-594.45,135.37
501,167105442,-4.8735,1.4468,-0.8384,241.95,-597.80,155.55
502,167110441,-4.9858,1.4604,-0.8823,245.18,-600.85,175.79
503,167115444,-5.1133,1.4917,-0.9185,246.28,-603.41,195.73
504,167120442,-5.2441,1.5254,-0.9580,245.12,-605.67,215.24
505,167125442,-5.3652,1.5723,-1.0264,241.77,-607.56,233.90
506,167130441,-5.4912,1.6294,-1.0864,236.71,-608.84,251.95
507,167135442,-5.6069,1.6973,-1.1274,230.61,-609.76,268.90
508,167140441,-5.7305,1.7739,-1.1782,223.96,-609.63,284.82
509,167145442,-5.8545,1.8652,-1.2080,217.32,-608.60,299.82
510,167150444,-5.9580,1.9351,-1.2930,209.27,-606.65,313.41
511,167155441,-6.0293,2.0088,-1.3228,200.49,-604.15,326.40
512,167160440,-6.1055,2.0796,-1.4111,190.85,-600.85,338.72
513,167165545,-6.1411,2.1792,-1.4917,177.20,-595.73,352.50
514,167170442,-6.1450,2.2441,-1.5566,166.59,-592.01,361.46
515,167175442,-6.1509,2.3232,-1.6558,152.13,-586.46,372.50
516,167180441,-6.1157,2.3770,-1.7515,136.89,-580.43,383.54
517,167185444,-6.0791,2.4272,-1.8369,121.28,-573.54,395.18
518,167190440,-6.0391,2.4604,-1.9351,104.57,-566.22,406.95
519,167195445,-6.0039,2.4912,-2.0522,87.87,-558.48,419.21
520,167200444,-5.9653,2.4990,-2.1606,70.30,-550.73,431.46
521,167205442,-5.9126,2.5122,-2.2524,53.17,-542.44,443.84
522,167210442,-5.8911,2.4937,-2.3647,36.04,-534.21,455.98
523,167215442,-5.8706,2.5034,-2.4712,19.70,-526.22,468.11
524,167220441,-5.8623,2.4727,-2.5635,5.06,-518.17,480.06
525,167225442,-5.8516,2.4731,-2.6772,-6.89,-510.61,491.95
526,167230441,-5.8477,2.4570,-2.7529,-14.70,-502.32,503.54
527,167235442,-5.8105,2.4302,-2.7998,-17.56,-493.78,515.24
528,167240441,-5.7695,2.4116,-2.8599,-14.63,-484.15,527.07
529,167245442,-5.7329,2.3818,-2.9102,-5.98,-473.66,539.51
530,167250441,-5.6938,2.3477,-2.9639,7.13,-461.95,552.32
531,167255442,-5.6421,2.2744,-2.9805,23.90,-449.63,565.79
532,167260442,-5.5601,2.2056,-3.0044,42.80,-435.61,579.94
533,167265516,-5.4614,2.1240,-2.9907,61.22,-420.37,594.33
534,167270442,-5.5049,2.0293,-2.9390,78.66,-403.90,608.90
535,167275442,-5.4829,1.9175,-2.9688,93.84,-386.46,623.54
536,167280441,-5.4355,1.8052,-2.9336,104.76,-368.17,638.23
537,167285442,-5.3857,1.6699,-2.8428,111.34,-349.57,651.89
538,167290441,-5.3462,1.5283,-2.8125,113.17,-330.85,664.63
539,167295442,-5.3223,1.4180,-2.7134,109.82,-312.38,676.16
540,167300441,-5.3521,1.3105,-2.6226,104.45,-294.33,686.46
541,167305442,-5.3438,1.1777,-2.6167,97.26,-277.32,695.61
542,167310442,-5.2983,1.0527,-2.5342,88.05,-261.16,703.60
543,167315442,-5.2554,0.9360,-2.4395,77.62,-245.55,710.67
544,167320441,-5.1694,0.8271,-2.4048,66.95,-231.22,716.77
545,167325442,-5.0786,0.7441,-2.3442,57.26,-218.35,721.40
546,167330444,-5.0391,0.6714,-2.2017,49.57,-205.91,725.49
547,167335442,-5.0020,0.6011,-2.0894,43.84,-193.90,728.72
548,167340442,-4.9487,0.5483,-2.0625,39.94,-182.01,731.10
549,167345441,-4.8335,0.4922,-1.9761,37.80,-170.79,732.87
550,167350442,-4.7100,0.4370,-1.8394,38.41,-159.39,733.90
551,167355442,-4.6104,0.4199,-1.7515,41.34,-148.29,734.33
552,167360442,-4.5273,0.3940,-1.6914,47.50,-136.52,734.27
553,167365441,-4.4800,0.3442,-1.5908,56.46,-123.54,733.96
554,167370442,-4.4341,0.2808,-1.5288,68.11,-109.15,733.84
555,167375442,-4.3696,0.2168,-1.4761,80.85,-94.33,733.96
556,167380442,-4.2632,0.1782,-1.3818,93.05,-78.54,733.66
557,167385441,-4.2363,0.0942,-1.3701,104.76,-62.38,733.17
558,167390442,-4.1875,0.0063,-1.3433,114.45,-45.73,732.62
559,167395442,-4.0747,-0.0859,-1.2915,120.91,-29.02,731.52
560,167400442,-3.9658,-0.1704,-1.2671,124.15,-12.44,730.18
561,167405441,-3.8784,-0.2148,-1.2676,124.02,2.99,728.05
562,167410442,-3.7925,-0.2808,-1.2231,120.73,17.74,724.82
563,167415442,-3.6816,-0.3232,-1.2310,114.21,31.04,719.70
564,167420442,-3.5103,-0.3716,-1.1665,103.35,43.05,712.80
565,167425441,-3.4595,-0.4194,-1.1738,87.32,55.12,703.84
566,167430443,-3.3428,-0.4292,-1.0962,69.88,63.05,692.87
567,167435442,-3.1743,-0.5508,-1.1543,50.49,71.52,680.30
568,167440443,-3.1597,-0.5835,-1.1025,30.49,78.23,666.77
569,167445441,-3.1216,-0.7173,-1.0684,10.79,85.55,652.13
570,167450442,-3.1099,-0.7607,-1.0996,-6.40,89.76,637.26
571,167455442,-3.1133,-0.8428,-1.1245,-19.09,95.06,622.56
572,167460443,-3.0894,-0.9233,-1.0913,-27.01,100.00,608.23
573,167465441,-3.0098,-1.0186,-1.0566,-30.43,105.12,594.33
574,167470440,-2.9546,-1.1333,-1.0767,-28.48,111.04,578.35
575,167475527,-2.9209,-1.2466,-1.0098,-22.13,115.18,567.74
576,167480442,-2.7896,-1.3086,-0.9629,-9.63,120.67,554.39
577,167485442,-2.7622,-1.3374,-0.9756,7.01,127.38,540.30
578,167490442,-2.7026,-1.3760,-0.8838,27.01,134.94,525.61
579,167495440,-2.6167,-1.4375,-0.7700,47.20,143.60,510.43
580,167500442,-2.5947,-1.5117,-0.7407,64.76,152.56,494.63
581,167505442,-2.5503,-1.5864,-0.6694,77.50,161.83,478.29
582,167510442,-2.5610,-1.6333,-0.5645,85.06,170.55,461.77
583,167515441,-2.5664,-1.6855,-0.4722,87.26,179.09,445.30
584,167520442,-2.5864,-1.7061,-0.3672,84.27,187.13,429.09
585,167525442,-2.5693,-1.7603,-0.2871,76.28,194.39,412.74
586,167530443,-2.5527,-1.8027,-0.1875,64.15,200.85,396.52
587,167535443,-2.5664,-1.8379,-0.1021,48.78,206.34,380.67
588,167540443,-2.5762,-1.8701,-0.0264,31.65,210.73,365.67
589,167545442,-2.5972,-1.8999,0.0352,14.39,213.72,351.59
590,167550442,-2.6172,-1.9185,0.0874,-1.89,215.73,338.60
591,167555733,-2.6113,-1.9229,0.1172,-16.40,216.65,326.59
592,167560441,-2.5728,-1.9165,0.1562,-28.41,216.16,315.61
593,167565440,-2.5176,-1.9160,0.1816,-37.38,214.63,305.00
594,167570442,-2.4321,-1.9102,0.1934,-43.54,212.13,294.94
595,167575442,-2.3125,-1.8984,0.2007,-46.77,208.78,284.94
596,167580441,-2.1831,-1.8789,0.2114,-47.01,204.51,274.82
597,167585442,-2.0342,-1.8682,0.2017,-44.70,199.76,264.39
598,167590441,-1.8813,-1.8496,0.2168,-40.37,194.21,253.41
599,167595442,-1.7109,-1.8491,0.1875,-35.18,188.23,242.01
600,167600441,-1.6191,-1.8257,0.1953,-29.33,181.59,229.88
601,167605442,-1.5083,-1.8096,0.1899,-22.20,174.33,216.89
602,167610441,-1.3975,-1.8101,0.1592,-14.70,167.26,203.48
603,167615442,-1.2764,-1.7837,0.1733,-7.26,160.06,189.33
604,167620441,-1.1587,-1.7827,0.1729,0.12,152.32,175.18
605,167625442,-1.0762,-1.7886,0.1616,7.99,144.82,160.55
606,167630441,-1.0000,-1.7817,0.1758,16.22,137.32,145.91
607,167635442,-0.9326,-1.7661,0.1704,24.57,130.12,131.28
608,167640444,-0.8779,-1.7441,0.1543,32.68,122.99,116.59
609,167645442,-0.8413,-1.7236,0.1621,39.76,116.04,101.95
610,167650442,-0.8223,-1.7065,0.1597,45.73,109.09,87.07
611,167655441,-0.8164,-1.6777,0.1533,50.91,102.38,73.72
612,167660442,-0.8154,-1.6582,0.1465,55.49,95.91,60.37
613,167665443,-0.8184,-1.6177,0.1670,59.45,89.76,47.56
614,167670442,-0.8335,-1.5742,0.1509,63.29,84.39,35.00
615,167675680,-0.8413,-1.5386,0.1489,66.83,78.11,23.54
616,167680442,-0.8438,-1.5010,0.1592,70.43,72.20,12.44
617,167685442,-0.8491,-1.4746,0.1621,73.54,66.46,1.95
618,167690442,-0.8589,-1.4756,0.1738,76.46,60.91,-7.87
619,167695441,-0.8735,-1.6274,0.1885,79.70,55.24,-17.07
620,167700442,-0.8911,-2.0415,0.1455,84.45,49.76,-25.12
621,167705442,-0.8828,-2.2412,0.1279,92.87,44.21,-33.78
622,167710442,-0.7734,-2.1812,0.1509,106.10,39.39,-45.67
623,167715442,-0.6880,-2.0156,0.1953,123.54,36.22,-60.24
624,167720442,-0.7085,-1.8911,0.1919,140.24,33.60,-76.04
625,167725441,-0.7700,-1.8120,0.1689,152.62,30.30,-91.52
626,167730442,-0.8589,-1.7388,0.1533,158.29,26.34,-105.55
627,167735442,-0.8701,-1.6562,0.1616,157.62,21.16,-117.93
628,167740442,-0.8735,-1.5293,0.1709,152.38,15.12,-128.54
629,167745441,-0.8438,-1.3989,0.1924,144.15,8.72,-137.74
630,167750442,-0.8330,-1.2515,0.1636,134.39,2.32,-145.79
631,167755442,-0.7954,-1.1265,0.2104,124.76,-4.27,-152.80
632,167760442,-0.7661,-0.9766,0.2139,113.78,-10.00,-158.84
633,167765441,-0.6875,-0.8799,0.1909,102.20,-15.43,-163.96
634,167770443,-0.6875,-0.8745,0.2349,91.59,-20.30,-168.05
635,167775441,-0.6597,-0.9014,0.2388,82.93,-24.45,-170.98
636,167780442,-0.6216,-0.9067,0.2183,76.95,-28.23,-173.05
637,167785442,-0.5703,-0.9082,0.2354,73.78,-31.59,-174.57
638,167790441,-0.5391,-0.8950,0.2158,73.17,-33.84,-175.67
639,167795442,-0.4678,-0.9116,0.1978,74.45,-36.89,-177.01
640,167800441,-0.4214,-0.9121,0.2021,76.77,-38.54,-177.87
641,167805444,-0.3794,-0.9082,0.1826,81.95,-40.61,-179.39
642,167810441,-0.3555,-0.9072,0.1704,86.16,-41.71,-180.37
643,167815442,-0.3203,-0.9219,0.1431,91.89,-43.11,-181.71
644,167820442,-0.2974,-0.9238,0.1392,97.74,-44.51,-182.80
645,167825442,-0.2808,-0.9287,0.1289,103.17,-45.98,-183.84
646,167830442,-0.2456,-0.9380,0.1157,107.74,-47.68,-184.94
647,167835442,-0.2144,-0.9399,0.1152,111.65,-49.51,-185.79
648,167840441,-0.1826,-0.9390,0.1167,114.33,-51.59,-186.77
649,167845442,-0.1587,-0.9385,0.1055,115.85,-53.66,-187.56
650,167850441,-0.1294,-0.9277,0.1094,116.46,-55.85,-188.41
651,167855442,-0.1060,-0.9043,0.1177,116.40,-57.74,-189.27
652,167860441,-0.0898,-0.8862,0.1108,115.79,-59.82,-190.06
653,167865442,-0.0796,-0.8765,0.1118,114.76,-61.89,-190.73
654,167870441,-0.0796,-0.8613,0.1123,113.41,-64.21,-191.10
655,167875468,-0.0713,-0.8486,0.1079,111.77,-66.46,-191.16
656,167880442,-0.0693,-0.8262,0.1138,110.37,-68.48,-191.16
657,167885444,-0.0649,-0.8101,0.1265,109.09,-70.67,-190.98
658,167890441,-0.0645,-0.8018,0.1245,108.17,-72.80,-190.43
659,167895442,-0.0615,-0.7964,0.1362,107.20,-74.70,-189.82
660,167900441,-0.0586,-0.7949,0.1431,106.83,-76.77,-189.09
661,167905442,-0.0439,-0.7651,0.1318,107.01,-78.66,-188.35
662,167910441,-0.0254,-0.7681,0.1709,107.56,-80.61,-187.62
663,167915442,-0.0137,-0.7583,0.1948,108.23,-82.26,-186.71
664,167920441,0.0122,-0.7559,0.1812,108.84,-83.78,-185.85
665,167925442,0.0298,-0.7583,0.1992,109.15,-85.30,-185.00
666,167930441,0.0518,-0.7480,0.1992,108.90,-86.95,-184.02
667,167935442,0.0620,-0.7412,0.2075,108.60,-88.29,-182.93
668,167940441,0.0791,-0.7427,0.2417,107.80,-89.39,-181.83
669,167945442,0.0864,-0.7314,0.2466,106.22,-90.49,-180.85
670,167950441,0.1035,-0.7261,0.2480,103.72,-91.46,-179.82
671,167955442,0.1035,-0.7197,0.2642,100.85,-92.80,-178.60
672,167960441,0.1353,-0.7178,0.2646,97.56,-93.54,-177.56
673,167965442,0.1597,-0.7163,0.2490,93.78,-94.33,-176.40
674,167970441,0.1680,-0.6978,0.2461,90.06,-95.43,-175.30
675,167975441,0.1968,-0.6855,0.2563,86.40,-96.16,-174.27
676,167980440,0.2231,-0.6821,0.2568,82.80,-96.71,-173.17
677,167985440,0.2285,-0.6787,0.2524,79.21,-97.13,-172.13
678,167990440,0.2368,-0.6670,0.2568,75.37,-97.56,-171.04
679,167995442,0.2686,-0.6938,0.2979,71.40,-97.68,-169.88
680,168000441,0.2944,-0.6787,0.2378,67.80,-97.93,-168.90
681,168005442,0.2910,-0.6709,0.2437,64.51,-98.29,-167.93
682,168010441,0.3330,-0.6401,0.2466,62.01,-98.54,-167.07
683,168015442,0.3486,-0.6509,0.2461,60.55,-98.54,-166.10
684,168020441,0.3525,-0.6626,0.2334,59.57,-98.90,-165.24
685,168025442,0.3623,-0.6650,0.2515,58.54,-98.84,-164.15
686,168030441,0.3853,-0.6567,0.2666,57.44,-98.84,-163.29
687,168035442,0.4102,-0.6445,0.2656,55.85,-98.60,-162.56
688,168040441,0.4248,-0.6382,0.2627,53.90,-98.48,-161.77
689,168045444,0.4395,-0.6250,0.2632,51.40,-98.48,-161.04
690,168050520,0.4517,-0.6128,0.2549,48.84,-98.29,-160.37
691,168055442,0.4580,-0.6011,0.2407,45.79,-98.35,-159.76
692,168060441,0.4502,-0.5952,0.2354,42.87,-98.29,-159.15
693,168065442,0.4482,-0.5850,0.2280,39.94,-98.29,-158.41
694,168070441,0.4517,-0.5776,0.2202,36.83,-98.11,-157.68
695,168075442,0.4526,-0.5688,0.2129,33.90,-97.93,-156.83
696,168080889,0.4629,-0.5581,0.2056,30.49,-97.74,-155.85
697,168085490,0.4585,-0.5527,0.2031,28.23,-97.44,-155.24
698,168090441,0.4614,-0.5405,0.2070,25.61,-97.13,-154.45
699,168095442,0.4761,-0.5396,0.2017,22.93,-96.77,-153.72
700,168100441,0.4883,-0.5381,0.1860,20.37,-96.40,-152.80
701,168105442,0.5039,-0.5308,0.1802,18.05,-96.28,-151.83
702,168110445,0.4810,-0.5767,0.1885,16.40,-95.73,-150.61
703,168115442,0.4985,-0.4766,0.0977,15.73,-95.61,-149.09
704,168120889,0.5088,-0.4683,0.1030,15.30,-95.79,-147.62
705,168125442,0.5063,-0.4790,0.1221,14.88,-95.91,-146.71
706,168130441,0.5181,-0.5015,0.0679,14.39,-96.28,-145.61
707,168135444,0.5288,-0.4834,0.0771,14.09,-96.83,-144.45
708,168140441,0.5249,-0.4678,0.0742,13.78,-97.26,-143.54
709,168145442,0.5244,-0.4458,0.0454,13.66,-97.93,-142.74
710,168150441,0.5303,-0.4365,0.0469,13.78,-98.48,-142.01
711,168155442,0.5366,-0.4302,0.0591,13.84,-98.72,-141.28
712,168160441,0.5371,-0.4209,0.0674,14.09,-98.84,-140.79
713,168165442,0.5132,-0.4312,0.0640,15.06,-98.78,-140.00
714,168170441,0.4922,-0.3721,0.0259,16.52,-98.84,-139.51
715,168175443,0.4102,-0.2466,-0.0513,16.34,-99.76,-140.06
716,168180441,0.4883,-0.3345,0.0352,13.96,-100.43,-140.73
717,168185440,0.5615,-0.3960,-0.0015,11.22,-101.16,-140.24
718,168190442,0.6221,-0.3882,0.0054,8.41,-101.89,-139.21
719,168195748,0.6265,-0.3672,-0.0103,5.43,-102.20,-137.80
720,168200444,0.5972,-0.3433,-0.0308,3.60,-102.62,-137.20
721,168205442,0.5693,-0.3296,-0.0708,1.71,-103.17,-136.52
722,168210442,0.5425,-0.3096,-0.0791,0.30,-103.66,-136.28
723,168215441,0.5239,-0.2822,-0.1016,-1.10,-104.02,-136.22
724,168220442,0.5205,-0.2642,-0.1245,-2.07,-104.45,-136.34
725,168225442,0.5518,-0.2485,-0.1333,-2.93,-104.70,-136.65
726,168230442,0.5376,-0.2417,-0.1162,-3.72,-104.76,-137.13
727,168235441,0.5322,-0.2339,-0.1660,-4.70,-105.24,-137.74
728,168240442,0.5537,-0.2271,-0.1494,-6.04,-105.49,-138.48
729,168245443,0.5986,-0.2231,-0.1372,-7.56,-105.43,-139.27
730,168250442,0.6152,-0.2168,-0.1318,-9.63,-105.12,-140.49
731,168255441,0.6113,-0.2134,-0.1372,-12.01,-104.82,-141.77
732,168260443,0.6123,-0.2041,-0.1504,-14.51,-104.39,-143.35
733,168265442,0.6191,-0.1895,-0.1699,-17.38,-103.84,-145.12
734,168270442,0.6450,-0.1846,-0.1812,-20.61,-103.60,-147.13
735,168275441,0.6641,-0.1724,-0.1689,-23.90,-103.35,-149.15
736,168280442,0.6553,-0.3096,-0.2847,-23.60,-105.55,-149.27
737,168285681,0.6206,-0.1787,-0.4326,-19.82,-110.24,-148.11
738,168290442,0.5972,-0.2939,-0.2783,-15.43,-114.51,-147.13
739,168295442,0.6016,-0.3130,0.1016,-11.10,-116.22,-146.16
740,168300442,0.6221,-0.2695,-0.0493,-6.71,-117.50,-145.73
741,168305441,0.6255,-0.1719,-0.3408,-2.20,-121.04,-145.61
742,168310443,0.5874,-0.0645,-0.2363,2.07,-124.88,-146.10
743,168315442,0.5439,-0.0039,-0.0962,5.43,-127.87,-146.95
744,168320442,0.5273,0.0117,-0.2109,7.50,-131.34,-148.11
745,168325528,0.5103,-0.0059,-0.3291,8.41,-135.79,-149.63
746,168330442,0.4678,-0.0220,-0.1621,7.87,-139.39,-151.77
747,168335442,0.4404,-0.0605,-0.0732,6.04,-141.34,-154.15
748,168340441,0.4346,-0.0723,-0.2109,3.23,-143.96,-156.46
749,168345442,0.4170,-0.0562,-0.2925,0.12,-146.83,-158.60
750,168350441,0.3774,-0.0298,-0.1792,-3.29,-148.90,-160.55
751,168355444,0.3438,-0.0107,-0.1421,-6.65,-150.18,-162.38
752,168360442,0.3330,-0.0176,-0.2842,-9.88,-152.32,-163.96
753,168365442,0.3076,-0.0498,-0.3262,-13.29,-154.63,-165.61
754,168370441,0.2773,-0.0703,-0.2012,-16.59,-156.22,-167.20
755,168375442,0.2588,-0.0728,-0.1763,-19.82,-157.38,-168.78
756,168380441,0.2441,-0.0527,-0.2939,-22.44,-158.66,-170.55
757,168385442,0.2266,0.0005,-0.3101,-24.82,-160.12,-172.87
758,168390442,0.2051,0.0566,-0.2280,-26.83,-161.10,-175.43
759,168395442,0.1958,0.0986,-0.2534,-28.48,-162.07,-178.60
760,168400441,0.1997,0.1118,-0.3696,-30.12,-163.35,-181.83
761,168405442,0.2056,0.1138,-0.3555,-31.65,-164.70,-185.55
762,168410441,0.2139,0.1030,-0.2764,-33.35,-165.55,-189.45
763,168415442,0.2192,0.1006,-0.3164,-35.30,-166.28,-193.41
764,168420441,0.2261,0.1118,-0.3843,-37.50,-167.56,-197.62
765,168425442,0.2163,0.1362,-0.3481,-40.06,-168.54,-202.01
766,168430441,0.2051,0.1587,-0.2891,-43.17,-168.96,-206.46
767,168435442,0.1953,0.1743,-0.3379,-46.59,-169.57,-211.16
768,168440441,0.1855,0.1719,-0.3970,-50.24,-170.61,-215.73
769,168445442,0.1616,0.1650,-0.3447,-54.27,-171.46,-220.24
770,168450441,0.1470,0.1514,-0.3047,-58.72,-171.83,-224.88
771,168455440,0.1353,0.1514,-0.3770,-63.23,-172.38,-229.57
772,168460444,0.1274,0.1660,-0.4380,-67.44,-173.35,-234.09
773,168465442,0.1255,0.1992,-0.4121,-71.40,-174.45,-238.96
774,168470441,0.1216,0.2339,-0.4111,-74.76,-175.30,-243.84
775,168475442,0.1177,0.2666,-0.4673,-77.80,-176.28,-248.96
776,168480783,0.1079,0.2910,-0.4893,-79.76,-177.38,-254.21
777,168485442,0.0913,0.3110,-0.4492,-81.28,-177.93,-259.63
778,168490442,0.0679,0.3335,-0.4492,-82.01,-178.48,-265.37
779,168495443,0.0435,0.3633,-0.5078,-82.26,-178.84,-271.22
780,168500442,0.0078,0.3955,-0.5200,-81.95,-179.15,-277.38
781,168505441,-0.0308,0.4248,-0.4829,-81.22,-179.33,-283.72
782,168510442,-0.0615,0.4512,-0.4780,-80.43,-178.84,-290.18
783,168515442,-0.0898,0.4736,-0.5142,-79.51,-178.60,-296.59
784,168520441,-0.1216,0.4673,-0.4814,-78.84,-177.99,-301.65
785,168525442,-0.1475,0.4663,-0.4570,-78.17,-176.89,-307.99
786,168530444,-0.1953,0.4775,-0.4727,-77.80,-175.30,-315.43
787,168535442,-0.2397,0.4966,-0.5107,-77.74,-174.27,-320.37
788,168540609,-0.2910,0.5215,-0.5044,-78.60,-172.44,-327.93
789,168545705,-0.3271,0.5405,-0.4878,-80.12,-170.43,-334.21
790,168550505,-0.3638,0.5635,-0.4990,-82.26,-168.41,-340.73
791,168555442,-0.3853,0.5752,-0.5249,-84.45,-166.83,-346.10
792,168560442,-0.4131,0.5854,-0.5034,-87.99,-164.33,-352.80
793,168565442,-0.4263,0.5972,-0.4834,-92.07,-161.28,-359.76
794,168570442,-0.4614,0.6187,-0.4951,-97.01,-157.80,-366.71
795,168575442,-0.5205,0.6333,-0.5015,-102.56,-154.27,-373.60
796,168580442,-0.5513,0.6562,-0.4707,-108.78,-150.24,-380.30
797,168585442,-0.5894,0.6748,-0.4678,-115.49,-145.67,-387.20
798,168590445,-0.6338,0.6709,-0.4727,-123.96,-139.39,-394.76
799,168595440,-0.6616,0.6631,-0.4600,-129.88,-135.00,-399.76
800,168600440,-0.7007,0.6519,-0.4419,-137.44,-128.78,-405.55
801,168605440,-0.7534,0.6504,-0.4609,-145.24,-122.13,-411.16
802,168610441,-0.8096,0.6533,-0.4775,-152.93,-115.24,-416.65
803,168615984,-0.9077,0.6489,-0.4878,-162.26,-106.65,-422.68
804,168620443,-0.9536,0.6719,-0.4600,-168.05,-100.55,-426.46
805,168625444,-1.0063,0.6748,-0.4644,-175.06,-92.20,-431.10
806,168630442,-1.0781,0.6636,-0.4790,-181.83,-83.90,-435.43
807,168635442,-1.1523,0.6689,-0.4771,-187.62,-75.06,-439.21
808,168640441,-1.2222,0.6763,-0.4727,-193.11,-65.98,-442.99
809,168645442,-1.2686,0.6821,-0.4746,-197.93,-56.83,-446.28
810,168650441,-1.3081,0.6758,-0.4634,-202.13,-47.56,-449.45
811,168655442,-1.3438,0.7095,-0.4888,-205.85,-38.17,-452.01
812,168660442,-1.3706,0.6812,-0.4092,-208.66,-28.41,-454.57
813,168665444,-1.4043,0.6641,-0.4126,-211.16,-18.29,-456.40
814,168670441,-1.4321,0.6543,-0.4351,-213.41,-8.35,-457.62
815,168675444,-1.4614,0.6392,-0.3994,-215.49,1.77,-458.41
816,168680442,-1.4834,0.6099,-0.3716,-217.44,11.71,-458.66
817,168685442,-1.5039,0.5801,-0.3945,-219.27,21.28,-458.11
818,168690440,-1.5146,0.5513,-0.3979,-221.04,30.79,-457.07
819,168695442,-1.5244,0.5146,-0.3550,-223.05,40.24,-455.30
820,168700442,-1.5391,0.4775,-0.3486,-224.70,49.27,-452.93
821,168705441,-1.5430,0.4399,-0.3535,-226.04,58.17,-449.94
822,168710442,-1.5649,0.4082,-0.3672,-226.59,66.52,-446.34
823,168715441,-1.5947,0.3774,-0.3398,-226.65,74.94,-442.20
824,168720441,-1.6255,0.3496,-0.3423,-225.98,82.32,-437.50
825,168725442,-1.6670,0.3276,-0.3608,-224.39,89.82,-432.32
826,168730441,-1.7183,0.3120,-0.3784,-221.65,97.07,-426.71
827,168735442,-1.7622,0.2964,-0.3662,-217.62,103.66,-420.73
828,168740441,-1.7939,0.2842,-0.3843,-212.07,109.82,-414.39
829,168745442,-1.8213,0.2778,-0.4238,-205.18,115.49,-407.62
830,168750442,-1.8418,0.2778,-0.4131,-196.83,120.37,-401.04
831,168755442,-1.8618,0.2715,-0.4150,-187.13,125.06,-393.96
832,168760441,-1.8765,0.2725,-0.4336,-176.16,129.09,-386.95
833,168765442,-1.8989,0.2627,-0.4556,-164.02,132.44,-379.63
834,168770442,-1.9390,0.2568,-0.4468,-150.91,135.49,-372.26
835,168775442,-1.9946,0.2485,-0.4751,-137.01,138.11,-364.82
836,168780441,-2.0454,0.2319,-0.5122,-122.68,139.76,-357.26
837,168785442,-2.0977,0.2192,-0.5332,-108.41,141.10,-349.57
838,168790442,-2.1616,0.1943,-0.5107,-94.39,142.44,-341.89
839,168795443,-2.2402,0.1792,-0.5288,-81.52,143.60,-334.15
840,168800441,-2.2852,0.2144,-0.5518,-69.33,144.51,-326.65
841,168805442,-2.4038,0.1929,-0.5938,-57.56,145.55,-319.27
842,168810441,-2.5083,0.2036,-0.6084,-46.89,146.04,-312.13
843,168815442,-2.6108,0.2051,-0.6270,-37.01,146.89,-305.24
844,168820441,-2.6758,0.2114,-0.6270,-28.05,147.74,-298.60
845,168825442,-2.7417,0.2256,-0.6304,-19.27,149.09,-292.38
846,168830441,-2.8237,0.2461,-0.6035,-11.10,150.61,-286.65
847,168835442,-2.7109,0.2974,-0.5796,-4.02,152.56,-281.59
848,168840440,-2.7998,0.2852,-0.5576,2.99,155.00,-277.26
849,168845442,-2.8613,0.2949,-0.6230,9.57,157.01,-273.48
850,168850441,-2.8662,0.2534,-0.4893,13.84,159.51,-269.70
851,168855440,-2.8169,0.2217,-0.3765,14.21,163.11,-265.91
852,168860442,-2.7300,0.2021,-0.3271,10.43,167.80,-262.26
853,168865442,-2.6191,0.1826,-0.3013,2.13,172.62,-258.96
854,168870441,-2.4897,0.1621,-0.2095,-10.30,177.87,-255.79
855,168875444,-2.3633,0.1558,-0.1201,-26.40,183.78,-252.80
856,168880441,-2.2319,0.1763,-0.1167,-45.37,189.82,-249.88
857,168885442,-2.1094,0.2002,-0.1489,-65.49,195.30,-247.62
858,168890442,-2.0132,0.2256,-0.1670,-85.79,200.24,-245.30
859,168895440,-1.9263,0.2515,-0.2124,-104.76,203.78,-243.05
860,168900477,-1.8364,0.2686,-0.3145,-121.89,205.98,-240.61
861,168905617,-1.7407,0.2808,-0.4033,-136.65,206.28,-238.05
862,168910442,-1.6401,0.2822,-0.4282,-149.09,205.61,-235.37
863,168915442,-1.5317,0.2876,-0.4722,-159.15,203.90,-232.44
864,168920442,-1.4277,0.2578,-0.4619,-166.95,201.28,-229.27
865,168925441,-1.3223,0.2334,-0.4565,-173.60,198.35,-225.61
866,168930442,-1.2280,0.2061,-0.4263,-179.21,195.30,-221.46
867,168935442,-1.1548,0.1802,-0.4019,-183.72,192.01,-216.83
868,168940442,-1.0962,0.1470,-0.3994,-187.13,188.84,-211.83
869,168945441,-1.0522,0.1133,-0.3896,-190.00,185.55,-206.16
870,168950442,-1.0278,0.0874,-0.3594,-192.01,182.01,-200.18
871,168955442,-0.9976,0.0625,-0.3452,-193.23,178.72,-193.90
872,168960442,-0.9629,0.0479,-0.3389,-193.66,175.24,-187.38
873,168965441,-0.9385,0.0376,-0.3228,-193.35,171.59,-180.85
874,168970443,-0.9062,0.0376,-0.3062,-192.26,168.23,-174.02
875,168975442,-0.8721,0.0366,-0.2969,-190.24,164.57,-167.20
876,168980442,-0.8423,0.0400,-0.2837,-187.38,160.91,-160.61
877,168985441,-0.8081,0.0420,-0.2798,-183.78,157.01,-154.02
878,168990442,-0.7852,0.0410,-0.2681,-179.45,153.11,-147.74
879,168995687,-0.7612,0.0444,-0.2759,-174.21,148.78,-141.59
880,169000442,-0.7363,0.0522,-0.2773,-168.48,144.63,-135.67
881,169005441,-0.7212,0.0576,-0.2700,-162.26,140.00,-130.24
882,169010440,-0.6973,0.0654,-0.2710,-155.43,135.24,-124.94
883,169015441,-0.6758,0.0742,-0.2798,-148.35,130.37,-119.94
884,169020442,-0.6523,0.0840,-0.2852,-140.79,125.37,-115.18
885,169025442,-0.6343,0.0869,-0.2920,-132.87,120.06,-110.67
886,169030442,-0.6255,0.0879,-0.3047,-124.82,114.39,-106.46
887,169035441,-0.6143,0.0903,-0.3242,-116.34,108.48,-102.44
888,169040442,-0.6050,0.0967,-0.3364,-107.74,102.26,-98.72
889,169045442,-0.5952,0.1108,-0.3354,-98.90,95.91,-95.43
890,169050442,-0.5752,0.1216,-0.3306,-90.00,89.57,-92.26
891,169055441,-0.5581,0.1323,-0.3311,-80.85,83.66,-89.21
892,169060442,-0.5439,0.1411,-0.3379,-71.59,76.34,-86.65
893,169065442,-0.5488,0.1460,-0.3389,-62.26,69.45,-84.21
894,169070443,-0.5576,0.1499,-0.3354,-52.68,62.74,-81.95
895,169075441,-0.5645,0.1543,-0.3379,-43.23,56.04,-80.00
896,169080443,-0.5786,0.1558,-0.3276,-33.41,49.39,-78.05
897,169085442,-0.5898,0.1577,-0.3213,-24.27,42.80,-76.34
898,169090442,-0.6055,0.1587,-0.3179,-15.00,36.52,-74.70
899,169095441,-0.6260,0.1611,-0.3135,-6.34,30.49,-73.17
900,169100442,-0.6484,0.1553,-0.3120,2.26,24.70,-71.65
901,169105442,-0.6665,0.1543,-0.3066,10.24,18.90,-70.12
902,169110440,-0.6851,0.1504,-0.2964,17.68,13.29,-68.66
903,169115444,-0.7017,0.1470,-0.2959,24.88,7.62,-67.26
904,169120442,-0.7153,0.1450,-0.2954,31.46,2.32,-65.85
905,169125442,-0.7310,0.1450,-0.2935,37.80,-2.87,-64.45
906,169130441,-0.7529,0.1431,-0.3022,43.54,-7.87,-63.17
907,169135442,-0.7720,0.1465,-0.3052,48.84,-13.17,-61.65
908,169140441,-0.7861,0.1484,-0.2954,53.90,-17.99,-60.43
909,169145442,-0.8052,0.1514,-0.2974,58.60,-22.87,-59.15
910,169150441,-0.8164,0.1514,-0.2988,62.80,-27.68,-57.74
911,169155442,-0.8291,0.1562,-0.3022,67.07,-32.56,-56.46
912,169160441,-0.8359,0.1606,-0.3037,70.55,-37.07,-55.30
913,169165442,-0.8442,0.1631,-0.3018,73.90,-41.46,-54.09
914,169170442,-0.8506,0.1621,-0.3008,76.83,-45.91,-52.74
915,169175442,-0.8564,0.1689,-0.3037,79.57,-50.43,-51.52
916,169180441,-0.8623,0.1714,-0.3081,82.01,-54.70,-50.24
917,169185443,-0.8628,0.1758,-0.2979,84.09,-58.96,-48.84
918,169190440,-0.8560,0.1802,-0.3145,85.98,-63.17,-47.62
919,169195445,-0.8589,0.1758,-0.3037,87.44,-67.01,-46.28
920,169200442,-0.8599,0.1812,-0.3086,88.60,-71.22,-44.82
921,169205441,-0.8604,0.1812,-0.3135,89.15,-75.18,-43.54
922,169210442,-0.8599,0.1748,-0.3164,89.51,-79.09,-41.89
923,169215442,-0.8569,0.1689,-0.3135,89.51,-83.11,-40.18
924,169220441,-0.8521,0.1616,-0.3223,88.84,-87.01,-38.48
925,169225442,-0.8506,0.1538,-0.3218,87.50,-90.85,-36.52
926,169230441,-0.8477,0.1445,-0.3252,85.85,-94.33,-34.51
927,169235440,-0.8403,0.1323,-0.3262,83.54,-97.93,-32.26
928,169240442,-0.8345,0.1265,-0.3271,80.79,-101.59,-30.00
929,169245442,-0.8237,0.1187,-0.3306,77.50,-105.06,-27.50
930,169250441,-0.7998,0.1235,-0.3315,74.09,-108.48,-24.94
931,169255442,-0.8052,0.0923,-0.3408,70.49,-111.65,-22.26
932,169260441,-0.8110,0.0889,-0.3398,66.71,-114.88,-19.39
933,169265442,-0.8125,0.0879,-0.3442,62.38,-118.05,-16.28
934,169270441,-0.8169,0.0811,-0.3496,58.11,-120.85,-13.35
935,169275442,-0.8467,0.0527,-0.3540,53.41,-123.84,-10.00
936,169280441,-0.8506,0.0620,-0.3408,48.41,-126.52,-6.65
937,169285444,-0.8486,0.0649,-0.3491,43.35,-128.90,-3.48
938,169290441,-0.8667,0.0493,-0.3540,38.17,-131.28,-0.24
939,169295442,-0.8691,0.0596,-0.3477,32.74,-133.48,3.11
940,169300441,-0.8691,0.0625,-0.3325,27.26,-135.43,6.22
941,169305442,-0.8667,0.0620,-0.3447,21.83,-137.26,9.39
942,169310442,-0.8633,0.0679,-0.3413,16.65,-138.90,12.68
943,169315442,-0.8706,0.0679,-0.3486,11.83,-140.24,15.55
944,169320441,-0.8784,0.0737,-0.3535,7.01,-141.83,18.48
945,169325442,-0.8872,0.0688,-0.3633,2.74,-143.23,21.52
946,169330442,-0.8940,0.0698,-0.3677,-1.34,-144.57,24.39
947,169335442,-0.9058,0.0698,-0.3691,-5.00,-145.85,27.38
948,169340441,-0.9189,0.0576,-0.3896,-8.29,-147.01,30.30
949,169345442,-0.9346,0.0557,-0.3833,-11.34,-148.29,33.23
950,169350441,-0.9448,0.0542,-0.3887,-13.41,-149.15,35.67
951,169355442,-0.9565,0.0518,-0.3931,-16.16,-150.30,38.96
952,169360441,-0.9609,0.0586,-0.3955,-17.56,-151.10,41.22
953,169365444,-0.9746,0.0562,-0.3936,-18.96,-151.89,44.63
954,169370441,-0.9868,0.0601,-0.3926,-19.70,-152.50,46.89
955,169376027,-1.0024,0.0566,-0.3926,-19.94,-152.99,50.18
956,169380442,-1.0112,0.0645,-0.3906,-19.76,-153.11,52.26
957,169385443,-1.0278,0.0615,-0.3960,-19.15,-153.35,54.94
958,169390441,-1.0405,0.0635,-0.3882,-17.99,-153.11,57.68
959,169395442,-1.0566,0.0630,-0.3887,-16.46,-152.99,60.30
960,169400441,-1.0684,0.0581,-0.3838,-14.51,-152.32,62.87
961,169405442,-1.0825,0.0625,-0.3813,-12.13,-151.83,65.43
962,169410441,-1.0903,0.0649,-0.3916,-9.45,-150.98,68.23
963,169415440,-1.1045,0.0620,-0.3867,-5.85,-149.94,71.46
964,169420442,-1.1138,0.0674,-0.3975,-3.17,-149.15,73.54
965,169425442,-1.1235,0.0640,-0.3911,0.49,-148.11,76.16
966,169430441,-1.1294,0.0532,-0.3970,4.39,-146.83,78.90
967,169435442,-1.1367,0.0498,-0.4028,8.78,-145.55,81.77
968,169440441,-1.1357,0.0488,-0.4048,13.29,-144.27,84.27
969,169445442,-1.1431,0.0547,-0.3984,18.35,-142.68,87.26
970,169450441,-1.1558,0.0527,-0.3970,23.54,-141.10,90.00
971,169455442,-1.1665,0.0532,-0.4062,28.66,-139.51,92.93
972,169460442,-1.1743,0.0479,-0.3989,33.78,-137.87,95.85
973,169465440,-1.1826,0.0459,-0.3892,38.96,-135.98,98.96
974,169470442,-1.1787,0.0444,-0.3965,44.33,-134.27,101.95
975,169475442,-1.1851,0.0391,-0.3970,49.51,-132.01,105.12
976,169480441,-1.1802,0.0376,-0.3892,54.88,-129.88,108.23
977,169485442,-1.1792,0.0366,-0.3857,60.37,-127.87,111.65
978,169490441,-1.1729,0.0332,-0.3823,65.79,-125.49,114.70
979,169495444,-1.1694,0.0342,-0.3838,71.16,-123.29,118.05
980,169500441,-1.1689,0.0317,-0.3745,76.77,-120.85,121.34
981,169505442,-1.1636,0.0283,-0.3691,82.44,-118.41,124.57
982,169510440,-1.1562,0.0264,-0.3618,87.74,-115.67,127.93
983,169515441,-1.1543,0.0269,-0.3584,93.23,-113.05,131.28
984,169520440,-1.1475,0.0278,-0.3516,98.72,-110.43,134.57
985,169525444,-1.1421,0.0249,-0.3496,104.09,-107.68,137.80
986,169530441,-1.1382,0.0205,-0.3452,109.39,-104.88,141.04
987,169535442,-1.1333,0.0205,-0.3369,114.76,-102.01,144.21
988,169540441,-1.1309,0.0205,-0.3345,120.00,-99.09,147.44
989,169545444,-1.1309,0.0122,-0.3306,125.06,-95.98,150.73
990,169550442,-1.1338,0.0083,-0.3271,129.63,-92.80,153.84
991,169555442,-1.1406,0.0054,-0.3325,134.45,-89.70,157.07
992,169560441,-1.1465,0.0034,-0.3330,139.27,-86.71,160.18
993,169565442,-1.1558,-0.0044,-0.3271,143.78,-83.78,163.17
994,169570441,-1.1660,-0.0059,-0.3398,148.11,-80.67,166.10
995,169575442,-1.1797,-0.0103,-0.3364,152.32,-77.68,169.02
996,169580442,-1.1816,-0.0103,-0.3384,156.34,-74.70,171.83
997,169585442,-1.1890,-0.0151,-0.3374,160.12,-71.89,174.51
998,169590441,-1.1885,-0.0156,-0.3389,163.90,-69.02,177.01
999,169595442,-1.1919,-0.0195,-0.3374,167.38,-66.10,179.76
1000,169600441,-1.1890,-0.0215,-0.3398,170.43,-63.05,182.13
1001,169605442,-1.1860,-0.0225,-0.3384,173.60,-60.49,184.33
1002,169610441,-1.1909,-0.0234,-0.3369,176.34,-57.62,186.40
1003,169615442,-1.1953,-0.0244,-0.3354,179.09,-54.70,188.48
1004,169620442,-1.1929,-0.0269,-0.3306,181.34,-51.83,190.30
1005,169625442,-1.1982,-0.0239,-0.3311,183.60,-49.02,191.95
1006,169630443,-1.2007,-0.0264,-0.3325,185.37,-46.16,193.48
1007,169635441,-1.1973,-0.0244,-0.3296,187.20,-43.60,194.70
1008,169640442,-1.1904,-0.0234,-0.3193,188.54,-40.73,195.98
1009,169645442,-1.1895,-0.0283,-0.3154,189.88,-37.99,197.01
1010,169650442,-1.1890,-0.0220,-0.3164,191.10,-35.37,197.74
1011,169655441,-1.1812,-0.0234,-0.3076,192.13,-32.50,198.41
1012,169660442,-1.1733,-0.0205,-0.3091,192.87,-29.94,198.96
1013,169665442,-1.1582,-0.0190,-0.3022,193.78,-27.32,199.27
1014,169670442,-1.1519,-0.0156,-0.2969,194.45,-24.51,199.45
1015,169675441,-1.1382,-0.0161,-0.2969,195.06,-22.07,199.45
1016,169680442,-1.1304,-0.0176,-0.2871,195.79,-19.70,199.39
1017,169685441,-1.1152,-0.0103,-0.2817,196.65,-17.32,199.09
1018,169690440,-1.0957,-0.0044,-0.2773,197.26,-14.88,198.72
1019,169695441,-1.0767,0.0015,-0.2720,198.05,-12.44,198.11
1020,169700442,-1.0562,0.0015,-0.2686,198.90,-10.24,197.50
1021,169705442,-1.0444,0.0029,-0.2715,199.76,-8.23,196.71
1022,169710442,-1.0273,0.0054,-0.2749,200.79,-6.16,195.85
1023,169715441,-1.0015,0.0088,-0.2695,201.95,-4.45,194.88
1024,169720442,-0.9893,0.0264,-0.3096,203.29,-3.17,193.60
1025,169725442,-0.9697,0.0479,-0.3066,204.70,-2.38,192.01
1026,169730442,-0.9517,0.0610,-0.2944,205.98,-2.01,190.06
1027,169735440,-0.9258,0.0649,-0.3008,206.95,-1.95,187.80
1028,169740442,-0.9155,0.0767,-0.3169,207.50,-2.13,185.12
1029,169745440,-0.9116,0.0786,-0.3003,207.56,-2.56,182.13
1030,169750442,-0.9043,0.0815,-0.2803,206.59,-3.05,178.96
1031,169755442,-0.9004,0.0796,-0.2910,204.76,-3.78,175.55
1032,169760442,-0.8901,0.0972,-0.3013,201.95,-4.82,171.77
1033,169765441,-0.8872,0.0928,-0.2812,197.87,-5.67,167.80
1034,169770442,-0.8818,0.0942,-0.2671,192.80,-6.59,163.48
1035,169775443,-0.8696,0.0903,-0.2773,186.52,-7.87,158.84
1036,169780442,-0.8589,0.0981,-0.2617,179.33,-9.15,153.96
1037,169785507,-0.8486,0.0938,-0.2432,171.46,-10.30,149.02
1038,169790442,-0.8452,0.0879,-0.2246,162.56,-11.46,144.15
1039,169795442,-0.8340,0.0835,-0.2188,153.35,-12.74,139.27
1040,169800442,-0.8091,0.0698,-0.2085,144.33,-13.48,134.82
1041,169805441,-0.8032,0.0811,-0.2070,135.73,-14.33,130.49
1042,169810442,-0.7817,0.0879,-0.1895,127.99,-15.24,126.22
1043,169815442,-0.7646,0.0801,-0.2007,120.43,-16.28,122.07
1044,169820443,-0.7632,0.0703,-0.1895,113.54,-17.07,118.35
1045,169825440,-0.7534,0.0640,-0.1890,105.85,-18.17,114.02
1046,169830442,-0.7500,0.0732,-0.1919,101.34,-18.84,111.22
1047,169835442,-0.7397,0.0791,-0.1904,95.91,-19.70,107.74
1048,169840441,-0.7451,0.0894,-0.1753,91.10,-20.61,104.45
1049,169845442,-0.7461,0.0850,-0.1768,86.71,-21.52,101.28
1050,169850441,-0.7393,0.0762,-0.1807,82.62,-22.32,98.11
1051,169855442,-0.7388,0.0752,-0.1797,78.96,-23.35,95.06
1052,169860441,-0.7349,0.0659,-0.1724,75.67,-24.21,92.13
1053,169865440,-0.7305,0.0630,-0.1694,72.99,-25.06,89.33
1054,169870448,-0.7329,0.0635,-0.1748,70.49,-25.91,86.59
1055,169875442,-0.7251,0.0610,-0.1743,68.66,-26.65,84.63
1056,169880441,-0.7344,0.0649,-0.1650,67.32,-27.56,82.13
1057,169885442,-0.7397,0.0684,-0.1685,66.28,-28.29,79.70
1058,169890441,-0.7476,0.0708,-0.1670,65.79,-29.02,77.26
1059,169895442,-0.7529,0.0737,-0.1636,65.43,-29.63,74.88
1060,169900441,-0.7559,0.0732,-0.1602,65.61,-30.30,72.32
1061,169905442,-0.7598,0.0723,-0.1626,65.67,-30.73,69.94
1062,169910441,-0.7598,0.0752,-0.1572,65.85,-31.52,67.32
1063,169915442,-0.7642,0.0796,-0.1611,66.22,-32.07,64.76
1064,169920442,-0.7661,0.0854,-0.1631,66.77,-32.68,62.07
1065,169925440,-0.7764,0.0898,-0.1675,67.38,-33.17,59.45
1066,169930442,-0.7798,0.1167,-0.1577,68.17,-33.78,56.59
1067,169935442,-0.7983,0.0947,-0.1670,69.02,-34.21,53.60
1068,169940441,-0.8091,0.0894,-0.1768,70.06,-34.94,50.61
1069,169945444,-0.8179,0.0947,-0.1758,71.10,-35.30,47.50
1070,169950441,-0.8193,0.1021,-0.1777,72.32,-35.98,44.45
1071,169955442,-0.8179,0.1108,-0.1787,73.60,-36.65,41.22
1072,169960441,-0.8164,0.1201,-0.1880,74.94,-37.26,37.99
1073,169965442,-0.8174,0.1279,-0.1777,76.71,-37.99,34.45
1074,169970441,-0.8159,0.1323,-0.1846,78.35,-38.84,31.04
1075,169975442,-0.8159,0.1304,-0.1831,80.00,-39.70,27.44
1076,169980441,-0.8257,0.1274,-0.1724,81.46,-40.30,23.90
1077,169985442,-0.7935,0.1304,-0.1836,82.93,-41.34,20.37
1078,169990442,-0.7871,0.1455,-0.1685,84.63,-42.32,16.71
1079,169995442,-0.7666,0.1553,-0.1855,86.10,-43.29,13.05
1080,170000442,-0.7529,0.1543,-0.1709,87.44,-44.33,9.27
1081,170005442,-0.7285,0.1650,-0.1587,89.15,-45.37,5.61
1082,170010441,-0.7427,0.1445,-0.1670,90.61,-46.52,1.89
1083,170015442,-0.7788,0.1479,-0.1694,91.83,-47.68,-1.71
1084,170020442,-0.6802,0.1963,-0.1489,93.60,-48.90,-5.49
1085,170025441,-0.7056,0.1138,-0.1924,95.24,-50.37,-9.09
1086,170030442,-0.7183,0.1699,-0.1987,96.52,-52.26,-12.50
1087,170035442,-0.7598,0.1416,-0.1909,97.74,-54.09,-15.98
1088,170040442,-0.7866,0.1523,-0.1738,98.54,-55.79,-19.27
1089,170045441,-0.7856,0.1523,-0.1655,99.09,-57.26,-22.68
1090,170050443,-0.7925,0.1328,-0.1899,99.15,-58.84,-25.85
1091,170055442,-0.7847,0.1313,-0.1821,99.09,-60.61,-28.84
1092,170060442,-0.7837,0.1221,-0.1636,98.35,-62.26,-31.77
1093,170065441,-0.7808,0.1143,-0.1572,97.38,-63.84,-34.33
1094,170070442,-0.7715,0.1104,-0.1680,96.04,-65.55,-37.01
1095,170075442,-0.7754,0.1011,-0.1621,94.21,-67.13,-39.27
1096,170080442,-0.7759,0.1084,-0.1450,92.13,-68.60,-41.71
1097,170085441,-0.7744,0.1035,-0.1553,89.94,-70.12,-44.09
1098,170090442,-0.7827,0.0903,-0.1670,87.01,-71.71,-46.10
1099,170095442,-0.7944,0.0962,-0.1597,84.21,-73.17,-48.23
1100,170100442,-0.8091,0.0981,-0.1597,81.22,-74.76,-50.24
1101,170105441,-0.8364,0.0908,-0.1724,78.17,-76.22,-52.38
1102,170110442,-0.8662,0.0884,-0.1782,74.94,-77.87,-54.45
1103,170115442,-0.8965,0.0884,-0.1807,71.46,-79.45,-56.46
1104,170120443,-0.9297,0.0791,-0.1748,68.05,-81.04,-58.23
1105,170125441,-0.9570,0.0820,-0.1865,64.63,-82.62,-60.18
1106,170130592,-0.9839,0.0762,-0.2036,61.28,-84.15,-62.01
1107,170135442,-1.0088,0.0669,-0.2007,58.23,-85.67,-63.84
1108,170140442,-1.0239,0.0698,-0.2012,54.94,-87.20,-65.49
1109,170145441,-1.0249,0.0684,-0.2134,52.07,-88.84,-67.26
1110,170150442,-1.0337,0.0698,-0.2188,49.33,-90.24,-68.96
1111,170155444,-1.0449,0.0796,-0.2202,46.83,-92.01,-70.67
1112,170160442,-1.0498,0.0850,-0.2227,44.63,-93.60,-72.44
1113,170165441,-1.0610,0.0884,-0.2324,42.87,-95.06,-74.33
1114,170170442,-1.0630,0.0972,-0.2314,41.40,-96.65,-76.10
1115,170175442,-1.0752,0.0991,-0.2290,40.30,-98.11,-78.05
1116,170180442,-1.0859,0.1084,-0.2544,39.51,-99.63,-80.06
1117,170185443,-1.1045,0.1191,-0.2700,38.90,-101.52,-82.07
1118,170190441,-1.1260,0.1318,-0.2666,38.48,-102.93,-84.39
1119,170195443,-1.1484,0.1333,-0.2695,38.17,-104.39,-86.65
1120,170200443,-1.1572,0.1470,-0.2720,37.80,-105.79,-89.09
1121,170205440,-1.1191,0.1714,-0.2588,37.50,-107.07,-91.16
1122,170210441,-1.1240,0.1499,-0.2520,37.50,-108.23,-94.45
1123,170215442,-1.1519,0.1528,-0.2769,37.50,-109.51,-97.01
1124,170220441,-1.1724,0.1606,-0.2720,37.38,-110.49,-99.02
1125,170225442,-1.2075,0.1602,-0.2812,37.07,-111.52,-101.65
1126,170230441,-1.2358,0.1582,-0.2769,36.40,-112.38,-104.15
1127,170235442,-1.2676,0.1533,-0.2729,35.18,-113.29,-107.26
1128,170240442,-1.2842,0.1445,-0.2725,34.09,-113.54,-109.21
1129,170245442,-1.2910,0.1353,-0.2524,32.32,-113.60,-111.46
1130,170250442,-1.2974,0.1323,-0.2476,30.55,-113.35,-113.41
1131,170255441,-1.3052,0.1245,-0.2534,28.78,-112.99,-115.30
1132,170260442,-1.3096,0.1187,-0.2583,26.89,-112.26,-116.95
1133,170265530,-1.3159,0.1138,-0.2549,24.88,-111.46,-118.72
1134,170270443,-1.3188,0.1064,-0.2690,23.48,-110.73,-119.51
1135,170275442,-1.3174,0.1021,-0.2803,21.77,-110.12,-120.61
1136,170280442,-1.3237,0.1084,-0.2876,19.76,-109.45,-121.46
1137,170285440,-1.3076,0.1006,-0.2788,17.87,-108.90,-122.20
1138,170290445,-1.2896,0.1001,-0.2793,15.61,-108.05,-122.93
1139,170295442,-1.2632,0.0972,-0.2754,13.29,-107.32,-123.48
1140,170300443,-1.2310,0.0947,-0.2773,10.55,-106.34,-123.78
1141,170305442,-1.2085,0.0947,-0.2715,8.72,-105.43,-124.02
1142,170310441,-1.1880,0.0889,-0.2749,6.46,-104.39,-124.02
1143,170315442,-1.1685,0.0874,-0.2720,3.78,-103.48,-123.96
1144,170320442,-1.1533,0.0840,-0.2729,0.98,-102.44,-123.72
1145,170325440,-1.1328,0.0806,-0.2866,-2.07,-101.65,-123.23
1146,170330441,-1.1235,0.0698,-0.2891,-5.49,-100.67,-122.87
1147,170335440,-1.1250,0.0645,-0.2808,-9.15,-99.70,-122.20
1148,170340442,-1.1211,0.0464,-0.2720,-13.41,-98.84,-121.22
