# skilleye imu stream v1
# device=xiao_esp32c6 imu=mpu6050 addr=0x68
# rate_hz=200 accel_range_g=16 gyro_range_dps=2000 dlpf_hz=94
# units: accel in g, gyro in deg/s, t_us in microseconds since boot (monotonic)
# no shared clock with the camera -- tap the racket once before each take
# so both recordings share a spike to align on
seq,t_us,ax,ay,az,gx,gy,gz
0,218755442,0.8892,-0.5083,0.2544,61.28,-34.27,-66.95
1,218760718,0.8945,-0.4985,0.2510,63.23,-35.73,-68.17
2,218765442,0.9048,-0.4971,0.2432,65.18,-37.13,-69.45
3,218770441,0.9106,-0.4897,0.2510,67.26,-38.41,-70.49
4,218775443,0.9082,-0.4834,0.2539,69.45,-39.88,-71.52
5,218780442,0.9102,-0.4771,0.2598,71.40,-41.04,-72.32
6,218785441,0.9136,-0.4697,0.2603,73.29,-42.20,-73.23
7,218790442,0.9106,-0.4653,0.2646,74.88,-43.29,-74.02
8,218795440,0.9062,-0.4390,0.2891,75.73,-44.33,-74.76
9,218800442,0.9224,-0.4170,0.2666,76.04,-45.18,-75.67
10,218805441,0.9521,-0.4668,0.2642,76.22,-46.10,-76.52
11,218810442,0.9409,-0.4536,0.3218,75.55,-46.52,-77.26
12,218815440,0.9287,-0.4395,0.2764,74.21,-46.89,-78.05
13,218820442,0.9224,-0.4194,0.2783,71.83,-47.44,-78.90
14,218825441,0.9282,-0.4131,0.2915,68.78,-47.87,-79.88
15,218830442,0.9321,-0.4053,0.2783,65.24,-48.17,-80.85
16,218835440,0.9346,-0.3940,0.2759,61.46,-48.54,-81.83
17,218840444,0.9414,-0.3955,0.2954,57.13,-48.72,-82.87
18,218845441,0.9414,-0.3940,0.2964,52.80,-48.66,-83.84
19,218850444,0.9390,-0.3882,0.2969,48.78,-48.60,-84.70
20,218855440,0.9536,-0.3853,0.3022,44.57,-48.41,-85.49
21,218860442,0.9678,-0.3706,0.3037,40.37,-48.29,-86.28
22,218865441,0.9795,-0.3589,0.3091,36.34,-48.05,-87.26
23,218870441,0.9966,-0.3535,0.3066,32.50,-47.80,-88.29
24,218875444,0.9980,-0.3394,0.3120,28.23,-47.44,-89.39
25,218880443,0.9980,-0.3350,0.3174,25.61,-47.26,-90.12
26,218885441,0.9932,-0.3188,0.3096,22.50,-47.01,-90.98
27,218890444,0.9829,-0.3164,0.3062,19.57,-46.77,-91.71
28,218895440,0.9814,-0.3096,0.2988,17.07,-46.46,-92.50
29,218900442,0.9727,-0.2974,0.3037,14.88,-46.40,-92.99
30,218905441,0.9761,-0.2988,0.2896,13.17,-46.28,-93.60
31,218910444,0.9697,-0.2871,0.2998,11.89,-46.22,-94.02
32,218915440,0.9668,-0.2842,0.2896,11.04,-46.28,-94.51
33,218920442,0.9717,-0.2725,0.2837,10.85,-46.34,-94.63
34,218925441,0.9697,-0.2544,0.2769,10.85,-46.28,-94.94
35,218930770,0.9756,-0.2393,0.2695,11.28,-46.40,-95.12
36,218935443,0.9849,-0.2251,0.2656,11.71,-46.52,-95.55
37,218940441,0.9795,-0.2056,0.2607,12.07,-46.77,-95.91
38,218945442,0.9805,-0.1948,0.2568,12.56,-47.01,-96.28
39,218950442,0.9961,-0.1890,0.2656,13.41,-47.38,-96.71
40,218955442,0.9917,-0.1719,0.2559,13.96,-47.32,-97.13
41,218960441,0.9634,-0.1655,0.2471,14.63,-47.44,-97.62
42,218965442,0.9629,-0.1626,0.2422,15.43,-47.56,-97.74
43,218970441,0.9409,-0.1514,0.2451,16.16,-47.50,-97.99
44,218975487,0.9263,-0.1426,0.2412,16.89,-47.44,-98.29
45,218980443,0.9058,-0.1270,0.2432,17.80,-47.50,-98.41
46,218985442,0.8848,-0.1138,0.2324,18.66,-47.38,-98.72
47,218990441,0.8721,-0.1074,0.2319,19.76,-47.32,-98.90
48,218995442,0.8545,-0.0967,0.2378,20.91,-46.89,-99.02
49,219000441,0.8291,-0.0889,0.2422,22.26,-46.34,-99.15
50,219005442,0.8247,-0.0718,0.2271,23.48,-45.73,-99.27
51,219010442,0.8423,-0.0566,0.2349,24.45,-45.24,-99.27
52,219015442,0.8633,-0.0400,0.2432,25.00,-44.51,-99.15
53,219020441,0.8779,-0.0259,0.2256,25.37,-43.72,-99.15
54,219025442,0.8721,0.0083,0.2222,25.67,-43.05,-99.33
55,219030443,0.8535,0.0234,0.2266,25.24,-42.07,-99.70
56,219035442,0.8477,0.0464,0.2124,24.45,-41.40,-100.00
57,219040442,0.8413,0.0547,0.2002,22.99,-40.55,-100.43
58,219045442,0.8086,0.0654,0.1797,20.91,-40.00,-100.79
59,219050443,0.7847,0.0664,0.1846,18.17,-39.51,-101.28
60,219055442,0.8110,0.0581,0.1753,14.39,-39.21,-101.52
61,219060441,0.8364,0.0703,0.1475,9.70,-38.96,-101.71
62,219065442,0.8306,0.0928,0.1470,4.27,-39.02,-102.13
63,219070442,0.7837,0.1069,0.1597,-1.77,-38.90,-102.68
64,219075442,0.7427,0.1284,0.1836,-8.17,-38.41,-103.60
65,219080440,0.7422,0.1484,0.0952,-14.82,-38.35,-104.94
66,219085443,0.7949,0.1323,0.1284,-21.71,-38.41,-106.34
67,219090442,0.6582,0.0386,0.0796,-28.48,-38.72,-106.95
68,219095441,0.7715,0.1353,0.1338,-34.45,-38.84,-107.62
69,219100444,0.9678,0.1992,0.1245,-39.88,-38.78,-109.45
70,219105440,1.0713,0.1577,0.1079,-45.12,-38.66,-111.52
71,219110442,1.0845,0.1294,0.1558,-50.00,-38.41,-112.87
72,219115441,1.0439,0.1440,0.2051,-54.15,-37.26,-114.21
73,219120445,0.9663,0.1572,0.1953,-58.41,-35.49,-115.73
74,219125440,0.8696,0.1724,0.1821,-62.80,-33.72,-117.44
75,219130442,0.8105,0.1968,0.1738,-67.62,-32.01,-119.33
76,219135441,0.7676,0.2139,0.1582,-72.87,-30.61,-121.65
77,219140442,0.7544,0.2251,0.1245,-78.60,-29.51,-124.15
78,219145440,0.7402,0.2246,0.0991,-84.82,-28.90,-126.59
79,219150440,0.7241,0.2168,0.0820,-91.28,-28.60,-129.02
80,219155442,0.7007,0.2021,0.0693,-97.87,-28.48,-131.34
81,219160442,0.6670,0.2148,0.0342,-104.39,-29.09,-133.17
82,219165442,0.6274,0.2495,-0.0073,-110.73,-30.30,-135.30
83,219170441,0.5952,0.2910,0.0215,-116.28,-31.89,-137.74
84,219175442,0.5698,0.3096,0.0264,-120.91,-33.35,-140.61
85,219180440,0.5542,0.3281,0.0298,-123.72,-34.57,-143.48
86,219185441,0.5371,0.3486,0.0430,-124.39,-35.61,-146.46
87,219190443,0.5029,0.3506,0.0806,-122.32,-36.28,-149.33
88,219195443,0.4663,0.3491,0.1040,-117.13,-36.34,-152.01
89,219200444,0.4102,0.3574,0.1294,-108.78,-35.67,-154.39
90,219205440,0.3521,0.3965,0.1470,-97.07,-34.70,-156.95
91,219210444,0.3179,0.4175,0.1631,-82.13,-33.41,-159.57
92,219215441,0.3125,0.4185,0.1782,-64.02,-32.01,-162.32
93,219220444,0.3164,0.4307,0.1963,-43.11,-30.37,-164.76
94,219225440,0.3110,0.4487,0.2051,-20.18,-29.09,-167.32
95,219230442,0.2910,0.4688,0.1963,4.21,-28.11,-169.88
96,219235441,0.2686,0.4922,0.1802,28.84,-27.38,-172.68
97,219240444,0.2490,0.5171,0.1675,53.11,-27.62,-175.73
98,219245440,0.2383,0.5376,0.1489,75.79,-28.60,-178.90
99,219250442,0.2334,0.5112,0.1362,96.65,-30.06,-181.89
100,219255441,0.2153,0.5396,0.1475,115.18,-31.95,-184.88
101,219260444,0.1909,0.5449,0.1543,131.40,-34.09,-188.05
102,219265440,0.1675,0.5620,0.1768,145.00,-36.16,-191.10
103,219270442,0.1470,0.5845,0.1919,156.16,-38.29,-194.63
104,219275441,0.1240,0.6055,0.1821,164.57,-40.61,-198.35
105,219280441,0.0928,0.6069,0.1841,170.06,-43.17,-202.38
106,219285442,0.0527,0.6157,0.1655,173.11,-46.16,-206.40
107,219290443,0.0088,0.6353,0.1475,173.72,-49.51,-210.61
108,219295442,-0.0264,0.6533,0.1201,172.62,-53.11,-214.94
109,219300442,-0.0366,0.6831,0.1016,170.85,-57.32,-219.70
110,219305442,-0.0327,0.7158,0.0952,168.23,-61.59,-224.88
111,219310441,-0.0322,0.7642,0.0820,165.85,-65.91,-230.37
112,219315442,0.1270,1.5762,0.2046,163.17,-69.51,-237.26
113,219320441,0.1201,1.0693,0.1621,157.50,-72.50,-245.06
114,219325442,0.0952,0.7822,0.1636,153.90,-74.63,-249.21
115,219330442,0.0156,1.0845,0.1631,148.35,-76.65,-256.22
116,219335442,0.0034,1.3291,0.1440,138.41,-78.60,-264.70
117,219340443,-0.0303,1.3574,0.2212,125.37,-80.06,-271.89
118,219345442,-0.2144,1.2837,0.0425,109.02,-81.28,-277.74
119,219350441,-0.4414,1.2300,-0.0967,89.02,-83.17,-282.74
120,219355442,-0.5806,1.2427,-0.1343,65.85,-84.51,-287.20
121,219360442,-0.6533,1.2817,-0.2163,39.82,-85.24,-291.46
122,219365442,-0.6992,1.3086,-0.2739,11.10,-85.12,-295.43
123,219371278,-0.7261,1.3438,-0.2959,-26.16,-83.66,-300.30
124,219375440,-0.7739,1.3701,-0.3149,-51.83,-81.83,-303.90
125,219380444,-0.8101,1.4355,-0.3057,-83.41,-78.41,-308.96
126,219385443,-0.8418,1.4731,-0.2500,-114.70,-73.54,-314.63
127,219390443,-0.8545,1.4673,-0.2734,-145.55,-67.26,-320.30
128,219395442,-0.9053,1.4556,-0.2847,-176.46,-59.82,-325.18
129,219400442,-0.9961,1.4585,-0.2861,-207.99,-51.40,-329.70
130,219405442,-1.0703,1.4648,-0.3223,-240.73,-42.01,-333.84
131,219410443,-1.1030,1.4741,-0.3276,-274.63,-32.38,-337.32
132,219415442,-1.0972,1.5112,-0.3115,-309.02,-21.71,-340.49
133,219420442,-1.1089,1.4702,-0.3223,-343.90,-10.61,-343.29
134,219425442,-1.1416,1.6035,-0.3569,-379.09,0.91,-346.28
135,219430443,-1.0693,1.5933,-0.2632,-415.06,13.11,-349.27
136,219435442,-1.0093,1.6128,-0.3413,-448.78,25.79,-351.28
137,219440442,-1.0132,1.6260,-0.2896,-477.80,38.41,-352.62
138,219445442,-1.0459,1.6587,-0.2207,-501.34,51.77,-352.56
139,219450442,-1.0615,1.6943,-0.2002,-519.33,65.24,-351.89
140,219455442,-1.0518,1.7056,-0.1396,-532.38,79.02,-350.12
141,219460443,-1.0347,1.7280,-0.0869,-541.59,91.71,-347.44
142,219465442,-1.0298,1.7129,-0.0410,-546.52,102.01,-344.63
143,219470579,-1.0273,1.7178,0.0298,-550.91,116.83,-339.76
144,219475442,-0.9976,1.7842,0.0923,-552.20,126.10,-336.28
145,219480441,-0.9829,1.7793,0.1572,-551.89,136.95,-331.71
146,219485443,-0.9565,1.8242,0.2344,-547.74,148.48,-325.85
147,219490444,-0.9697,1.8032,0.2959,-540.24,157.20,-320.79
148,219495441,-0.9897,1.7856,0.3887,-530.30,163.60,-316.28
149,219500444,-0.9912,1.7744,0.5039,-513.17,170.98,-310.12
150,219505441,-0.9956,1.7349,0.6206,-490.98,177.62,-302.99
151,219510442,-0.9893,1.6904,0.7192,-465.55,183.11,-295.49
152,219515441,-0.9771,1.6499,0.8037,-438.41,187.01,-287.56
153,219520442,-0.9419,1.6021,0.9131,-411.59,189.33,-279.63
154,219525441,-0.8608,1.5361,1.0117,-386.34,190.00,-272.01
155,219530444,-0.7954,1.4873,1.1362,-363.84,189.45,-264.82
156,219535441,-0.7515,1.4351,1.2275,-345.00,187.56,-258.48
157,219540445,-0.6904,1.3833,1.3364,-330.24,184.51,-253.23
158,219545441,-0.6113,1.3389,1.4355,-319.45,180.49,-249.09
159,219550442,-0.5518,1.3013,1.5312,-311.95,175.98,-246.16
160,219555441,-0.5288,1.2354,1.6235,-306.83,170.73,-243.96
161,219560442,-0.5396,1.1787,1.7222,-302.38,165.49,-241.95
162,219565441,-0.5698,1.1274,1.8096,-297.74,159.76,-240.12
163,219570442,-0.6357,1.0742,1.8804,-292.56,153.84,-238.23
164,219575441,-0.7158,1.0249,1.9229,-286.10,147.13,-236.40
165,219580484,-0.7593,0.9810,1.9766,-278.05,139.70,-234.51
166,219585444,-0.7720,0.9468,2.0386,-267.20,131.65,-232.80
167,219590441,-0.7715,0.9263,2.1060,-253.11,122.93,-231.34
168,219595686,-0.7837,0.8994,2.1631,-232.68,111.83,-229.94
169,219600442,-0.7988,0.8716,2.1943,-217.44,103.72,-228.96
170,219605441,-0.8027,0.8530,2.2358,-197.87,92.74,-228.11
171,219610442,-0.7930,0.8428,2.2769,-178.54,81.77,-227.50
172,219615441,-0.7812,0.8237,2.3042,-160.61,69.27,-226.95
173,219620442,-0.7739,0.8086,2.3369,-145.18,56.65,-226.71
174,219625441,-0.7891,0.7920,2.3433,-132.50,43.48,-226.40
175,219630442,-0.8130,0.7637,2.3452,-122.80,29.76,-225.73
176,219635441,-0.8120,0.7422,2.3540,-115.30,15.67,-224.63
177,219640442,-0.8276,0.7339,2.3633,-109.94,1.95,-223.17
178,219645441,-0.8550,0.7222,2.3496,-106.65,-11.65,-221.40
179,219650444,-0.8975,0.7124,2.3379,-105.12,-25.37,-219.15
180,219655441,-0.9214,0.7012,2.3110,-104.94,-38.84,-216.59
181,219660444,-0.9565,0.7041,2.2900,-105.61,-51.95,-213.78
182,219665441,-0.9922,0.7139,2.2549,-106.65,-64.94,-210.73
183,219670444,-1.0371,0.7222,2.2339,-107.13,-77.56,-207.62
184,219675441,-1.0869,0.7373,2.2095,-107.13,-89.94,-204.33
185,219680442,-1.1079,0.7427,2.1782,-106.34,-102.20,-200.79
186,219685441,-1.1260,0.7490,2.1523,-105.12,-113.90,-197.13
187,219690441,-1.1235,0.7534,2.1235,-103.66,-125.61,-193.54
188,219695442,-1.1304,0.7539,2.0845,-102.50,-137.01,-189.45
189,219700443,-1.1416,0.7441,2.0522,-101.46,-148.35,-185.18
190,219705442,-1.1421,0.7344,2.0239,-100.37,-159.63,-180.61
191,219710442,-1.1333,0.7271,1.9912,-99.21,-170.61,-175.98
192,219715442,-1.1309,0.7109,1.9561,-98.29,-181.52,-171.28
193,219720442,-1.1201,0.6982,1.9224,-97.68,-192.01,-166.40
194,219725442,-1.1172,0.6724,1.8867,-96.95,-202.38,-161.46
195,219730442,-1.1094,0.6445,1.8423,-96.16,-212.74,-156.40
196,219735442,-1.0947,0.6323,1.8218,-94.94,-222.74,-151.04
197,219740442,-1.0718,0.6138,1.7910,-94.02,-232.80,-146.04
198,219745442,-1.0718,0.6040,1.7480,-93.84,-242.80,-140.79
199,219750442,-1.0527,0.5923,1.7080,-94.27,-253.17,-135.91
200,219755442,-1.0337,0.5972,1.6880,-94.27,-263.23,-131.22
201,219760442,-1.0415,0.5923,1.6729,-93.66,-272.80,-126.83
202,219765442,-1.0542,0.5898,1.6553,-92.68,-282.01,-122.62
203,219770442,-1.0571,0.5791,1.6343,-91.71,-291.16,-118.48
204,219775442,-1.0425,0.5669,1.6157,-91.95,-299.33,-114.82
205,219780442,-1.0303,0.5596,1.5908,-94.15,-307.56,-111.28
206,219785442,-1.0107,0.5503,1.5684,-98.23,-315.30,-108.23
207,219790440,-1.0161,0.5356,1.5332,-104.15,-323.05,-105.37
208,219795440,-1.0254,0.5264,1.4990,-111.10,-330.91,-102.80
209,219800444,-1.0142,0.5122,1.4800,-117.68,-338.29,-100.43
210,219805441,-0.9990,0.5015,1.4639,-123.05,-345.55,-98.11
211,219810748,-0.9946,0.4917,1.4292,-127.07,-352.44,-96.04
212,219815443,-0.9775,0.4751,1.3926,-129.94,-359.27,-94.02
213,219820441,-0.9629,0.4634,1.3643,-131.52,-365.91,-91.77
214,219825443,-0.9580,0.4526,1.3398,-132.32,-372.01,-89.76
215,219830442,-0.9507,0.4365,1.2964,-133.35,-379.70,-87.20
216,219835442,-0.9438,0.4268,1.2734,-134.57,-384.45,-85.49
217,219840443,-0.9604,0.4165,1.2290,-136.95,-390.49,-83.41
218,219845442,-0.9697,0.4160,1.1948,-139.94,-396.22,-81.40
219,219850442,-0.9829,0.4150,1.1572,-143.48,-401.77,-79.51
220,219855442,-1.0068,0.4067,1.1289,-146.52,-407.32,-77.68
221,219860440,-1.0376,0.3931,1.0884,-148.23,-412.56,-75.55
222,219865443,-1.0576,0.3867,1.0562,-148.66,-417.74,-73.17
223,219870497,-1.0537,0.3784,1.0332,-147.68,-422.62,-70.73
224,219875442,-1.0566,0.3789,0.9990,-145.73,-427.44,-67.99
225,219880443,-1.0591,0.3716,0.9590,-142.93,-432.26,-65.12
226,219885442,-1.0591,0.3647,0.9263,-139.51,-437.07,-62.01
227,219890440,-1.0635,0.3691,0.8823,-135.55,-441.52,-58.90
228,219895440,-1.0791,0.3716,0.8389,-130.91,-446.52,-55.67
229,219900648,-1.0747,0.3599,0.8013,-125.91,-451.40,-52.26
230,219905442,-1.0752,0.3501,0.7554,-120.12,-456.10,-48.41
231,219910443,-1.0669,0.3540,0.7319,-113.23,-460.98,-44.33
232,219915442,-1.0654,0.3428,0.6992,-105.37,-465.43,-40.06
233,219920442,-1.0801,0.3398,0.6411,-97.20,-469.70,-35.43
234,219925442,-1.0742,0.3311,0.5698,-88.72,-473.84,-30.37
235,219930442,-1.0601,0.3179,0.5439,-79.21,-478.11,-24.88
236,219935442,-1.0566,0.2988,0.4800,-68.48,-482.13,-18.96
237,219940777,-1.0566,0.2905,0.4297,-56.10,-485.98,-12.50
238,219945442,-1.0518,0.2798,0.3896,-41.83,-489.70,-5.43
239,219950441,-1.0396,0.2607,0.3262,-22.20,-493.78,3.72
240,219955442,-1.0371,0.2500,0.2783,-7.68,-496.40,10.43
241,219960442,-1.0410,0.2261,0.2397,12.20,-499.39,19.57
242,219965442,-1.0420,0.2080,0.1846,33.48,-502.50,29.39
243,219970442,-1.0449,0.1855,0.1426,55.85,-505.37,40.06
244,219975441,-1.0581,0.1631,0.1108,79.02,-507.56,51.40
245,219980444,-1.0737,0.1387,0.0703,102.68,-509.76,63.54
246,219985441,-1.0889,0.1108,0.0352,126.65,-511.89,76.65
247,219990440,-1.0991,0.0830,-0.0020,148.90,-513.60,89.70
248,219995440,-1.1074,0.0474,-0.0298,171.22,-514.82,104.57
249,220000440,-1.1230,0.0142,-0.0522,192.56,-515.67,119.76
250,220005444,-1.1523,-0.0098,-0.0830,212.80,-516.28,135.30
251,220010442,-1.1772,-0.0352,-0.1094,232.07,-516.34,151.52
252,220015441,-1.2183,-0.0391,-0.1411,249.94,-516.10,167.93
253,220020442,-1.2124,-0.0986,-0.1694,266.65,-515.55,185.06
254,220025441,-1.2656,-0.1426,-0.2129,282.26,-514.57,202.87
255,220030442,-1.3271,-0.1777,-0.2300,296.89,-513.11,220.91
256,220035441,-1.3877,-0.1963,-0.2163,310.79,-510.49,239.39
257,220040444,-1.4600,-0.2295,-0.2397,324.39,-506.83,258.17
258,220045441,-1.5347,-0.2769,-0.2466,337.80,-502.20,277.62
259,220050442,-1.6079,-0.2998,-0.2339,350.67,-496.16,297.32
260,220055441,-1.6719,-0.3232,-0.2236,362.93,-488.54,316.83
261,220060442,-1.7168,-0.3462,-0.2144,373.48,-479.33,336.04
262,220065441,-1.7593,-0.3857,-0.1973,382.50,-468.60,355.00
263,220070444,-1.7759,-0.4233,-0.1836,389.33,-456.40,373.11
264,220075441,-1.7627,-0.4507,-0.1772,393.23,-442.50,390.79
265,220080444,-1.7212,-0.4785,-0.1763,393.96,-427.62,407.50
266,220085441,-1.6860,-0.5474,-0.1855,391.77,-411.77,423.29
267,220090442,-1.7173,-0.6157,-0.1816,386.28,-395.06,438.05
268,220095441,-1.7744,-0.6816,-0.2002,377.50,-378.29,451.46
269,220100441,-1.9521,-0.6655,-0.2715,364.94,-361.65,463.35
270,220105444,-1.9048,-0.8169,-0.0674,352.50,-344.21,473.17
271,220110441,-1.8271,-0.8711,-0.1650,338.84,-326.10,482.68
272,220115443,-1.7856,-0.9995,-0.2095,321.95,-308.78,491.77
273,220120443,-1.7144,-1.0415,-0.1606,300.37,-292.62,499.39
274,220125442,-1.6963,-1.0913,-0.1421,273.54,-277.13,504.57
275,220130443,-1.8179,-1.0508,-0.1450,241.04,-262.56,506.52
276,220135442,-1.7734,-1.0210,-0.0234,204.21,-248.41,504.94
277,220140442,-1.6226,-1.0972,-0.0303,164.82,-234.63,500.85
278,220145442,-1.6348,-1.1748,-0.0122,122.44,-222.13,494.88
279,220150442,-1.6553,-1.2422,-0.0420,77.93,-211.77,487.01
280,220155442,-1.7114,-1.2896,-0.0820,32.56,-203.35,477.62
281,220160442,-1.6245,-1.4102,-0.0151,-11.28,-196.46,467.93
282,220165442,-1.6685,-1.4067,-0.0532,-49.76,-190.12,457.44
283,220170440,-1.6611,-1.5342,-0.0205,-80.12,-185.24,446.65
284,220175442,-1.6597,-1.5664,-0.0430,-101.40,-180.79,435.85
285,220180442,-1.6196,-1.6064,-0.0776,-112.68,-176.52,424.82
286,220185442,-1.6108,-1.6431,-0.0566,-114.27,-172.26,414.09
287,220190441,-1.5972,-1.6943,-0.0698,-107.13,-167.87,403.17
288,220195443,-1.5654,-1.7412,-0.0693,-93.72,-162.93,392.44
289,220200441,-1.5566,-1.7681,-0.0586,-76.28,-157.07,381.65
290,220205442,-1.5459,-1.8062,-0.0474,-57.32,-150.67,370.43
291,220210444,-1.5317,-1.8242,-0.0469,-39.76,-143.48,358.84
292,220215442,-1.5557,-1.8564,-0.0332,-26.34,-135.85,346.46
293,220220444,-1.5786,-1.8779,-0.0449,-18.72,-128.41,333.60
294,220225441,-1.6157,-1.9014,-0.0254,-17.68,-120.98,319.94
295,220230442,-1.6582,-1.9194,-0.0112,-22.68,-114.09,305.73
296,220235441,-1.6807,-1.9253,-0.0005,-33.05,-107.68,290.98
297,220240444,-1.6855,-1.9297,0.0142,-47.68,-101.83,275.37
298,220245441,-1.6675,-1.9321,0.0161,-64.88,-96.65,259.27
299,220250442,-1.6338,-1.9277,0.0117,-82.87,-92.20,242.68
300,220255441,-1.6030,-1.9204,0.0225,-99.88,-88.29,225.73
301,220260442,-1.5728,-1.9126,0.0234,-114.33,-85.12,208.84
302,220265441,-1.5425,-1.8970,0.0259,-125.55,-82.26,191.83
303,220270444,-1.5166,-1.8901,0.0166,-132.99,-79.70,175.00
304,220275441,-1.4985,-1.8716,0.0029,-136.89,-77.74,158.48
305,220280444,-1.4868,-1.8511,-0.0127,-137.56,-75.98,142.26
306,220285441,-1.4727,-1.8340,-0.0200,-135.49,-74.45,126.28
307,220290442,-1.4604,-1.8184,-0.0244,-131.46,-73.17,110.79
308,220295441,-1.4497,-1.7954,-0.0420,-126.52,-71.65,95.67
309,220300442,-1.4351,-1.7715,-0.0435,-121.89,-70.61,81.04
310,220305441,-1.4238,-1.7529,-0.0537,-117.93,-69.70,66.16
311,220310444,-1.4146,-1.7280,-0.0503,-115.30,-68.96,51.83
312,220315441,-1.3970,-1.7046,-0.0542,-113.84,-68.17,37.62
313,220320696,-1.3892,-1.6812,-0.0581,-113.35,-67.44,23.60
314,220325442,-1.3896,-1.6567,-0.0557,-113.29,-66.83,9.63
315,220330443,-1.4058,-1.6377,-0.0649,-113.78,-66.59,-3.96
316,220335442,-1.4219,-1.6230,-0.0708,-114.21,-66.46,-17.32
317,220340441,-1.4404,-1.6040,-0.0825,-114.15,-66.52,-30.43
318,220345442,-1.4624,-1.5869,-0.0938,-113.23,-66.40,-42.99
319,220350442,-1.4839,-1.5757,-0.1021,-111.16,-66.71,-55.30
320,220355442,-1.4917,-1.5649,-0.1196,-107.99,-67.38,-67.01
321,220360441,-1.4844,-1.5552,-0.1338,-103.35,-68.29,-78.41
322,220365442,-1.4731,-1.5420,-0.1289,-97.32,-69.21,-89.63
323,220370668,-1.4536,-1.5317,-0.1367,-90.30,-70.37,-100.49
324,220375442,-1.4302,-1.5249,-0.1396,-82.93,-71.52,-111.28
325,220380442,-1.4072,-1.5161,-0.1392,-75.91,-72.68,-121.89
326,220385442,-1.3882,-1.5176,-0.1377,-69.70,-74.15,-132.38
327,220390441,-1.3657,-1.5176,-0.1353,-64.27,-75.49,-142.68
328,220395443,-1.3335,-1.5146,-0.1270,-59.82,-77.01,-152.93
329,220400444,-1.2930,-1.5132,-0.1216,-55.55,-78.29,-163.05
330,220405442,-1.2495,-1.5063,-0.1240,-51.71,-79.63,-173.29
331,220410440,-1.2095,-1.4897,-0.1216,-48.05,-80.85,-183.48
332,220415444,-1.1846,-1.4907,-0.1201,-44.82,-81.89,-193.72
333,220420442,-1.1650,-1.4893,-0.1221,-41.83,-82.74,-203.84
334,220425441,-1.1592,-1.4985,-0.1245,-38.66,-83.60,-213.90
335,220430440,-1.1543,-1.5034,-0.1250,-35.24,-84.39,-223.78
336,220435442,-1.1421,-1.5093,-0.1274,-31.22,-84.51,-233.41
337,220440443,-1.1201,-1.5098,-0.1304,-26.89,-84.51,-243.11
338,220445442,-1.0815,-1.5044,-0.1411,-22.80,-84.51,-252.74
339,220450443,-1.0552,-1.4995,-0.1445,-19.45,-84.33,-262.50
340,220455442,-1.0161,-1.4868,-0.1514,-16.52,-84.45,-272.20
341,220460442,-0.9780,-1.4810,-0.1572,-14.09,-84.39,-282.01
342,220465442,-0.9478,-1.4595,-0.1533,-11.40,-84.57,-291.83
343,220470440,-0.9189,-1.4409,-0.1553,-8.48,-84.82,-301.65
344,220475443,-0.9067,-1.4233,-0.1538,-4.82,-85.06,-311.22
345,220480591,-0.8877,-1.3955,-0.1523,-0.73,-85.61,-320.67
346,220485442,-0.8823,-1.3652,-0.1533,4.21,-86.10,-329.76
347,220490442,-0.8857,-1.3340,-0.1387,10.24,-86.52,-338.60
348,220495441,-0.9043,-1.3042,-0.1157,17.32,-86.83,-346.89
349,220500442,-0.9297,-1.2734,-0.0952,25.12,-87.20,-354.94
350,220505441,-0.9492,-1.2451,-0.0825,32.93,-87.13,-362.38
351,220510440,-0.9590,-1.2065,-0.0669,38.23,-87.26,-368.05
352,220515440,-0.9561,-1.1504,-0.0503,44.94,-87.44,-376.22
353,220520440,-0.9438,-1.1099,-0.0444,48.23,-87.38,-381.77
354,220525444,-0.9287,-1.0425,-0.0273,51.22,-87.74,-389.82
355,220530442,-0.9131,-0.9883,-0.0117,52.50,-88.23,-396.28
356,220535442,-0.8989,-0.9326,-0.0098,53.05,-88.29,-402.80
357,220540443,-0.8892,-0.8794,-0.0010,53.23,-88.60,-409.15
358,220545442,-0.8950,-0.8105,0.0020,53.54,-88.84,-415.24
359,220550442,-0.8940,-0.7598,0.0107,54.09,-89.09,-421.28
360,220555444,-0.9131,-0.7056,0.0264,55.61,-89.33,-426.89
361,220560550,-0.9316,-0.6479,0.0322,57.80,-89.45,-431.95
362,220565442,-0.9453,-0.6069,0.0479,60.12,-89.27,-435.61
363,220570442,-0.9531,-0.5479,0.0757,63.48,-89.39,-439.88
364,220575492,-0.9570,-0.4746,0.0908,67.68,-89.33,-444.76
365,220580440,-0.9629,-0.4292,0.1128,70.67,-89.02,-447.44
366,220585443,-0.9648,-0.3696,0.1270,73.84,-88.41,-450.67
367,220590442,-0.9839,-0.3169,0.1499,75.98,-87.50,-453.60
368,220595442,-0.9824,-0.2710,0.1689,76.59,-86.52,-456.22
369,220600444,-1.0015,-0.2212,0.1870,75.79,-85.18,-458.60
370,220605441,-1.0278,-0.1685,0.1953,73.66,-83.78,-460.55
371,220610444,-1.0498,-0.1201,0.2139,70.37,-82.26,-462.13
372,220615441,-1.0986,-0.0796,0.2236,66.22,-80.12,-463.72
373,220620444,-1.1279,-0.0610,0.2319,61.10,-77.62,-464.70
374,220625441,-1.1777,-0.0371,0.2520,55.06,-74.70,-465.24
375,220630442,-1.2402,-0.0083,0.2510,48.23,-71.22,-465.30
376,220635441,-1.2983,0.0171,0.2505,40.43,-67.62,-465.12
377,220640442,-1.3618,0.0439,0.2573,32.26,-63.78,-464.70
378,220645441,-1.4102,0.0664,0.2451,23.96,-59.57,-464.15
379,220650442,-1.4292,0.1113,0.2197,15.43,-55.37,-463.35
380,220655441,-1.4673,0.1357,0.2046,7.20,-51.22,-462.80
381,220660442,-1.4995,0.1621,0.1860,-0.55,-46.95,-462.01
382,220665441,-1.5220,0.1914,0.1670,-7.99,-42.68,-461.59
383,220670444,-1.5508,0.2119,0.1406,-15.43,-38.72,-461.40
384,220675441,-1.5732,0.2349,0.1138,-22.26,-35.06,-460.98
385,220680442,-1.6152,0.2588,0.0884,-29.02,-31.71,-460.79
386,220685441,-1.6548,0.2725,0.0439,-35.43,-28.54,-460.55
387,220690442,-1.6997,0.2817,0.0156,-41.83,-25.61,-460.37
388,220695441,-1.7432,0.2866,-0.0229,-48.84,-22.99,-460.30
389,220700444,-1.7856,0.2896,-0.0645,-57.07,-20.37,-460.12
390,220705441,-1.8135,0.2964,-0.0923,-67.01,-18.23,-459.94
391,220710440,-1.8530,0.3032,-0.1318,-78.60,-16.04,-459.70
392,220715440,-1.8711,0.2847,-0.1562,-90.67,-13.78,-459.39
393,220720444,-1.8940,0.3486,-0.1895,-103.11,-11.34,-459.70
394,220725441,-1.9331,0.3394,-0.2148,-115.55,-8.60,-460.06
395,220730442,-1.9502,0.3418,-0.2231,-127.13,-5.30,-460.37
396,220735441,-1.9785,0.3540,-0.2402,-138.17,-1.59,-460.91
397,220740444,-2.0249,0.3735,-0.2495,-148.66,2.44,-461.77
398,220745441,-2.0625,0.3916,-0.2798,-158.84,6.83,-462.62
399,220750442,-2.1001,0.4121,-0.3081,-168.29,11.83,-463.72
400,220755441,-2.1309,0.4277,-0.3252,-176.46,17.13,-464.82
401,220760442,-2.1582,0.4497,-0.3364,-183.29,22.93,-466.22
402,220765441,-2.1763,0.4790,-0.3511,-188.29,29.21,-467.87
403,220770442,-2.1885,0.4971,-0.3652,-192.13,35.79,-469.88
404,220775441,-2.1855,0.5063,-0.3843,-194.70,42.50,-471.65
405,220780442,-2.1802,0.5098,-0.4048,-195.18,49.45,-473.41
406,220785441,-2.1929,0.5195,-0.4209,-193.29,56.22,-474.70
407,220790442,-2.2202,0.5449,-0.4409,-189.39,63.41,-475.91
408,220795441,-2.2622,0.5771,-0.4443,-183.60,70.49,-476.95
409,220800444,-2.3101,0.6147,-0.4565,-176.46,77.80,-478.23
410,220805441,-2.3457,0.6401,-0.4648,-167.74,85.24,-478.90
411,220810440,-2.3979,0.6699,-0.4468,-156.89,91.89,-480.00
412,220815440,-2.4546,0.7207,-0.4668,-142.99,99.27,-481.04
413,220820923,-2.5210,0.7769,-0.4819,-124.39,107.68,-482.13
414,220825442,-2.5581,0.7998,-0.5000,-111.52,112.99,-483.17
415,220830443,-2.5923,0.8374,-0.5479,-94.63,119.02,-484.39
416,220835442,-2.6436,0.8735,-0.5762,-75.79,123.96,-485.55
417,220840441,-2.7114,0.9150,-0.6162,-55.37,128.35,-486.59
418,220845442,-2.7822,0.9414,-0.6313,-34.45,131.52,-487.68
419,220850442,-2.8491,0.9663,-0.6733,-13.66,133.90,-488.66
420,220855442,-2.9297,1.0161,-0.7134,7.50,135.43,-489.21
421,220860441,-2.9985,1.0259,-0.7822,28.54,136.10,-489.51
422,220865442,-3.0918,1.0664,-0.7891,48.41,135.85,-489.39
423,220870442,-3.1792,1.1123,-0.8213,66.28,134.82,-489.27
424,220875442,-3.2549,1.1514,-0.8506,82.87,133.48,-489.02
425,220880441,-3.3184,1.1953,-0.8696,98.54,132.20,-488.66
426,220885442,-3.3721,1.2383,-0.8818,111.95,131.28,-488.35
427,220890492,-3.4243,1.2793,-0.8877,123.54,130.73,-487.87
428,220895442,-3.4912,1.3271,-0.9023,132.20,130.98,-487.44
429,220900443,-3.5615,1.3662,-0.9219,139.21,131.71,-486.83
430,220905442,-3.6240,1.3994,-0.9199,143.35,133.17,-486.16
431,220910443,-3.6821,1.4673,-0.9507,144.21,135.12,-485.85
432,220915442,-3.7290,1.5127,-0.9771,142.50,138.35,-485.67
433,220920441,-3.7871,1.5532,-0.9922,137.93,142.56,-485.30
434,220925443,-3.8330,1.5825,-0.9810,129.39,147.68,-485.12
435,220930529,-3.8784,1.6216,-1.0112,118.72,154.09,-485.00
436,220935441,-3.8354,1.7129,-1.0293,105.67,161.34,-484.33
437,220940442,-4.0972,1.6616,-1.0532,87.74,169.70,-484.45
438,220945441,-4.2261,1.7266,-1.0220,65.06,179.15,-484.15
439,220950442,-4.3267,1.8091,-1.0552,41.40,190.30,-483.11
440,220955441,-4.3789,1.8105,-1.0664,16.83,202.56,-481.28
441,220960442,-4.4209,1.8291,-1.0283,-9.27,215.91,-479.27
442,220965441,-4.4492,1.8765,-1.0322,-36.65,230.55,-476.95
443,220970442,-4.4556,1.9409,-1.0107,-63.78,246.52,-474.33
444,220975441,-4.4604,1.9868,-0.9575,-89.82,263.84,-471.10
445,220980442,-4.4883,2.0132,-0.9043,-114.39,282.20,-467.26
446,220985441,-4.5449,2.0298,-0.8794,-138.17,301.52,-462.38
447,220990444,-4.5952,2.0508,-0.8330,-160.43,321.22,-456.40
448,220995441,-4.6675,2.0571,-0.7974,-180.98,341.04,-448.90
449,221000444,-4.7378,2.0420,-0.7593,-201.46,360.18,-440.06
450,221005441,-4.7876,2.0073,-0.7319,-222.13,378.96,-429.76
451,221010442,-4.8188,1.9878,-0.7075,-242.07,396.83,-417.62
452,221015441,-4.8486,1.9409,-0.6733,-261.16,413.84,-403.84
453,221020441,-4.8760,1.8970,-0.6445,-279.63,429.51,-388.17
454,221025440,-4.9316,1.8340,-0.6016,-301.28,446.83,-367.26
455,221030442,-4.9546,1.8003,-0.5898,-315.55,457.32,-352.20
456,221035441,-4.9683,1.7383,-0.5669,-333.78,468.90,-332.13
457,221040444,-4.9570,1.6860,-0.5244,-352.74,478.84,-311.10
458,221045441,-4.9165,1.6431,-0.4917,-372.44,487.56,-289.02
459,221050442,-4.8506,1.5972,-0.4546,-392.44,494.70,-266.46
460,221055441,-4.7896,1.5410,-0.4180,-413.17,500.37,-243.60
461,221060442,-4.7290,1.4863,-0.3838,-434.51,504.51,-220.37
462,221065441,-4.6797,1.4351,-0.3364,-455.91,507.13,-196.83
463,221070442,-4.6196,1.3950,-0.2812,-476.83,508.66,-173.11
464,221075441,-4.5503,1.3374,-0.2090,-495.98,509.15,-149.21
465,221080442,-4.4531,1.2754,-0.1313,-512.74,509.21,-125.12
466,221085441,-4.3413,1.1982,-0.0776,-526.95,508.66,-100.67
467,221090442,-4.2183,1.1211,-0.0376,-538.54,506.83,-76.04
468,221095441,-4.0952,1.0415,-0.0015,-548.23,503.66,-51.22
469,221100442,-3.9648,0.9668,0.0093,-556.77,498.90,-26.34
470,221105441,-3.8384,0.8965,0.0181,-564.82,492.38,-1.59
471,221110442,-3.7329,0.8291,0.0161,-572.68,484.27,22.80
472,221115441,-3.6265,0.7842,0.0166,-580.55,474.21,46.89
473,221120444,-3.5137,0.7446,0.0254,-588.23,462.93,70.12
474,221125442,-3.4033,0.7026,0.0278,-595.49,450.12,92.44
475,221130440,-3.3198,0.6655,0.0273,-601.65,436.10,113.96
476,221135444,-3.2280,0.6294,0.0356,-606.77,421.10,134.57
477,221140442,-3.1489,0.6030,0.0269,-611.22,405.24,153.84
478,221145442,-3.0864,0.5786,0.0249,-614.76,388.60,172.01
479,221150441,-3.0376,0.5557,0.0156,-617.38,371.04,189.02
480,221155442,-3.0015,0.5312,-0.0039,-617.68,352.44,204.82
481,221160441,-2.9634,0.5181,-0.0029,-615.49,333.41,219.57
482,221165441,-2.9199,0.5107,-0.0083,-610.30,313.66,233.05
483,221170567,-2.8643,0.4951,-0.0112,-602.93,294.09,245.37
484,221175442,-2.8267,0.5107,-0.0098,-593.11,274.45,256.04
485,221180441,-2.8540,0.5347,-0.0132,-580.67,254.76,265.18
486,221185442,-2.9409,0.5547,0.0405,-565.37,235.85,272.74
487,221190440,-2.9907,0.5557,0.0410,-546.65,217.80,278.78
488,221195444,-2.9336,0.5405,0.0469,-523.90,200.55,284.02
489,221200442,-3.1104,0.4678,0.0986,-497.32,184.76,289.09
490,221205442,-3.3926,0.4395,0.0430,-466.34,170.43,294.51
491,221210441,-3.6069,0.4092,0.1167,-431.77,157.26,300.49
492,221215442,-3.6841,0.3105,0.0625,-395.06,145.49,306.59
493,221220441,-3.7690,0.3608,0.0928,-356.95,134.94,312.32
494,221225440,-3.7705,0.3691,0.1680,-317.62,126.59,316.59
495,221230440,-3.5518,0.2983,0.1157,-277.56,119.21,320.12
496,221235442,-3.1680,0.2686,0.1094,-239.02,112.38,322.93
497,221240441,-2.8813,0.2944,0.1328,-203.84,106.46,324.02
498,221245442,-2.7090,0.3101,0.1357,-171.77,101.04,323.35
499,221250443,-2.5601,0.3032,0.1460,-142.56,96.89,321.16
500,221255442,-2.3945,0.2778,0.1699,-115.55,93.35,318.05
501,221260441,-2.1929,0.2471,0.1797,-90.85,90.67,314.63
502,221265442,-2.0010,0.2021,0.1782,-68.60,88.84,311.04
503,221270443,-1.8457,0.1641,0.1572,-48.90,85.79,307.20
504,221275442,-1.6787,0.1597,0.1538,-32.07,85.12,303.23
505,221280441,-1.4785,0.1475,0.1450,-18.72,84.70,298.66
506,221285442,-1.2935,0.0776,0.0747,-9.45,81.22,293.90
507,221290443,-1.1621,0.0234,-0.0576,-4.82,76.52,289.15
508,221295442,-1.1421,0.1279,0.0903,-2.62,71.16,283.48
509,221300441,-1.0952,0.1123,0.1011,0.30,67.20,276.95
510,221305442,-0.9663,0.0508,0.1821,5.18,64.33,270.49
511,221310442,-0.7837,-0.0376,0.1758,12.44,61.77,264.70
512,221315442,-0.6177,-0.0566,0.1816,22.32,59.51,259.57
513,221320441,-0.4878,-0.0376,0.2700,33.05,58.11,254.09
514,221325442,-0.3516,-0.0449,0.2383,43.78,57.32,247.93
515,221330440,-0.2271,-0.0576,0.2847,53.84,56.65,241.52
516,221335444,-0.1694,-0.1040,0.2417,62.93,55.91,234.45
517,221340442,-0.1011,-0.1001,0.3325,70.98,55.30,227.32
518,221345441,-0.0483,-0.0854,0.3086,77.32,54.76,219.63
519,221350442,-0.0503,-0.1152,0.3242,81.46,53.84,211.40
520,221355441,-0.0679,-0.1455,0.3223,82.62,52.44,203.17
521,221360442,-0.0928,-0.1499,0.3198,80.79,50.43,194.70
522,221365442,-0.1035,-0.1680,0.3291,76.10,47.87,185.98
523,221370442,-0.1006,-0.1812,0.3418,68.66,44.88,177.01
524,221375441,-0.0723,-0.1865,0.3398,59.27,41.10,167.99
525,221380442,-0.0249,-0.2026,0.3579,48.72,37.07,158.78
526,221385441,0.0366,-0.2163,0.3745,37.74,32.80,149.45
527,221390442,0.0879,-0.2065,0.3994,27.50,28.48,140.24
528,221395441,0.1436,-0.2070,0.4414,18.05,23.96,130.55
529,221400440,0.2021,-0.1963,0.4771,10.00,19.88,121.04
530,221405777,0.2603,-0.1807,0.5122,3.05,16.34,111.28
531,221410442,0.2886,-0.1782,0.5312,-3.17,12.87,101.34
532,221415442,0.2705,-0.1807,0.5190,-9.09,9.15,91.10
533,221420778,0.2246,-0.1567,0.5630,-14.21,5.49,82.07
534,221425442,0.2158,-0.1450,0.5327,-18.96,1.71,72.38
535,221430440,0.2026,-0.1470,0.5195,-23.72,-2.62,63.05
536,221435440,0.1797,-0.1543,0.4980,-28.90,-7.32,53.90
537,221440442,0.1602,-0.1284,0.4893,-33.60,-12.13,45.18
538,221445442,0.1592,-0.1157,0.4995,-36.65,-16.95,36.59
539,221450442,0.1943,-0.0981,0.4785,-37.56,-21.83,28.23
540,221455441,0.2227,-0.0786,0.4897,-36.40,-26.28,20.00
541,221460442,0.2148,-0.0396,0.4878,-32.93,-30.67,11.95
542,221465441,0.2017,-0.0029,0.4834,-26.95,-34.45,4.02
543,221470442,0.1865,0.0171,0.4839,-18.96,-38.17,-3.66
544,221475441,0.1562,0.0557,0.4746,-8.96,-41.59,-11.10
545,221480442,0.1206,0.0835,0.4761,2.50,-44.70,-18.35
546,221485441,0.0981,0.1147,0.4980,14.63,-47.32,-25.37
547,221490442,0.0708,0.1431,0.5195,26.89,-49.63,-32.26
548,221495442,0.0337,0.1763,0.5137,38.48,-51.52,-38.96
549,221500442,0.0005,0.1938,0.5151,48.78,-53.41,-45.49
550,221505441,-0.0493,0.2036,0.5254,57.20,-55.12,-51.77
551,221510444,-0.0811,0.2383,0.5181,63.90,-56.89,-57.99
552,221515441,-0.1201,0.2539,0.5371,68.66,-58.35,-64.09
553,221520442,-0.1646,0.2578,0.5273,71.89,-60.00,-69.70
554,221525441,-0.1812,0.3018,0.5283,72.93,-61.59,-75.49
555,221530441,-0.2031,0.3140,0.5273,72.38,-63.17,-81.10
556,221535440,-0.2163,0.3350,0.5366,70.12,-64.57,-86.77
557,221540444,-0.2520,0.3457,0.5186,66.40,-66.16,-92.26
558,221545441,-0.2715,0.3599,0.5146,61.22,-67.50,-97.74
559,221550442,-0.2827,0.3770,0.5117,55.06,-69.02,-103.23
560,221555441,-0.3003,0.3931,0.4971,47.68,-70.49,-108.66
561,221560442,-0.3267,0.4185,0.4917,39.63,-71.77,-113.96
562,221565441,-0.3496,0.4351,0.4766,31.10,-73.11,-119.21
563,221570442,-0.3667,0.4443,0.4609,22.13,-74.70,-124.27
564,221575441,-0.3721,0.4556,0.4492,13.11,-75.98,-129.39
565,221580442,-0.3828,0.4688,0.4404,3.96,-77.44,-134.33
566,221585441,-0.4102,0.4839,0.4360,-4.94,-78.72,-139.15
567,221590442,-0.4316,0.5000,0.4121,-13.29,-79.82,-143.78
568,221595441,-0.4502,0.5098,0.3975,-21.10,-81.16,-148.29
569,221600444,-0.4619,0.5229,0.3853,-27.93,-82.50,-152.50
570,221605442,-0.4712,0.5352,0.3706,-33.96,-83.84,-156.52
571,221610440,-0.4800,0.5527,0.3594,-38.66,-84.76,-160.37
572,221615442,-0.4902,0.5757,0.3442,-42.32,-85.85,-164.02
573,221620442,-0.5005,0.5918,0.3262,-45.12,-87.07,-167.62
574,221625442,-0.5186,0.6074,0.3057,-46.83,-88.17,-171.22
575,221630440,-0.5312,0.6260,0.2886,-47.38,-89.15,-173.84
576,221635440,-0.5459,0.6455,0.2700,-47.20,-90.49,-177.01
577,221640440,-0.5674,0.6597,0.2490,-45.91,-92.13,-180.06
578,221645443,-0.5854,0.6807,0.2290,-43.11,-94.21,-183.66
579,221650442,-0.6025,0.6953,0.2100,-40.37,-95.24,-185.91
580,221655442,-0.6138,0.7114,0.1978,-36.22,-97.13,-188.35
581,221660441,-0.6270,0.7266,0.1812,-31.16,-99.15,-190.85
582,221665442,-0.6343,0.7344,0.1680,-25.18,-101.16,-193.11
583,221670442,-0.6548,0.7471,0.1387,-18.84,-102.99,-195.18
584,221675442,-0.6631,0.7642,0.1172,-12.20,-105.12,-197.07
585,221680441,-0.6763,0.7705,0.1060,-5.30,-107.44,-198.78
586,221685442,-0.6958,0.7827,0.0874,1.40,-109.57,-200.24
587,221690443,-0.7104,0.7925,0.0674,8.29,-111.89,-201.52
588,221695442,-0.7363,0.8027,0.0542,14.88,-114.33,-202.68
589,221700440,-0.7544,0.8125,0.0342,21.46,-116.59,-203.54
590,221705441,-0.7627,0.8242,0.0210,27.99,-118.90,-204.57
591,221710442,-0.7754,0.8384,0.0107,34.45,-121.22,-205.24
592,221715441,-0.7734,0.8604,-0.0078,40.61,-123.66,-205.98
593,221720444,-0.7935,0.8745,-0.0259,46.59,-125.98,-206.71
594,221725440,-0.8115,0.8931,-0.0312,52.44,-128.17,-207.26
595,221730442,-0.8262,0.9072,-0.0591,57.93,-130.49,-207.80
596,221735441,-0.8472,0.9214,-0.0654,62.87,-132.62,-208.29
597,221740440,-0.8677,0.9375,-0.0801,67.56,-134.88,-208.29
598,221745442,-0.8901,0.9517,-0.0923,71.46,-137.20,-208.35
599,221750444,-0.9180,0.9619,-0.1094,74.82,-139.45,-208.23
600,221755441,-0.9409,0.9736,-0.1323,77.38,-141.71,-207.87
601,221760442,-0.9487,0.9805,-0.1465,79.51,-143.78,-207.44
602,221765441,-0.9614,0.9868,-0.1587,81.04,-146.16,-206.59
603,221770442,-0.9702,0.9917,-0.1743,82.20,-148.17,-205.67
604,221775441,-0.9912,0.9937,-0.1870,83.05,-150.12,-204.70
605,221780442,-1.0034,1.0078,-0.2031,83.54,-152.20,-203.60
606,221785441,-1.0225,1.0254,-0.2261,83.90,-154.21,-202.44
607,221790442,-1.0332,1.0430,-0.2461,84.27,-155.91,-201.22
608,221795441,-1.0449,1.0488,-0.2632,84.63,-157.74,-199.88
609,221800444,-1.0527,1.0566,-0.2710,85.06,-159.27,-198.41
610,221805441,-1.0576,1.0664,-0.2856,85.49,-160.55,-196.71
611,221810442,-1.0601,1.0698,-0.2954,86.04,-161.34,-194.82
612,221815441,-1.0713,1.0815,-0.3130,86.16,-162.01,-192.87
613,221820444,-1.0762,1.0898,-0.3257,85.91,-162.68,-190.67
614,221825441,-1.0884,1.0972,-0.3457,85.18,-162.93,-188.35
615,221830442,-1.0908,1.1035,-0.3521,84.09,-163.23,-185.85
616,221835441,-1.1055,1.1108,-0.3672,82.93,-163.48,-183.23
617,221840441,-1.1099,1.1172,-0.3848,82.01,-163.35,-180.49
618,221845520,-1.1235,1.1226,-0.3975,81.10,-163.48,-177.62
619,221850442,-1.1221,1.1240,-0.4067,80.55,-163.41,-174.63
620,221855441,-1.1260,1.1226,-0.4141,80.24,-163.29,-171.65
621,221860442,-1.1255,1.1182,-0.4150,80.61,-163.11,-168.41
622,221865442,-1.1211,1.1094,-0.4243,81.40,-162.93,-165.24
623,221870442,-1.1138,1.1123,-0.4292,82.80,-162.74,-162.07
624,221875441,-1.1104,1.1084,-0.4307,84.63,-162.68,-158.84
625,221880442,-1.1128,1.0986,-0.4370,86.77,-162.68,-155.49
626,221885441,-1.1113,1.0947,-0.4443,89.51,-162.68,-152.26
627,221890442,-1.1182,1.0874,-0.4443,92.56,-162.68,-149.02
628,221895441,-1.1152,1.0840,-0.4399,96.10,-162.80,-145.85
629,221900442,-1.1113,1.0747,-0.4497,100.37,-163.05,-142.50
630,221905441,-1.1108,1.0635,-0.4370,104.88,-162.99,-139.33
631,221910442,-1.1118,1.0581,-0.4482,109.88,-163.23,-135.98
632,221915441,-1.1167,1.0479,-0.4541,114.94,-163.29,-132.68
633,221920442,-1.1152,1.0366,-0.4595,120.43,-163.60,-129.45
634,221925441,-1.1138,1.0293,-0.4546,126.34,-163.84,-126.04
635,221930442,-1.1079,1.0161,-0.4526,130.85,-164.15,-122.68
636,221935441,-1.1113,1.0063,-0.4526,136.89,-164.57,-119.33
637,221940442,-1.0991,1.0020,-0.4468,142.44,-164.94,-115.91
638,221945442,-1.1016,0.9771,-0.4556,148.05,-165.37,-112.62
639,221950442,-1.1050,0.9624,-0.4517,153.23,-165.85,-109.33
640,221955442,-1.0986,0.9414,-0.4600,158.35,-166.46,-105.73
641,221960442,-1.0825,0.9277,-0.4531,163.54,-167.26,-102.26
642,221965441,-1.0796,0.9097,-0.4541,168.17,-167.80,-98.78
643,221970442,-1.0654,0.8916,-0.4443,173.05,-168.54,-95.18
644,221975441,-1.0571,0.8730,-0.4463,177.26,-169.02,-91.59
645,221980442,-1.0518,0.8564,-0.4399,181.10,-169.51,-87.99
646,221985442,-1.0508,0.8340,-0.4399,184.63,-170.18,-84.33
647,221990442,-1.0454,0.8198,-0.4468,187.99,-170.67,-80.79
648,221995441,-1.0483,0.7979,-0.4448,190.79,-171.40,-77.13
649,222000442,-1.0503,0.7749,-0.4429,193.60,-172.01,-73.35
650,222005441,-1.0347,0.7593,-0.4424,196.34,-172.80,-69.82
651,222010442,-1.0327,0.7441,-0.4360,199.15,-173.23,-66.10
652,222015441,-1.0190,0.7344,-0.4355,201.89,-173.90,-62.56
653,222020929,-1.0117,0.7134,-0.4346,204.94,-174.51,-58.17
654,222025443,-1.0117,0.7056,-0.4258,206.95,-174.88,-55.37
655,222030442,-1.0146,0.6885,-0.4355,209.39,-175.24,-51.71
656,222035442,-1.0117,0.6768,-0.4458,211.89,-175.79,-48.23
657,222040441,-1.0078,0.6597,-0.4448,214.33,-176.46,-44.82
658,222045442,-1.0059,0.6504,-0.4463,216.77,-177.01,-41.46
659,222050441,-0.9985,0.6416,-0.4497,219.09,-177.56,-38.05
660,222055444,-0.9985,0.6294,-0.4448,221.46,-177.93,-34.76
661,222060442,-0.9946,0.6167,-0.4482,223.84,-178.29,-31.52
662,222065442,-0.9937,0.6084,-0.4438,226.04,-178.48,-28.29
663,222070441,-0.9961,0.6011,-0.4551,228.54,-178.78,-25.30
664,222075442,-1.0044,0.5903,-0.4551,230.79,-178.90,-22.20
665,222080442,-1.0068,0.5796,-0.4590,233.23,-179.02,-19.21
666,222085442,-1.0103,0.5742,-0.4629,235.49,-179.21,-16.34
667,222090441,-1.0132,0.5620,-0.4644,238.05,-179.21,-13.35
668,222095442,-1.0127,0.5562,-0.4717,240.61,-179.21,-10.61
669,222100442,-1.0107,0.5469,-0.4678,243.17,-179.09,-7.93
670,222105442,-1.0010,0.5439,-0.4673,245.55,-178.72,-5.30
671,222110441,-1.0039,0.5352,-0.4629,247.99,-178.48,-2.74
672,222115442,-1.0010,0.5337,-0.4663,250.37,-178.11,-0.49
673,222120443,-1.0063,0.5269,-0.4678,252.50,-177.62,1.95
674,222125442,-1.0156,0.5195,-0.4722,254.63,-176.95,4.21
675,222130441,-1.0146,0.5073,-0.4731,256.52,-176.34,6.52
676,222135442,-1.0195,0.5010,-0.4795,258.23,-175.49,8.66
677,222140442,-1.0200,0.4897,-0.4761,259.33,-174.76,10.79
678,222145442,-1.0151,0.4849,-0.4824,260.30,-174.15,12.93
679,222150440,-1.0088,0.4741,-0.4829,260.61,-173.29,14.82
680,222155442,-0.9985,0.4688,-0.4814,260.37,-172.32,16.83
681,222160443,-0.9829,0.4556,-0.4780,259.63,-171.28,18.60
682,222165442,-0.9731,0.4492,-0.4800,258.66,-170.18,20.24
683,222170441,-0.9580,0.4419,-0.4746,257.07,-168.84,21.52
684,222175442,-0.9443,0.4331,-0.4697,255.12,-167.38,22.93
685,222180443,-0.9390,0.4238,-0.4658,252.93,-165.67,24.02
686,222185442,-0.9434,0.4116,-0.4561,250.43,-164.15,25.12
687,222190441,-0.9390,0.4033,-0.4536,247.74,-162.38,26.16
688,222195443,-0.9346,0.3936,-0.4556,244.88,-160.43,27.01
689,222200443,-0.9375,0.3867,-0.4517,241.71,-158.60,27.87
690,222205442,-0.9351,0.3760,-0.4507,238.66,-156.59,28.54
691,222210588,-0.9282,0.3687,-0.4385,235.73,-154.57,29.33
692,222215442,-0.9287,0.3643,-0.4355,232.74,-152.56,29.82
693,222220442,-0.9243,0.3535,-0.4326,229.94,-150.43,30.49
694,222225442,-0.9194,0.3423,-0.4199,227.50,-148.23,31.28
695,222230443,-0.9136,0.3408,-0.4170,225.24,-146.10,31.59
696,222235442,-0.9126,0.3359,-0.4067,223.35,-143.90,32.01
697,222240442,-0.9102,0.3281,-0.3970,221.83,-141.83,32.38
698,222245442,-0.9072,0.3184,-0.3896,220.67,-139.57,32.87
699,222250441,-0.9019,0.3140,-0.3809,220.06,-137.32,33.23
700,222255543,-0.9023,0.3086,-0.3701,219.76,-135.12,33.54
701,222260444,-0.8984,0.3018,-0.3696,219.57,-132.93,33.90
702,222265441,-0.9033,0.2998,-0.3511,219.57,-130.79,34.15
703,222270442,-0.9019,0.2998,-0.3511,219.63,-128.78,34.39
704,222275441,-0.9019,0.2969,-0.3364,220.00,-126.71,34.57
705,222280442,-0.8989,0.2920,-0.3301,220.43,-124.88,34.70
706,222285441,-0.9009,0.2930,-0.3242,220.85,-122.93,34.76
707,222290442,-0.8984,0.2871,-0.3208,221.16,-121.16,34.70
708,222295441,-0.8984,0.2847,-0.3101,221.71,-119.21,34.70
709,222300442,-0.8931,0.2852,-0.2983,222.01,-117.62,34.57
710,222305441,-0.8877,0.2798,-0.3003,222.32,-116.16,34.39
711,222310442,-0.8887,0.2827,-0.2925,222.62,-114.63,34.33
712,222315441,-0.8936,0.2817,-0.2817,222.87,-113.41,34.09
713,222320531,-0.9048,0.2803,-0.2852,222.87,-112.07,33.90
714,222325442,-0.9082,0.2754,-0.2783,222.93,-110.98,33.60
715,222330441,-0.9160,0.2793,-0.2754,223.05,-110.00,33.35
716,222335442,-0.9160,0.2798,-0.2734,223.05,-109.21,32.93
717,222340442,-0.9116,0.2808,-0.2656,222.93,-108.41,32.56
718,222345442,-0.9087,0.2817,-0.2612,222.99,-107.80,32.20
719,222350441,-0.9053,0.2803,-0.2554,222.87,-107.07,31.83
720,222355440,-0.8984,0.2734,-0.2495,222.74,-106.65,31.28
721,222360947,-0.8833,0.2739,-0.2515,222.38,-106.28,30.73
722,222365443,-0.8779,0.2720,-0.2466,222.01,-106.16,30.30
723,222370440,-0.8740,0.2725,-0.2471,221.52,-106.04,29.82
724,222375441,-0.8740,0.2705,-0.2432,220.85,-106.10,29.21
725,222380442,-0.8755,0.2729,-0.2412,220.37,-106.04,28.66
726,222385440,-0.8794,0.2695,-0.2368,219.63,-106.16,28.11
727,222390440,-0.8867,0.2695,-0.2363,218.84,-106.46,27.50
728,222395440,-0.8950,0.2676,-0.2388,217.87,-106.77,27.01
729,222400442,-0.9023,0.2700,-0.2358,216.89,-107.20,26.52
730,222405442,-0.8994,0.2764,-0.2275,215.49,-107.68,25.98
731,222410442,-0.8955,0.2720,-0.2310,213.96,-108.11,25.30
732,222415441,-0.8877,0.2734,-0.2324,212.20,-108.60,24.76
733,222420442,-0.8794,0.2729,-0.2222,210.24,-108.90,24.09
734,222425442,-0.8760,0.2749,-0.2236,208.29,-109.39,23.35
735,222430517,-0.8647,0.2788,-0.2192,205.98,-109.88,22.68
736,222435445,-0.8647,0.2754,-0.2188,203.72,-110.37,21.89
737,222440442,-0.8657,0.2788,-0.2163,201.65,-110.98,21.10
738,222445442,-0.8628,0.2798,-0.2158,199.63,-111.40,20.30
739,222450440,-0.8638,0.2778,-0.2090,198.05,-111.83,19.63
740,222455441,-0.8647,0.2754,-0.2065,196.65,-112.13,18.96
741,222460442,-0.8716,0.2788,-0.2051,195.24,-112.62,18.41
742,222465442,-0.8726,0.2812,-0.2012,193.96,-112.93,17.93
743,222470442,-0.8896,0.2812,-0.2114,192.50,-113.23,17.26
744,222475442,-0.8892,0.2808,-0.2056,190.85,-113.54,16.65
745,222480443,-0.8975,0.2822,-0.2070,189.15,-113.90,16.04
746,222485442,-0.8936,0.2866,-0.2153,187.20,-114.21,15.49
747,222490442,-0.8994,0.2876,-0.2070,185.06,-114.45,14.76
748,222495442,-0.9009,0.2891,-0.2041,182.74,-114.76,14.21
749,222500443,-0.9077,0.2915,-0.2080,180.24,-114.94,13.29
750,222505442,-0.9058,0.2920,-0.2017,177.74,-115.12,12.56
751,222510442,-0.9092,0.2969,-0.2056,175.00,-115.18,11.77
752,222515442,-0.9106,0.2988,-0.2026,172.07,-115.30,10.98
753,222520443,-0.9150,0.3013,-0.2065,168.84,-115.24,10.06
754,222525442,-0.9272,0.3003,-0.2007,165.67,-115.12,9.21
755,222530442,-0.9375,0.3032,-0.2109,162.20,-115.12,8.23
756,222535442,-0.9395,0.3003,-0.2090,158.48,-115.06,7.26
757,222540442,-0.9351,0.3013,-0.2168,155.00,-114.94,6.34
758,222545442,-0.9312,0.3032,-0.2153,151.04,-115.24,5.30
759,222550443,-0.9268,0.3066,-0.2104,147.32,-114.94,4.15
760,222555442,-0.9277,0.3096,-0.2114,143.35,-114.70,3.11
761,222560440,-0.9346,0.3140,-0.2056,139.39,-114.45,2.01
762,222565442,-0.9468,0.3135,-0.2095,135.49,-113.96,0.79
763,222570442,-0.9570,0.3120,-0.2173,130.61,-113.78,-0.37
764,222575443,-0.9722,0.3149,-0.2061,128.48,-113.35,-1.28
765,222580440,-0.9854,0.3179,-0.2124,124.63,-113.11,-2.38
766,222585442,-0.9951,0.3188,-0.2178,120.73,-112.87,-3.48
767,222590442,-1.0034,0.3184,-0.2168,116.71,-112.56,-4.39
768,222595442,-1.0034,0.3179,-0.2222,112.74,-112.26,-5.37
769,222600442,-1.0103,0.3237,-0.2197,108.66,-111.83,-6.46
770,222605442,-1.0161,0.3223,-0.2202,104.57,-111.46,-7.38
771,222610442,-1.0249,0.3281,-0.2231,100.49,-111.22,-8.41
772,222615442,-1.0327,0.3232,-0.2261,96.40,-110.98,-9.45
773,222620443,-1.0352,0.3286,-0.2275,92.32,-110.55,-10.30
774,222625443,-1.0356,0.3311,-0.2256,88.29,-110.18,-11.40
775,222630892,-1.0371,0.3398,-0.2329,84.33,-109.88,-12.56
776,222635442,-1.0396,0.3457,-0.2285,80.49,-109.39,-13.78
777,222640443,-1.0298,0.3525,-0.2334,76.89,-109.09,-15.06
778,222645442,-1.0171,0.3535,-0.2329,73.23,-108.72,-16.28
779,222650442,-1.0327,0.3618,-0.2236,69.45,-108.17,-17.56
780,222655442,-1.0601,0.3750,-0.2354,65.98,-107.44,-19.02
781,222660571,-1.0571,0.3765,-0.2236,62.74,-106.95,-20.55
782,222665442,-1.0454,0.3774,-0.2280,59.63,-106.28,-22.01
783,222670441,-1.0308,0.3799,-0.2271,57.13,-105.24,-23.35
784,222675988,-1.0117,0.3755,-0.2231,54.76,-104.27,-24.70
785,222680442,-1.0024,0.3813,-0.2344,52.62,-103.35,-25.91
786,222685442,-0.9888,0.3833,-0.2314,50.55,-102.38,-27.07
787,222690753,-0.9722,0.3838,-0.2319,48.66,-101.16,-28.05
788,222695443,-0.9526,0.3843,-0.2354,46.95,-100.24,-28.96
789,222700543,-0.9351,0.3843,-0.2339,45.73,-98.90,-29.82
790,222705442,-0.9253,0.3809,-0.2329,45.00,-97.93,-30.30
791,222710441,-0.9097,0.3872,-0.2368,44.70,-96.46,-30.98
792,222715440,-0.8833,0.3857,-0.2446,44.70,-95.00,-31.52
793,222720440,-0.8789,0.3916,-0.2368,45.12,-93.66,-31.95
794,222725629,-0.8818,0.3984,-0.2275,46.10,-91.71,-32.20
795,222730443,-0.8818,0.4038,-0.2319,47.13,-89.76,-32.44
796,222735442,-0.8916,0.4097,-0.2148,48.66,-87.62,-32.68
797,222740441,-0.8916,0.4146,-0.2119,50.61,-85.00,-32.87
798,222745442,-0.8911,0.4214,-0.2183,52.93,-82.38,-33.05
799,222750442,-0.8926,0.4248,-0.2153,55.12,-79.82,-33.23
800,222755441,-0.8979,0.4302,-0.2183,57.13,-76.95,-33.23
801,222760440,-0.9092,0.4365,-0.2183,59.21,-74.02,-33.35
802,222765471,-0.9185,0.4414,-0.2144,61.34,-70.85,-33.35
803,222770617,-0.9180,0.4419,-0.2207,63.48,-67.13,-33.17
804,222775441,-0.9199,0.4463,-0.2158,64.76,-64.63,-33.17
805,222780440,-0.9165,0.4512,-0.2192,66.52,-61.40,-32.93
806,222785444,-0.9180,0.4507,-0.2168,68.23,-58.41,-32.68
807,222790442,-0.9243,0.4512,-0.2217,69.63,-55.12,-32.38
808,222795441,-0.9292,0.4502,-0.2236,70.91,-52.01,-31.95
809,222800442,-0.9331,0.4551,-0.2188,72.01,-48.96,-31.59
810,222805442,-0.9341,0.4536,-0.2314,72.50,-45.98,-30.85
811,222810442,-0.9375,0.4556,-0.2251,72.93,-42.93,-30.49
812,222815441,-0.9414,0.4526,-0.2324,72.87,-40.00,-29.88
813,222820444,-0.9380,0.4536,-0.2275,72.26,-37.07,-29.27
814,222825441,-0.9385,0.4575,-0.2266,71.52,-34.27,-28.66
815,222830440,-0.9360,0.4570,-0.2241,70.30,-31.46,-28.05
816,222835442,-0.9370,0.4595,-0.2290,68.78,-28.84,-27.44
817,222840441,-0.9365,0.4648,-0.2300,66.40,-25.55,-26.89
818,222845443,-0.9326,0.4580,-0.2236,64.70,-23.54,-26.34
819,222850442,-0.9263,0.4570,-0.2222,62.26,-21.10,-25.79
820,222855442,-0.9258,0.4590,-0.2231,59.94,-18.35,-25.37
821,222860442,-0.9155,0.4565,-0.2212,57.32,-15.79,-24.76
822,222865442,-0.9111,0.4570,-0.2217,54.27,-13.23,-24.21
823,222870442,-0.9067,0.4541,-0.2188,51.04,-10.91,-23.60
824,222875442,-0.9028,0.4487,-0.2148,47.87,-8.35,-23.05
825,222880442,-0.8989,0.4497,-0.2124,44.21,-5.98,-22.56
826,222885441,-0.8911,0.4473,-0.2056,40.61,-3.60,-22.01
827,222890442,-0.8896,0.4512,-0.2065,36.71,-1.10,-21.46
828,222895441,-0.8945,0.4468,-0.1938,32.68,1.34,-20.85
829,222900869,-0.8936,0.4453,-0.1943,27.68,4.33,-20.18
830,222905442,-0.8911,0.4487,-0.1958,24.33,6.16,-19.76
831,222910442,-0.8916,0.4443,-0.1870,20.30,8.66,-19.33
832,222915442,-0.8950,0.4443,-0.1880,16.22,10.85,-18.72
833,222920443,-0.8999,0.4448,-0.1821,12.01,13.29,-18.29
834,222925442,-0.9038,0.4463,-0.1816,7.87,15.49,-17.80
835,222930442,-0.8999,0.4360,-0.1694,3.78,17.87,-17.44
836,222935442,-0.9033,0.4375,-0.1714,-0.06,19.94,-17.01
837,222940440,-0.9043,0.4375,-0.1733,-4.09,22.07,-16.59
838,222945444,-0.9043,0.4375,-0.1685,-7.74,24.21,-16.10
839,222950442,-0.9062,0.4312,-0.1567,-11.46,26.22,-15.67
840,222955442,-0.9072,0.4307,-0.1509,-15.18,28.23,-15.37
841,222960442,-0.9067,0.4292,-0.1538,-18.84,30.18,-15.06
842,222965442,-0.9097,0.4282,-0.1479,-22.44,31.89,-14.70
843,222970442,-0.9199,0.4214,-0.1489,-25.98,33.78,-14.39
844,222975442,-0.9302,0.4189,-0.1387,-29.51,35.37,-14.02
845,222980443,-0.9346,0.4233,-0.1387,-32.74,37.07,-13.78
846,222985442,-0.9380,0.4170,-0.1333,-35.91,38.66,-13.60
847,222990442,-0.9419,0.4165,-0.1294,-38.66,40.24,-13.29
848,222995442,-0.9453,0.4111,-0.1216,-41.34,41.71,-12.99
849,223000442,-0.9512,0.4102,-0.1250,-43.72,43.17,-12.74
850,223005442,-0.9556,0.4072,-0.1147,-45.91,44.57,-12.50
851,223010442,-0.9512,0.4067,-0.1060,-47.68,45.91,-12.32
852,223015442,-0.9526,0.4038,-0.1079,-49.27,47.50,-12.07
853,223020442,-0.9526,0.3999,-0.1055,-50.85,48.54,-11.89
854,223025442,-0.9419,0.4004,-0.0928,-52.26,49.82,-11.71
855,223030442,-0.9429,0.3979,-0.0952,-53.48,51.04,-11.40
856,223035443,-0.9399,0.3960,-0.0933,-54.63,52.01,-11.34
857,223040445,-0.9375,0.3911,-0.0889,-55.85,52.93,-11.40
858,223045440,-0.9429,0.3887,-0.0786,-56.83,53.84,-11.28
859,223050440,-0.9448,0.3833,-0.0820,-57.68,54.57,-11.22
860,223055442,-0.9497,0.3838,-0.0786,-58.23,55.49,-11.10
861,223060442,-0.9526,0.3750,-0.0737,-58.60,56.22,-10.91
862,223065442,-0.9512,0.3721,-0.0693,-58.84,56.89,-10.79
863,223070440,-0.9575,0.3711,-0.0659,-58.60,57.62,-10.67
864,223075440,-0.9561,0.3696,-0.0596,-58.41,58.17,-10.49
865,223080444,-0.9565,0.3643,-0.0581,-57.93,58.78,-10.37
866,223085442,-0.9614,0.3652,-0.0522,-57.26,59.45,-10.18
867,223090442,-0.9663,0.3574,-0.0493,-56.59,60.06,-10.06
