# skilleye imu stream v1
# device=xiao_esp32c6 imu=mpu6050 addr=0x68
# rate_hz=200 accel_range_g=16 gyro_range_dps=2000 dlpf_hz=94
# units: accel in g, gyro in deg/s, t_us in microseconds since boot (monotonic)
# no shared clock with the camera -- tap the racket once before each take
# so both recordings share a spike to align on
seq,t_us,ax,ay,az,gx,gy,gz
0,1220866104,0.7686,-0.5869,-0.0566,3.05,11.10,4.15
1,1220870991,0.7695,-0.5894,-0.0542,2.56,10.98,4.33
2,1220875987,0.7734,-0.5928,-0.0610,2.32,10.98,4.51
3,1220880987,0.7769,-0.5903,-0.0552,1.83,10.61,4.63
4,1220885985,0.7788,-0.5942,-0.0518,1.52,10.49,4.76
5,1220890985,0.7822,-0.5918,-0.0547,1.16,10.30,4.88
6,1220895985,0.7817,-0.5981,-0.0488,1.04,10.24,4.94
7,1220900985,0.7842,-0.5903,-0.0566,0.73,9.94,5.12
8,1220905987,0.7798,-0.5884,-0.0537,0.49,9.94,5.30
9,1220910988,0.7832,-0.5898,-0.0591,0.49,9.63,5.37
10,1220915987,0.7778,-0.5903,-0.0557,0.24,9.51,5.61
11,1220920987,0.7871,-0.5845,-0.0542,0.30,9.45,5.67
12,1220925986,0.7812,-0.5859,-0.0503,0.24,9.21,5.73
13,1220930987,0.7856,-0.5845,-0.0479,0.49,8.96,5.73
14,1220935985,0.7896,-0.5908,-0.0439,0.61,8.72,5.85
15,1220940989,0.7905,-0.5894,-0.0371,1.04,8.60,5.91
16,1220945986,0.7900,-0.5947,-0.0371,1.46,8.48,5.98
17,1220950987,0.7954,-0.5933,-0.0396,2.07,8.29,6.04
18,1220955986,0.7949,-0.5977,-0.0293,2.87,8.05,6.16
19,1220960988,0.7993,-0.6001,-0.0312,3.54,7.87,6.22
20,1220965985,0.7954,-0.6025,-0.0293,4.63,7.62,6.16
21,1220970986,0.7939,-0.6016,-0.0308,5.67,7.32,6.16
22,1220975987,0.7881,-0.6030,-0.0327,6.83,7.01,6.16
23,1220980987,0.7881,-0.5952,-0.0269,7.62,7.01,6.04
24,1220985987,0.7837,-0.5977,-0.0239,8.41,6.59,6.04
25,1220990986,0.7798,-0.5918,-0.0220,9.09,6.52,5.79
26,1220995989,0.7812,-0.5981,-0.0244,9.45,6.10,5.55
27,1221000985,0.7817,-0.5996,-0.0171,9.63,5.79,5.30
28,1221005987,0.7803,-0.5977,-0.0088,9.76,5.49,5.18
29,1221010986,0.7827,-0.6011,-0.0083,9.94,5.43,5.06
30,1221015987,0.7827,-0.6050,-0.0049,9.88,5.24,4.82
31,1221020985,0.7871,-0.6079,-0.0015,9.76,5.00,4.70
32,1221025985,0.7866,-0.6064,-0.0024,9.39,4.70,4.63
33,1221031466,0.7896,-0.6094,0.0005,9.02,4.39,4.33
34,1221035987,0.7876,-0.6143,0.0000,8.41,4.27,4.02
35,1221040986,0.7881,-0.6157,0.0078,7.68,4.09,3.90
36,1221046508,0.7852,-0.6172,0.0073,7.01,3.84,3.84
37,1221050987,0.7852,-0.6226,0.0054,6.28,3.72,3.72
38,1221055988,0.7852,-0.6274,-0.0020,5.61,3.66,3.60
39,1221060987,0.7837,-0.6279,0.0088,4.82,3.29,3.54
40,1221065987,0.7842,-0.6284,0.0083,4.33,3.17,3.54
41,1221070987,0.7817,-0.6294,0.0156,3.78,2.99,3.54
42,1221075988,0.7803,-0.6294,0.0161,3.29,2.68,3.60
43,1221080987,0.7773,-0.6372,0.0176,2.93,2.50,3.60
44,1221085986,0.7798,-0.6313,0.0127,2.74,2.26,3.72
45,1221090987,0.7769,-0.6348,0.0137,2.56,2.07,3.72
46,1221095988,0.7764,-0.6333,0.0112,2.38,1.83,3.84
47,1221100987,0.7778,-0.6328,0.0137,2.26,1.65,4.02
48,1221105985,0.7729,-0.6367,0.0151,2.26,1.46,4.15
49,1221111174,0.7720,-0.6328,0.0161,2.50,1.22,4.27
50,1221115989,0.7700,-0.6289,0.0186,2.68,1.10,4.39
51,1221120986,0.7690,-0.6333,0.0156,2.87,0.67,4.57
52,1221125987,0.7666,-0.6328,0.0127,3.23,0.61,4.70
53,1221130987,0.7681,-0.6309,0.0059,3.60,0.37,4.82
54,1221135987,0.7671,-0.6235,0.0083,3.84,0.12,5.00
55,1221140986,0.7686,-0.6299,0.0059,4.15,-0.06,5.06
56,1221145985,0.7671,-0.6265,0.0054,4.63,-0.24,5.18
57,1221150989,0.7686,-0.6289,0.0020,4.88,-0.61,5.30
58,1221155989,0.7656,-0.6250,0.0039,5.18,-0.85,5.49
59,1221160987,0.7651,-0.6216,0.0039,5.37,-1.22,5.49
60,1221165987,0.7637,-0.6201,-0.0010,5.43,-1.40,5.61
61,1221170987,0.7612,-0.6152,-0.0039,5.43,-1.65,5.67
62,1221175986,0.7617,-0.6177,-0.0010,5.43,-1.89,5.67
63,1221180988,0.7598,-0.6128,-0.0054,5.06,-2.13,5.79
64,1221185985,0.7573,-0.6133,-0.0088,4.76,-2.56,5.79
65,1221190986,0.7617,-0.6089,-0.0049,4.27,-2.74,5.85
66,1221195986,0.7598,-0.6104,-0.0029,3.78,-3.11,5.79
67,1221200991,0.7617,-0.6089,-0.0122,3.05,-3.29,5.73
68,1221205986,0.7583,-0.6069,-0.0088,2.50,-3.35,5.73
69,1221210985,0.7642,-0.6099,-0.0112,1.77,-3.78,5.73
70,1221215987,0.7666,-0.6143,-0.0112,1.22,-3.90,5.67
71,1221220987,0.7676,-0.6118,-0.0103,0.49,-4.21,5.73
72,1221225988,0.7705,-0.6157,-0.0122,0.06,-4.39,5.67
73,1221230987,0.7744,-0.6187,-0.0176,-0.24,-4.33,5.73
74,1221236087,0.7744,-0.6226,-0.0151,-0.37,-4.82,5.85
75,1221240987,0.7778,-0.6274,-0.0171,-0.37,-4.76,5.85
76,1221245986,0.7764,-0.6328,-0.0225,-0.24,-5.12,6.10
77,1221250987,0.7798,-0.6338,-0.0186,0.18,-5.37,6.34
78,1221255987,0.7793,-0.6313,-0.0229,0.61,-5.49,6.52
79,1221260988,0.7783,-0.6353,-0.0195,1.04,-5.55,6.65
80,1221265985,0.7754,-0.6328,-0.0225,1.59,-5.67,6.89
81,1221271524,0.7744,-0.6323,-0.0273,2.07,-5.91,7.13
82,1221276345,0.7725,-0.6338,-0.0273,2.44,-5.98,7.20
83,1221280988,0.7715,-0.6299,-0.0273,2.68,-6.10,7.32
84,1221285987,0.7627,-0.6260,-0.0298,2.68,-6.22,7.38
85,1221291013,0.7642,-0.6255,-0.0259,2.50,-6.34,7.38
86,1221295987,0.7637,-0.6211,-0.0293,2.07,-6.52,7.38
87,1221300985,0.7603,-0.6143,-0.0278,1.52,-6.52,7.20
88,1221305987,0.7578,-0.6138,-0.0347,0.91,-6.46,7.26
89,1221310985,0.7598,-0.6128,-0.0303,-0.06,-6.59,7.13
90,1221315989,0.7563,-0.6108,-0.0298,-0.73,-6.59,7.07
91,1221320986,0.7529,-0.6177,-0.0288,-1.65,-6.65,6.95
92,1221325987,0.7559,-0.6206,-0.0332,-2.44,-6.52,6.89
93,1221330985,0.7583,-0.6187,-0.0288,-3.23,-6.52,6.89
94,1221335985,0.7563,-0.6201,-0.0332,-4.21,-6.34,6.83
95,1221340988,0.7559,-0.6167,-0.0347,-4.70,-6.16,6.83
96,1221345987,0.7559,-0.6270,-0.0371,-5.43,-6.40,6.83
97,1221350987,0.7490,-0.6235,-0.0347,-5.91,-6.10,6.77
98,1221355985,0.7510,-0.6201,-0.0415,-6.65,-5.79,6.83
99,1221360988,0.7471,-0.6206,-0.0381,-7.07,-5.79,7.01
100,1221365986,0.7437,-0.6240,-0.0420,-7.62,-5.67,7.01
101,1221370987,0.7471,-0.6172,-0.0400,-8.11,-5.55,7.07
102,1221376024,0.7505,-0.6255,-0.0518,-8.48,-5.43,7.20
103,1221380987,0.7534,-0.6289,-0.0522,-8.90,-5.24,7.32
104,1221385987,0.7534,-0.6313,-0.0503,-9.27,-5.24,7.50
105,1221390986,0.7568,-0.6401,-0.0527,-9.76,-5.12,7.68
106,1221395987,0.7593,-0.6426,-0.0532,-10.12,-5.00,7.99
107,1221400986,0.7598,-0.6470,-0.0464,-10.73,-4.88,8.17
108,1221405987,0.7617,-0.6499,-0.0493,-11.22,-4.76,8.54
109,1221410985,0.7617,-0.6519,-0.0488,-11.89,-4.57,8.72
110,1221415985,0.7588,-0.6577,-0.0376,-12.44,-4.45,8.96
111,1221420985,0.7593,-0.6577,-0.0435,-13.23,-4.21,9.39
112,1221425988,0.7603,-0.6602,-0.0449,-13.78,-4.21,9.57
113,1221430987,0.7598,-0.6597,-0.0435,-14.57,-4.09,10.00
114,1221435986,0.7583,-0.6533,-0.0439,-15.43,-4.02,10.24
115,1221440989,0.7559,-0.6553,-0.0444,-16.22,-3.84,10.55
116,1221445986,0.7520,-0.6514,-0.0444,-17.01,-3.54,10.85
117,1221450987,0.7520,-0.6460,-0.0503,-17.80,-3.48,11.16
118,1221455987,0.7495,-0.6401,-0.0566,-18.72,-3.48,11.16
119,1221460987,0.7515,-0.6377,-0.0552,-19.39,-3.29,11.46
120,1221465986,0.7490,-0.6338,-0.0542,-20.30,-3.41,11.65
121,1221470987,0.7534,-0.6294,-0.0654,-21.22,-3.23,11.77
122,1221476211,0.7573,-0.6279,-0.0674,-22.07,-3.29,11.95
123,1221480987,0.7578,-0.6206,-0.0649,-23.11,-3.35,12.01
124,1221485987,0.7661,-0.6118,-0.0732,-24.33,-3.17,11.95
125,1221490987,0.7637,-0.6118,-0.0679,-25.61,-2.93,12.01
126,1221495985,0.7622,-0.6035,-0.0693,-27.07,-3.05,12.07
127,1221500989,0.7661,-0.6035,-0.0806,-28.54,-3.23,12.01
128,1221505986,0.7627,-0.5991,-0.0776,-30.43,-3.11,11.89
129,1221510987,0.7632,-0.5908,-0.0898,-32.62,-3.05,11.83
130,1221515985,0.7622,-0.5820,-0.0928,-34.94,-3.05,11.71
131,1221520987,0.7690,-0.5786,-0.0928,-37.74,-2.99,11.65
132,1221525987,0.7729,-0.5791,-0.0869,-40.67,-2.80,11.52
133,1221530987,0.7769,-0.5889,-0.0903,-43.78,-2.74,11.28
134,1221535986,0.7803,-0.5952,-0.0752,-46.77,-2.56,11.28
135,1221540987,0.7847,-0.6074,-0.0713,-49.33,-2.38,11.40
136,1221545987,0.7925,-0.6211,-0.0635,-51.52,-2.13,11.40
137,1221550987,0.7969,-0.6318,-0.0713,-53.17,-1.95,11.71
138,1221555986,0.7993,-0.6406,-0.0708,-54.21,-1.65,12.07
139,1221560987,0.7988,-0.6523,-0.0771,-54.70,-1.52,12.32
140,1221565985,0.7954,-0.6528,-0.0732,-55.00,-1.40,12.93
141,1221571423,0.7900,-0.6626,-0.0796,-54.76,-1.22,13.60
142,1221575989,0.7896,-0.6685,-0.0854,-54.27,-1.04,14.02
143,1221580986,0.7837,-0.6709,-0.0894,-53.48,-0.79,14.63
144,1221585985,0.7827,-0.6660,-0.0889,-52.20,-0.73,15.30
145,1221590987,0.7793,-0.6670,-0.0903,-51.40,-0.67,15.91
146,1221595988,0.7734,-0.6680,-0.0859,-50.37,-0.43,16.46
147,1221600994,0.7646,-0.6714,-0.0845,-49.51,-0.30,17.07
148,1221605987,0.7603,-0.6704,-0.0815,-48.78,-0.12,17.62
149,1221610987,0.7583,-0.6733,-0.0723,-48.29,0.30,18.05
150,1221615985,0.7617,-0.6772,-0.0757,-47.87,0.61,18.60
151,1221620985,0.7593,-0.6821,-0.0737,-47.68,0.91,19.09
152,1221625989,0.7534,-0.6836,-0.0615,-47.50,1.28,19.57
153,1221630985,0.7554,-0.6865,-0.0610,-47.50,1.65,20.12
154,1221635987,0.7554,-0.6943,-0.0542,-47.68,2.01,20.67
155,1221640987,0.7534,-0.6973,-0.0601,-47.87,2.44,21.04
156,1221645988,0.7524,-0.7002,-0.0503,-48.35,2.74,21.52
157,1221650987,0.7485,-0.7021,-0.0474,-48.60,3.17,21.89
158,1221655986,0.7461,-0.7046,-0.0586,-49.02,3.48,22.38
159,1221660987,0.7402,-0.7036,-0.0645,-49.51,4.02,22.62
160,1221665986,0.7402,-0.7065,-0.0708,-49.82,4.39,23.05
161,1221670987,0.7363,-0.7095,-0.0688,-50.30,4.70,23.41
162,1221675987,0.7236,-0.7124,-0.0728,-50.67,5.00,23.78
163,1221680987,0.7222,-0.7119,-0.0762,-51.10,5.37,24.15
164,1221685986,0.7168,-0.7124,-0.0728,-51.77,5.55,24.51
165,1221690988,0.7129,-0.7173,-0.0801,-52.56,5.98,25.00
166,1221695986,0.7119,-0.7188,-0.0791,-53.78,6.40,25.37
167,1221700987,0.7090,-0.7183,-0.0742,-55.00,6.95,25.85
168,1221705987,0.7041,-0.7227,-0.0688,-56.89,7.20,26.28
169,1221710987,0.7061,-0.7236,-0.0615,-58.96,7.68,26.77
170,1221715985,0.7036,-0.7236,-0.0591,-61.46,8.11,27.13
171,1221720985,0.7051,-0.7280,-0.0513,-64.15,8.78,27.62
172,1221726280,0.7056,-0.7217,-0.0415,-67.32,9.51,28.11
173,1221730988,0.7017,-0.7197,-0.0356,-69.33,9.94,28.48
174,1221735987,0.6948,-0.7158,-0.0366,-71.65,10.55,28.96
175,1221740987,0.6880,-0.7100,-0.0356,-73.66,11.22,29.39
176,1221745986,0.6841,-0.6987,-0.0405,-75.06,11.65,29.76
177,1221750987,0.6733,-0.6875,-0.0464,-76.04,12.01,30.24
178,1221755985,0.6646,-0.6763,-0.0552,-76.71,12.50,30.67
179,1221760987,0.6499,-0.6636,-0.0728,-76.89,12.80,30.98
180,1221765987,0.6382,-0.6562,-0.0801,-76.52,13.05,31.40
181,1221770987,0.6270,-0.6440,-0.0850,-75.98,13.05,31.59
182,1221775986,0.6187,-0.6348,-0.0977,-75.00,13.23,31.95
183,1221780988,0.6123,-0.6279,-0.0962,-74.21,13.35,32.07
184,1221785987,0.6074,-0.6235,-0.1040,-72.99,13.48,32.38
185,1221790988,0.6108,-0.6226,-0.1045,-71.83,13.35,32.50
186,1221795986,0.6104,-0.6294,-0.1074,-70.85,13.35,32.74
187,1221800987,0.6157,-0.6333,-0.1138,-69.94,13.35,32.93
188,1221805987,0.6143,-0.6445,-0.1187,-69.39,13.35,33.23
189,1221810988,0.6230,-0.6514,-0.1079,-69.15,13.17,33.41
190,1221815985,0.6299,-0.6606,-0.1123,-69.45,13.11,33.66
191,1221820985,0.6416,-0.6675,-0.1138,-70.30,12.99,33.96
192,1221825985,0.6460,-0.6738,-0.1128,-71.34,12.74,34.21
193,1221830987,0.6509,-0.6748,-0.1069,-72.99,12.50,34.57
194,1221835987,0.6655,-0.6846,-0.1128,-74.88,12.20,34.94
195,1221840987,0.6733,-0.6846,-0.1108,-76.89,12.07,35.18
196,1221845985,0.6812,-0.6860,-0.1133,-78.90,11.71,35.61
197,1221850988,0.6836,-0.6831,0.0576,-80.30,12.13,36.04
198,1221855987,0.6929,-0.6558,-0.0625,-80.91,15.18,36.59
199,1221860987,0.7178,-0.6167,0.0410,-80.98,16.95,36.83
200,1221865986,0.7334,-0.5957,-0.0151,-80.18,20.98,37.20
201,1221870988,0.7285,-0.5693,-0.0542,-78.17,25.67,37.56
202,1221875987,0.7153,-0.5527,-0.0659,-75.43,30.12,37.80
203,1221880987,0.7065,-0.5571,-0.1504,-72.32,33.05,38.11
204,1221885986,0.6875,-0.5791,-0.2339,-69.09,35.06,38.48
205,1221890987,0.6577,-0.5991,-0.2246,-66.04,35.98,38.84
206,1221895988,0.6333,-0.6201,-0.1772,-63.35,36.22,39.39
207,1221900987,0.6284,-0.6348,-0.1851,-61.16,36.22,39.88
208,1221905986,0.6396,-0.6426,-0.2056,-60.00,36.22,40.43
209,1221911007,0.6489,-0.6406,-0.1973,-59.70,35.61,41.10
210,1221915988,0.6528,-0.6377,-0.1729,-60.06,35.24,41.40
211,1221920987,0.6553,-0.6372,-0.1904,-61.34,34.70,42.07
212,1221925985,0.6597,-0.6260,-0.1968,-63.29,34.15,42.62
213,1221931027,0.6553,-0.6270,-0.1968,-66.16,33.23,43.17
214,1221935987,0.6504,-0.6284,-0.1943,-68.60,32.50,43.66
215,1221940987,0.6348,-0.5474,-0.2451,-71.52,31.46,44.09
216,1221945987,0.6592,-0.4712,-0.3203,-74.21,28.90,42.56
217,1221950985,0.6133,-0.5830,-0.1260,-77.26,27.80,41.04
218,1221955987,0.5977,-0.5747,-0.1235,-80.12,27.26,40.30
219,1221960986,0.6040,-0.5664,-0.2129,-82.44,26.34,39.21
220,1221965989,0.6123,-0.5698,-0.2124,-84.39,25.67,38.17
221,1221970985,0.6157,-0.5562,-0.2080,-85.67,25.30,37.01
222,1221975987,0.6128,-0.5601,-0.2417,-86.22,24.57,35.98
223,1221980986,0.6128,-0.5747,-0.2866,-85.85,24.02,34.88
224,1221985988,0.6040,-0.5889,-0.3027,-84.63,23.11,34.09
225,1221990985,0.6016,-0.5986,-0.2886,-83.23,22.56,33.72
226,1221995987,0.5977,-0.6143,-0.3042,-80.61,21.46,33.29
227,1222000986,0.5972,-0.6230,-0.3384,-78.48,20.85,33.29
228,1222005987,0.5913,-0.6221,-0.3281,-75.61,20.18,33.48
229,1222010987,0.5850,-0.6196,-0.3394,-72.20,19.45,33.84
230,1222015988,0.5850,-0.6021,-0.3916,-69.45,19.15,34.39
231,1222020987,0.5684,-0.6094,-0.4062,-67.99,18.54,34.82
232,1222025985,0.5518,-0.6113,-0.3867,-66.34,18.23,35.55
233,1222031141,0.5449,-0.6167,-0.3857,-64.82,18.54,36.95
234,1222035987,0.5576,-0.5933,-0.4053,-63.48,19.27,38.11
235,1222040987,0.5674,-0.5845,-0.4097,-62.50,19.82,39.09
236,1222045987,0.5874,-0.5879,-0.4409,-62.07,20.18,40.12
237,1222050985,0.5688,-0.5815,-0.4658,-61.77,20.43,40.67
238,1222055987,0.5850,-0.6226,-0.4644,-61.77,21.04,41.59
239,1222060987,0.6113,-0.6396,-0.4385,-61.71,21.52,42.38
240,1222065987,0.6387,-0.6421,-0.4487,-61.46,22.01,42.99
241,1222070985,0.6631,-0.6416,-0.4526,-61.22,22.62,43.29
242,1222075987,0.6797,-0.6401,-0.4443,-60.79,23.17,43.54
243,1222080986,0.6729,-0.6304,-0.4951,-60.06,23.90,43.48
244,1222085988,0.6914,-0.6162,-0.4673,-59.82,24.33,43.29
245,1222090985,0.7109,-0.6094,-0.4375,-59.02,25.12,42.74
246,1222095987,0.7461,-0.6128,-0.4497,-57.99,25.30,42.07
247,1222100987,0.7603,-0.6084,-0.4590,-56.65,26.71,41.10
248,1222106278,0.7578,-0.6040,-0.4331,-55.30,27.50,40.12
249,1222110987,0.7539,-0.6001,-0.4316,-53.72,27.80,39.21
250,1222116167,0.7500,-0.5903,-0.4438,-52.07,28.29,38.05
251,1222120988,0.7388,-0.5757,-0.4526,-50.30,28.96,37.01
252,1222125986,0.7417,-0.5674,-0.4502,-48.54,29.45,36.04
253,1222131002,0.7412,-0.5537,-0.4619,-46.83,29.63,35.24
254,1222135987,0.7544,-0.5503,-0.4775,-44.94,29.63,34.51
255,1222140987,0.7671,-0.5474,-0.4863,-43.05,29.88,34.21
256,1222145985,0.7812,-0.5430,-0.5015,-41.16,29.76,33.90
257,1222150987,0.8008,-0.5410,-0.5107,-39.02,29.63,33.90
258,1222155985,0.8145,-0.5459,-0.5190,-36.40,29.57,34.02
259,1222160987,0.8345,-0.5571,-0.5244,-33.41,29.51,34.51
260,1222165988,0.8521,-0.5728,-0.5366,-30.06,28.90,35.00
261,1222170987,0.8682,-0.5913,-0.5425,-26.28,28.72,35.79
262,1222175986,0.8804,-0.5996,-0.5405,-21.77,28.23,36.52
263,1222180987,0.8940,-0.6069,-0.5435,-16.65,27.99,37.26
264,1222185987,0.8970,-0.6069,-0.5439,-11.22,27.38,37.93
265,1222190987,0.8970,-0.6123,-0.5420,-5.06,26.95,38.41
266,1222195985,0.8853,-0.6152,-0.5322,1.34,26.52,38.72
267,1222201029,0.8721,-0.6118,-0.5381,7.93,26.16,38.78
268,1222205990,0.8560,-0.6084,-0.5298,14.27,25.55,38.78
269,1222210986,0.8418,-0.6094,-0.5254,20.30,24.94,38.48
270,1222215987,0.8218,-0.6016,-0.5132,25.67,24.21,38.17
271,1222220985,0.7998,-0.5898,-0.5063,30.12,23.23,37.50
272,1222225985,0.7842,-0.5776,-0.5029,33.60,22.44,36.95
273,1222230985,0.7695,-0.5679,-0.4985,35.91,21.59,36.04
274,1222235985,0.7510,-0.5566,-0.4937,36.83,20.79,35.18
275,1222240987,0.7300,-0.5483,-0.4897,36.77,19.88,34.21
276,1222245988,0.7100,-0.5356,-0.4790,35.55,18.96,33.05
277,1222250987,0.6924,-0.5239,-0.4668,33.11,18.05,31.83
278,1222255985,0.6729,-0.5103,-0.4629,29.88,17.13,30.55
279,1222260986,0.6509,-0.4956,-0.4570,25.73,16.34,29.21
280,1222265987,0.6260,-0.4785,-0.4565,21.16,15.43,27.74
281,1222270986,0.6094,-0.4644,-0.4512,15.73,14.45,26.22
282,1222275987,0.5928,-0.4463,-0.4482,10.06,13.60,24.76
283,1222280985,0.5752,-0.4312,-0.4492,4.02,12.68,23.29
284,1222285987,0.5630,-0.4214,-0.4429,-2.26,11.71,21.77
285,1222290986,0.5454,-0.4155,-0.4346,-8.96,10.73,20.30
286,1222295987,0.5352,-0.4067,-0.4238,-15.73,9.82,19.02
287,1222300985,0.5234,-0.3989,-0.4204,-22.32,8.90,17.68
288,1222305989,0.5176,-0.3887,-0.4077,-28.72,7.87,16.46
289,1222310986,0.5151,-0.3823,-0.4102,-35.06,6.83,15.12
290,1222315987,0.5132,-0.3789,-0.4087,-41.46,5.79,13.96
291,1222320985,0.5078,-0.3799,-0.3950,-47.32,4.51,12.80
292,1222325989,0.5010,-0.3872,-0.4136,-53.05,3.35,11.83
293,1222330986,0.5034,-0.3848,-0.4082,-58.54,1.95,11.10
294,1222335985,0.5093,-0.3809,-0.3999,-63.48,0.91,10.49
295,1222340985,0.5142,-0.3818,-0.4229,-67.74,-0.12,10.12
296,1222345987,0.5200,-0.3794,-0.4297,-71.71,-1.34,9.82
297,1222350988,0.5225,-0.3804,-0.4268,-74.76,-2.07,9.70
298,1222355987,0.5254,-0.3770,-0.4414,-77.38,-2.93,9.76
299,1222360987,0.5273,-0.3794,-0.4546,-79.02,-3.84,10.06
300,1222365986,0.5327,-0.3813,-0.4619,-80.18,-4.33,10.55
301,1222370987,0.5352,-0.3740,-0.4595,-80.49,-5.00,11.16
302,1222375987,0.5356,-0.3779,-0.4727,-80.30,-5.55,11.59
303,1222380987,0.5356,-0.3818,-0.4751,-79.57,-6.10,12.20
304,1222385986,0.5405,-0.3921,-0.4800,-78.29,-6.40,12.80
305,1222390987,0.5439,-0.4048,-0.4863,-76.83,-6.83,13.17
306,1222395987,0.5420,-0.4194,-0.4868,-75.06,-7.20,13.66
307,1222400987,0.5430,-0.4331,-0.4829,-73.48,-7.32,14.15
308,1222405988,0.5459,-0.4487,-0.4839,-71.77,-7.68,14.33
309,1222410987,0.5557,-0.3887,-0.5381,-70.06,-7.80,14.45
310,1222415987,0.5562,-0.4185,-0.5127,-69.39,-7.93,14.33
311,1222420987,0.5596,-0.4678,-0.4985,-68.72,-7.87,14.51
312,1222425986,0.5586,-0.5073,-0.5264,-68.29,-7.68,14.45
313,1222430987,0.5435,-0.5171,-0.5420,-67.74,-7.20,14.57
314,1222435985,0.5518,-0.5122,-0.5420,-66.89,-6.89,14.51
315,1222440985,0.5630,-0.5151,-0.5356,-65.91,-6.22,14.27
316,1222445989,0.5737,-0.5142,-0.5469,-64.51,-5.43,14.21
317,1222450986,0.5708,-0.5249,-0.5337,-62.99,-4.39,13.84
318,1222455987,0.5771,-0.5396,-0.5273,-61.28,-3.66,13.72
319,1222460985,0.5801,-0.5522,-0.5337,-59.09,-2.80,13.48
320,1222466594,0.5752,-0.5659,-0.5381,-56.59,-2.20,13.17
321,1222470989,0.5806,-0.5728,-0.5361,-53.60,-1.59,12.93
322,1222475987,0.5840,-0.5791,-0.5410,-49.88,-1.16,12.50
323,1222480987,0.5850,-0.5781,-0.5571,-46.10,-0.98,12.07
324,1222485986,0.5781,-0.5815,-0.5542,-42.26,-0.55,11.22
325,1222490987,0.5713,-0.5781,-0.5410,-38.41,-0.61,10.73
326,1222495987,0.5620,-0.5693,-0.5347,-34.94,-0.55,10.06
327,1222500987,0.5640,-0.5596,-0.5229,-32.26,-0.49,9.57
328,1222505986,0.5640,-0.5386,-0.5181,-30.06,-0.43,9.21
329,1222510988,0.5698,-0.5000,-0.5200,-28.41,-0.06,8.84
330,1222515987,0.5747,-0.5361,-0.5874,-28.35,-0.43,8.66
331,1222520987,0.5337,-0.5425,-0.5566,-29.27,-0.30,9.15
332,1222525986,0.5249,-0.4243,-0.5117,-30.37,-0.79,9.39
333,1222530987,0.5684,-0.4214,-0.5479,-32.07,-1.10,9.33
334,1222535985,0.5576,-0.4219,-0.5444,-34.15,-1.22,9.94
335,1222540987,0.5664,-0.4409,-0.5073,-36.28,-1.89,10.37
336,1222545988,0.5566,-0.4380,-0.5093,-38.23,-2.20,10.79
337,1222550987,0.5532,-0.4111,-0.5254,-40.18,-2.93,11.04
338,1222555985,0.5527,-0.4009,-0.5244,-41.89,-3.48,11.40
339,1222560987,0.5474,-0.3936,-0.5181,-43.78,-4.15,11.65
340,1222565987,0.5552,-0.3882,-0.5181,-45.30,-4.76,11.95
341,1222570987,0.5601,-0.3896,-0.5303,-46.89,-5.37,12.26
342,1222575987,0.5552,-0.3965,-0.5317,-48.48,-6.04,12.62
343,1222580987,0.5483,-0.3911,-0.5439,-50.30,-6.95,12.74
344,1222585986,0.5459,-0.3896,-0.5464,-52.56,-7.50,12.93
345,1222590987,0.5493,-0.3901,-0.5522,-55.49,-8.23,12.74
346,1222595987,0.5503,-0.3896,-0.5454,-58.84,-8.72,12.99
347,1222600987,0.5464,-0.3877,-0.5356,-62.93,-8.84,12.93
348,1222605986,0.5376,-0.3838,-0.5337,-67.50,-8.96,12.99
349,1222610988,0.5376,-0.3794,-0.5249,-72.32,-8.78,13.29
350,1222615987,0.5366,-0.3760,-0.5312,-76.95,-8.66,13.41
351,1222620987,0.5361,-0.3779,-0.5234,-81.04,-8.35,13.48
352,1222625986,0.5361,-0.3721,-0.5352,-84.51,-7.80,13.72
353,1222630987,0.5303,-0.3721,-0.5420,-87.13,-7.44,13.96
354,1222635985,0.5288,-0.3730,-0.5483,-88.60,-6.95,14.27
355,1222640985,0.5327,-0.3682,-0.5522,-89.02,-6.83,14.63
356,1222645985,0.5273,-0.3618,-0.5601,-88.66,-6.16,15.00
357,1222650987,0.5107,-0.3320,-0.5791,-87.38,-5.91,15.49
358,1222655989,0.5156,-0.3188,-0.5850,-85.12,-5.85,16.04
359,1222660985,0.5269,-0.3320,-0.5737,-82.80,-5.55,16.83
360,1222665985,0.5288,-0.3525,-0.5815,-80.43,-5.30,17.74
361,1222670987,0.5430,-0.3965,-0.6147,-78.17,-5.06,18.78
362,1222675987,0.5610,-0.4058,-0.5791,-76.28,-4.82,19.45
363,1222680987,0.5791,-0.4121,-0.5845,-74.45,-4.39,20.24
364,1222685987,0.5850,-0.4390,-0.5977,-72.50,-4.02,21.04
365,1222690985,0.5728,-0.4536,-0.5957,-70.98,-3.66,21.89
366,1222695987,0.5645,-0.4604,-0.6108,-69.70,-3.17,22.62
367,1222700987,0.5728,-0.4551,-0.6128,-68.54,-2.68,23.41
368,1222705985,0.5771,-0.4595,-0.6221,-67.50,-2.20,24.27
369,1222710987,0.5918,-0.4604,-0.6294,-66.52,-1.65,24.88
370,1222715987,0.5801,-0.4443,-0.6284,-65.61,-0.98,25.61
371,1222720986,0.5737,-0.4380,-0.6475,-64.51,-0.18,25.98
372,1222725987,0.5684,-0.4360,-0.6675,-63.66,0.30,26.59
373,1222730985,0.5742,-0.4365,-0.6748,-63.05,0.79,27.13
374,1222735985,0.5596,-0.4219,-0.6846,-62.87,1.34,27.56
375,1222740986,0.5566,-0.4175,-0.7148,-63.05,1.83,28.05
376,1222745985,0.5547,-0.4150,-0.7373,-63.54,2.32,28.60
377,1222750987,0.5474,-0.4194,-0.7568,-64.27,3.11,29.27
378,1222755987,0.5571,-0.4219,-0.7588,-65.30,3.78,29.88
379,1222760986,0.5571,-0.3955,-0.7900,-66.28,5.18,30.67
380,1222765987,0.5649,-0.3643,-0.7871,-66.95,6.46,31.16
381,1222770985,0.5767,-0.3521,-0.7837,-67.20,7.93,31.40
382,1222775987,0.5850,-0.3428,-0.7842,-67.26,9.70,31.71
383,1222780986,0.5947,-0.3237,-0.7856,-66.77,11.40,32.01
384,1222785987,0.6069,-0.3164,-0.7837,-66.22,13.17,32.38
385,1222790985,0.5957,-0.2856,-0.7856,-65.24,14.82,32.56
386,1222795987,0.5894,-0.2764,-0.7983,-64.09,16.59,32.87
387,1222800986,0.5820,-0.2705,-0.7925,-62.74,18.05,33.11
388,1222805988,0.5771,-0.2710,-0.7861,-61.34,19.33,33.23
389,1222810985,0.5620,-0.2793,-0.7754,-60.12,20.61,33.48
390,1222815989,0.5327,-0.3013,-0.7617,-58.48,21.95,34.02
391,1222820986,0.5396,-0.3071,-0.7349,-56.83,23.23,34.51
392,1222825987,0.5552,-0.2886,-0.7300,-55.24,24.33,35.18
393,1222830985,0.5913,-0.2559,-0.7256,-53.54,25.79,35.55
394,1222835987,0.6118,-0.2241,-0.7227,-51.59,27.13,36.22
395,1222840986,0.6240,-0.2017,-0.7173,-49.39,28.66,36.95
396,1222845985,0.6294,-0.1860,-0.7031,-47.20,29.94,37.80
397,1222850987,0.6284,-0.1729,-0.7065,-44.76,31.16,38.90
398,1222855989,0.6226,-0.1636,-0.7080,-42.44,32.56,40.06
399,1222860986,0.6157,-0.1665,-0.6968,-40.18,33.60,41.40
400,1222865987,0.6045,-0.1709,-0.6870,-38.05,34.51,42.74
401,1222870985,0.5928,-0.1772,-0.6807,-36.40,35.49,44.27
402,1222875989,0.5918,-0.1792,-0.6611,-35.00,36.22,45.67
403,1222880986,0.5879,-0.1841,-0.6475,-33.96,36.89,46.77
404,1222885987,0.5977,-0.1929,-0.6489,-33.11,37.56,48.17
405,1222890985,0.6016,-0.2070,-0.6431,-32.50,37.99,49.33
406,1222895987,0.6118,-0.2109,-0.6426,-32.32,38.35,50.18
407,1222900986,0.6230,-0.2124,-0.6299,-32.13,38.48,51.16
408,1222905989,0.6396,-0.2100,-0.6328,-32.13,38.48,51.95
409,1222910985,0.6436,-0.1694,-0.6367,-32.56,38.41,52.56
410,1222915987,0.6514,-0.1860,-0.6060,-33.35,38.48,52.80
411,1222920986,0.6768,-0.2378,-0.5913,-34.63,38.54,53.29
412,1222925985,0.7119,-0.3003,-0.6079,-36.28,38.17,53.96
413,1222930987,0.7153,-0.2939,-0.5962,-38.11,37.68,54.94
414,1222935987,0.7114,-0.2778,-0.6025,-39.82,37.07,55.79
415,1222940987,0.7056,-0.2563,-0.5972,-41.52,36.28,56.46
416,1222945986,0.6885,-0.2329,-0.5933,-43.54,35.43,57.01
417,1222950988,0.6577,-0.2070,-0.5913,-46.04,34.57,57.32
418,1222955987,0.5713,-0.1719,-0.6235,-48.90,32.99,57.68
419,1222960987,0.5347,-0.1538,-0.6494,-52.44,31.16,57.50
420,1222965986,0.5771,-0.1763,-0.6211,-56.71,29.02,57.32
421,1222970987,0.6377,-0.1763,-0.6113,-61.77,26.71,57.01
422,1222975985,0.6621,-0.1802,-0.5874,-67.26,24.76,56.77
423,1222980989,0.6914,-0.1533,-0.5747,-72.38,22.74,56.28
424,1222985987,0.7041,-0.1392,-0.5703,-77.68,20.55,55.67
425,1222990987,0.7026,-0.1401,-0.5649,-83.11,18.29,54.63
426,1222995986,0.6978,-0.1367,-0.5444,-88.35,16.04,53.60
427,1223000987,0.7134,-0.1318,-0.5547,-93.66,13.96,52.56
428,1223005987,0.7280,-0.1245,-0.5562,-98.90,11.71,51.65
429,1223010987,0.7051,-0.1133,-0.5479,-103.66,9.63,50.55
430,1223015986,0.6880,-0.0991,-0.5405,-107.74,7.68,49.45
431,1223020988,0.6650,-0.0762,-0.5376,-110.91,5.91,48.23
432,1223025987,0.6519,-0.0518,-0.5449,-113.23,4.21,47.07
433,1223030987,0.6426,-0.0425,-0.5591,-114.63,2.68,45.73
434,1223035988,0.6440,-0.0371,-0.5708,-115.06,1.16,44.51
435,1223040987,0.6572,-0.0337,-0.5713,-114.94,-0.24,43.48
436,1223045987,0.6719,-0.0181,-0.5815,-113.90,-1.71,42.62
437,1223050987,0.6768,-0.0024,-0.5884,-112.44,-2.99,41.89
438,1223055988,0.6758,0.0010,-0.6074,-110.55,-4.33,41.28
439,1223060987,0.6660,0.0088,-0.6284,-107.80,-5.73,40.73
440,1223065987,0.6440,0.0146,-0.6562,-104.21,-7.07,40.24
441,1223070987,0.6191,0.0142,-0.6826,-99.70,-8.29,39.70
442,1223075987,0.5967,0.0308,-0.7085,-94.57,-9.57,39.39
443,1223080986,0.5864,0.0366,-0.7109,-89.02,-10.55,38.90
444,1223085987,0.5884,0.0366,-0.7095,-83.29,-11.34,38.54
445,1223090986,0.5884,0.0322,-0.7036,-77.50,-11.95,38.41
446,1223095987,0.5991,0.0312,-0.7109,-71.83,-12.38,38.29
447,1223100987,0.5942,0.0303,-0.7144,-66.28,-12.38,38.35
448,1223105987,0.5957,0.0220,-0.7246,-60.98,-12.20,38.84
449,1223110986,0.5933,0.0127,-0.7314,-56.34,-12.01,39.45
450,1223115989,0.5947,0.0103,-0.7305,-52.13,-11.34,40.67
451,1223120985,0.5972,0.0156,-0.7271,-48.41,-10.43,42.01
452,1223125989,0.5889,0.0234,-0.7217,-45.12,-9.33,43.84
453,1223130986,0.5815,0.0303,-0.7358,-42.50,-7.87,45.73
454,1223135985,0.5605,0.0342,-0.7402,-40.30,-6.04,47.62
455,1223140987,0.5474,0.0352,-0.7544,-38.48,-4.09,49.57
456,1223145987,0.5366,0.0210,-0.7598,-36.89,-2.13,51.71
457,1223150988,0.5288,0.0020,-0.7720,-35.79,0.12,53.72
458,1223155986,0.5327,-0.0156,-0.8003,-35.18,2.38,55.79
459,1223160987,0.5381,-0.0337,-0.8076,-34.88,4.51,57.87
460,1223165987,0.5474,-0.0537,-0.8208,-34.88,6.65,60.12
461,1223170987,0.5488,-0.0698,-0.8296,-35.24,9.02,62.26
462,1223175986,0.5605,-0.0767,-0.8354,-36.16,11.46,64.51
463,1223180987,0.5620,-0.0830,-0.8340,-37.38,13.60,66.83
464,1223185988,0.5664,-0.0923,-0.8286,-39.15,16.10,69.02
465,1223191082,0.5713,-0.1021,-0.8242,-41.28,18.48,71.34
466,1223195986,0.5708,-0.1011,-0.8320,-43.60,20.85,73.72
467,1223200989,0.5708,-0.1045,-0.8345,-46.22,23.11,75.98
468,1223205987,0.5757,-0.1016,-0.8374,-48.90,25.24,78.17
469,1223210987,0.5771,-0.0947,-0.8320,-51.52,27.07,80.30
470,1223215986,0.5708,-0.1050,-0.8340,-54.09,28.96,82.68
471,1223220987,0.5664,-0.0981,-0.8188,-56.77,30.85,85.06
472,1223225988,0.5674,-0.1025,-0.8291,-59.09,32.20,86.34
473,1223230987,0.5630,-0.1162,-0.8452,-61.28,33.66,87.44
474,1223235986,0.5620,-0.1260,-0.8491,-63.35,34.70,89.88
475,1223240987,0.5654,-0.1260,-0.8618,-65.30,35.43,91.83
476,1223246069,0.5620,-0.1299,-0.8608,-67.26,36.04,93.60
477,1223250987,0.5669,-0.1284,-0.8599,-69.15,36.65,95.37
478,1223255987,0.5747,-0.1152,-0.8716,-71.95,37.32,97.50
479,1223260988,0.5781,-0.1143,-0.8774,-73.11,37.68,98.29
480,1223265988,0.5840,-0.1108,-0.8892,-75.24,37.93,99.57
481,1223270987,0.5889,-0.1152,-0.8936,-77.26,38.23,100.73
482,1223275987,0.5947,-0.1138,-0.8950,-79.57,38.54,101.71
483,1223280987,0.5957,-0.1187,-0.9072,-81.46,38.72,102.56
484,1223285987,0.5947,-0.1162,-0.8970,-83.48,39.33,102.93
485,1223290988,0.5942,-0.1182,-0.8984,-85.12,39.76,103.11
486,1223295987,0.5815,-0.1338,-0.9170,-86.89,40.24,103.23
487,1223300987,0.5654,-0.1392,-0.9131,-88.41,40.98,103.05
488,1223305987,0.5566,-0.1367,-0.9092,-89.63,41.46,102.80
489,1223310987,0.5503,-0.1343,-0.9165,-90.73,42.68,102.44
490,1223315990,0.5469,-0.1211,-0.9067,-91.95,43.72,101.77
491,1223320987,0.5264,-0.1006,-0.9111,-93.60,44.94,100.98
492,1223325985,0.5317,-0.0967,-0.9209,-95.91,46.16,100.18
493,1223330985,0.5459,-0.0938,-0.9224,-98.29,46.95,99.45
494,1223335989,0.5415,-0.0718,-0.9136,-100.73,47.87,98.35
495,1223340986,0.5298,-0.0239,-0.9390,-102.01,48.84,97.80
496,1223345987,0.5249,-0.0166,-0.9395,-104.57,49.88,96.77
497,1223350986,0.5288,-0.0303,-0.9355,-107.32,50.79,95.85
498,1223355989,0.5078,0.0225,-0.9644,-110.43,51.65,94.88
499,1223360986,0.5010,0.0459,-0.9292,-115.00,52.56,93.48
500,1223365987,0.5195,0.0435,-0.9180,-120.85,53.54,92.32
501,1223370986,0.5459,0.0151,-0.9443,-127.32,54.33,91.10
502,1223375987,0.5503,-0.0098,-0.9619,-133.96,55.43,90.24
503,1223380987,0.5405,-0.0166,-0.9668,-140.43,56.59,89.57
504,1223385985,0.5249,-0.0225,-0.9814,-146.95,57.68,87.38
505,1223390987,0.5220,-0.0210,-1.0000,-153.96,58.78,86.59
506,1223395986,0.5205,-0.0205,-0.9922,-161.16,59.76,86.77
507,1223400987,0.5234,-0.0127,-0.9907,-168.41,60.79,86.71
508,1223405988,0.5264,-0.0024,-1.0054,-175.49,61.71,86.34
509,1223410987,0.5205,0.0054,-1.0122,-181.89,62.50,84.94
510,1223415987,0.5205,0.0186,-1.0225,-187.50,63.11,84.21
511,1223420987,0.5234,0.0391,-1.0205,-192.20,63.78,83.35
512,1223426278,0.5332,0.0591,-1.0195,-196.34,64.15,83.05
513,1223430987,0.5430,0.0757,-1.0210,-198.17,64.39,82.87
514,1223435987,0.5503,0.0859,-1.0283,-199.27,64.82,82.68
515,1223440987,0.5552,0.0854,-1.0352,-199.45,65.00,82.68
516,1223445987,0.5659,0.0918,-1.0439,-198.35,64.88,82.56
517,1223450987,0.5493,0.0781,-1.0215,-197.01,64.70,82.50
518,1223455987,0.5151,0.0459,-1.0928,-193.78,64.33,82.74
519,1223460987,0.5181,0.1001,-0.9976,-187.38,64.70,82.56
520,1223465988,0.5483,0.0869,-0.9668,-182.74,65.24,82.38
521,1223470987,0.6050,0.0610,-0.9990,-175.67,65.85,82.32
522,1223475987,0.6318,0.0566,-1.0112,-170.12,65.91,82.56
523,1223480988,0.6362,0.0747,-0.9839,-164.57,65.73,82.87
524,1223485987,0.6323,0.0947,-0.9644,-159.39,66.10,82.80
525,1223490987,0.6216,0.0942,-0.9683,-154.63,66.46,82.93
526,1223495986,0.6196,0.0933,-0.9771,-150.37,66.52,83.05
527,1223500987,0.6265,0.0928,-0.9575,-146.65,66.71,83.35
528,1223505987,0.6318,0.1040,-0.9502,-143.35,66.83,83.48
529,1223510986,0.6416,0.1177,-0.9395,-140.61,66.95,83.84
530,1223515987,0.6528,0.1226,-0.9272,-138.05,67.26,84.09
531,1223520986,0.6670,0.1235,-0.9170,-136.10,67.56,84.09
532,1223525992,0.6729,0.1270,-0.9106,-134.39,67.93,84.15
533,1223530987,0.6738,0.1323,-0.9043,-133.11,68.54,84.15
534,1223535987,0.6655,0.1260,-0.8999,-132.01,68.78,84.33
535,1223540987,0.6587,0.1138,-0.8955,-131.40,69.02,84.45
536,1223545987,0.6538,0.1040,-0.8809,-131.16,69.33,84.21
537,1223550987,0.6479,0.0957,-0.8721,-131.28,69.82,83.72
538,1223555987,0.6504,0.0874,-0.8667,-131.77,70.12,83.78
539,1223560988,0.6514,0.0806,-0.8481,-132.56,70.43,83.29
540,1223565987,0.6523,0.0708,-0.8359,-133.96,70.91,82.93
541,1223571029,0.6436,0.0669,-0.8242,-136.04,71.22,82.62
542,1223575987,0.6353,0.0605,-0.8115,-138.72,71.65,82.20
543,1223580987,0.6328,0.0557,-0.8130,-141.89,72.20,81.77
544,1223585985,0.6255,0.0522,-0.8008,-145.67,72.32,81.59
545,1223591362,0.6167,0.0454,-0.7896,-149.70,72.62,81.28
546,1223595987,0.6147,0.0522,-0.7754,-154.02,72.74,80.98
547,1223600986,0.6089,0.0493,-0.7681,-158.54,73.11,80.49
548,1223606109,0.6021,0.0493,-0.7568,-163.17,73.41,79.88
549,1223610987,0.5698,0.0454,-0.7476,-167.80,73.66,79.27
550,1223615987,0.5420,0.0435,-0.7485,-172.62,73.84,78.60
551,1223620987,0.5269,0.0298,-0.7188,-177.56,74.21,77.74
552,1223625987,0.5430,0.0405,-0.7505,-182.32,74.39,77.01
553,1223630986,0.6016,0.0439,-0.6953,-187.38,74.94,76.16
554,1223635987,0.6445,0.0205,-0.7109,-192.50,75.06,75.24
555,1223640987,0.6489,0.0063,-0.6826,-197.56,74.82,74.76
556,1223645987,0.5757,0.0283,-0.6421,-202.87,75.12,74.09
557,1223650987,0.5918,0.0044,-0.6411,-208.23,75.85,73.35
558,1223655987,0.6343,0.0220,-0.6665,-213.78,75.79,72.87
559,1223660987,0.6802,0.0029,-0.6470,-219.15,75.30,72.26
560,1223665987,0.7061,-0.0073,-0.6309,-224.51,74.88,72.01
561,1223670987,0.7041,0.0059,-0.6138,-229.57,74.39,71.83
562,1223675987,0.6758,0.0127,-0.5981,-233.84,73.96,71.65
563,1223680987,0.6538,0.0127,-0.5981,-237.44,73.66,71.46
564,1223685987,0.6587,0.0083,-0.6025,-240.30,73.11,71.52
565,1223690988,0.6592,0.0083,-0.5913,-242.32,72.44,71.52
566,1223695987,0.6626,0.0088,-0.5654,-243.54,71.83,71.52
567,1223700986,0.6685,0.0117,-0.5508,-244.09,71.52,71.59
568,1223705987,0.6562,0.0156,-0.5293,-243.96,71.10,71.83
569,1223710987,0.6445,0.0181,-0.5234,-242.99,70.61,72.07
570,1223715986,0.6289,0.0200,-0.5010,-241.40,70.12,72.44
571,1223720987,0.6245,0.0093,-0.4883,-239.09,69.88,72.93
572,1223725987,0.6172,0.0039,-0.4604,-236.04,69.21,73.66
573,1223731051,0.6079,-0.0044,-0.4312,-232.38,68.54,74.51
574,1223735987,0.6060,-0.0137,-0.4175,-227.87,68.05,75.49
575,1223740987,0.5947,-0.0146,-0.3945,-222.56,67.13,76.65
576,1223745987,0.5776,-0.0156,-0.3701,-216.65,66.28,77.87
577,1223750987,0.5771,-0.0010,-0.3496,-210.61,65.30,79.27
578,1223755987,0.6206,-0.0288,-0.2935,-203.96,64.02,80.61
579,1223760987,0.6289,-0.0508,-0.2964,-196.59,62.74,82.13
580,1223765985,0.6147,-0.0732,-0.2944,-188.35,61.46,84.15
581,1223770987,0.6040,-0.0977,-0.2822,-179.45,60.00,85.61
582,1223775987,0.6099,-0.1172,-0.2812,-169.63,58.35,87.32
583,1223780987,0.6226,-0.0669,-0.2612,-159.21,57.13,87.80
584,1223785985,0.6470,-0.0488,-0.2363,-149.76,55.91,90.18
585,1223791001,0.6519,-0.0439,-0.2070,-141.10,54.63,92.07
586,1223795985,0.6499,-0.0356,-0.1885,-133.35,53.41,93.84
587,1223800989,0.6489,-0.0288,-0.1685,-126.52,52.13,95.37
588,1223805987,0.6602,-0.0156,-0.1548,-120.55,50.91,96.89
589,1223810988,0.6738,-0.0063,-0.1250,-115.67,49.39,98.35
590,1223815987,0.6768,-0.0039,-0.1050,-112.20,47.87,99.57
591,1223820987,0.6812,-0.0103,-0.1016,-109.94,46.40,100.85
592,1223825987,0.6807,-0.0186,-0.0820,-108.78,44.70,102.20
593,1223830987,0.6802,-0.0249,-0.0576,-108.66,42.99,103.48
594,1223836556,0.6768,-0.0337,-0.0405,-109.33,41.40,104.76
595,1223840987,0.6738,-0.0361,-0.0454,-110.79,39.88,105.85
596,1223845986,0.6680,-0.0464,-0.0244,-112.62,38.48,107.13
597,1223850987,0.6714,-0.0464,-0.0190,-114.82,36.83,108.29
598,1223855987,0.6680,-0.0513,-0.0215,-117.07,35.37,109.45
599,1223860988,0.6719,-0.0581,-0.0049,-119.27,33.66,110.67
600,1223865987,0.6772,-0.0674,-0.0054,-121.52,31.95,111.95
601,1223870987,0.6880,-0.0747,0.0088,-123.29,30.18,113.23
602,1223875987,0.6924,-0.0781,0.0103,-124.82,28.23,114.51
603,1223880987,0.6953,-0.0869,0.0249,-125.73,26.34,115.67
604,1223885987,0.6938,-0.0942,0.0273,-126.22,24.45,116.89
605,1223890987,0.6938,-0.1011,0.0342,-126.40,22.50,117.87
606,1223895985,0.6875,-0.1084,0.0439,-126.40,20.73,118.84
607,1223900987,0.6831,-0.1177,0.0425,-126.28,18.90,119.94
608,1223905987,0.6777,-0.1309,0.0527,-125.85,17.01,120.98
609,1223910986,0.6665,-0.1421,0.0591,-125.67,15.12,122.07
610,1223916313,0.6602,-0.1499,0.0698,-125.24,13.29,122.99
611,1223920987,0.6538,-0.1626,0.0869,-124.94,11.71,124.09
612,1223925987,0.6499,-0.1733,0.0762,-124.51,10.12,125.12
613,1223930987,0.6348,-0.1846,0.0869,-123.96,8.48,126.22
614,1223935985,0.6289,-0.1973,0.0972,-123.48,6.89,127.26
615,1223940987,0.6172,-0.2085,0.0933,-123.05,5.30,128.05
616,1223945987,0.6084,-0.2256,0.1094,-122.56,3.84,129.15
617,1223950987,0.6133,-0.2422,0.1152,-122.13,2.38,130.06
618,1223955987,0.6143,-0.2676,0.1206,-121.59,0.85,131.22
619,1223960987,0.6118,-0.2827,0.1260,-120.73,-0.67,132.32
620,1223965988,0.6118,-0.3071,0.1367,-119.57,-2.20,133.54
621,1223970987,0.6089,-0.3179,0.1387,-118.35,-3.84,134.88
622,1223975987,0.6128,-0.3340,0.1470,-116.59,-5.49,136.04
623,1223980987,0.6113,-0.3491,0.1445,-114.45,-6.89,137.38
624,1223986238,0.6196,-0.3672,0.1396,-111.95,-8.72,138.60
625,1223990987,0.6167,-0.3882,0.1455,-109.33,-10.49,139.82
626,1223995986,0.6191,-0.4102,0.1475,-106.34,-12.26,141.10
627,1224000987,0.6138,-0.4277,0.1362,-102.87,-14.21,142.50
628,1224005987,0.6182,-0.4580,0.1333,-99.15,-16.22,143.78
629,1224010986,0.5879,-0.4902,0.1226,-95.18,-18.35,145.49
630,1224015987,0.5933,-0.5034,0.1294,-91.28,-20.79,147.20
631,1224020987,0.6533,-0.5200,0.1411,-87.26,-22.93,148.90
632,1224025987,0.6660,-0.5215,0.1704,-82.99,-25.00,150.18
633,1224030986,0.6353,-0.5176,0.1704,-78.17,-26.83,151.10
634,1224035989,0.6040,-0.5371,0.1431,-72.99,-28.60,151.77
635,1224040986,0.5923,-0.5596,0.1519,-67.44,-30.61,152.56
636,1224045987,0.5952,-0.5776,0.1567,-61.89,-32.44,152.87
637,1224050986,0.5928,-0.5835,0.1533,-56.34,-34.02,153.17
638,1224055987,0.5859,-0.5903,0.1494,-50.55,-35.73,153.11
639,1224060986,0.5732,-0.6069,0.1440,-44.76,-37.44,153.11
640,1224065987,0.5693,-0.6245,0.1406,-38.96,-39.02,152.93
641,1224070987,0.5596,-0.6450,0.1382,-33.23,-40.67,152.74
642,1224075987,0.5498,-0.6592,0.1357,-27.50,-42.13,152.50
643,1224080986,0.5410,-0.6719,0.1299,-22.07,-43.29,152.07
644,1224085985,0.5337,-0.6816,0.1279,-16.95,-44.57,151.65
645,1224090985,0.5303,-0.7017,0.1226,-12.26,-45.73,151.10
646,1224095985,0.5239,-0.7085,0.1196,-8.29,-46.89,150.37
647,1224100987,0.5186,-0.7227,0.1035,-4.82,-47.80,149.51
648,1224105989,0.5166,-0.7334,0.1035,-2.44,-48.90,148.54
649,1224110986,0.5220,-0.7485,0.0947,-0.85,-49.88,147.50
650,1224115989,0.5156,-0.7559,0.0825,-0.12,-51.10,146.22
651,1224120987,0.5112,-0.7598,0.0874,-0.06,-51.83,144.88
652,1224125987,0.5083,-0.7603,0.0713,-0.61,-52.93,143.35
653,1224130986,0.4961,-0.7666,0.0664,-1.77,-54.15,141.77
654,1224135988,0.4883,-0.7666,0.0601,-3.48,-55.12,140.18
655,1224140986,0.4751,-0.7671,0.0532,-5.55,-56.28,138.48
656,1224145987,0.4668,-0.7656,0.0464,-7.87,-57.50,137.13
657,1224150986,0.4585,-0.7598,0.0278,-10.24,-58.78,135.55
658,1224155987,0.4521,-0.7476,0.0259,-12.44,-60.18,134.27
659,1224160987,0.4526,-0.7515,0.0225,-14.63,-61.59,133.23
660,1224165987,0.4609,-0.7695,-0.0107,-16.52,-63.17,132.68
661,1224170986,0.4766,-0.7920,-0.0298,-18.72,-65.43,132.50
662,1224175989,0.4805,-0.7959,-0.0483,-20.49,-67.74,132.62
663,1224180986,0.4751,-0.7988,-0.0552,-21.83,-69.94,132.93
664,1224185987,0.4648,-0.7817,-0.0591,-22.44,-72.20,133.17
665,1224190986,0.4487,-0.7651,-0.0610,-22.44,-74.02,133.29
666,1224195987,0.4375,-0.7456,-0.0674,-21.52,-75.73,133.17
667,1224200988,0.4229,-0.7358,-0.0674,-20.06,-77.32,133.23
668,1224205987,0.4092,-0.7197,-0.0620,-18.05,-78.60,133.17
669,1224210987,0.3906,-0.6997,-0.0552,-15.67,-79.45,133.11
670,1224215987,0.3760,-0.6821,-0.0571,-13.23,-80.37,133.17
671,1224220988,0.3701,-0.6724,-0.0591,-11.04,-81.10,133.17
672,1224225987,0.3823,-0.6782,-0.0820,-9.02,-81.89,133.41
673,1224230987,0.3809,-0.6807,-0.0913,-7.99,-83.05,133.96
674,1224235987,0.3770,-0.6714,-0.0913,-7.50,-84.15,134.63
675,1224240987,0.3613,-0.6631,-0.0967,-7.44,-85.30,135.18
676,1224245987,0.3516,-0.6538,-0.0938,-8.17,-86.10,135.67
677,1224250987,0.3423,-0.6411,-0.1035,-9.15,-86.77,136.04
678,1224255987,0.3306,-0.6353,-0.1055,-10.79,-87.44,136.22
679,1224260987,0.3237,-0.6294,-0.1045,-12.68,-88.11,136.40
680,1224265985,0.3188,-0.6255,-0.1055,-15.12,-88.60,136.65
681,1224270987,0.3193,-0.6133,-0.1118,-17.68,-89.09,136.89
682,1224275986,0.3193,-0.6123,-0.1270,-20.43,-89.57,137.13
683,1224280988,0.3174,-0.6270,-0.1504,-23.72,-90.12,137.38
684,1224285987,0.3071,-0.6318,-0.1689,-27.26,-90.98,137.87
685,1224290986,0.2876,-0.6333,-0.1699,-30.91,-91.77,138.41
686,1224295987,0.2573,-0.6338,-0.1782,-34.09,-91.83,139.15
687,1224300986,0.2334,-0.6318,-0.1904,-36.89,-92.26,139.88
688,1224305987,0.2026,-0.6338,-0.2070,-39.39,-92.74,140.55
689,1224310987,0.1802,-0.6421,-0.2275,-41.40,-92.99,141.16
690,1224315987,0.1567,-0.6533,-0.2471,-42.87,-93.23,142.26
691,1224320987,0.1362,-0.6748,-0.2822,-43.96,-93.29,143.41
692,1224325985,0.1123,-0.6992,-0.3096,-44.76,-93.48,144.76
693,1224330987,0.0806,-0.7168,-0.3340,-45.24,-93.78,146.28
694,1224335987,0.0425,-0.7363,-0.3516,-45.06,-93.96,147.87
695,1224340987,0.0059,-0.7510,-0.3760,-44.33,-93.78,149.70
696,1224345985,-0.0322,-0.7695,-0.4023,-43.17,-93.90,151.34
697,1224350987,-0.0566,-0.7852,-0.4248,-41.40,-93.23,153.23
698,1224355987,-0.0913,-0.8057,-0.4492,-39.45,-92.87,155.12
699,1224360986,-0.1274,-0.8320,-0.4795,-37.20,-92.38,157.26
700,1224365987,-0.1772,-0.8564,-0.5063,-34.63,-91.65,159.45
701,1224370987,-0.2188,-0.8765,-0.5215,-32.20,-90.73,161.52
702,1224375987,-0.2656,-0.8906,-0.5464,-29.21,-89.63,163.60
703,1224380988,-0.3071,-0.9180,-0.5669,-26.16,-88.60,165.73
704,1224386424,-0.3618,-0.9570,-0.5996,-22.01,-87.26,168.11
705,1224390987,-0.4019,-0.9795,-0.6128,-19.15,-86.28,169.94
706,1224395986,-0.4604,-1.0054,-0.6177,-15.43,-85.18,171.83
707,1224400987,-0.5181,-1.0293,-0.6162,-11.22,-83.72,173.54
708,1224405985,-0.5630,-1.0444,-0.6162,-7.20,-82.26,175.24
709,1224410988,-0.6074,-1.0654,-0.6284,-3.29,-80.91,176.52
710,1224415987,-0.6660,-1.0928,-0.6191,0.49,-79.70,177.62
711,1224420986,-0.7285,-1.1113,-0.6182,4.02,-78.66,178.35
712,1224425987,-0.7949,-1.1309,-0.6069,6.95,-77.50,179.15
713,1224430986,-0.8481,-1.1475,-0.5869,9.27,-76.59,179.21
714,1224435987,-0.8960,-1.1597,-0.5835,10.98,-75.61,178.90
715,1224440986,-0.9297,-1.1694,-0.5928,11.95,-75.30,178.17
716,1224445987,-0.9629,-1.1831,-0.6045,12.01,-75.43,176.77
717,1224450986,-1.0029,-1.2144,-0.6143,11.10,-76.40,175.18
718,1224455987,-1.0449,-1.2505,-0.6318,8.84,-77.80,173.23
719,1224460986,-1.0820,-1.2686,-0.6060,5.18,-79.51,171.10
720,1224465985,-1.1372,-1.2842,-0.5972,0.55,-81.52,168.48
721,1224470987,-1.1743,-1.3145,-0.6323,-5.30,-84.51,165.85
722,1224475987,-1.2183,-1.3413,-0.6265,-12.87,-88.11,162.01
723,1224480987,-1.2700,-1.3521,-0.5698,-17.62,-90.43,159.45
724,1224485987,-1.3296,-1.3618,-0.5933,-22.87,-93.90,155.61
725,1224490988,-1.3828,-1.3613,-0.6006,-27.44,-97.68,151.46
726,1224495985,-1.4292,-1.3662,-0.5664,-30.98,-101.71,146.71
727,1224500988,-1.4800,-1.3813,-0.5483,-33.29,-105.61,141.71
728,1224505987,-1.5205,-1.3936,-0.5298,-34.15,-109.63,136.46
729,1224510987,-1.5591,-1.4048,-0.5151,-33.41,-113.66,130.67
730,1224515985,-1.5825,-1.4150,-0.4834,-31.34,-117.68,124.76
731,1224520985,-1.6001,-1.4438,-0.4658,-27.99,-121.71,118.66
732,1224525987,-1.6108,-1.4604,-0.4453,-23.60,-125.85,112.38
733,1224530986,-1.6196,-1.4849,-0.4424,-18.66,-130.43,105.79
734,1224535987,-1.6128,-1.4917,-0.4316,-13.17,-135.24,99.02
735,1224540986,-1.6128,-1.4985,-0.4268,-7.50,-140.49,91.89
736,1224545988,-1.6108,-1.5005,-0.4053,-1.71,-146.04,84.27
737,1224550986,-1.6084,-1.5049,-0.3853,4.21,-151.71,75.55
738,1224555987,-1.6084,-1.5171,-0.3760,9.51,-157.62,66.71
739,1224560986,-1.6226,-1.5254,-0.3516,14.15,-163.78,57.44
740,1224566298,-1.6328,-1.5303,-0.3340,18.11,-171.65,45.98
741,1224570988,-1.6421,-1.5332,-0.3315,19.70,-177.13,38.11
742,1224575987,-1.6460,-1.5366,-0.3354,20.06,-184.39,27.80
743,1224580986,-1.6533,-1.5366,-0.3501,18.96,-192.32,17.26
744,1224585985,-1.6646,-1.5327,-0.3745,16.22,-200.98,6.34
745,1224591067,-1.6841,-1.5366,-0.3999,11.89,-210.18,-4.76
746,1224595987,-1.7163,-1.5493,-0.4268,6.46,-219.76,-16.10
747,1224600986,-1.7583,-1.5571,-0.4497,0.06,-229.63,-27.26
748,1224605987,-1.8140,-1.5615,-0.4805,-6.65,-240.12,-38.60
749,1224610986,-1.8677,-1.5601,-0.5137,-13.29,-250.67,-49.76
750,1224615987,-1.9404,-1.5605,-0.5430,-19.27,-261.04,-60.98
751,1224620986,-2.0181,-1.5586,-0.5649,-24.33,-271.77,-72.20
752,1224626019,-2.0903,-1.5435,-0.5952,-28.17,-282.13,-83.48
753,1224630986,-2.1631,-1.5288,-0.6284,-30.37,-292.13,-94.63
754,1224635987,-2.2256,-1.5176,-0.6602,-31.10,-302.13,-105.91
755,1224640986,-2.2759,-1.5083,-0.6890,-30.43,-312.01,-117.20
756,1224645990,-2.3169,-1.4956,-0.7192,-28.84,-322.07,-128.41
757,1224650985,-2.3569,-1.4858,-0.7593,-26.65,-331.77,-139.33
758,1224655989,-2.3911,-1.4717,-0.7910,-24.09,-341.77,-150.18
759,1224660989,-2.4185,-1.4595,-0.8237,-21.71,-351.65,-160.85
760,1224665986,-2.4473,-1.4453,-0.8550,-19.94,-361.40,-171.40
761,1224670985,-2.4756,-1.4263,-0.8945,-18.66,-371.22,-181.83
762,1224675985,-2.5098,-1.4136,-0.9390,-18.29,-381.04,-192.13
763,1224680987,-2.5576,-1.3994,-0.9873,-18.41,-390.61,-202.56
764,1224685987,-2.6089,-1.3745,-1.0361,-19.02,-399.70,-212.62
765,1224690985,-2.6709,-1.3555,-1.0728,-20.18,-408.84,-222.68
766,1224696065,-2.7446,-1.3350,-1.1226,-21.46,-417.01,-232.74
767,1224700987,-2.8135,-1.3154,-1.1665,-22.80,-424.94,-242.44
768,1224705987,-2.8853,-1.3047,-1.2212,-23.96,-432.44,-252.13
769,1224710987,-2.9487,-1.2856,-1.2700,-24.45,-438.90,-261.40
770,1224715985,-3.0029,-1.2754,-1.3223,-24.33,-445.18,-270.37
771,1224720987,-3.0610,-1.2666,-1.3794,-23.35,-451.22,-278.84
772,1224725987,-3.0977,-1.2480,-1.4365,-21.10,-456.59,-286.71
773,1224730987,-3.1396,-1.2412,-1.4897,-17.62,-461.71,-293.84
774,1224735985,-3.1909,-1.2178,-1.5229,-13.17,-466.34,-300.67
775,1224740985,-3.2271,-1.1948,-1.5630,-6.95,-470.12,-306.95
776,1224745987,-3.2466,-1.1787,-1.6226,0.30,-473.72,-312.87
777,1224750987,-3.2588,-1.1533,-1.6704,7.80,-477.07,-318.29
778,1224755985,-3.2812,-1.1265,-1.7358,15.91,-480.24,-323.54
779,1224761032,-3.3013,-1.1035,-1.7725,23.54,-483.17,-328.23
780,1224766058,-3.3252,-1.0869,-1.8364,31.89,-486.28,-333.41
781,1224770986,-3.3301,-1.0737,-1.8647,36.46,-487.93,-336.52
782,1224775985,-3.3267,-1.0796,-1.9141,40.55,-490.12,-340.30
783,1224780987,-3.3877,-1.0386,-1.9692,42.93,-492.01,-343.96
784,1224785986,-3.4326,-1.0005,-2.0293,43.60,-493.29,-347.80
785,1224790985,-3.4443,-0.9927,-2.0498,43.72,-494.21,-351.89
786,1224795987,-3.4385,-0.9800,-2.0874,44.21,-494.45,-355.37
787,1224800989,-3.4380,-0.9751,-2.1177,45.18,-493.96,-358.72
788,1224805987,-3.4448,-0.9639,-2.1636,46.46,-493.11,-361.77
789,1224810987,-3.4453,-0.9414,-2.1953,48.66,-491.71,-364.57
790,1224815985,-3.4541,-0.9258,-2.2261,51.59,-489.82,-367.26
791,1224821026,-3.4570,-0.8989,-2.2563,55.55,-486.59,-370.24
792,1224825987,-3.4521,-0.8906,-2.2871,59.88,-483.29,-372.50
793,1224830986,-3.4438,-0.8770,-2.3086,63.72,-480.18,-374.39
794,1224835987,-3.4282,-0.8682,-2.3389,70.06,-474.94,-376.65
795,1224840986,-3.4189,-0.8770,-2.3545,74.45,-471.04,-377.99
796,1224845987,-3.4204,-0.8608,-2.3647,80.37,-464.33,-380.00
797,1224850986,-3.4038,-0.8677,-2.3823,85.85,-457.87,-381.52
798,1224855987,-3.3828,-0.8657,-2.3901,91.16,-451.22,-382.87
799,1224860986,-3.3540,-0.8706,-2.4116,95.67,-443.72,-384.09
800,1224865985,-3.3105,-0.8833,-2.4209,100.79,-435.73,-385.00
801,1224870987,-3.2603,-0.8887,-2.4248,106.04,-427.74,-385.91
802,1224875987,-3.2144,-0.9121,-2.4478,110.18,-419.21,-386.83
803,1224880987,-3.1523,-0.9185,-2.4346,112.56,-410.67,-387.99
804,1224885988,-3.0625,-0.9282,-2.4219,114.09,-401.65,-389.33
805,1224890987,-2.9717,-0.9307,-2.3999,113.78,-392.32,-391.22
806,1224895987,-2.8701,-0.9248,-2.3877,111.04,-382.50,-393.90
807,1224900988,-2.7725,-0.9106,-2.3696,106.89,-372.56,-397.38
808,1224905987,-2.6753,-0.8862,-2.3511,100.91,-362.56,-401.40
809,1224910987,-2.5811,-0.8701,-2.3345,92.80,-352.26,-406.28
810,1224915985,-2.4893,-0.8638,-2.3315,83.29,-341.95,-411.83
811,1224921015,-2.4121,-0.8481,-2.3159,72.13,-331.22,-417.56
812,1224926459,-2.3447,-0.8267,-2.3101,59.88,-320.43,-423.78
813,1224930987,-2.2666,-0.8096,-2.2979,46.65,-309.09,-430.12
814,1224935989,-2.1997,-0.7866,-2.2710,33.54,-297.07,-436.95
815,1224940986,-2.1343,-0.7588,-2.2563,21.10,-284.33,-443.72
816,1224945987,-2.0679,-0.7158,-2.2217,9.57,-271.04,-450.85
817,1224950986,-2.0063,-0.6714,-2.1968,-0.43,-257.13,-458.17
818,1224955988,-1.9424,-0.6289,-2.1890,-8.78,-242.87,-465.49
819,1224960986,-1.8975,-0.5840,-2.1714,-15.55,-228.05,-472.93
820,1224965985,-1.8481,-0.5386,-2.1528,-20.79,-213.29,-480.30
821,1224970988,-1.7910,-0.4800,-2.1309,-25.12,-198.90,-487.62
822,1224975987,-1.7466,-0.4243,-2.1157,-28.66,-184.63,-494.88
823,1224980994,-1.7266,-0.3755,-2.1001,-31.59,-170.67,-502.26
824,1224985985,-1.6973,-0.3306,-2.0859,-34.27,-156.71,-509.57
825,1224990987,-1.6763,-0.2852,-2.0615,-37.44,-142.87,-516.65
826,1224995985,-1.6650,-0.2354,-2.0322,-41.28,-128.96,-523.90
827,1225000987,-1.6675,-0.1836,-1.9956,-45.79,-115.06,-530.98
828,1225005987,-1.6816,-0.1372,-1.9644,-51.52,-100.91,-538.17
829,1225010986,-1.6938,-0.0889,-1.9258,-58.72,-86.46,-545.73
830,1225015987,-1.7129,-0.0410,-1.8921,-67.80,-71.46,-553.54
831,1225020986,-1.7388,0.0005,-1.8384,-78.60,-56.16,-561.71
832,1225025987,-1.7690,0.0381,-1.7959,-90.85,-40.30,-569.70
833,1225030987,-1.8062,0.0713,-1.7490,-104.39,-24.09,-577.68
834,1225035987,-1.8472,0.1089,-1.7710,-119.33,-7.38,-585.73
835,1225040986,-1.7871,0.0337,-2.1597,-136.71,9.82,-593.48
836,1225045987,-1.6060,0.0713,-3.1138,-157.38,27.44,-600.55
837,1225050986,-1.1377,0.5117,-2.7930,-176.95,46.89,-607.56
838,1225055988,-1.0776,0.6938,-2.8042,-198.54,71.77,-615.30
839,1225060986,-1.5483,0.5244,-2.5015,-220.79,96.34,-621.34
840,1225065987,-1.9507,0.3228,-1.9453,-241.89,119.70,-625.61
841,1225070986,-2.0928,0.3379,-1.6846,-260.91,143.48,-627.80
842,1225076080,-2.0625,0.4292,-1.4541,-277.93,166.52,-628.48
843,1225080987,-2.0562,0.5972,-1.3594,-293.35,188.96,-627.68
844,1225085987,-2.1113,0.7495,-1.3364,-306.83,211.65,-625.30
845,1225090986,-2.2593,0.8379,-1.2788,-317.38,233.78,-621.40
846,1225095985,-2.3770,0.8003,-1.1680,-324.76,255.24,-614.88
847,1225100985,-2.3960,0.7354,-1.1182,-327.74,275.55,-605.67
848,1225105987,-2.3779,0.6162,-0.9604,-325.30,294.45,-594.21
849,1225110987,-2.3325,0.5723,-0.7505,-315.73,312.26,-580.55
850,1225115988,-2.3159,0.4678,-0.6489,-299.15,328.05,-565.24
851,1225120987,-2.2612,0.4502,-0.6377,-277.01,341.65,-548.35
852,1225125985,-2.1885,0.4976,-0.5513,-250.49,353.60,-530.18
853,1225130989,-2.0615,0.6240,-0.5132,-220.73,363.84,-511.40
854,1225135987,-1.9487,0.7437,-0.5063,-189.33,372.44,-492.20
855,1225140987,-1.8677,0.8384,-0.5093,-157.99,378.60,-472.74
856,1225145987,-1.7559,0.8882,-0.4414,-128.60,382.68,-452.74
857,1225150987,-1.7134,0.9155,-0.3765,-102.56,385.00,-432.74
858,1225155987,-1.6445,0.9644,-0.3276,-80.73,386.16,-412.87
859,1225160987,-1.7197,0.9917,-0.2212,-64.02,386.10,-393.54
860,1225166452,-1.8018,1.0117,-0.1831,-52.50,385.00,-375.00
861,1225170987,-1.7983,1.0596,-0.1528,-45.85,383.23,-357.32
862,1225175987,-1.7363,1.0728,-0.0713,-42.44,380.98,-340.73
863,1225180988,-1.7178,1.0625,0.0278,-41.59,378.90,-324.88
864,1225185987,-1.7012,1.0312,0.0908,-42.32,376.83,-309.57
865,1225190987,-1.7104,0.8721,0.1538,-43.48,374.57,-295.06
866,1225195985,-1.7417,0.8501,0.2231,-45.85,371.71,-280.55
867,1225201048,-1.7769,0.8369,0.2808,-49.21,368.29,-266.71
868,1225205987,-1.8057,0.8535,0.3745,-53.35,364.33,-253.48
869,1225210987,-1.8818,0.8872,0.4614,-57.20,360.37,-241.10
870,1225215987,-1.9941,0.9717,0.5435,-60.61,355.85,-229.51
871,1225220987,-2.1494,1.0957,0.6167,-63.35,351.10,-218.66
872,1225225987,-2.3115,1.2573,0.6924,-65.67,345.49,-208.54
873,1225230987,-2.4775,1.4502,0.7681,-67.68,339.27,-199.39
874,1225236519,-2.6313,1.6479,0.8457,-69.88,332.26,-190.91
875,1225240987,-2.8384,1.8916,0.9243,-72.80,324.57,-183.17
876,1225245988,-3.1704,2.1074,0.9858,-77.20,316.28,-176.34
877,1225250987,-3.2573,2.3608,1.0010,-85.67,306.04,-170.12
878,1225255987,-3.0649,2.4854,1.2524,-96.95,296.77,-164.45
879,1225260987,-2.9702,2.5195,1.2627,-108.90,287.38,-158.41
880,1225265985,-2.8960,2.5088,1.2720,-121.46,276.59,-151.16
881,1225270987,-2.7539,2.4922,1.3052,-133.17,264.82,-142.38
882,1225275987,-2.5820,2.4146,1.3481,-142.99,252.07,-132.56
883,1225280986,-2.4048,2.3867,1.3311,-148.66,238.90,-121.28
884,1225285985,-2.2168,2.3276,1.3086,-149.76,225.12,-109.27
885,1225290987,-2.0112,2.2290,1.3345,-146.10,211.22,-96.34
886,1225295985,-1.8682,2.1274,1.3228,-138.35,197.80,-82.68
887,1225300987,-1.7202,1.9487,1.3071,-127.01,184.39,-68.66
888,1225306133,-1.5908,1.7979,1.2983,-112.32,170.79,-54.09
889,1225310989,-1.3979,1.6875,1.2603,-94.45,157.74,-39.88
890,1225315987,-1.2227,1.5415,1.2397,-74.63,145.12,-25.67
891,1225320986,-1.0342,1.4038,1.2310,-54.33,132.87,-11.77
892,1225325987,-0.8623,1.2896,1.1919,-35.06,121.16,2.01
893,1225330986,-0.7178,1.1934,1.1602,-18.05,109.76,15.43
894,1225335987,-0.6099,1.1172,1.1343,-4.15,98.90,28.41
895,1225340986,-0.5146,1.0620,1.1055,6.46,89.02,40.79
896,1225345987,-0.4448,1.0195,1.0737,13.05,78.84,52.50
897,1225350986,-0.3701,0.9932,1.0664,16.16,69.39,63.72
898,1225355987,-0.3335,0.9810,1.0415,16.04,60.61,74.27
899,1225360986,-0.3140,0.9590,1.0137,13.35,52.50,83.72
900,1225365988,-0.3062,0.9409,0.9912,9.02,44.88,93.23
901,1225370986,-0.3076,0.9292,0.9580,4.45,37.68,102.01
902,1225375987,-0.3193,0.9150,0.9116,0.67,30.67,110.24
903,1225380986,-0.3301,0.9038,0.8711,-1.40,23.96,118.05
904,1225385987,-0.3472,0.8916,0.8325,-0.98,17.56,125.30
905,1225390986,-0.3604,0.8765,0.7998,1.77,11.52,132.01
906,1225395987,-0.3843,0.8652,0.7788,7.26,5.85,138.48
907,1225400986,-0.4126,0.8545,0.7427,14.57,0.67,144.57
908,1225405987,-0.4429,0.8501,0.7173,23.72,-3.84,150.12
909,1225410986,-0.4722,0.8472,0.6909,33.72,-7.87,155.18
910,1225415987,-0.5015,0.8467,0.6621,44.09,-11.28,159.94
911,1225420987,-0.5166,0.8496,0.6450,54.57,-14.02,164.15
912,1225425987,-0.5322,0.8530,0.6143,64.63,-16.22,167.62
913,1225430987,-0.5493,0.8613,0.5986,73.90,-18.05,170.79
914,1225435987,-0.5605,0.8687,0.5771,82.32,-19.51,173.29
915,1225440987,-0.5747,0.8711,0.5718,89.27,-20.67,175.43
916,1225445987,-0.5923,0.8770,0.5566,94.94,-21.65,177.01
917,1225450986,-0.6021,0.8823,0.5303,99.21,-22.20,177.99
918,1225455987,-0.6064,0.8901,0.5293,101.89,-22.68,178.48
919,1225460986,-0.6050,0.9004,0.5112,103.11,-22.93,178.41
920,1225465988,-0.5728,0.9146,0.4868,103.29,-23.11,177.87
921,1225470986,-0.5693,0.9331,0.4775,102.74,-23.17,177.01
922,1225475987,-0.5742,0.9536,0.4561,101.28,-23.29,175.85
923,1225480986,-0.5708,0.9619,0.4399,98.90,-23.23,174.39
924,1225485987,-0.5654,0.9756,0.4253,95.85,-23.23,172.74
925,1225490986,-0.5439,0.9863,0.4004,92.01,-23.35,170.67
926,1225495987,-0.5337,0.9888,0.3872,87.80,-23.48,168.54
927,1225500986,-0.5117,0.9941,0.3804,83.23,-23.90,166.22
928,1225505985,-0.4834,0.9966,0.3726,78.41,-24.21,163.84
929,1225510985,-0.4604,0.9961,0.3589,73.72,-24.57,161.34
930,1225515989,-0.4478,0.9932,0.3477,69.02,-25.18,158.78
931,1225520986,-0.4170,0.9819,0.3438,64.45,-25.67,156.22
932,1225525987,-0.3970,0.9731,0.3354,60.00,-26.28,153.60
933,1225530986,-0.3687,0.9604,0.3325,55.79,-27.01,151.16
934,1225535985,-0.3359,0.9521,0.3286,51.77,-27.50,148.84
935,1225540987,-0.3042,0.9443,0.3301,48.29,-28.35,146.77
936,1225545986,-0.2666,0.9399,0.3247,45.18,-29.15,144.82
937,1225550987,-0.2305,0.9331,0.3242,42.50,-29.94,143.11
938,1225555987,-0.2026,0.9253,0.3193,40.18,-31.04,141.59
939,1225560987,-0.1782,0.9253,0.3169,38.05,-31.95,140.30
940,1225565987,-0.1528,0.9199,0.3135,36.22,-32.93,139.15
941,1225570987,-0.1367,0.9150,0.3145,34.27,-34.09,138.17
942,1225575987,-0.1123,0.9146,0.3135,32.38,-35.06,137.32
943,1225580986,-0.0957,0.9150,0.3091,30.24,-35.79,136.71
944,1225585987,-0.0718,0.9185,0.3076,28.05,-36.46,136.16
945,1225590986,-0.0449,0.9224,0.3047,25.67,-37.01,135.73
946,1225595987,-0.0156,0.9258,0.2944,23.23,-37.50,135.61
947,1225600985,0.0103,0.9292,0.2949,20.55,-37.93,135.43
948,1225605985,0.0376,0.9292,0.2896,18.11,-38.41,135.55
949,1225610987,0.0601,0.9282,0.2871,15.85,-38.78,135.85
950,1225615987,0.0806,0.9214,0.2783,14.09,-39.21,136.34
951,1225620986,0.0923,0.9116,0.2764,12.99,-39.76,137.07
952,1225625988,0.1094,0.9062,0.2681,12.44,-40.06,137.87
953,1225630985,0.1240,0.8975,0.2612,12.56,-40.43,138.78
954,1225635987,0.1323,0.8926,0.2588,13.48,-40.91,139.88
955,1225640986,0.1367,0.8882,0.2476,14.57,-41.10,140.79
956,1225645987,0.1484,0.8823,0.2500,16.04,-41.04,141.83
957,1225650986,0.1538,0.8750,0.2485,17.68,-41.10,142.87
958,1225655987,0.1611,0.8726,0.2417,19.21,-41.04,143.84
959,1225660986,0.1685,0.8701,0.2373,20.67,-40.73,144.63
960,1225665989,0.1753,0.8687,0.2383,21.65,-40.18,145.43
961,1225670986,0.1880,0.8657,0.2397,22.26,-39.88,146.28
962,1225675985,0.1992,0.8633,0.2397,22.44,-39.33,146.95
963,1225680987,0.2090,0.8560,0.2383,22.32,-39.02,147.68
964,1225685987,0.2173,0.8530,0.2397,22.20,-38.54,148.35
965,1225690987,0.2217,0.8521,0.2290,22.07,-38.11,148.90
966,1225695987,0.2300,0.8491,0.2314,21.83,-37.93,149.70
967,1225700987,0.2407,0.8433,0.2290,21.83,-37.74,150.24
968,1225705987,0.2524,0.8354,0.2188,21.89,-37.56,151.16
969,1225710987,0.2622,0.8311,0.2148,22.07,-37.50,151.89
970,1225715999,0.2769,0.8267,0.2095,22.56,-37.50,152.62
971,1225720989,0.2910,0.8203,0.2104,22.87,-37.32,153.35
972,1225725987,0.2959,0.8174,0.2051,23.54,-37.13,153.78
973,1225730986,0.3022,0.8037,0.2017,24.02,-36.71,154.45
974,1225735987,0.3247,0.8096,0.1938,24.45,-36.40,154.82
975,1225740987,0.3369,0.7993,0.1899,24.94,-35.91,155.18
976,1225745987,0.3394,0.7930,0.1826,24.82,-35.37,155.30
977,1225750986,0.3359,0.7778,0.1870,24.27,-35.06,155.49
978,1225755987,0.3389,0.7739,0.1797,23.54,-34.63,155.61
979,1225760987,0.3545,0.7656,0.1724,22.44,-34.27,155.49
980,1225765987,0.3525,0.7646,0.1680,20.98,-33.96,155.43
981,1225770986,0.3569,0.7529,0.1558,19.21,-33.96,155.30
982,1225775986,0.3589,0.7446,0.1436,17.32,-34.15,155.18
983,1225780985,0.3608,0.7417,0.1304,15.24,-34.45,155.18
984,1225785993,0.3638,0.7378,0.1250,12.44,-34.88,155.18
985,1225790987,0.3701,0.7349,0.1030,10.67,-35.37,155.30
986,1225795987,0.3848,0.7334,0.0942,8.11,-36.16,155.24
987,1225800987,0.3970,0.7275,0.0840,5.49,-37.01,155.49
988,1225805987,0.4077,0.7280,0.0747,2.87,-37.87,155.55
989,1225810987,0.4209,0.7251,0.0654,0.18,-38.60,155.49
990,1225815985,0.4409,0.7129,0.0522,-2.74,-39.57,155.67
991,1225820987,0.4502,0.7070,0.0439,-5.30,-40.43,155.79
992,1225825987,0.4536,0.6973,0.0361,-8.05,-41.46,156.10
993,1225830987,0.4507,0.6865,0.0269,-10.43,-42.62,156.34
994,1225835987,0.4463,0.6777,0.0181,-12.50,-43.54,156.65
995,1225840988,0.4468,0.6689,0.0107,-14.45,-44.82,156.89
996,1225845985,0.4546,0.6602,0.0000,-15.91,-46.22,157.07
997,1225850987,0.4502,0.6504,-0.0098,-17.32,-47.56,157.44
998,1225855987,0.4614,0.6411,-0.0107,-18.41,-49.02,157.68
999,1225860987,0.4609,0.6304,-0.0181,-19.76,-50.55,157.99
1000,1225865987,0.4634,0.6191,-0.0298,-21.04,-51.83,158.29
1001,1225870987,0.4609,0.6074,-0.0391,-22.32,-53.29,158.54
1002,1225875987,0.4678,0.5981,-0.0547,-23.72,-54.51,158.84
1003,1225880987,0.4785,0.5923,-0.0576,-25.43,-55.67,159.02
1004,1225885985,0.4941,0.5864,-0.0664,-27.38,-56.65,159.21
1005,1225890987,0.5273,0.5791,-0.0649,-29.70,-57.50,159.45
1006,1225895988,0.5586,0.5752,-0.0713,-32.20,-57.93,159.57
1007,1225900987,0.5688,0.5654,-0.0791,-34.63,-58.29,159.76
1008,1225905987,0.5830,0.5503,-0.0859,-37.07,-59.09,160.12
1009,1225910987,0.5952,0.5396,-0.0952,-39.57,-59.70,160.30
1010,1225915987,0.5991,0.5127,-0.1260,-41.95,-60.18,160.67
1011,1225920988,0.5322,0.4814,-0.1138,-43.29,-60.79,161.34
1012,1225925987,0.5288,0.4692,-0.0669,-43.48,-61.16,161.77
1013,1225930986,0.5718,0.4468,-0.0752,-43.66,-61.52,162.32
1014,1225935985,0.5825,0.3867,-0.0742,-43.96,-61.95,162.93
1015,1225940987,0.5801,0.3721,-0.0835,-44.76,-62.44,163.48
1016,1225945987,0.5688,0.3535,-0.1064,-45.49,-63.17,164.09
1017,1225950985,0.5742,0.3408,-0.1294,-45.61,-63.48,164.63
1018,1225956083,0.5200,0.2896,-0.1162,-45.43,-64.15,165.24
1019,1225960989,0.4414,0.2661,-0.1221,-44.27,-64.63,166.04
1020,1225966515,0.5039,0.2754,-0.1021,-41.71,-64.82,166.52
1021,1225970987,0.5469,0.2729,-0.0762,-39.21,-64.57,166.77
1022,1225975985,0.5815,0.2695,-0.0669,-35.24,-64.45,166.95
1023,1225980985,0.5947,0.2627,-0.0884,-30.55,-64.27,167.26
1024,1225985987,0.5781,0.2329,-0.1045,-25.37,-64.15,167.62
1025,1225991174,0.3804,0.1704,-0.1099,-19.27,-64.21,168.05
1026,1225995988,0.3750,0.1519,-0.1050,-12.32,-64.27,168.72
1027,1226000985,0.4604,0.1504,-0.0859,-5.24,-63.84,169.02
1028,1226005985,0.2642,0.1279,-0.0396,2.01,-63.23,169.33
1029,1226010989,0.2646,0.1025,-0.0391,8.66,-62.80,169.51
1030,1226015987,0.3237,0.0972,-0.0654,15.18,-62.26,169.45
1031,1226020986,0.3550,0.0830,-0.0298,21.16,-61.83,169.33
1032,1226025985,0.4165,0.0513,-0.0356,27.01,-61.40,168.90
1033,1226030985,0.5342,-0.0156,-0.0913,33.66,-60.85,168.54
1034,1226035988,0.6821,-0.0913,-0.1924,38.60,-60.18,167.93
1035,1226040987,0.8174,-0.1328,-0.2461,42.32,-59.94,167.38
1036,1226045986,0.8774,-0.1084,-0.2827,46.95,-58.96,166.34
1037,1226050985,0.8145,-0.0205,-0.3057,52.32,-56.40,164.21
1038,1226055987,0.7793,0.0239,-0.3374,55.61,-54.70,162.38
1039,1226060986,0.7603,0.0649,-0.3950,58.90,-52.87,160.00
1040,1226066093,0.7871,0.0864,-0.4521,61.04,-51.28,157.56
1041,1226070987,0.8467,0.0981,-0.4868,62.13,-50.00,155.12
1042,1226075987,0.9185,0.1050,-0.5112,62.07,-49.09,152.87
1043,1226080987,0.9771,0.1196,-0.5171,60.98,-48.05,150.49
1044,1226085985,1.0156,0.1250,-0.5225,58.11,-46.46,147.74
1045,1226090987,1.0396,0.1221,-0.5269,55.30,-45.61,145.85
1046,1226095987,1.0781,0.1040,-0.5269,51.10,-44.27,143.72
1047,1226100988,1.1113,0.0894,-0.5308,45.73,-43.05,141.71
1048,1226106049,1.0850,0.0562,-0.5298,39.57,-41.71,139.82
1049,1226110987,0.9482,0.0200,-0.5312,33.05,-40.24,138.05
1050,1226115988,0.7930,-0.0327,-0.5054,26.65,-38.90,136.46
1051,1226120987,0.6963,-0.0835,-0.4331,20.61,-37.56,134.82
1052,1226125985,0.6709,-0.1475,-0.3833,15.12,-35.73,133.41
1053,1226130987,0.6865,-0.1797,-0.3906,10.06,-34.63,131.83
1054,1226135987,0.7134,-0.2036,-0.3623,5.12,-33.54,130.37
1055,1226140986,0.7593,-0.2246,-0.3545,0.61,-32.01,128.78
1056,1226145987,0.7964,-0.2246,-0.3589,-3.96,-30.49,126.89
1057,1226150986,0.8325,-0.2222,-0.3638,-8.35,-28.72,124.88
1058,1226155987,0.8608,-0.2197,-0.3838,-12.32,-26.89,122.56
1059,1226160986,0.8774,-0.2275,-0.3779,-16.04,-25.06,120.37
1060,1226165987,0.8931,-0.2397,-0.3970,-19.27,-23.23,118.17
1061,1226170986,0.8970,-0.2573,-0.4111,-22.26,-21.52,115.85
1062,1226175989,0.9023,-0.2817,-0.4365,-24.63,-20.00,113.84
1063,1226180986,0.9111,-0.2969,-0.4546,-27.13,-18.78,111.95
1064,1226185986,0.9341,-0.3081,-0.4692,-29.09,-17.32,110.30
1065,1226190988,0.9634,-0.3193,-0.4805,-30.85,-16.16,108.90
1066,1226195986,0.9990,-0.3330,-0.4839,-32.56,-14.94,107.44
1067,1226200989,1.0234,-0.3516,-0.4834,-33.41,-13.48,106.22
1068,1226205987,1.0312,-0.3726,-0.4795,-33.96,-12.26,105.00
1069,1226210988,1.0391,-0.3838,-0.4683,-33.90,-10.91,103.78
1070,1226215987,1.0410,-0.3877,-0.4673,-32.87,-9.70,102.74
1071,1226220987,1.0708,-0.4204,-0.4819,-30.61,-8.35,101.65
1072,1226225987,1.0879,-0.3877,-0.4766,-27.26,-7.13,101.28
1073,1226230989,1.0908,-0.3755,-0.4438,-23.41,-6.16,100.43
1074,1226236014,1.0957,-0.4521,-0.4922,-19.27,-5.30,99.57
1075,1226240985,1.0840,-0.3521,-0.4019,-14.51,-5.18,98.78
1076,1226245989,1.0767,-0.4014,-0.4058,-8.35,-4.27,97.99
1077,1226250985,1.0732,-0.4116,-0.3960,-2.07,-3.17,96.83
1078,1226255987,1.0640,-0.4185,-0.3398,3.78,-1.95,95.67
1079,1226260987,1.0679,-0.4155,-0.3252,9.15,-0.43,94.21
1080,1226265987,1.0864,-0.4185,-0.2998,13.66,1.83,92.93
1081,1226270985,1.0732,-0.4321,-0.3154,15.85,3.60,92.26
1082,1226275989,1.0283,-0.4136,-0.2783,18.54,6.22,90.49
1083,1226280985,1.0278,-0.3882,-0.2861,20.18,8.54,89.45
1084,1226285988,1.0298,-0.3862,-0.2905,22.50,11.65,86.65
1085,1226290985,1.0161,-0.3877,-0.2827,24.33,14.39,85.67
1086,1226295987,1.0000,-0.3979,-0.2705,26.16,16.95,82.99
1087,1226300985,0.9814,-0.4102,-0.2734,28.35,19.57,80.73
1088,1226305989,0.9727,-0.4292,-0.2583,30.73,22.07,78.17
1089,1226310985,0.9619,-0.4473,-0.2495,33.05,24.63,75.79
1090,1226315987,0.9497,-0.4575,-0.2354,35.49,27.26,73.23
1091,1226320985,0.9385,-0.4624,-0.2417,37.80,29.51,70.61
1092,1226325989,0.9360,-0.4717,-0.2456,40.12,31.83,67.99
1093,1226330985,0.9307,-0.4790,-0.2422,42.32,33.90,65.24
1094,1226335985,0.9302,-0.4883,-0.2358,44.33,35.79,62.38
1095,1226340987,0.9238,-0.4907,-0.2329,46.16,37.50,59.45
1096,1226345987,0.9224,-0.4961,-0.2271,47.68,39.27,56.65
1097,1226350987,0.9219,-0.4932,-0.2134,49.33,40.73,53.72
1098,1226355985,0.9229,-0.5005,-0.2114,51.10,42.01,50.85
1099,1226360987,0.9248,-0.4985,-0.2144,52.80,43.11,48.11
1100,1226365987,0.9297,-0.5073,-0.2080,54.82,44.09,45.43
1101,1226370987,0.9360,-0.5181,-0.2085,56.89,44.94,42.93
1102,1226375987,0.9390,-0.5273,-0.2041,59.02,45.49,40.67
1103,1226380987,0.9424,-0.5322,-0.2017,61.16,46.10,38.54
1104,1226385987,0.9507,-0.5381,-0.1851,63.29,46.46,36.65
1105,1226390987,0.9551,-0.5420,-0.1782,65.30,46.59,34.88
1106,1226395987,0.9604,-0.5488,-0.1753,66.95,46.77,33.05
1107,1226400987,0.9722,-0.5566,-0.1733,68.48,46.83,31.52
1108,1226405987,0.9824,-0.5615,-0.1567,69.57,46.71,30.12
1109,1226410988,0.9873,-0.5615,-0.1431,70.30,46.52,28.90
1110,1226415987,0.9951,-0.5654,-0.1304,70.85,46.28,27.68
1111,1226420988,1.0015,-0.5601,-0.1245,70.98,46.04,26.34
1112,1226425987,1.0029,-0.5576,-0.1221,70.55,45.79,25.37
1113,1226430987,1.0010,-0.5547,-0.1079,69.70,45.24,24.27
1114,1226435985,1.0049,-0.5479,-0.0938,68.72,44.94,23.17
1115,1226441043,1.0063,-0.5459,-0.0801,67.13,44.39,22.13
1116,1226445987,1.0044,-0.5425,-0.0713,65.55,43.78,21.16
1117,1226450986,1.0103,-0.5391,-0.0674,63.48,43.29,20.12
1118,1226455987,1.0034,-0.5327,-0.0522,61.34,42.62,19.21
1119,1226460987,1.0024,-0.5352,-0.0391,59.09,42.01,18.35
1120,1226465987,0.9985,-0.5303,-0.0371,56.65,41.28,17.50
1121,1226470986,0.9927,-0.5215,-0.0239,54.27,40.67,16.52
1122,1226475987,0.9922,-0.5205,-0.0137,52.13,40.00,15.67
1123,1226480986,0.9868,-0.5103,-0.0020,49.94,39.39,14.94
1124,1226485987,0.9858,-0.5059,0.0073,47.80,38.66,14.09
1125,1226490987,0.9805,-0.5020,0.0024,45.79,37.93,13.17
1126,1226495987,0.9771,-0.4976,0.0088,43.96,37.13,12.32
1127,1226500987,0.9697,-0.4893,0.0186,42.38,36.40,11.22
1128,1226505987,0.9629,-0.4810,0.0156,40.91,35.43,10.24
1129,1226510987,0.9624,-0.4756,0.0254,39.51,34.63,9.27
1130,1226515987,0.9600,-0.4653,0.0239,38.17,33.84,8.23
1131,1226520987,0.9556,-0.4648,0.0347,36.89,32.93,7.13
1132,1226525985,0.9497,-0.4600,0.0332,35.98,32.26,6.04
1133,1226530985,0.9453,-0.4512,0.0371,35.30,31.28,4.88
1134,1226535989,0.9434,-0.4565,0.0347,34.82,30.24,3.96
1135,1226540986,0.9385,-0.4507,0.0376,34.82,29.02,2.93
1136,1226545987,0.9360,-0.4502,0.0293,35.00,28.11,1.95
1137,1226550986,0.9297,-0.4492,0.0332,35.61,27.07,1.04
1138,1226555985,0.9297,-0.4502,0.0239,36.46,25.73,0.37
1139,1226560987,0.9209,-0.4556,0.0273,37.62,24.45,-0.37
1140,1226565987,0.9180,-0.4521,0.0278,39.15,23.05,-0.98
1141,1226570987,0.9170,-0.4517,0.0264,40.98,21.52,-1.52
1142,1226575987,0.9136,-0.4517,0.0205,43.05,20.12,-2.07
1143,1226580986,0.9131,-0.4517,0.0210,45.24,18.66,-2.38
1144,1226585989,0.9150,-0.4507,0.0210,47.32,17.07,-2.87
1145,1226590986,0.9141,-0.4473,0.0166,49.51,15.49,-3.23
1146,1226596267,0.9170,-0.4419,0.0137,51.71,13.84,-3.72
1147,1226600987,0.9131,-0.4331,0.0142,53.72,12.32,-4.21
1148,1226605987,0.9194,-0.4282,0.0112,55.61,10.67,-4.57
1149,1226611119,0.9272,-0.4243,0.0093,57.20,8.96,-5.00
1150,1226615987,0.9351,-0.4146,0.0098,58.54,7.20,-5.49
1151,1226620988,0.9424,-0.4116,0.0063,59.51,5.43,-5.79
1152,1226625987,0.9482,-0.4126,0.0088,60.30,3.60,-6.28
1153,1226630987,0.9644,-0.4097,0.0024,60.73,2.01,-6.71
1154,1226635987,0.9775,-0.4087,0.0059,61.04,0.24,-6.95
1155,1226640988,0.9897,-0.4048,0.0156,60.91,-1.46,-7.13
1156,1226645987,0.9980,-0.4072,0.0132,60.67,-3.17,-7.38
1157,1226650987,1.0049,-0.4033,0.0122,60.30,-4.82,-7.44
1158,1226655987,1.0107,-0.4028,0.0166,59.76,-6.52,-7.44
1159,1226660987,1.0161,-0.4014,0.0190,59.02,-7.99,-7.26
1160,1226665987,1.0205,-0.4004,0.0298,58.05,-9.63,-7.07
1161,1226670987,1.0278,-0.4033,0.0312,57.13,-11.22,-6.71
1162,1226675987,1.0312,-0.4009,0.0327,55.79,-12.68,-6.28
1163,1226680987,1.0376,-0.4048,0.0361,54.45,-14.21,-5.61
1164,1226685987,1.0386,-0.4033,0.0420,52.87,-15.61,-5.00
1165,1226690988,1.0420,-0.4009,0.0488,51.16,-17.01,-4.15
1166,1226695987,1.0366,-0.4033,0.0518,49.21,-18.29,-3.23
1167,1226700987,1.0293,-0.4033,0.0605,47.07,-19.45,-2.32
1168,1226705987,1.0352,-0.3999,0.0601,44.88,-20.49,-1.28
1169,1226710987,1.0352,-0.3970,0.0596,42.56,-21.83,-0.24
1170,1226715985,1.0283,-0.3892,0.0620,40.00,-22.80,0.79
1171,1226720987,1.0259,-0.3779,0.0630,37.26,-23.72,1.77
1172,1226725987,1.0200,-0.3706,0.0757,34.27,-24.76,2.74
1173,1226730988,1.0161,-0.3574,0.0771,31.10,-25.49,3.60
1174,1226735987,1.0093,-0.3521,0.0703,27.50,-26.22,4.27
1175,1226740987,1.0039,-0.3442,0.0845,23.72,-26.89,5.18
1176,1226745987,0.9946,-0.3359,0.0869,19.94,-27.56,5.67
1177,1226750987,0.9961,-0.3354,0.0898,15.67,-27.99,6.22
1178,1226755987,0.9907,-0.3359,0.0923,11.22,-28.60,6.71
1179,1226760987,0.9834,-0.3364,0.0952,6.89,-28.78,7.07
1180,1226765987,0.9810,-0.3345,0.0981,2.44,-29.15,7.32
1181,1226770987,0.9766,-0.3374,0.0991,-1.89,-29.57,7.62
1182,1226775987,0.9663,-0.3379,0.0986,-6.16,-29.70,7.87
1183,1226780987,0.9590,-0.3398,0.0991,-10.18,-30.00,7.99
1184,1226785987,0.9541,-0.3472,0.1064,-14.21,-30.06,8.23
1185,1226790987,0.9478,-0.3491,0.1045,-18.17,-30.00,8.17
1186,1226795987,0.9390,-0.3608,0.1055,-21.77,-30.18,8.41
1187,1226800987,0.9326,-0.3613,0.1050,-25.18,-30.43,8.29
1188,1226805985,0.9253,-0.3740,0.1079,-28.29,-30.37,8.23
1189,1226810985,0.9194,-0.3774,0.0967,-31.28,-30.24,8.23
1190,1226815987,0.9126,-0.3833,0.0972,-34.02,-30.30,7.99
1191,1226820987,0.9048,-0.3872,0.1006,-36.34,-30.43,7.93
1192,1226825987,0.8999,-0.3965,0.0933,-38.35,-30.37,7.74
1193,1226830987,0.8965,-0.4033,0.0903,-39.88,-30.49,7.62
1194,1226835987,0.8887,-0.4087,0.0786,-41.10,-30.49,7.56
1195,1226840987,0.8823,-0.4131,0.0786,-41.77,-30.61,7.50
1196,1226846234,0.8774,-0.4199,0.0737,-41.95,-30.79,7.50
1197,1226850987,0.8716,-0.4272,0.0664,-41.65,-31.10,7.44
1198,1226856234,0.8647,-0.4336,0.0605,-40.98,-31.34,7.38
1199,1226860987,0.8643,-0.4404,0.0518,-39.82,-31.40,7.56
1200,1226865985,0.8569,-0.4419,0.0464,-38.11,-31.71,7.56
1201,1226870987,0.8560,-0.4429,0.0347,-36.28,-32.07,7.68
1202,1226875987,0.8506,-0.4487,0.0366,-34.27,-32.32,7.74
1203,1226880987,0.8477,-0.4521,0.0342,-32.01,-32.93,7.80
1204,1226885987,0.8442,-0.4541,0.0342,-29.76,-33.29,7.87
1205,1226890986,0.8408,-0.4526,0.0278,-27.38,-33.54,7.80
1206,1226895989,0.8364,-0.4580,0.0312,-25.06,-33.78,7.87
1207,1226900986,0.8418,-0.4585,0.0278,-22.93,-33.90,7.93
1208,1226905985,0.8394,-0.4585,0.0278,-21.04,-34.09,7.74
1209,1226910985,0.8413,-0.4531,0.0215,-19.33,-34.27,7.80
1210,1226915987,0.8364,-0.4434,0.0312,-17.80,-34.21,7.56
1211,1226920987,0.8359,-0.4438,0.0298,-16.59,-34.27,7.38
1212,1226925985,0.8374,-0.4443,0.0317,-15.73,-34.15,7.20
1213,1226930987,0.8384,-0.4414,0.0386,-14.94,-33.84,6.89
1214,1226936166,0.8418,-0.4395,0.0342,-14.51,-33.72,6.59
1215,1226940987,0.8481,-0.4341,0.0347,-14.39,-33.05,6.28
1216,1226945985,0.8486,-0.4346,0.0356,-14.33,-32.74,5.91
1217,1226950989,0.8506,-0.4346,0.0337,-14.63,-32.20,5.55
1218,1226955987,0.8530,-0.4370,0.0347,-14.88,-31.65,5.30
1219,1226960987,0.8521,-0.4316,0.0283,-15.30,-30.98,4.76
1220,1226965987,0.8594,-0.4316,0.0283,-15.98,-30.30,4.45
1221,1226970987,0.8599,-0.4302,0.0210,-16.77,-29.57,4.02
1222,1226975987,0.8613,-0.4360,0.0269,-17.44,-28.66,3.72
1223,1226980987,0.8638,-0.4380,0.0195,-18.29,-27.93,3.35
1224,1226985988,0.8706,-0.4399,0.0200,-19.09,-27.13,3.05
1225,1226990987,0.8760,-0.4414,0.0195,-19.82,-26.16,2.80
1226,1226995985,0.8779,-0.4414,0.0151,-20.49,-25.18,2.56
1227,1227000987,0.8843,-0.4419,0.0107,-21.04,-24.21,2.44
1228,1227005987,0.8848,-0.4395,0.0107,-21.40,-23.29,2.38
1229,1227010987,0.8877,-0.4414,0.0029,-21.65,-22.44,2.13
1230,1227015987,0.8882,-0.4463,0.0000,-21.77,-21.59,2.13
1231,1227020987,0.8921,-0.4453,-0.0049,-21.40,-20.67,2.13
1232,1227025987,0.8975,-0.4478,-0.0117,-20.98,-19.76,2.13
1233,1227030987,0.8955,-0.4512,-0.0200,-20.30,-18.90,2.26
1234,1227035987,0.8970,-0.4507,-0.0205,-19.33,-17.99,2.38
1235,1227040987,0.9053,-0.4507,-0.0269,-18.29,-17.13,2.50
1236,1227046002,0.9077,-0.4585,-0.0234,-17.07,-16.28,2.87
1237,1227050988,0.9038,-0.4531,-0.0317,-15.73,-15.43,2.87
1238,1227055987,0.9023,-0.4546,-0.0308,-14.33,-14.45,3.23
1239,1227061082,0.9053,-0.4570,-0.0322,-12.87,-13.54,3.54
1240,1227065987,0.9097,-0.4585,-0.0342,-11.40,-12.56,3.72
1241,1227070988,0.9102,-0.4536,-0.0347,-9.88,-11.77,3.90
1242,1227075987,0.9062,-0.4507,-0.0352,-8.29,-10.79,3.96
1243,1227080987,0.9004,-0.4521,-0.0381,-6.95,-9.76,4.33
1244,1227085987,0.9033,-0.4556,-0.0396,-5.55,-8.96,4.45
1245,1227090987,0.9033,-0.4575,-0.0366,-4.02,-8.11,4.57
1246,1227095987,0.9048,-0.4556,-0.0361,-2.44,-7.07,4.70
1247,1227100987,0.9043,-0.4580,-0.0381,-1.22,-6.22,4.94
1248,1227105989,0.9019,-0.4551,-0.0444,0.18,-5.30,4.88
1249,1227110986,0.8989,-0.4565,-0.0420,1.34,-4.51,4.94
1250,1227115985,0.8936,-0.4502,-0.0469,2.44,-3.35,5.00
1251,1227120989,0.8896,-0.4517,-0.0449,3.41,-2.56,4.94
1252,1227126336,0.8877,-0.4507,-0.0532,4.21,-1.52,4.82
1253,1227130987,0.8853,-0.4438,-0.0488,4.57,-0.85,4.63
1254,1227135986,0.8833,-0.4424,-0.0498,5.06,0.06,4.45
1255,1227140987,0.8818,-0.4463,-0.0566,5.49,0.85,4.09
1256,1227145985,0.8784,-0.4399,-0.0537,5.85,1.65,3.78
1257,1227150987,0.8735,-0.4375,-0.0508,6.10,2.56,3.48
1258,1227155985,0.8750,-0.4414,-0.0532,6.34,3.35,2.99
1259,1227160985,0.8696,-0.4395,-0.0508,6.59,4.15,2.56
1260,1227165985,0.8647,-0.4395,-0.0493,6.95,4.76,2.32
1261,1227170989,0.8677,-0.4355,-0.0591,7.32,5.55,1.83
1262,1227175987,0.8633,-0.4414,-0.0610,7.68,6.16,1.40
1263,1227180988,0.8672,-0.4409,-0.0601,8.23,6.77,0.98
1264,1227186161,0.8628,-0.4453,-0.0596,8.84,7.26,0.55
1265,1227190989,0.8589,-0.4468,-0.0645,9.33,7.87,0.24
1266,1227195986,0.8647,-0.4463,-0.0635,10.00,8.54,-0.24
1267,1227200989,0.8623,-0.4424,-0.0669,10.49,8.96,-0.55
1268,1227205986,0.8652,-0.4438,-0.0679,11.22,9.57,-0.98
1269,1227210987,0.8667,-0.4404,-0.0703,11.77,9.88,-1.28
1270,1227215986,0.8647,-0.4453,-0.0630,12.38,10.30,-1.65
1271,1227220989,0.8726,-0.4424,-0.0635,12.93,10.67,-2.01
1272,1227225986,0.8696,-0.4443,-0.0674,13.17,11.10,-2.26
1273,1227230987,0.8657,-0.4448,-0.0718,13.72,11.40,-2.68
1274,1227235989,0.8696,-0.4438,-0.0693,14.09,11.71,-2.93
1275,1227240987,0.8726,-0.4448,-0.0728,14.45,12.07,-3.23
1276,1227245985,0.8716,-0.4478,-0.0684,14.70,12.32,-3.60
1277,1227250985,0.8740,-0.4487,-0.0723,14.82,12.44,-3.78
1278,1227255985,0.8755,-0.4497,-0.0664,15.06,12.68,-4.02
1279,1227260987,0.8789,-0.4502,-0.0669,15.18,12.87,-4.15
1280,1227265987,0.8716,-0.4541,-0.0718,15.37,13.05,-4.27
1281,1227270988,0.8716,-0.4531,-0.0635,15.49,13.17,-4.45
1282,1227275985,0.8740,-0.4502,-0.0591,15.43,13.48,-4.57
1283,1227280987,0.8770,-0.4517,-0.0645,15.61,13.48,-4.57
1284,1227285987,0.8730,-0.4478,-0.0601,15.73,13.48,-4.76
1285,1227290987,0.8779,-0.4399,-0.0610,15.43,13.54,-4.88
1286,1227295986,0.8804,-0.4395,-0.0571,15.24,13.66,-4.88
1287,1227300987,0.8843,-0.4355,-0.0537,15.00,13.72,-5.06
1288,1227305985,0.8789,-0.4370,-0.0508,14.70,13.60,-5.18
1289,1227310988,0.8779,-0.4302,-0.0547,14.39,13.72,-5.12
1290,1227315986,0.8799,-0.4272,-0.0483,13.96,13.78,-5.12
1291,1227320985,0.8838,-0.4268,-0.0479,13.48,13.72,-5.12
1292,1227325987,0.8857,-0.4253,-0.0518,13.11,13.60,-5.18
1293,1227330986,0.8911,-0.4263,-0.0488,12.74,13.60,-5.24
1294,1227335987,0.8892,-0.4243,-0.0483,12.26,13.54,-5.12
1295,1227340988,0.8926,-0.4297,-0.0439,11.65,13.29,-4.88
1296,1227345985,0.8931,-0.4243,-0.0361,11.16,13.35,-4.63
1297,1227351010,0.8955,-0.4277,-0.0425,10.61,13.23,-4.45
1298,1227355989,0.8989,-0.4224,-0.0449,9.82,13.05,-4.27
1299,1227360989,0.8979,-0.4233,-0.0430,9.15,12.68,-4.02
1300,1227365986,0.8950,-0.4160,-0.0430,8.54,12.44,-3.66
1301,1227370987,0.8936,-0.4170,-0.0400,7.62,12.20,-3.35
1302,1227375987,0.8916,-0.4111,-0.0386,6.83,11.95,-3.11
1303,1227380985,0.8950,-0.4067,-0.0356,5.98,11.77,-2.93
1304,1227385987,0.8936,-0.4004,-0.0342,4.88,11.40,-2.62
1305,1227390986,0.8940,-0.4019,-0.0278,3.96,11.10,-2.26
1306,1227395987,0.8975,-0.3911,-0.0298,2.93,10.85,-2.07
1307,1227400987,0.8965,-0.3926,-0.0264,1.77,10.67,-1.83
1308,1227405987,0.8945,-0.3857,-0.0244,0.79,10.18,-1.59
1309,1227410987,0.8926,-0.3843,-0.0190,-0.30,10.00,-1.40
1310,1227415987,0.8940,-0.3784,-0.0190,-1.28,9.70,-1.10
1311,1227420987,0.8975,-0.3755,-0.0127,-2.32,9.45,-0.85
1312,1227425988,0.8979,-0.3765,-0.0132,-3.41,9.39,-0.67
1313,1227430987,0.8955,-0.3740,-0.0127,-4.39,9.21,-0.30
1314,1227435987,0.8975,-0.3730,-0.0015,-5.37,9.09,0.00
1315,1227440987,0.8984,-0.3687,-0.0059,-6.16,8.96,0.18
1316,1227445987,0.8984,-0.3706,0.0005,-6.89,8.60,0.43
1317,1227450985,0.9004,-0.3726,-0.0024,-7.44,8.54,0.79
1318,1227455987,0.8994,-0.3672,0.0000,-7.99,8.29,1.04
1319,1227460987,0.8950,-0.3677,0.0029,-8.48,8.29,1.46
1320,1227465989,0.8989,-0.3633,-0.0020,-8.66,8.11,1.71
1321,1227470986,0.8965,-0.3628,0.0029,-8.78,7.99,2.07
1322,1227475987,0.8970,-0.3599,0.0063,-9.02,7.80,2.56
1323,1227480987,0.8970,-0.3608,0.0034,-8.96,7.68,2.74
1324,1227485987,0.8970,-0.3652,0.0044,-8.96,7.44,3.11
1325,1227490987,0.8955,-0.3652,0.0049,-8.66,7.20,3.41
1326,1227495987,0.8955,-0.3657,0.0078,-8.35,6.95,3.84
1327,1227500987,0.8926,-0.3638,0.0005,-8.05,6.89,4.33
1328,1227505987,0.8955,-0.3652,0.0068,-7.50,6.71,4.70
1329,1227510987,0.8926,-0.3618,0.0063,-7.01,6.40,5.00
1330,1227515987,0.8877,-0.3667,0.0039,-6.46,6.34,5.37
1331,1227520987,0.8911,-0.3662,0.0127,-5.73,6.04,5.91
1332,1227525987,0.8877,-0.3643,0.0088,-5.18,6.10,6.10
1333,1227530988,0.8862,-0.3652,0.0103,-4.33,5.91,6.52
