# skilleye imu stream v1
# device=xiao_esp32c6 imu=mpu6050 addr=0x68
# rate_hz=200 accel_range_g=16 gyro_range_dps=2000 dlpf_hz=94
# units: accel in g, gyro in deg/s, t_us in microseconds since boot (monotonic)
# no shared clock with the camera -- tap the racket once before each take
# so both recordings share a spike to align on
seq,t_us,ax,ay,az,gx,gy,gz
0,80697656,-0.9390,-0.0576,-0.1641,6.71,10.43,-33.48
1,80702660,-0.9399,-0.0522,-0.1650,5.55,10.37,-33.84
2,80707657,-0.9399,-0.0527,-0.1641,4.33,10.43,-34.21
3,80712658,-0.9390,-0.0547,-0.1709,3.60,10.30,-34.57
4,80717658,-0.9438,-0.0522,-0.1641,2.56,10.24,-35.12
5,80722658,-0.9473,-0.0483,-0.1650,1.59,10.00,-35.49
6,80728111,-0.9478,-0.0493,-0.1685,0.85,9.82,-35.91
7,80732658,-0.9507,-0.0498,-0.1660,0.18,9.76,-36.34
8,80737658,-0.9517,-0.0503,-0.1665,-0.61,9.51,-36.71
9,80742658,-0.9487,-0.0537,-0.1670,-1.40,9.27,-37.07
10,80747658,-0.9502,-0.0552,-0.1665,-2.32,8.90,-37.44
11,80752658,-0.9502,-0.0493,-0.1675,-3.35,8.72,-37.87
12,80757658,-0.9468,-0.0508,-0.1680,-4.33,8.35,-38.23
13,80762659,-0.9536,-0.0503,-0.1641,-5.00,7.93,-38.60
14,80767657,-0.9575,-0.0425,-0.1704,-5.85,7.80,-39.21
15,80772658,-0.9653,-0.0391,-0.1758,-6.52,7.20,-39.63
16,80777658,-0.9634,-0.0420,-0.1699,-7.26,6.89,-40.12
17,80782657,-0.9673,-0.0381,-0.1772,-7.68,6.52,-40.67
18,80787658,-0.9678,-0.0371,-0.1689,-8.17,6.16,-41.16
19,80792660,-0.9697,-0.0391,-0.1724,-8.72,5.61,-41.59
20,80797739,-0.9785,-0.0400,-0.1772,-9.27,5.12,-42.13
21,80802657,-0.9707,-0.0405,-0.1792,-9.82,4.63,-42.62
22,80807857,-0.9746,-0.0493,-0.1768,-10.67,3.96,-43.17
23,80812657,-0.9697,-0.0435,-0.1797,-11.10,3.66,-43.41
24,80817658,-0.9688,-0.0493,-0.1768,-12.01,3.11,-43.66
25,80822658,-0.9702,-0.0503,-0.1758,-12.93,2.62,-43.90
26,80827658,-0.9712,-0.0532,-0.1748,-13.90,2.13,-44.09
27,80832658,-0.9663,-0.0571,-0.1753,-14.82,1.65,-44.21
28,80837658,-0.9648,-0.0562,-0.1748,-15.79,1.28,-44.45
29,80842658,-0.9678,-0.0552,-0.1743,-16.71,0.73,-44.63
30,80847660,-0.9619,-0.0527,-0.1714,-17.44,0.24,-44.70
31,80852658,-0.9604,-0.0552,-0.1763,-18.11,-0.12,-44.82
32,80858103,-0.9614,-0.0566,-0.1763,-18.90,-0.67,-44.88
33,80862658,-0.9614,-0.0596,-0.1787,-19.45,-0.98,-44.82
34,80867657,-0.9639,-0.0698,-0.1763,-20.37,-1.59,-44.76
35,80872658,-0.9678,-0.0776,-0.1748,-21.10,-1.89,-44.63
36,80877658,-0.9717,-0.0781,-0.1753,-22.01,-2.20,-44.57
37,80882658,-0.9697,-0.0869,-0.1763,-22.80,-2.44,-44.45
38,80887660,-0.9761,-0.0923,-0.1753,-23.72,-2.68,-44.27
39,80892703,-0.9775,-0.0986,-0.1816,-24.70,-2.93,-43.96
40,80897658,-0.9819,-0.1035,-0.1924,-25.79,-3.17,-43.72
41,80902656,-0.9834,-0.1108,-0.1895,-26.95,-3.17,-43.54
42,80908457,-0.9873,-0.1191,-0.1890,-28.35,-3.11,-43.35
43,80912660,-0.9912,-0.1245,-0.1919,-29.45,-2.93,-43.23
44,80917658,-0.9946,-0.1323,-0.1943,-30.85,-2.74,-43.23
45,80922658,-1.0000,-0.1396,-0.1968,-32.38,-2.20,-43.23
46,80927658,-1.0020,-0.1519,-0.2056,-34.09,-1.95,-43.23
47,80932658,-1.0015,-0.1606,-0.2041,-35.79,-1.40,-43.23
48,80938113,-0.9966,-0.1689,-0.2100,-37.99,-0.79,-43.41
49,80942658,-0.9917,-0.1763,-0.2080,-39.45,-0.24,-43.48
50,80947660,-0.9980,-0.1797,-0.2075,-41.28,0.43,-43.84
51,80952657,-1.0034,-0.1914,-0.2207,-43.05,1.40,-44.27
52,80957982,-0.9990,-0.1982,-0.2202,-44.63,2.20,-44.70
53,80962658,-1.0010,-0.2061,-0.2207,-45.98,3.11,-45.30
54,80968128,-1.0010,-0.2227,-0.2319,-47.26,4.39,-45.98
55,80972658,-1.0005,-0.2256,-0.2441,-47.74,5.12,-46.59
56,80978085,-0.9917,-0.2373,-0.2598,-48.23,6.28,-47.74
57,80982658,-0.9927,-0.2451,-0.2642,-48.11,6.83,-48.41
58,80987659,-0.9995,-0.2544,-0.2861,-47.74,7.93,-49.45
59,80992725,-0.9966,-0.2622,-0.2910,-47.07,8.54,-50.67
60,80997660,-1.0005,-0.2686,-0.3164,-45.91,9.33,-52.01
61,81002658,-0.9990,-0.2729,-0.3330,-44.15,10.06,-53.54
62,81007658,-0.9878,-0.2764,-0.3296,-42.01,10.91,-55.24
63,81012658,-0.9854,-0.2856,-0.3486,-39.33,11.77,-57.01
64,81018088,-0.9810,-0.2983,-0.3574,-35.67,12.93,-59.39
65,81022658,-0.9805,-0.2998,-0.3677,-33.23,13.72,-60.91
66,81027658,-0.9888,-0.3130,-0.3701,-29.94,15.00,-63.11
67,81032660,-0.9980,-0.3276,-0.3804,-26.83,16.34,-65.18
68,81037658,-1.0063,-0.3389,-0.3906,-23.72,17.80,-67.32
69,81042658,-1.0093,-0.3555,-0.3901,-21.04,19.39,-69.45
70,81047658,-1.0107,-0.3662,-0.4033,-18.54,21.10,-71.46
71,81052656,-1.0063,-0.3804,-0.4185,-16.28,22.74,-73.60
72,81058111,-1.0088,-0.3921,-0.4214,-14.27,24.45,-75.73
73,81062660,-1.0107,-0.4053,-0.4336,-12.44,26.10,-77.99
74,81067658,-1.0234,-0.4199,-0.4434,-10.67,27.87,-80.30
75,81072658,-1.0269,-0.4302,-0.4614,-9.15,29.33,-82.68
76,81077658,-1.0259,-0.4399,-0.4683,-7.68,31.04,-85.30
77,81082660,-1.0264,-0.4517,-0.4761,-5.98,32.56,-87.80
78,81087658,-1.0317,-0.4629,-0.4854,-4.27,34.02,-90.49
79,81092658,-1.0283,-0.4780,-0.4897,-2.20,35.55,-93.11
80,81097658,-1.0283,-0.4897,-0.4951,0.37,37.20,-95.79
81,81102658,-1.0322,-0.5034,-0.4976,3.23,38.78,-98.41
82,81107658,-1.0322,-0.5151,-0.5034,6.40,40.37,-101.10
83,81112658,-1.0347,-0.5269,-0.5049,9.94,42.07,-103.60
84,81117659,-1.0391,-0.5347,-0.5103,13.78,43.66,-106.16
85,81122658,-1.0459,-0.5415,-0.5225,17.80,45.37,-108.48
86,81127658,-1.0557,-0.5537,-0.5186,21.83,46.83,-110.79
87,81132656,-1.0542,-0.5610,-0.5308,25.91,48.29,-112.80
88,81137660,-1.0508,-0.5679,-0.5278,29.88,49.63,-114.88
89,81142978,-1.0493,-0.5786,-0.5317,33.60,50.91,-116.59
90,81147658,-1.0444,-0.5923,-0.5381,37.13,51.95,-118.11
91,81152656,-1.0435,-0.5972,-0.5322,40.43,53.11,-119.57
92,81157656,-1.0493,-0.6050,-0.5396,43.11,53.90,-120.79
93,81162658,-1.0479,-0.6147,-0.5439,45.55,54.82,-122.01
94,81167658,-1.0479,-0.6294,-0.5518,47.68,55.49,-123.11
95,81172658,-1.0459,-0.6367,-0.5586,49.21,56.04,-123.96
96,81177658,-1.0386,-0.6509,-0.5610,50.61,56.52,-124.88
97,81182658,-1.0317,-0.6680,-0.5654,51.46,57.13,-125.55
98,81187658,-1.0298,-0.6729,-0.5708,52.26,57.56,-126.34
99,81193744,-1.0146,-0.6875,-0.5630,52.68,58.11,-127.20
100,81197661,-1.0059,-0.6948,-0.5649,52.93,58.54,-127.62
101,81202657,-0.9917,-0.7046,-0.5649,53.11,59.15,-128.41
102,81207658,-0.9780,-0.7075,-0.5596,53.41,59.70,-129.09
103,81212658,-0.9658,-0.7134,-0.5605,53.78,60.67,-130.12
104,81217658,-0.9546,-0.7192,-0.5610,53.96,61.59,-131.16
105,81222658,-0.9458,-0.7310,-0.5610,54.21,62.50,-132.38
106,81227658,-0.9434,-0.7280,-0.5645,54.27,63.48,-133.54
107,81232658,-0.9360,-0.7417,-0.5615,54.15,64.39,-134.76
108,81238039,-0.9316,-0.7495,-0.5562,53.48,65.37,-136.04
109,81242658,-0.9307,-0.7549,-0.5591,52.62,66.22,-137.26
110,81247658,-0.9194,-0.7651,-0.5518,51.28,67.32,-138.35
111,81252658,-0.9048,-0.7744,-0.5488,49.76,68.23,-139.70
112,81257660,-0.8931,-0.7812,-0.5449,47.87,69.09,-140.85
113,81262658,-0.8887,-0.7842,-0.5430,45.85,70.06,-141.83
114,81267658,-0.8853,-0.7891,-0.5396,43.72,70.79,-142.93
115,81272658,-0.8862,-0.7974,-0.5366,41.28,71.65,-143.90
116,81277658,-0.8867,-0.8037,-0.5327,38.84,72.44,-144.88
117,81282658,-0.8750,-0.8081,-0.5239,36.46,73.23,-145.85
118,81287658,-0.8628,-0.8120,-0.5288,34.02,74.21,-146.71
119,81292658,-0.8530,-0.8218,-0.5259,31.77,75.00,-147.56
120,81297660,-0.8481,-0.8218,-0.5171,29.57,75.91,-148.29
121,81302657,-0.8408,-0.8315,-0.5181,27.56,76.89,-149.15
122,81307658,-0.8301,-0.8330,-0.5122,25.91,77.93,-150.06
123,81312658,-0.8140,-0.8311,-0.5049,24.88,78.84,-151.04
124,81317658,-0.8003,-0.8315,-0.5068,24.39,80.00,-152.01
125,81322658,-0.7881,-0.8296,-0.4990,24.45,80.85,-153.11
126,81327658,-0.7812,-0.8232,-0.4917,25.43,81.71,-154.27
127,81332658,-0.7710,-0.8198,-0.4932,26.65,82.32,-155.49
128,81337658,-0.7603,-0.8252,-0.4888,28.29,82.93,-156.65
129,81343041,-0.7520,-0.8296,-0.4897,29.88,83.23,-157.68
130,81347658,-0.7393,-0.8306,-0.4810,31.34,84.39,-158.72
131,81352658,-0.7300,-0.8394,-0.4800,32.80,84.76,-159.45
132,81357660,-0.7183,-0.8413,-0.4644,33.90,85.49,-160.37
133,81362658,-0.7065,-0.8433,-0.4609,35.06,85.67,-161.10
134,81367658,-0.6943,-0.8442,-0.4551,36.10,85.79,-161.83
135,81372658,-0.6748,-0.8481,-0.4541,37.01,85.79,-162.44
136,81377658,-0.6611,-0.8501,-0.4478,37.56,85.67,-163.17
137,81382660,-0.6411,-0.8574,-0.4385,37.87,85.67,-163.72
138,81387658,-0.6250,-0.8687,-0.4297,37.74,85.67,-164.21
139,81392658,-0.6099,-0.8696,-0.4321,37.62,85.73,-164.51
140,81398140,-0.5815,-0.8677,-0.4106,37.13,85.73,-165.06
141,81402658,-0.5669,-0.8628,-0.3999,36.71,85.67,-165.43
142,81407659,-0.5459,-0.8579,-0.3882,35.98,85.98,-165.91
143,81412658,-0.5254,-0.8574,-0.3794,35.43,87.80,-166.52
144,81417658,-0.4990,-0.8530,-0.3623,34.57,88.23,-167.20
145,81422663,-0.4736,-0.8467,-0.3506,33.84,88.60,-167.80
146,81427659,-0.4541,-0.8408,-0.3350,33.29,88.78,-168.54
147,81432734,-0.4326,-0.8389,-0.3247,32.93,89.21,-169.09
148,81437660,-0.4150,-0.8311,-0.3145,32.93,89.33,-169.76
149,81442657,-0.4014,-0.8291,-0.3027,32.99,89.51,-170.37
150,81447936,-0.3818,-0.8252,-0.2847,33.54,89.63,-170.79
151,81452658,-0.3638,-0.8203,-0.2808,34.09,89.70,-171.16
152,81457658,-0.3408,-0.8184,-0.2720,34.57,89.88,-171.65
153,81462659,-0.3276,-0.8179,-0.2734,35.12,89.70,-171.89
154,81467658,-0.3184,-0.8286,-0.2632,35.12,89.51,-172.13
155,81472658,-0.3115,-0.8330,-0.2583,34.70,89.39,-172.01
156,81477658,-0.3062,-0.8340,-0.2495,33.96,89.57,-171.95
157,81482659,-0.2900,-0.8354,-0.2485,32.68,89.63,-171.77
158,81487657,-0.2734,-0.8325,-0.2407,31.28,89.63,-171.77
159,81492657,-0.2568,-0.8340,-0.2300,29.57,89.94,-171.52
160,81497656,-0.2432,-0.8281,-0.2227,27.50,90.30,-171.34
161,81502658,-0.2363,-0.8208,-0.2148,25.55,90.61,-171.22
162,81508000,-0.2188,-0.8149,-0.2061,23.54,90.73,-170.67
163,81512658,-0.2109,-0.8115,-0.2041,22.20,90.73,-170.30
164,81517658,-0.1919,-0.8037,-0.1982,20.85,90.55,-169.51
165,81522658,-0.1807,-0.7964,-0.1963,20.06,90.49,-168.84
166,81527658,-0.1694,-0.7827,-0.1855,19.27,90.12,-167.99
167,81532658,-0.1558,-0.7700,-0.1758,18.72,89.94,-167.07
168,81537804,-0.1440,-0.7476,-0.1704,18.60,89.15,-166.10
169,81542658,-0.1318,-0.7310,-0.1724,18.78,88.84,-165.12
170,81547658,-0.1143,-0.7085,-0.1641,19.21,87.38,-164.09
171,81552658,-0.1055,-0.7012,-0.1611,19.51,87.56,-163.41
172,81557658,-0.0894,-0.6855,-0.1553,19.76,85.79,-162.50
173,81562661,-0.0918,-0.6724,-0.1699,20.06,85.43,-161.77
174,81568148,-0.0713,-0.6719,-0.2324,19.76,85.37,-160.98
175,81572658,-0.0693,-0.6484,-0.2129,19.02,84.27,-160.49
176,81577658,-0.0781,-0.6279,-0.1870,17.93,83.54,-159.82
177,81582658,-0.0884,-0.6279,-0.2070,17.20,83.90,-159.15
178,81587953,-0.0820,-0.6177,-0.2002,15.55,82.38,-158.29
179,81592658,-0.0757,-0.6079,-0.2070,14.21,81.89,-157.50
180,81597658,-0.0640,-0.5898,-0.2056,12.07,81.52,-156.71
181,81602658,-0.0483,-0.5747,-0.1934,9.82,81.16,-155.61
182,81607658,-0.0332,-0.5601,-0.1958,7.32,80.61,-154.39
183,81612656,-0.0186,-0.5513,-0.1987,4.39,80.12,-152.99
184,81617658,0.0049,-0.5327,-0.2041,1.28,79.63,-151.46
185,81622658,0.0107,-0.5215,-0.1777,-2.13,78.96,-149.51
186,81627657,0.0039,-0.5117,-0.1758,-5.49,78.23,-147.44
187,81632658,0.0049,-0.5137,-0.1636,-8.96,77.32,-145.06
188,81637658,0.0083,-0.5020,-0.1426,-12.07,76.46,-142.56
189,81642658,0.0156,-0.4795,-0.1240,-14.63,75.37,-139.88
190,81647658,0.0278,-0.4653,-0.1157,-16.83,74.27,-137.26
191,81652658,0.0449,-0.4399,-0.1045,-18.84,72.93,-134.09
192,81657658,0.0513,-0.4141,-0.0962,-20.00,71.83,-131.95
193,81662658,0.0801,-0.3853,-0.0996,-21.16,70.24,-129.33
194,81667658,0.1030,-0.3364,-0.1089,-22.26,68.54,-126.95
195,81672658,0.1289,-0.2744,-0.1201,-22.99,66.83,-124.57
196,81678152,0.1558,-0.1963,-0.1587,-23.84,64.57,-122.13
197,81682658,0.1860,-0.1641,-0.1846,-24.27,62.99,-120.49
198,81687658,0.2236,-0.1343,-0.2061,-25.00,60.55,-118.35
199,81692658,0.2563,-0.1138,-0.2808,-26.04,57.87,-115.98
200,81697658,0.2227,-0.1084,-0.3130,-27.20,55.24,-113.54
201,81702657,0.1934,-0.1196,-0.3008,-28.66,52.44,-110.67
202,81707658,0.1606,-0.1440,-0.2900,-30.43,49.45,-107.56
203,81712656,0.1313,-0.1748,-0.2534,-32.87,47.50,-104.15
204,81717662,0.1348,-0.2139,-0.1812,-35.61,45.67,-100.37
205,81722658,0.1470,-0.2500,-0.1118,-38.54,44.27,-96.52
206,81727658,0.1709,-0.2827,-0.0752,-41.77,43.23,-92.32
207,81732658,0.2031,-0.3027,-0.0576,-44.63,42.44,-88.23
208,81737658,0.2197,-0.3809,-0.0522,-46.89,41.34,-83.72
209,81742658,0.2241,-0.4409,-0.0200,-47.99,39.88,-78.96
210,81747658,0.2437,-0.5122,-0.0518,-47.80,38.41,-73.84
211,81752657,0.2427,-0.5537,-0.1152,-46.28,36.77,-68.41
212,81757661,0.2432,-0.4800,-0.0039,-42.93,34.39,-63.23
213,81762658,0.3159,-0.3853,-0.0659,-38.29,31.83,-58.48
214,81767658,0.3584,-0.3340,-0.1006,-32.80,29.57,-54.45
215,81772658,0.3550,-0.3589,-0.1089,-26.52,26.77,-50.24
216,81777658,0.3862,-0.3818,-0.1074,-19.94,23.05,-45.67
217,81782658,0.4312,-0.3892,-0.1553,-13.05,19.63,-40.91
218,81787658,0.4873,-0.3726,-0.2080,-6.59,16.04,-36.34
219,81792660,0.5332,-0.3711,-0.2144,-0.37,11.77,-31.89
220,81797658,0.5771,-0.3530,-0.2144,5.37,7.50,-27.62
221,81802657,0.6240,-0.3398,-0.2397,10.67,3.48,-23.54
222,81807656,0.6616,-0.3428,-0.2417,15.43,-0.49,-19.15
223,81813187,0.6758,-0.3530,-0.2227,19.76,-4.70,-14.94
224,81817658,0.6748,-0.3652,-0.2314,23.41,-8.96,-10.67
225,81822658,0.6621,-0.3706,-0.2539,26.40,-13.11,-6.59
226,81827658,0.6465,-0.3677,-0.2554,28.66,-17.20,-2.87
227,81832658,0.6421,-0.3599,-0.2427,29.94,-21.28,0.37
228,81838157,0.6440,-0.3481,-0.2427,30.24,-25.12,3.29
229,81842658,0.6509,-0.3340,-0.2354,29.70,-28.35,5.61
230,81847658,0.6655,-0.3354,-0.2456,28.48,-30.91,7.44
231,81852658,0.6812,-0.3486,-0.2349,26.83,-33.17,8.90
232,81857659,0.6919,-0.3687,-0.2539,25.18,-34.21,10.12
233,81862661,0.6992,-0.3867,-0.2939,22.62,-35.06,11.10
234,81867658,0.6982,-0.4043,-0.3027,20.79,-35.00,11.59
235,81872658,0.6953,-0.4224,-0.3486,18.41,-34.82,11.89
236,81878117,0.6963,-0.4385,-0.3901,15.55,-34.09,12.01
237,81882658,0.7153,-0.4546,-0.4282,12.87,-33.66,11.89
238,81887658,0.7354,-0.4673,-0.4668,10.37,-32.93,11.59
239,81892658,0.7339,-0.4897,-0.5059,7.93,-32.01,11.10
240,81897733,0.7290,-0.5044,-0.5381,5.61,-31.16,10.55
241,81902657,0.7280,-0.5229,-0.5742,3.23,-30.18,9.94
242,81907658,0.7358,-0.5371,-0.6035,1.04,-29.21,9.21
243,81912660,0.7417,-0.5410,-0.6406,-1.77,-28.23,8.35
244,81917658,0.7490,-0.5586,-0.6772,-4.57,-27.13,7.62
245,81922657,0.7769,-0.5747,-0.7139,-7.38,-26.16,6.95
246,81927994,0.7891,-0.6030,-0.7402,-10.06,-25.12,6.34
247,81932658,0.7866,-0.6182,-0.7778,-12.93,-24.02,6.04
248,81938092,0.7812,-0.6211,-0.8228,-15.55,-22.80,5.49
249,81942658,0.7949,-0.6260,-0.8608,-18.05,-21.34,5.00
250,81947658,0.8096,-0.6377,-0.8979,-20.18,-19.82,4.45
251,81952658,0.8120,-0.6528,-0.9321,-21.95,-17.80,3.84
252,81957658,0.7988,-0.6631,-0.9663,-23.66,-15.55,3.35
253,81962659,0.7837,-0.6665,-1.0020,-25.61,-13.11,2.68
254,81967658,0.7930,-0.6709,-1.0371,-27.50,-10.43,1.89
255,81973029,0.7949,-0.6704,-1.0659,-29.63,-7.32,0.91
256,81978167,0.7744,-0.6660,-1.1060,-31.89,-3.78,-0.12
257,81982658,0.7520,-0.6548,-1.1177,-34.63,-0.06,-1.40
258,81987658,0.7393,-0.6392,-1.1353,-37.93,3.60,-2.87
259,81992659,0.7256,-0.6245,-1.1636,-41.59,7.80,-4.33
260,81997658,0.7119,-0.6084,-1.1763,-45.67,12.07,-5.98
261,82002840,0.6865,-0.5884,-1.1973,-50.00,16.34,-7.74
262,82007658,0.6733,-0.5835,-1.2202,-54.27,20.91,-9.51
263,82012658,0.6743,-0.5806,-1.2339,-58.23,25.67,-11.28
264,82017705,0.6572,-0.5688,-1.2388,-61.71,30.61,-12.93
265,82022658,0.6416,-0.5620,-1.2437,-64.21,34.57,-14.09
266,82027658,0.6328,-0.5630,-1.2471,-67.56,40.67,-15.67
267,82032658,0.6177,-0.5562,-1.2539,-70.12,46.10,-16.95
268,82037658,0.6001,-0.5391,-1.2578,-72.13,50.37,-18.05
269,82042658,0.6084,-0.5361,-1.2607,-74.45,55.79,-19.15
270,82047657,0.6079,-0.5327,-1.2588,-76.65,61.52,-20.18
271,82052658,0.5820,-0.5317,-1.2524,-79.21,68.23,-20.91
272,82057658,0.5679,-0.5308,-1.2432,-80.67,72.62,-21.28
273,82062658,0.5625,-0.5259,-1.2349,-82.56,78.29,-21.65
274,82068360,0.5474,-0.5132,-1.2095,-85.06,85.79,-21.71
275,82072659,0.5361,-0.5059,-1.2031,-86.65,89.21,-21.59
276,82077657,0.5312,-0.5063,-1.1885,-88.66,94.51,-21.34
277,82082656,0.5278,-0.5098,-1.1733,-90.24,99.88,-20.79
278,82087656,0.5078,-0.5034,-1.1533,-91.59,105.00,-20.06
279,82092656,0.4946,-0.4980,-1.1318,-92.32,110.00,-19.09
280,82097656,0.4810,-0.4897,-1.1172,-92.68,115.06,-17.99
281,82102656,0.4717,-0.4839,-1.0967,-92.50,119.88,-16.71
282,82107658,0.4561,-0.4771,-1.0796,-92.13,124.57,-15.43
283,82112657,0.4419,-0.4707,-1.0430,-91.77,129.21,-13.96
284,82117660,0.4268,-0.4678,-1.0283,-91.34,133.96,-12.32
285,82122660,0.4175,-0.4634,-1.0010,-90.98,138.41,-10.73
286,82127657,0.4048,-0.4619,-0.9692,-90.73,142.93,-9.02
287,82132658,0.3921,-0.4600,-0.9385,-90.61,147.32,-7.26
288,82137657,0.3838,-0.4604,-0.9067,-90.55,151.71,-5.43
289,82142658,0.3711,-0.4639,-0.8818,-90.73,155.85,-3.48
290,82147658,0.3540,-0.4619,-0.8501,-91.04,160.73,-1.10
291,82152658,0.3481,-0.4556,-0.8281,-91.52,163.96,0.67
292,82157658,0.3335,-0.4570,-0.8003,-92.13,167.62,2.87
293,82162658,0.3262,-0.4526,-0.7822,-92.87,171.40,5.12
294,82167658,0.3091,-0.4551,-0.7529,-93.90,175.73,7.80
295,82172714,0.2891,-0.4575,-0.7246,-94.39,178.54,9.70
296,82178006,0.2744,-0.4614,-0.6963,-95.24,182.50,12.56
297,82182658,0.2588,-0.4624,-0.6743,-95.61,185.06,14.63
298,82187658,0.2432,-0.4585,-0.6406,-95.49,188.41,17.13
299,82192658,0.2271,-0.4604,-0.6123,-95.24,191.83,19.88
300,82197661,0.2119,-0.4609,-0.5728,-94.45,195.00,22.44
301,82203104,0.1948,-0.4590,-0.5352,-92.99,198.96,25.67
302,82207658,0.1816,-0.4653,-0.5063,-91.71,201.52,27.93
303,82212661,0.1670,-0.4639,-0.4609,-89.51,205.61,31.16
304,82217658,0.1528,-0.4663,-0.4341,-87.80,208.23,33.35
305,82222658,0.1401,-0.4683,-0.3931,-85.37,211.65,36.16
306,82227660,0.1304,-0.4673,-0.3472,-82.50,215.06,38.96
307,82232658,0.1157,-0.4805,-0.3140,-79.45,218.48,41.77
308,82237658,0.1021,-0.4814,-0.2627,-76.28,221.89,44.70
309,82242658,0.0776,-0.4824,-0.2266,-72.99,225.43,47.62
310,82247658,0.0547,-0.4883,-0.1899,-69.51,228.84,50.49
311,82252656,0.0249,-0.4937,-0.1343,-66.16,232.32,53.41
312,82257656,0.0083,-0.4854,-0.0977,-62.74,235.67,56.46
313,82262656,-0.0088,-0.4858,-0.0552,-59.57,239.21,59.39
314,82267656,-0.0288,-0.4819,-0.0034,-56.59,242.87,62.44
315,82272658,-0.0464,-0.4902,0.0405,-53.78,246.34,65.49
316,82277658,-0.0645,-0.4873,0.0820,-51.28,250.06,68.60
317,82282658,-0.0757,-0.5005,0.1294,-48.90,253.54,71.89
318,82288007,-0.1060,-0.5068,0.1997,-46.71,257.26,75.00
319,82292658,-0.1147,-0.5293,0.2583,-44.82,260.98,78.11
320,82297658,-0.1299,-0.5400,0.3174,-42.87,264.88,81.22
321,82302658,-0.1597,-0.5615,0.3740,-40.91,268.54,84.51
322,82308130,-0.2002,-0.5767,0.4404,-38.54,272.99,87.32
323,82312658,-0.2373,-0.5806,0.4780,-37.01,275.79,90.24
324,82318103,-0.2715,-0.5811,0.5317,-35.24,278.96,93.29
325,82322659,-0.2949,-0.5898,0.5854,-33.66,281.83,96.28
326,82327658,-0.3257,-0.5947,0.6353,-32.26,284.39,99.27
327,82332657,-0.3667,-0.5938,0.7061,-30.85,286.52,102.13
328,82337658,-0.4058,-0.5996,0.7798,-29.33,288.78,105.06
329,82342657,-0.4492,-0.6045,0.8643,-27.62,290.91,107.99
330,82347658,-0.5098,-0.6348,0.9258,-25.61,292.80,110.79
331,82352658,-0.5737,-0.6499,1.0020,-23.54,294.57,113.72
332,82357656,-0.6362,-0.6855,1.0742,-20.98,295.85,116.65
333,82362658,-0.6968,-0.6885,1.1353,-18.05,296.52,119.70
334,82367657,-0.7266,-0.6787,1.2104,-14.70,296.65,122.93
335,82372659,-0.7471,-0.6665,1.2930,-10.85,296.22,126.10
336,82377657,-0.7666,-0.6699,1.3755,-6.16,295.00,129.09
337,82382656,-0.8013,-0.6792,1.4521,-1.22,293.11,132.38
338,82387656,-0.8511,-0.6841,1.5410,3.72,290.43,135.61
339,82392658,-0.8799,-0.6934,1.6382,8.05,287.01,139.02
340,82397657,-0.8760,-0.6865,1.7100,11.65,282.56,142.38
341,82402656,-0.9102,-0.6714,1.8135,14.39,277.26,145.73
342,82407656,-0.9365,-0.6509,1.9058,15.85,270.91,149.27
343,82412658,-0.9287,-0.6855,1.9990,15.79,263.35,152.44
344,82417657,-0.9551,-0.6709,2.0376,15.24,255.30,155.98
345,82422658,-1.0005,-0.6348,2.1382,15.18,246.10,159.33
346,82427661,-0.9946,-0.6230,2.2383,15.55,236.16,162.80
347,82432658,-1.0332,-0.5576,2.3242,16.46,225.73,166.46
348,82437656,-1.0586,-0.5278,2.4600,19.45,214.02,170.00
349,82442661,-1.0947,-0.5366,2.5396,24.76,201.16,174.27
350,82447708,-1.1548,-0.5684,2.5049,31.71,187.99,179.27
351,82452659,-1.1611,-0.6362,2.6904,40.06,171.10,184.82
352,82457656,-1.2554,-0.6479,2.7231,49.63,152.93,191.16
353,82462656,-1.3267,-0.5952,2.7842,59.76,134.57,197.80
354,82467658,-1.3608,-0.4805,2.9575,68.17,113.78,204.63
355,82472658,-1.3984,-0.4380,3.0967,73.23,91.77,211.52
356,82477862,-1.4399,-0.4585,3.1357,75.12,70.49,218.60
357,82482657,-1.4731,-0.4941,3.2051,74.02,47.99,225.91
358,82487658,-1.4985,-0.5098,3.2910,70.30,23.54,233.48
359,82492658,-1.5205,-0.4951,3.3022,64.27,-2.01,241.22
360,82497658,-1.5469,-0.4683,3.3110,57.26,-28.35,249.15
361,82502659,-1.5894,-0.4570,3.3560,50.37,-55.67,257.38
362,82507658,-1.6396,-0.4731,3.4141,44.51,-83.96,265.98
363,82512828,-1.6924,-0.4956,3.4111,40.18,-113.11,275.18
364,82517658,-1.7661,-0.5312,3.4297,38.29,-142.44,284.70
365,82522658,-1.8511,-0.5615,3.4727,39.33,-172.68,294.39
366,82527659,-1.9595,-0.6123,3.4756,43.41,-203.05,304.33
367,82532658,-2.0562,-0.6509,3.4448,50.06,-233.05,314.51
368,82537657,-2.1758,-0.6978,3.4326,58.84,-262.62,325.00
369,82542658,-2.3223,-0.7549,3.4014,70.00,-291.40,335.73
370,82547855,-2.4771,-0.8320,3.3398,83.11,-319.09,346.46
371,82552658,-2.6250,-0.9331,3.2817,98.29,-345.67,357.38
372,82557659,-2.7832,-1.0547,3.2202,114.51,-371.22,368.48
373,82562658,-2.9487,-1.1890,3.1445,131.16,-395.61,379.63
374,82567658,-3.1187,-1.3345,3.0654,148.48,-418.96,390.73
375,82572837,-3.3237,-1.4766,2.9839,165.98,-440.85,401.83
376,82577658,-3.4717,-1.6763,2.9087,182.68,-462.32,412.74
377,82582661,-3.6196,-1.8521,2.8193,197.62,-482.07,423.54
378,82587658,-3.7837,-2.0464,2.7388,210.91,-500.98,434.09
379,82593151,-3.8984,-2.2373,2.6406,221.83,-519.15,444.09
380,82597658,-4.0566,-2.4409,2.5444,229.27,-536.10,452.99
381,82602658,-4.1895,-2.6543,2.4507,232.26,-552.62,460.61
382,82607658,-4.2881,-2.8794,2.3438,230.49,-568.54,466.59
383,82612892,-4.3682,-3.0791,2.2627,223.11,-583.90,471.10
384,82617658,-4.4058,-3.2744,2.1758,209.70,-598.72,473.29
385,82623064,-4.4028,-3.4858,2.0923,191.34,-613.11,473.41
386,82627659,-4.3887,-3.5791,1.9473,169.39,-626.28,471.10
387,82632660,-4.4062,-3.6831,1.8457,143.96,-638.84,465.24
388,82637657,-4.3394,-3.7632,1.6948,115.24,-650.73,455.67
389,82642658,-4.2822,-3.8345,1.5215,82.32,-661.71,441.59
390,82647658,-4.1162,-3.8931,1.3008,46.77,-672.38,422.93
391,82652657,-3.9648,-4.0127,1.2207,12.74,-683.17,400.37
392,82658064,-4.0947,-4.0166,0.9619,-20.37,-690.79,374.09
393,82662658,-4.0791,-3.9863,0.8242,-47.93,-695.55,349.88
394,82667658,-3.9028,-3.9136,0.6113,-91.40,-701.59,308.96
395,82672658,-3.7681,-3.8984,0.3691,-120.30,-704.63,278.60
396,82677658,-3.7041,-3.8535,0.0923,-153.41,-705.79,238.29
397,82682658,-3.7109,-3.7866,-0.1313,-180.37,-705.49,195.73
398,82687656,-3.6577,-3.6953,-0.3882,-199.27,-701.34,151.46
399,82692656,-3.4980,-3.5967,-0.6602,-208.84,-692.80,106.16
400,82697656,-3.3945,-3.5234,-0.9844,-208.60,-680.06,61.10
401,82702657,-3.2773,-3.4375,-1.2617,-200.18,-665.00,18.05
402,82707659,-3.2104,-3.3359,-1.5117,-186.28,-648.90,-22.44
403,82712658,-3.0972,-3.2236,-1.7056,-169.51,-631.46,-59.51
404,82717658,-2.9736,-3.0996,-1.8530,-152.32,-612.44,-93.54
405,82722658,-2.8340,-2.9624,-1.9673,-135.67,-591.52,-124.70
406,82727658,-2.7080,-2.8145,-2.1055,-120.06,-568.29,-153.29
407,82732658,-2.5874,-2.6860,-2.2207,-105.37,-543.05,-179.63
408,82737744,-2.4238,-2.5493,-2.3364,-92.32,-516.83,-203.05
409,82742659,-2.2876,-2.4097,-2.4194,-81.04,-488.60,-223.96
410,82747657,-2.1499,-2.2612,-2.4839,-72.01,-459.21,-242.38
411,82752658,-2.0161,-2.1079,-2.5063,-65.06,-429.09,-257.87
412,82757658,-1.8662,-1.9561,-2.5068,-59.21,-399.02,-270.30
413,82762658,-1.6880,-1.7681,-2.5322,-51.89,-362.99,-281.71
414,82767658,-1.5757,-1.6333,-2.5420,-46.16,-339.09,-287.20
415,82773139,-1.3838,-1.4126,-2.5571,-35.55,-303.84,-292.32
416,82777658,-1.2788,-1.2759,-2.5400,-27.07,-280.79,-294.09
417,82782658,-1.1455,-1.1064,-2.5254,-14.76,-252.93,-294.02
418,82787658,-1.0376,-0.9673,-2.4668,-1.10,-225.49,-292.07
419,82792658,-0.9092,-0.8340,-2.4014,13.54,-199.45,-288.54
420,82798120,-0.7788,-0.7021,-2.3257,31.46,-169.82,-282.07
421,82802658,-0.6943,-0.6216,-2.2812,43.35,-151.52,-276.71
422,82807658,-0.6104,-0.5396,-2.2012,57.32,-129.70,-269.09
423,82812658,-0.5186,-0.4575,-2.1069,69.51,-109.45,-260.67
424,82818158,-0.4258,-0.3604,-1.9893,80.67,-86.89,-250.12
425,82822658,-0.3755,-0.3027,-1.9199,85.30,-72.68,-242.99
426,82828135,-0.3101,-0.2197,-1.8247,88.35,-52.99,-232.26
427,82832658,-0.2593,-0.1475,-1.7695,88.11,-40.67,-225.30
428,82837658,-0.2095,-0.1025,-1.7085,85.67,-26.40,-216.65
429,82842658,-0.1655,-0.0454,-1.6743,81.40,-13.29,-208.11
430,82847658,-0.1284,0.0151,-1.6445,76.40,-0.98,-199.70
431,82852658,-0.0874,0.0713,-1.6006,71.46,10.30,-191.59
432,82857658,-0.0435,0.0967,-1.5405,66.95,20.79,-183.54
433,82862658,0.0127,0.1206,-1.4702,62.80,30.79,-175.55
434,82867658,0.0591,0.1343,-1.3823,58.78,40.00,-167.50
435,82872658,0.0986,0.1318,-1.2808,55.12,48.96,-159.57
436,82877659,0.1382,0.1265,-1.1953,51.95,57.01,-151.22
437,82882659,0.1748,0.1216,-1.1113,48.90,64.82,-142.87
438,82888176,0.1953,0.1089,-1.0176,45.67,73.11,-132.20
439,82892658,0.2188,0.0928,-0.9492,43.72,78.05,-125.12
440,82897658,0.2471,0.0825,-0.8730,42.07,84.09,-115.98
441,82902659,0.2681,0.0732,-0.7930,40.91,87.87,-106.59
442,82907658,0.2832,0.0620,-0.7144,40.55,92.20,-97.44
443,82913303,0.3066,0.0459,-0.6274,41.10,96.04,-86.34
444,82918207,0.3218,0.0420,-0.5596,42.01,98.48,-77.44
445,82922658,0.3291,0.0337,-0.5088,43.05,99.88,-70.55
446,82927658,0.3438,0.0269,-0.4531,44.15,100.73,-62.07
447,82932658,0.3589,0.0210,-0.3994,45.12,101.04,-53.96
448,82937658,0.3701,0.0112,-0.3462,45.79,100.61,-46.40
449,82942657,0.3853,-0.0024,-0.3027,45.91,99.63,-39.02
450,82947658,0.4082,-0.0107,-0.2593,45.49,98.23,-32.07
451,82952658,0.4214,-0.0220,-0.2261,44.27,96.16,-25.55
452,82957658,0.4346,-0.0381,-0.1865,42.44,93.90,-19.45
453,82962658,0.4434,-0.0605,-0.1636,39.63,91.16,-13.60
454,82967658,0.4468,-0.0820,-0.1353,35.73,87.93,-8.11
455,82972658,0.4521,-0.0957,-0.1040,31.04,85.91,-2.93
456,82977658,0.4614,-0.1113,-0.0732,25.49,82.87,1.83
457,82982658,0.4561,-0.1099,-0.0425,19.33,80.49,6.04
458,82987659,0.4580,-0.1250,-0.0103,13.23,78.05,9.63
459,82992657,0.4565,-0.1279,0.0049,7.01,76.34,12.68
460,82997658,0.4619,-0.1323,0.0132,1.16,74.51,15.12
461,83002657,0.4795,-0.1372,0.0308,-4.27,73.05,17.32
462,83007656,0.4985,-0.1440,0.0454,-9.15,71.52,18.96
463,83012660,0.5220,-0.1597,0.0693,-13.96,70.24,20.49
464,83017657,0.5469,-0.1694,0.0859,-18.41,68.60,21.83
465,83022656,0.5757,-0.1787,0.0981,-22.87,66.59,23.29
466,83027658,0.6152,-0.1865,0.1162,-27.56,64.57,24.57
467,83032657,0.6377,-0.1914,0.1382,-32.44,62.32,25.85
468,83037660,0.6665,-0.1890,0.1597,-37.38,59.88,27.13
469,83042656,0.6865,-0.2427,0.1650,-42.07,57.80,28.29
470,83047658,0.7070,-0.2476,0.1802,-46.83,55.06,29.45
471,83052657,0.7417,-0.2598,0.1816,-52.13,52.07,30.98
472,83057658,0.7578,-0.2700,0.1899,-57.50,49.15,32.68
473,83062661,0.7700,-0.2905,0.2119,-62.99,46.16,34.39
474,83067661,0.7749,-0.3140,0.2217,-68.17,43.05,36.22
475,83072658,0.7749,-0.3374,0.2217,-73.05,40.06,38.17
476,83077658,0.7720,-0.3525,0.2344,-76.95,37.44,40.18
477,83082657,0.7700,-0.3691,0.2505,-80.37,34.63,42.01
478,83087951,0.7651,-0.3828,0.2490,-82.80,32.26,43.90
479,83092658,0.7656,-0.3955,0.2427,-84.57,30.00,45.67
480,83097658,0.7666,-0.4077,0.2456,-85.98,28.05,47.44
481,83102764,0.7725,-0.4160,0.2417,-87.13,26.16,49.15
482,83107657,0.7778,-0.4199,0.2383,-88.05,24.70,50.67
483,83112658,0.7817,-0.4233,0.2207,-88.66,23.29,52.13
484,83117658,0.7861,-0.4243,0.2168,-89.21,21.95,53.54
485,83122733,0.7715,-0.4263,0.1953,-89.88,20.79,54.88
486,83127656,0.7827,-0.4521,0.2056,-90.79,19.39,56.34
487,83132656,0.8086,-0.4434,0.1704,-91.71,17.99,57.68
488,83137656,0.8003,-0.4536,0.1616,-92.80,16.52,59.09
489,83142658,0.7891,-0.4600,0.1450,-94.02,14.88,60.49
490,83147657,0.7881,-0.4658,0.1406,-95.49,13.17,61.89
491,83152656,0.7876,-0.4702,0.1333,-97.26,11.28,63.35
492,83157658,0.7793,-0.4829,0.1382,-99.45,9.51,64.94
493,83162658,0.7676,-0.4839,0.1440,-101.83,7.74,66.34
494,83167658,0.7456,-0.4941,0.1494,-104.45,6.22,67.80
495,83172660,0.7241,-0.5063,0.1553,-107.26,4.57,69.27
496,83177658,0.7021,-0.5137,0.1631,-110.00,3.23,70.61
497,83182658,0.6865,-0.5137,0.1782,-112.13,2.20,71.77
498,83187871,0.6641,-0.5215,0.1787,-114.09,1.22,72.93
499,83192998,0.6484,-0.5293,0.1792,-115.73,0.12,74.09
500,83197660,0.6382,-0.5312,0.1758,-116.59,-0.73,74.88
501,83202657,0.6299,-0.5376,0.1699,-117.07,-1.46,75.85
502,83207658,0.6265,-0.5420,0.1611,-117.32,-2.32,76.77
503,83212658,0.6152,-0.5415,0.1484,-117.07,-3.17,77.56
504,83217658,0.6108,-0.5439,0.1431,-116.89,-4.21,78.48
505,83222658,0.6138,-0.5439,0.1289,-116.46,-5.18,79.39
506,83228055,0.6074,-0.5449,0.1060,-116.16,-6.52,80.37
507,83232658,0.5991,-0.5474,0.1001,-115.85,-7.62,81.40
508,83238119,0.6011,-0.5488,0.0884,-115.61,-8.78,82.50
509,83242658,0.5942,-0.5571,0.0781,-115.30,-9.76,83.66
510,83247662,0.5825,-0.5649,0.0830,-114.88,-10.67,85.00
511,83252660,0.5635,-0.5723,0.0732,-114.39,-11.40,86.28
512,83257656,0.5566,-0.5752,0.0752,-113.84,-12.07,86.71
513,83262660,0.5474,-0.5825,0.0679,-113.54,-12.56,88.72
514,83267715,0.5317,-0.5830,0.0737,-113.48,-12.87,89.76
515,83272658,0.5205,-0.5850,0.0771,-113.72,-12.99,90.85
516,83277658,0.5259,-0.5889,0.0801,-114.02,-12.99,91.83
517,83282656,0.4971,-0.6045,0.0664,-114.39,-12.74,93.17
518,83287656,0.5151,-0.5928,0.0098,-114.76,-12.50,94.82
519,83292658,0.4912,-0.6133,0.0293,-114.82,-12.26,96.40
520,83297656,0.5186,-0.6548,0.0532,-114.27,-12.01,98.41
521,83302656,0.4707,-0.6753,0.0391,-114.02,-11.59,100.49
522,83307656,0.4277,-0.7056,-0.0459,-114.39,-10.73,102.62
523,83312656,0.3892,-0.6899,0.0273,-116.22,-10.67,104.57
524,83317658,0.4038,-0.7412,0.0454,-118.78,-9.88,106.46
525,83322656,0.3784,-0.7285,-0.0566,-123.29,-9.15,108.41
526,83327658,0.3418,-0.6924,-0.0630,-128.90,-8.23,109.63
527,83332656,0.3350,-0.6934,-0.0239,-134.27,-7.32,110.61
528,83337658,0.3311,-0.7036,-0.0356,-139.02,-6.34,111.34
529,83342658,0.3071,-0.7183,-0.0488,-143.11,-5.06,112.13
530,83347658,0.2808,-0.6968,-0.0386,-146.59,-4.33,112.68
531,83352656,0.2378,-0.6914,-0.0239,-149.63,-3.84,113.11
532,83358194,0.2456,-0.6899,-0.0156,-152.13,-2.80,113.84
533,83362658,0.2480,-0.6968,-0.0181,-153.23,-2.32,114.45
534,83367658,0.2495,-0.6904,0.0063,-153.84,-2.01,115.24
535,83372658,0.2393,-0.6821,0.0020,-153.72,-1.59,116.28
536,83377659,0.2163,-0.6313,-0.0449,-153.41,-1.34,117.20
537,83382657,0.2266,-0.6235,-0.0317,-153.41,-1.34,118.41
538,83387657,0.2310,-0.6387,-0.0234,-153.54,-1.65,119.82
539,83392841,0.2388,-0.6523,-0.0337,-153.60,-2.32,121.89
540,83397658,0.2427,-0.7090,-0.0508,-153.66,-2.20,123.66
541,83402658,0.2544,-0.7280,-0.0352,-153.72,-2.93,126.04
542,83407658,0.2627,-0.7378,-0.0415,-153.78,-3.66,128.90
543,83412658,0.2764,-0.7534,-0.0586,-153.84,-4.33,131.83
544,83417660,0.2856,-0.7573,-0.0552,-153.48,-5.06,135.06
545,83422658,0.2852,-0.7627,-0.0503,-152.93,-5.91,138.41
546,83427657,0.2881,-0.7676,-0.0581,-151.89,-6.95,141.83
547,83432837,0.2881,-0.7705,-0.0557,-150.37,-7.56,145.37
548,83437658,0.2837,-0.7710,-0.0439,-148.11,-8.54,148.78
549,83442658,0.2832,-0.7646,-0.0474,-145.43,-9.45,152.01
550,83447658,0.2798,-0.7593,-0.0581,-142.07,-10.18,155.18
551,83452658,0.2700,-0.7505,-0.0571,-138.54,-11.22,158.29
552,83457658,0.2603,-0.7485,-0.0498,-134.51,-12.32,161.40
553,83462658,0.2632,-0.7480,-0.0576,-130.30,-13.60,164.57
554,83467658,0.2607,-0.7466,-0.0513,-126.22,-14.94,167.68
555,83472658,0.2539,-0.7495,-0.0474,-122.01,-16.34,170.91
556,83477658,0.2495,-0.7563,-0.0654,-117.99,-17.68,174.21
557,83483170,0.2456,-0.7686,-0.0767,-113.66,-19.57,177.99
558,83487658,0.2407,-0.7749,-0.0762,-111.22,-20.79,180.49
559,83492658,0.2319,-0.7803,-0.0801,-108.72,-22.20,183.48
560,83497658,0.2095,-0.7832,-0.0908,-106.95,-23.72,186.22
561,83502658,0.1851,-0.7974,-0.1001,-105.91,-25.00,188.84
562,83507658,0.1665,-0.8096,-0.1050,-105.37,-26.40,191.59
563,83512658,0.1499,-0.8271,-0.1108,-105.18,-27.87,194.21
564,83517661,0.1318,-0.8306,-0.1143,-105.12,-29.76,197.32
565,83522658,0.1235,-0.8340,-0.1216,-104.88,-30.98,199.51
566,83528172,0.1035,-0.8320,-0.1255,-104.15,-32.99,202.62
567,83532658,0.0903,-0.8311,-0.1260,-103.17,-34.39,204.63
568,83537658,0.0718,-0.8252,-0.1357,-101.59,-36.34,207.01
569,83542658,0.0562,-0.8228,-0.1387,-99.27,-38.29,209.51
570,83547658,0.0405,-0.8257,-0.1499,-96.52,-40.30,211.89
571,83552658,0.0259,-0.8374,-0.1719,-93.29,-42.68,214.39
572,83557658,0.0151,-0.8364,-0.1704,-89.82,-45.18,216.89
573,83562658,-0.0054,-0.8447,-0.1802,-86.04,-47.32,219.33
574,83567658,-0.0269,-0.8481,-0.1836,-81.95,-49.57,221.89
575,83572658,-0.0537,-0.8540,-0.1816,-77.80,-51.65,224.39
576,83577657,-0.0791,-0.8555,-0.1904,-73.48,-53.66,227.07
577,83582658,-0.0933,-0.8647,-0.1909,-69.27,-55.67,229.70
578,83587657,-0.1079,-0.8750,-0.2046,-65.18,-57.50,232.62
579,83592656,-0.1221,-0.8774,-0.2080,-61.65,-59.45,235.61
580,83597658,-0.1372,-0.8833,-0.2075,-58.23,-61.52,238.78
581,83602657,-0.1533,-0.8721,-0.2100,-55.00,-63.60,242.07
582,83607656,-0.1748,-0.8652,-0.2065,-51.83,-65.61,245.30
583,83612660,-0.1938,-0.8540,-0.2095,-48.60,-67.68,248.60
584,83617925,-0.2114,-0.8428,-0.2007,-45.55,-69.76,252.01
585,83622657,-0.2290,-0.8403,-0.2070,-42.74,-71.89,255.49
586,83627658,-0.2520,-0.8569,-0.2227,-40.00,-74.21,259.15
587,83632658,-0.2793,-0.8667,-0.2275,-37.62,-76.46,262.74
588,83637668,-0.3008,-0.8643,-0.2319,-35.43,-78.29,266.16
589,83642818,-0.3350,-0.8638,-0.2295,-33.35,-80.24,269.45
590,83647658,-0.3755,-0.8735,-0.2373,-30.98,-81.52,272.32
591,83652665,-0.4282,-0.8730,-0.2461,-28.11,-82.74,275.12
592,83657656,-0.4780,-0.8701,-0.2578,-24.51,-83.60,277.56
593,83662656,-0.5264,-0.8613,-0.2725,-20.06,-84.39,279.82
594,83667656,-0.5688,-0.8618,-0.2754,-14.94,-84.88,281.95
595,83672658,-0.6113,-0.8467,-0.2939,-9.02,-85.37,283.90
596,83677658,-0.6421,-0.8389,-0.3008,-2.62,-85.79,285.73
597,83682659,-0.6787,-0.8257,-0.3018,3.78,-86.16,287.44
598,83688086,-0.7090,-0.8174,-0.3057,10.18,-86.65,289.09
599,83693031,-0.7314,-0.7886,-0.2979,16.59,-86.89,290.67
600,83697658,-0.7554,-0.7764,-0.2959,22.87,-87.07,292.13
601,83702658,-0.7837,-0.7568,-0.2998,29.02,-87.01,293.35
602,83707658,-0.8101,-0.7490,-0.2881,34.88,-86.83,294.76
603,83712658,-0.8345,-0.7397,-0.2861,40.18,-86.46,295.98
604,83717658,-0.8579,-0.7319,-0.2896,45.06,-85.91,297.38
605,83722658,-0.8804,-0.7378,-0.2852,49.57,-85.30,298.96
606,83727817,-0.9087,-0.7373,-0.2896,53.60,-84.33,300.37
607,83732658,-0.9351,-0.7373,-0.2876,57.07,-83.29,302.07
608,83738090,-0.9678,-0.7363,-0.2793,59.94,-81.77,303.48
609,83742658,-1.0015,-0.7266,-0.2876,62.50,-79.94,304.70
610,83747658,-1.0327,-0.7188,-0.2876,65.00,-77.80,305.91
611,83752658,-1.0776,-0.7046,-0.2896,67.13,-75.85,307.07
612,83757658,-1.1162,-0.6958,-0.2900,69.39,-73.35,307.93
613,83762658,-1.1689,-0.6821,-0.3042,71.71,-70.85,308.66
614,83768031,-1.2134,-0.6797,-0.3071,74.15,-68.41,309.45
615,83772658,-1.2656,-0.6699,-0.3237,76.46,-65.98,310.06
616,83777658,-1.3042,-0.6582,-0.3271,78.90,-63.48,310.37
617,83782658,-1.3521,-0.6479,-0.3384,81.22,-60.85,310.79
618,83787658,-1.3921,-0.6465,-0.3379,83.54,-58.41,310.98
619,83792658,-1.4219,-0.6343,-0.3330,85.98,-55.79,311.10
620,83797658,-1.4565,-0.6196,-0.3428,88.41,-53.17,310.79
621,83802658,-1.4819,-0.6118,-0.3457,90.73,-50.55,310.43
622,83807658,-1.5122,-0.6021,-0.3418,92.87,-47.99,309.70
623,83812658,-1.5386,-0.5952,-0.3599,94.94,-45.49,308.72
624,83817658,-1.5566,-0.6030,-0.3721,96.77,-42.93,307.44
625,83822658,-1.5757,-0.5854,-0.3765,97.93,-40.37,306.16
626,83828105,-1.5767,-0.5679,-0.3662,99.02,-37.93,304.45
627,83832659,-1.6001,-0.5474,-0.3486,100.00,-34.88,302.26
628,83837658,-1.6211,-0.5356,-0.3604,100.73,-31.89,299.57
629,83842671,-1.6392,-0.5288,-0.3672,101.46,-28.72,296.65
630,83847657,-1.6616,-0.5190,-0.3677,101.77,-25.73,293.66
631,83852658,-1.6646,-0.5068,-0.3853,102.20,-22.93,290.43
632,83857657,-1.7085,-0.4902,-0.3794,102.32,-19.88,286.89
633,83862658,-1.7583,-0.4707,-0.3799,102.32,-17.13,283.05
634,83867657,-1.7676,-0.4717,-0.3809,102.20,-14.21,278.90
635,83872658,-1.7983,-0.4751,-0.4004,101.65,-11.28,274.76
636,83877657,-1.8276,-0.4790,-0.3916,100.30,-8.48,270.55
637,83882658,-1.8335,-0.5146,-0.4150,97.99,-5.79,266.46
638,83887656,-1.8359,-0.4600,-0.3770,94.70,-3.35,262.68
639,83892798,-1.8213,-0.4570,-0.3662,90.98,-0.24,258.35
640,83897658,-1.8159,-0.4790,-0.3638,87.13,3.35,254.02
641,83902657,-1.8228,-0.5005,-0.3433,82.93,6.46,249.57
642,83907657,-1.8354,-0.5034,-0.3623,78.48,9.57,245.43
643,83912657,-1.8140,-0.4888,-0.3545,74.15,12.87,241.28
644,83917658,-1.7842,-0.4795,-0.3164,70.18,16.22,237.01
645,83922658,-1.7192,-0.5132,-0.3237,66.71,19.76,233.05
646,83928066,-1.6494,-0.4502,-0.2744,64.15,23.41,228.96
647,83932658,-1.5811,-0.4321,-0.2588,63.29,26.46,225.43
648,83937658,-1.4990,-0.4438,-0.2437,63.54,31.22,220.06
649,83942659,-1.4604,-0.4604,-0.2612,64.70,34.33,216.83
650,83947658,-1.4224,-0.4858,-0.2803,66.59,37.26,212.99
651,83952658,-1.3755,-0.4609,-0.2725,68.96,39.76,209.51
652,83957658,-1.3501,-0.4634,-0.2744,72.07,41.89,205.67
653,83962773,-1.3301,-0.4639,-0.2949,76.34,44.15,201.10
654,83967713,-1.3110,-0.4736,-0.3130,80.18,45.06,197.44
655,83972658,-1.2925,-0.4312,-0.3125,83.29,45.49,194.39
656,83977658,-1.2632,-0.4492,-0.3188,87.13,45.91,190.61
657,83982658,-1.2192,-0.4336,-0.3306,90.79,45.67,186.77
658,83987658,-1.1992,-0.4297,-0.3335,94.51,45.06,182.87
659,83992658,-1.1748,-0.4146,-0.3389,98.29,44.27,178.66
660,83997658,-1.1411,-0.3896,-0.3193,102.44,43.11,173.90
661,84002658,-1.1108,-0.3569,-0.3091,107.26,42.01,168.78
662,84007658,-1.0957,-0.3408,-0.3101,113.41,40.61,162.32
663,84012657,-1.0669,-0.3120,-0.2949,117.99,39.76,157.99
664,84017658,-0.9893,-0.2651,-0.2739,123.90,38.35,152.26
665,84022657,-0.9800,-0.2739,-0.2759,130.85,37.26,146.16
666,84027658,-0.9712,-0.2524,-0.2412,137.87,36.04,140.12
667,84032658,-0.9434,-0.2246,-0.2603,144.94,34.82,133.60
668,84037658,-0.8931,-0.1948,-0.2485,151.16,33.05,126.65
669,84042658,-0.8794,-0.1895,-0.2441,156.65,31.77,119.21
670,84047658,-0.8813,-0.2021,-0.2271,161.34,30.43,112.07
671,84053012,-0.8564,-0.2051,-0.2168,165.98,28.54,103.66
672,84057658,-0.8306,-0.1963,-0.2007,168.66,27.20,98.05
673,84062658,-0.8242,-0.2100,-0.2002,171.10,25.85,91.46
674,84067660,-0.8330,-0.2188,-0.1948,172.26,24.27,84.88
675,84072658,-0.8403,-0.2217,-0.1846,172.44,22.50,78.48
676,84077658,-0.8511,-0.2178,-0.1987,171.65,20.67,72.20
677,84082658,-0.8555,-0.2090,-0.1890,170.06,18.84,66.34
678,84087658,-0.8525,-0.2061,-0.1855,167.87,16.89,60.61
679,84092657,-0.8599,-0.1978,-0.1821,164.88,14.76,55.18
680,84097727,-0.8647,-0.1997,-0.1899,161.34,12.44,50.00
681,84102658,-0.8833,-0.1973,-0.1895,157.20,10.30,45.06
682,84107658,-0.8965,-0.1978,-0.1880,152.62,8.17,40.49
683,84112659,-0.9141,-0.1929,-0.1875,147.68,5.73,36.16
684,84117660,-0.9224,-0.1943,-0.1895,142.44,3.60,32.20
685,84122658,-0.9297,-0.1958,-0.1860,137.01,1.22,28.41
686,84127658,-0.9438,-0.1929,-0.1860,131.89,-0.91,24.88
687,84133042,-0.9468,-0.1943,-0.1841,125.00,-3.54,21.10
688,84137658,-0.9473,-0.1929,-0.1812,120.49,-5.12,18.78
689,84142658,-0.9482,-0.1953,-0.1738,114.88,-6.83,15.91
690,84147739,-0.9507,-0.1899,-0.1689,109.33,-8.35,13.29
691,84152657,-0.9580,-0.1841,-0.1738,104.27,-9.82,10.85
692,84157658,-0.9551,-0.1816,-0.1680,99.02,-11.22,8.48
693,84162658,-0.9546,-0.1816,-0.1626,94.15,-12.38,6.04
694,84167658,-0.9487,-0.1826,-0.1567,89.45,-13.35,3.90
695,84172733,-0.9463,-0.1807,-0.1543,84.76,-14.21,1.95
696,84177658,-0.9541,-0.1768,-0.1602,80.43,-14.88,-0.06
697,84182656,-0.9565,-0.1714,-0.1631,76.34,-15.55,-2.13
698,84187657,-0.9517,-0.1641,-0.1694,72.56,-16.28,-4.02
699,84193185,-0.9482,-0.1592,-0.1743,68.29,-16.89,-6.28
700,84197662,-0.9512,-0.1597,-0.1802,65.67,-17.44,-7.68
701,84203005,-0.9497,-0.1606,-0.1826,62.56,-18.17,-9.57
702,84207658,-0.9497,-0.1606,-0.1821,59.33,-18.84,-11.22
703,84212660,-0.9424,-0.1587,-0.1733,56.22,-19.33,-12.56
704,84217657,-0.9341,-0.1567,-0.1865,53.11,-19.76,-14.02
705,84222658,-0.9277,-0.1592,-0.1787,49.88,-20.12,-15.55
706,84227658,-0.9268,-0.1528,-0.1890,46.95,-20.37,-16.77
707,84232658,-0.9292,-0.1470,-0.1943,44.21,-20.79,-18.17
708,84237658,-0.9277,-0.1436,-0.1914,41.65,-20.98,-19.45
709,84242658,-0.9170,-0.1470,-0.1948,39.39,-21.28,-20.67
710,84247657,-0.9082,-0.1416,-0.1992,37.20,-21.46,-21.89
711,84252658,-0.9023,-0.1377,-0.1802,35.06,-21.65,-23.05
712,84257657,-0.9019,-0.1382,-0.1860,33.05,-21.71,-24.15
713,84262658,-0.9033,-0.1294,-0.1885,31.28,-21.59,-25.30
714,84267658,-0.9038,-0.1323,-0.1792,29.39,-21.22,-26.22
715,84272656,-0.8945,-0.1318,-0.1748,27.74,-21.16,-27.13
716,84277656,-0.8818,-0.1265,-0.1826,26.10,-20.79,-28.05
717,84282658,-0.8804,-0.1265,-0.1875,24.70,-20.37,-28.84
718,84287657,-0.8809,-0.1265,-0.1885,23.23,-20.06,-29.51
719,84292706,-0.8818,-0.1240,-0.1870,21.95,-19.57,-30.24
720,84297657,-0.8823,-0.1216,-0.1992,20.49,-19.39,-30.73
721,84302786,-0.8823,-0.1187,-0.1953,19.45,-19.21,-31.34
722,84307658,-0.8809,-0.1167,-0.1997,18.35,-18.66,-31.77
723,84312658,-0.8862,-0.1172,-0.2007,17.32,-18.60,-32.38
724,84317659,-0.8882,-0.1133,-0.2109,16.52,-18.29,-32.80
725,84322658,-0.8916,-0.1055,-0.2109,15.67,-18.05,-33.23
726,84327658,-0.8970,-0.1079,-0.2046,15.00,-17.93,-33.60
727,84333150,-0.8896,-0.1035,-0.2114,14.21,-17.62,-34.09
728,84337658,-0.8901,-0.0977,-0.2173,13.35,-17.32,-34.57
729,84343143,-0.8960,-0.1045,-0.2119,12.50,-17.20,-35.00
730,84347689,-0.8979,-0.1001,-0.2163,11.52,-17.01,-35.18
731,84352657,-0.8931,-0.1011,-0.2197,10.43,-16.95,-35.61
732,84357657,-0.8965,-0.1011,-0.2144,9.39,-16.77,-35.91
733,84362658,-0.8970,-0.0952,-0.2212,8.17,-16.59,-36.16
734,84367658,-0.8989,-0.0933,-0.2163,7.07,-16.46,-36.59
735,84372660,-0.9014,-0.0928,-0.2197,5.79,-16.28,-36.83
736,84377658,-0.8999,-0.0942,-0.2207,4.63,-16.16,-37.07
737,84382658,-0.9067,-0.0952,-0.2324,3.54,-16.04,-37.38
738,84387658,-0.9131,-0.0923,-0.2256,2.50,-16.16,-37.62
739,84392660,-0.9199,-0.0889,-0.2358,1.59,-16.10,-38.05
740,84397660,-0.9224,-0.0830,-0.2368,0.79,-16.16,-38.29
741,84402657,-0.9243,-0.0815,-0.2422,0.18,-16.22,-38.54
742,84407658,-0.9268,-0.0776,-0.2383,-0.37,-16.40,-38.90
743,84412658,-0.9287,-0.0786,-0.2451,-0.67,-16.71,-39.27
744,84417658,-0.9243,-0.0742,-0.2505,-1.10,-16.77,-39.63
745,84422659,-0.9214,-0.0737,-0.2471,-1.46,-17.01,-39.88
746,84427658,-0.9185,-0.0698,-0.2471,-1.71,-17.32,-40.12
747,84432658,-0.9126,-0.0664,-0.2500,-2.07,-17.74,-40.43
748,84437658,-0.9131,-0.0688,-0.2544,-2.44,-17.93,-40.73
749,84448227,-0.9121,-0.0615,-0.2563,-3.66,-18.90,-41.28
750,84452658,-0.9116,-0.0625,-0.2637,-4.33,-19.57,-41.59
751,84457658,-0.9160,-0.0610,-0.2603,-5.06,-20.06,-41.83
752,84462659,-0.9165,-0.0610,-0.2637,-5.85,-20.73,-42.20
753,84467658,-0.9160,-0.0566,-0.2690,-6.65,-21.34,-42.50
754,84472658,-0.9121,-0.0596,-0.2744,-7.50,-22.07,-42.74
755,84477657,-0.9131,-0.0591,-0.2778,-8.41,-22.74,-42.93
756,84482658,-0.9092,-0.0596,-0.2759,-9.45,-23.54,-43.23
757,84487656,-0.9053,-0.0601,-0.2852,-10.49,-24.33,-43.48
758,84492658,-0.9048,-0.0571,-0.2861,-11.77,-25.06,-43.72
759,84497656,-0.9111,-0.0566,-0.2876,-12.87,-25.73,-43.96
760,84502660,-0.9160,-0.0542,-0.2979,-14.02,-26.65,-44.21
761,84508265,-0.9214,-0.0552,-0.2964,-15.06,-27.32,-44.39
762,84512658,-0.9185,-0.0537,-0.2920,-16.22,-28.05,-44.57
763,84517658,-0.9150,-0.0547,-0.2964,-17.32,-28.90,-44.76
764,84522659,-0.9180,-0.0503,-0.3008,-18.29,-29.57,-44.94
765,84527658,-0.9180,-0.0532,-0.3096,-19.45,-30.24,-45.06
766,84532755,-0.9204,-0.0483,-0.3013,-20.49,-30.98,-45.30
767,84537657,-0.9282,-0.0474,-0.3076,-21.40,-31.65,-45.30
768,84542658,-0.9253,-0.0454,-0.3120,-22.26,-32.20,-45.49
769,84547658,-0.9214,-0.0479,-0.3101,-23.11,-32.74,-45.49
770,84552658,-0.9224,-0.0503,-0.3081,-23.84,-33.41,-45.55
771,84557658,-0.9175,-0.0498,-0.3145,-24.45,-33.90,-45.67
772,84562658,-0.9224,-0.0469,-0.3125,-24.94,-34.63,-45.79
773,84567946,-0.9175,-0.0493,-0.3101,-25.61,-35.06,-45.67
774,84572717,-0.9189,-0.0469,-0.3198,-25.98,-35.49,-45.79
775,84577657,-0.9233,-0.0454,-0.3184,-26.40,-36.04,-45.67
776,84582656,-0.9287,-0.0488,-0.3145,-26.65,-36.46,-45.67
777,84588009,-0.9316,-0.0493,-0.3149,-26.77,-36.89,-45.55
778,84592658,-0.9282,-0.0532,-0.3130,-26.95,-37.26,-45.43
779,84597861,-0.9204,-0.0522,-0.3140,-27.26,-37.87,-45.12
780,84602658,-0.9229,-0.0591,-0.3188,-27.38,-38.05,-44.94
781,84607658,-0.9175,-0.0601,-0.3110,-27.56,-38.35,-44.57
782,84612658,-0.9194,-0.0610,-0.3076,-27.68,-38.48,-44.09
783,84617658,-0.9219,-0.0615,-0.3096,-27.74,-38.60,-43.72
784,84622658,-0.9238,-0.0640,-0.3081,-27.87,-38.60,-43.35
785,84627657,-0.9219,-0.0630,-0.2979,-28.05,-38.48,-42.99
786,84632658,-0.9233,-0.0659,-0.3022,-28.29,-38.17,-42.62
787,84638146,-0.9263,-0.0713,-0.2944,-28.78,-37.74,-42.07
788,84642658,-0.9229,-0.0752,-0.2930,-29.15,-37.50,-41.89
789,84647658,-0.9258,-0.0762,-0.2930,-29.82,-36.83,-41.59
790,84652658,-0.9272,-0.0815,-0.2871,-30.67,-36.22,-41.16
791,84657658,-0.9307,-0.0830,-0.2739,-31.77,-35.67,-41.04
792,84662658,-0.9214,-0.0859,-0.2842,-32.87,-35.00,-40.91
793,84667658,-0.9209,-0.0889,-0.2749,-34.39,-34.33,-40.73
794,84672658,-0.9351,-0.0854,-0.2661,-36.04,-33.35,-40.79
795,84677660,-0.9438,-0.0850,-0.2612,-38.23,-32.62,-40.98
796,84682657,-0.9473,-0.0903,-0.2656,-40.67,-31.65,-41.22
797,84687660,-0.9512,-0.0957,-0.2510,-43.35,-30.73,-41.59
798,84692658,-0.9297,-0.0874,-0.2593,-47.01,-29.57,-41.95
799,84697658,-0.9292,-0.0903,-0.2583,-49.70,-29.02,-42.32
800,84702658,-0.9277,-0.0874,-0.2451,-53.29,-28.11,-42.68
801,84707658,-0.9263,-0.0820,-0.2471,-57.26,-27.20,-43.29
802,84712658,-0.9180,-0.0859,-0.2412,-61.46,-26.52,-43.60
803,84717657,-0.9131,-0.0864,-0.2383,-65.79,-25.73,-44.02
804,84722789,-0.9058,-0.0859,-0.2314,-70.37,-24.94,-44.33
805,84727658,-0.8936,-0.0825,-0.2241,-75.91,-24.27,-44.70
806,84732658,-0.8926,-0.0820,-0.2261,-80.73,-23.72,-45.00
807,84737658,-0.8945,-0.0840,-0.2183,-84.39,-23.17,-45.24
808,84742658,-0.8945,-0.0796,-0.2109,-89.15,-22.38,-45.43
809,84747661,-0.8916,-0.0815,-0.2085,-94.51,-21.65,-45.67
810,84752658,-0.8887,-0.0854,-0.2139,-98.17,-21.10,-45.79
811,84758132,-0.8916,-0.0854,-0.2056,-103.17,-20.37,-45.91
812,84762659,-0.8931,-0.0913,-0.2041,-106.52,-19.76,-45.98
813,84767658,-0.8970,-0.0972,-0.1963,-110.55,-19.15,-45.85
814,84772658,-0.8970,-0.1030,-0.1948,-114.39,-18.41,-45.73
815,84777658,-0.9077,-0.1045,-0.2002,-117.93,-17.93,-45.61
816,84783288,-0.9053,-0.1030,-0.1973,-122.07,-17.13,-45.49
817,84787658,-0.9116,-0.1035,-0.1934,-124.57,-16.65,-45.37
818,84792657,-0.9194,-0.1074,-0.1929,-127.50,-15.98,-45.12
819,84798119,-0.9351,-0.1143,-0.1963,-130.67,-15.18,-44.88
820,84802658,-0.9463,-0.1143,-0.2007,-132.62,-14.76,-44.82
821,84807657,-0.9565,-0.1143,-0.2002,-134.63,-14.27,-44.45
822,84812658,-0.9629,-0.1128,-0.1992,-136.52,-13.72,-44.33
823,84817656,-0.9692,-0.1167,-0.2065,-138.17,-13.05,-44.09
824,84822658,-0.9731,-0.1167,-0.2041,-139.39,-12.56,-43.84
825,84827658,-0.9722,-0.1147,-0.1982,-140.43,-12.13,-43.66
826,84832700,-0.9717,-0.1084,-0.1973,-140.98,-11.52,-43.41
827,84837656,-0.9766,-0.1069,-0.2012,-141.22,-11.16,-43.35
828,84842658,-0.9717,-0.1099,-0.2017,-141.04,-10.85,-43.17
829,84847658,-0.9683,-0.1064,-0.2070,-140.55,-10.73,-43.11
830,84852664,-0.9619,-0.1035,-0.2056,-139.94,-10.61,-43.05
831,84857658,-0.9590,-0.1021,-0.2036,-138.90,-10.49,-42.93
832,84862658,-0.9507,-0.1030,-0.2134,-137.62,-10.67,-42.80
833,84867658,-0.9429,-0.1050,-0.2119,-136.40,-10.67,-42.74
834,84872657,-0.9365,-0.1050,-0.2148,-135.12,-10.73,-42.80
835,84877658,-0.9302,-0.1040,-0.2178,-133.66,-10.91,-42.62
836,84882659,-0.9263,-0.1045,-0.2178,-132.07,-11.16,-42.62
837,84887658,-0.9194,-0.1016,-0.2158,-130.37,-11.22,-42.56
838,84892656,-0.9131,-0.0957,-0.2134,-128.66,-11.28,-42.56
839,84897656,-0.9038,-0.0991,-0.2104,-126.71,-11.46,-42.62
840,84902658,-0.9004,-0.1011,-0.2090,-124.70,-11.59,-42.56
841,84907658,-0.8994,-0.0947,-0.2036,-122.32,-11.65,-42.68
842,84912660,-0.8975,-0.0938,-0.2031,-120.67,-11.71,-42.62
843,84917657,-0.8955,-0.0938,-0.2026,-118.90,-11.83,-42.68
844,84922658,-0.8960,-0.0933,-0.2061,-117.20,-11.89,-42.74
845,84927657,-0.8989,-0.0977,-0.2085,-115.67,-12.07,-42.74
846,84932662,-0.9058,-0.1064,-0.2114,-114.21,-12.13,-42.62
847,84937658,-0.9067,-0.1055,-0.2163,-112.99,-12.44,-42.56
848,84942657,-0.9097,-0.1055,-0.2192,-111.71,-12.68,-42.50
849,84947656,-0.9136,-0.1089,-0.2212,-110.43,-12.93,-42.32
850,84952656,-0.9146,-0.1006,-0.2217,-109.27,-13.29,-42.38
851,84957658,-0.9160,-0.1030,-0.2202,-108.05,-13.72,-42.20
852,84962657,-0.9185,-0.1045,-0.2222,-106.95,-14.02,-41.95
853,84968132,-0.9155,-0.1060,-0.2192,-105.91,-14.57,-41.83
854,84972658,-0.9106,-0.1025,-0.2178,-104.94,-15.06,-41.65
855,84978112,-0.9072,-0.1050,-0.2222,-104.09,-15.49,-41.52
856,84982658,-0.9092,-0.1011,-0.2271,-103.35,-16.10,-41.40
857,84987660,-0.9077,-0.0986,-0.2197,-102.50,-16.71,-41.16
858,84992658,-0.9092,-0.0996,-0.2256,-102.07,-17.38,-40.98
859,84998132,-0.9116,-0.0986,-0.2251,-101.46,-17.99,-40.91
860,85002658,-0.9165,-0.1011,-0.2266,-100.91,-18.72,-40.79
861,85007657,-0.9185,-0.0991,-0.2256,-100.67,-19.33,-40.61
862,85012658,-0.9150,-0.0977,-0.2295,-100.30,-20.12,-40.55
863,85017658,-0.9199,-0.0977,-0.2266,-100.24,-20.73,-40.43
864,85022658,-0.9199,-0.0947,-0.2324,-100.24,-21.34,-40.37
865,85027658,-0.9214,-0.0981,-0.2339,-100.37,-22.01,-40.43
866,85032658,-0.9258,-0.0972,-0.2285,-100.67,-22.62,-40.30
867,85037858,-0.9248,-0.0996,-0.2334,-101.16,-23.41,-40.18
868,85042658,-0.9297,-0.0967,-0.2383,-101.89,-24.09,-40.00
869,85047658,-0.9355,-0.1016,-0.2397,-102.80,-24.76,-40.06
870,85052658,-0.9321,-0.0972,-0.2383,-103.66,-25.49,-39.94
871,85057660,-0.9326,-0.0996,-0.2397,-104.57,-26.22,-40.00
872,85062657,-0.9321,-0.1001,-0.2393,-105.61,-27.07,-39.82
873,85067658,-0.9331,-0.0967,-0.2505,-106.71,-27.87,-39.94
874,85072658,-0.9307,-0.0972,-0.2485,-107.80,-28.60,-39.94
875,85077658,-0.9346,-0.0977,-0.2417,-108.84,-29.33,-40.06
876,85082867,-0.9419,-0.0952,-0.2480,-109.88,-30.06,-40.18
877,85087658,-0.9419,-0.0942,-0.2466,-110.79,-30.73,-40.37
878,85092658,-0.9429,-0.0923,-0.2417,-111.71,-31.28,-40.49
879,85097657,-0.9419,-0.0928,-0.2427,-112.62,-31.89,-40.61
880,85102658,-0.9390,-0.0962,-0.2480,-113.54,-32.50,-40.85
881,85107657,-0.9390,-0.0942,-0.2466,-114.33,-33.17,-41.10
882,85112658,-0.9380,-0.0947,-0.2417,-115.24,-33.60,-41.28
883,85118148,-0.9336,-0.0938,-0.2471,-116.16,-34.15,-41.46
884,85122658,-0.9302,-0.0947,-0.2495,-116.95,-34.63,-41.65
885,85128032,-0.9316,-0.0898,-0.2446,-117.74,-35.06,-41.71
886,85132658,-0.9302,-0.0898,-0.2383,-118.60,-35.49,-41.89
887,85137659,-0.9316,-0.0938,-0.2441,-119.51,-35.85,-42.13
888,85142658,-0.9351,-0.0889,-0.2471,-120.30,-36.34,-42.20
889,85147658,-0.9360,-0.0869,-0.2451,-121.10,-36.46,-42.32
890,85152657,-0.9404,-0.0879,-0.2456,-121.89,-36.89,-42.50
891,85157658,-0.9399,-0.0859,-0.2441,-122.68,-37.13,-42.74
892,85162658,-0.9429,-0.0815,-0.2437,-123.29,-37.50,-42.93
893,85167658,-0.9409,-0.0825,-0.2378,-124.09,-37.74,-43.05
894,85172658,-0.9424,-0.0806,-0.2422,-124.88,-37.93,-43.29
895,85177658,-0.9385,-0.0806,-0.2383,-125.61,-38.05,-43.54
896,85182658,-0.9370,-0.0840,-0.2397,-126.22,-38.23,-43.84
897,85187658,-0.9326,-0.0811,-0.2393,-126.83,-38.60,-44.09
898,85192888,-0.9229,-0.0811,-0.2402,-127.32,-38.54,-44.39
899,85197668,-0.9141,-0.0806,-0.2334,-127.74,-38.66,-44.82
900,85202658,-0.9053,-0.0820,-0.2314,-128.11,-38.72,-45.06
901,85207658,-0.9019,-0.0806,-0.2295,-128.41,-38.78,-45.30
902,85212657,-0.8994,-0.0762,-0.2227,-128.54,-38.96,-45.73
903,85217658,-0.8965,-0.0776,-0.2241,-128.60,-38.90,-46.22
904,85222657,-0.8926,-0.0771,-0.2163,-128.54,-38.84,-46.71
905,85227657,-0.8916,-0.0767,-0.2119,-128.35,-38.60,-47.13
906,85232658,-0.8896,-0.0791,-0.2070,-128.17,-38.48,-47.50
907,85237658,-0.8921,-0.0811,-0.2090,-127.93,-38.35,-47.93
908,85242658,-0.8984,-0.0771,-0.2075,-127.50,-37.93,-48.35
909,85247658,-0.8984,-0.0747,-0.2070,-126.95,-37.68,-48.90
910,85252658,-0.9019,-0.0674,-0.2065,-126.22,-37.26,-49.27
911,85257658,-0.9038,-0.0693,-0.2012,-125.49,-36.89,-49.76
912,85262658,-0.9087,-0.0649,-0.1963,-124.57,-36.46,-50.24
913,85267658,-0.9028,-0.0664,-0.1958,-123.66,-35.98,-50.61
914,85272949,-0.9058,-0.0645,-0.1968,-122.74,-35.55,-50.91
915,85277658,-0.9092,-0.0693,-0.1963,-122.01,-35.18,-51.10
916,85283116,-0.9082,-0.0664,-0.1968,-120.98,-34.57,-51.22
917,85288135,-0.9087,-0.0703,-0.1880,-120.18,-34.15,-51.46
918,85292659,-0.9121,-0.0718,-0.1870,-119.63,-33.72,-51.34
919,85297658,-0.9126,-0.0679,-0.1909,-118.84,-33.17,-51.40
920,85302657,-0.9126,-0.0640,-0.1875,-118.05,-32.68,-51.28
921,85307658,-0.9165,-0.0654,-0.1855,-117.38,-32.13,-51.10
922,85312658,-0.9185,-0.0713,-0.1841,-116.77,-31.65,-50.79
923,85317658,-0.9180,-0.0718,-0.1938,-116.10,-31.10,-50.30
924,85322658,-0.9180,-0.0815,-0.1846,-115.67,-30.79,-49.88
925,85327658,-0.9150,-0.0776,-0.1870,-115.00,-30.43,-49.27
926,85332658,-0.9199,-0.0718,-0.1855,-114.27,-29.94,-48.66
927,85337658,-0.9214,-0.0728,-0.1812,-113.60,-29.45,-47.93
928,85342658,-0.9248,-0.0762,-0.1860,-112.62,-28.96,-47.01
929,85347658,-0.9243,-0.0820,-0.1885,-111.89,-28.60,-46.40
930,85352658,-0.9321,-0.0820,-0.1860,-111.04,-28.17,-45.43
931,85358133,-0.9287,-0.0850,-0.1802,-109.70,-27.62,-44.27
932,85362658,-0.9297,-0.0806,-0.1855,-108.66,-27.20,-43.54
933,85367658,-0.9375,-0.0781,-0.1890,-107.32,-26.77,-42.38
934,85372658,-0.9399,-0.0835,-0.1797,-105.85,-26.28,-41.34
935,85377658,-0.9380,-0.0850,-0.1831,-104.09,-25.67,-40.12
936,85382657,-0.9336,-0.0889,-0.1807,-102.38,-25.06,-38.96
937,85387658,-0.9399,-0.0864,-0.1841,-100.00,-24.57,-37.56
938,85392658,-0.9380,-0.0850,-0.1792,-98.17,-23.96,-36.59
939,85397658,-0.9351,-0.0854,-0.1787,-95.91,-23.48,-35.30
940,85402658,-0.9375,-0.0840,-0.1777,-93.48,-22.80,-34.02
941,85407661,-0.9390,-0.0874,-0.1714,-90.43,-22.13,-32.44
942,85412658,-0.9399,-0.0908,-0.1768,-88.23,-21.65,-31.52
943,85417660,-0.9331,-0.0889,-0.1743,-85.37,-20.91,-30.06
944,85422658,-0.9355,-0.0850,-0.1763,-82.50,-20.12,-28.72
945,85427658,-0.9326,-0.0933,-0.1709,-78.84,-19.21,-27.26
946,85432658,-0.9351,-0.0859,-0.1753,-76.28,-18.72,-26.04
947,85437658,-0.9307,-0.0850,-0.1719,-73.17,-17.99,-24.57
948,85442660,-0.9248,-0.0913,-0.1729,-69.88,-17.38,-23.17
949,85447657,-0.9307,-0.0894,-0.1714,-66.71,-16.59,-21.71
950,85452658,-0.9390,-0.0903,-0.1675,-63.41,-15.91,-20.37
951,85457658,-0.9399,-0.0884,-0.1646,-60.00,-15.12,-18.90
952,85463140,-0.9434,-0.0913,-0.1680,-55.79,-14.27,-17.20
953,85467661,-0.9409,-0.0894,-0.1636,-52.26,-13.60,-15.85
954,85472658,-0.9424,-0.0874,-0.1748,-49.27,-12.93,-14.82
955,85477658,-0.9385,-0.0884,-0.1709,-44.94,-11.89,-13.23
956,85482658,-0.9404,-0.0854,-0.1694,-42.01,-11.46,-12.13
957,85487905,-0.9424,-0.0850,-0.1719,-38.23,-10.67,-10.98
958,85492658,-0.9390,-0.0840,-0.1821,-34.57,-9.88,-9.94
959,85497658,-0.9380,-0.0820,-0.1724,-30.98,-9.27,-8.84
960,85502658,-0.9463,-0.0796,-0.1733,-27.38,-8.54,-7.68
961,85507658,-0.9482,-0.0811,-0.1685,-23.84,-7.93,-6.71
962,85512658,-0.9492,-0.0786,-0.1655,-20.37,-7.07,-5.85
963,85517658,-0.9438,-0.0776,-0.1714,-16.89,-6.40,-5.00
964,85523012,-0.9419,-0.0796,-0.1694,-12.99,-5.73,-4.15
965,85527658,-0.9424,-0.0815,-0.1675,-10.37,-5.06,-3.54
966,85532657,-0.9395,-0.0811,-0.1724,-7.50,-4.51,-2.93
967,85537656,-0.9385,-0.0806,-0.1689,-4.63,-3.96,-2.38
968,85542657,-0.9385,-0.0801,-0.1724,-2.01,-3.35,-1.89
969,85547658,-0.9429,-0.0806,-0.1743,0.49,-2.87,-1.46
970,85552658,-0.9404,-0.0737,-0.1665,2.80,-2.44,-1.28
971,85557657,-0.9478,-0.0781,-0.1704,5.00,-1.95,-0.85
972,85562657,-0.9448,-0.0767,-0.1743,7.01,-1.52,-0.73
973,85567658,-0.9458,-0.0742,-0.1719,8.90,-1.16,-0.61
974,85572658,-0.9458,-0.0693,-0.1831,10.61,-0.61,-0.55
975,85577658,-0.9482,-0.0737,-0.1748,12.20,-0.43,-0.49
976,85582658,-0.9507,-0.0698,-0.1772,13.72,-0.06,-0.49
977,85587657,-0.9517,-0.0728,-0.1807,15.12,0.24,-0.67
978,85592920,-0.9502,-0.0698,-0.1787,16.40,0.49,-0.73
979,85597658,-0.9526,-0.0679,-0.1797,17.56,0.73,-0.98
980,85602658,-0.9556,-0.0737,-0.1826,18.60,0.91,-1.16
981,85607658,-0.9556,-0.0703,-0.1792,19.63,0.91,-1.34
982,85612658,-0.9521,-0.0708,-0.1807,20.49,0.98,-1.59
983,85617658,-0.9551,-0.0703,-0.1841,21.16,0.98,-1.83
984,85622658,-0.9585,-0.0679,-0.1870,21.89,0.98,-2.07
985,85627658,-0.9604,-0.0649,-0.1802,22.74,0.85,-2.44
986,85632659,-0.9604,-0.0674,-0.1812,22.99,0.98,-2.68
987,85637662,-0.9629,-0.0664,-0.1797,23.48,0.85,-2.93
988,85642657,-0.9663,-0.0684,-0.1826,23.84,0.73,-3.11
989,85647659,-0.9619,-0.0693,-0.1802,23.96,0.61,-3.23
990,85652657,-0.9600,-0.0742,-0.1821,24.15,0.49,-3.41
991,85657658,-0.9565,-0.0713,-0.1782,24.21,0.24,-3.54
992,85662658,-0.9502,-0.0698,-0.1792,24.27,0.12,-3.54
993,85668170,-0.9448,-0.0728,-0.1777,24.21,-0.18,-3.60
994,85672658,-0.9434,-0.0703,-0.1763,24.27,-0.30,-3.60
995,85677658,-0.9419,-0.0688,-0.1772,24.21,-0.61,-3.60
996,85682658,-0.9399,-0.0713,-0.1763,24.09,-0.79,-3.41
997,85687718,-0.9390,-0.0693,-0.1846,23.96,-1.04,-3.41
998,85692657,-0.9355,-0.0698,-0.1792,23.72,-1.40,-3.17
999,85697658,-0.9385,-0.0728,-0.1709,23.48,-1.77,-3.11
1000,85702657,-0.9370,-0.0728,-0.1797,23.23,-2.13,-2.99
1001,85707658,-0.9438,-0.0723,-0.1865,22.80,-2.56,-2.74
1002,85712658,-0.9473,-0.0708,-0.1748,22.20,-2.87,-2.44
1003,85717660,-0.9473,-0.0728,-0.1763,21.71,-3.23,-2.20
1004,85722658,-0.9453,-0.0747,-0.1797,21.22,-3.60,-2.01
1005,85727658,-0.9399,-0.0752,-0.1836,20.49,-4.15,-1.65
1006,85732658,-0.9409,-0.0732,-0.1865,19.63,-4.57,-1.34
1007,85737658,-0.9399,-0.0684,-0.1880,18.78,-5.12,-1.04
1008,85742658,-0.9434,-0.0664,-0.1831,17.93,-5.55,-0.67
1009,85747658,-0.9443,-0.0732,-0.1836,16.89,-5.91,-0.37
1010,85752951,-0.9443,-0.0693,-0.1772,15.79,-6.52,0.06
1011,85757658,-0.9434,-0.0713,-0.1826,14.63,-7.01,0.37
1012,85762658,-0.9468,-0.0718,-0.1899,13.29,-7.44,0.98
1013,85768147,-0.9453,-0.0737,-0.1885,11.95,-7.93,1.40
1014,85772658,-0.9390,-0.0781,-0.1836,10.43,-8.66,1.83
1015,85777658,-0.9375,-0.0757,-0.1870,8.78,-9.15,2.26
1016,85782658,-0.9492,-0.0820,-0.1880,7.13,-9.57,2.87
1017,85787658,-0.9502,-0.0781,-0.1812,5.43,-9.94,3.41
1018,85792658,-0.9521,-0.0791,-0.1890,3.60,-10.24,4.09
1019,85797658,-0.9585,-0.0825,-0.1846,1.77,-10.73,4.51
1020,85802658,-0.9526,-0.0835,-0.1826,-0.12,-10.91,5.18
1021,85807658,-0.9536,-0.0835,-0.1792,-1.89,-11.16,5.85
1022,85812658,-0.9414,-0.0879,-0.1821,-3.78,-11.34,6.46
1023,85817658,-0.9414,-0.0854,-0.1792,-5.49,-11.40,7.20
1024,85822657,-0.9370,-0.0864,-0.1763,-7.07,-11.52,7.80
1025,85827656,-0.9419,-0.0869,-0.1816,-8.66,-11.59,8.60
1026,85832656,-0.9443,-0.0859,-0.1802,-9.94,-11.52,9.33
1027,85837766,-0.9487,-0.0869,-0.1758,-11.16,-11.34,9.94
1028,85842658,-0.9458,-0.0908,-0.1753,-12.26,-11.22,10.73
1029,85847658,-0.9443,-0.0942,-0.1753,-13.17,-11.04,11.52
1030,85853100,-0.9438,-0.0879,-0.1802,-14.02,-10.85,12.20
1031,85857658,-0.9380,-0.0898,-0.1733,-14.76,-10.55,13.11
1032,85862658,-0.9346,-0.0854,-0.1753,-15.43,-10.30,13.90
1033,85867658,-0.9380,-0.0908,-0.1772,-15.91,-9.88,14.57
1034,85872659,-0.9419,-0.0923,-0.1792,-16.46,-9.57,15.55
1035,85877658,-0.9453,-0.0898,-0.1763,-16.71,-9.15,16.16
1036,85882657,-0.9512,-0.0923,-0.1704,-17.07,-8.54,17.01
1037,85887658,-0.9453,-0.0957,-0.1729,-17.26,-8.05,17.80
1038,85892657,-0.9399,-0.0977,-0.1675,-17.26,-7.44,18.72
1039,85897658,-0.9316,-0.0996,-0.1685,-17.13,-6.77,19.45
1040,85902658,-0.9292,-0.0991,-0.1748,-17.01,-6.28,20.18
1041,85907658,-0.9312,-0.0962,-0.1694,-16.83,-5.61,21.04
1042,85912658,-0.9341,-0.0928,-0.1675,-16.34,-5.00,21.71
1043,85917658,-0.9321,-0.0938,-0.1631,-15.85,-4.21,22.44
1044,85922658,-0.9351,-0.0986,-0.1675,-15.18,-3.60,23.11
1045,85927658,-0.9321,-0.0991,-0.1729,-14.27,-3.05,23.84
1046,85932658,-0.9336,-0.0991,-0.1743,-13.35,-2.13,24.45
1047,85937658,-0.9229,-0.0981,-0.1724,-12.32,-1.46,25.00
1048,85942691,-0.9268,-0.0962,-0.1636,-11.28,-0.79,25.67
1049,85947658,-0.9263,-0.0996,-0.1685,-10.06,-0.12,26.16
1050,85952658,-0.9287,-0.1016,-0.1689,-8.90,0.61,26.71
1051,85957658,-0.9287,-0.1011,-0.1636,-7.50,1.59,27.13
1052,85962658,-0.9326,-0.0952,-0.1646,-6.10,2.20,27.56
1053,85967658,-0.9336,-0.0972,-0.1680,-4.57,3.11,27.93
1054,85972658,-0.9336,-0.0986,-0.1616,-3.35,3.90,28.29
1055,85978143,-0.9302,-0.1021,-0.1646,-1.59,4.94,28.78
1056,85982658,-0.9258,-0.0996,-0.1597,-0.06,5.37,28.96
1057,85987658,-0.9287,-0.1011,-0.1631,1.59,6.34,29.21
1058,85992658,-0.9360,-0.1035,-0.1626,3.48,7.01,29.45
1059,85997977,-0.9316,-0.1045,-0.1587,5.67,7.99,29.76
1060,86002658,-0.9277,-0.1025,-0.1562,7.20,8.66,29.76
1061,86007659,-0.9277,-0.1001,-0.1636,9.27,9.45,30.06
1062,86012658,-0.9302,-0.1040,-0.1582,11.22,10.24,30.12
1063,86017658,-0.9287,-0.1050,-0.1597,13.41,10.79,30.24
1064,86022658,-0.9336,-0.1045,-0.1592,15.61,11.65,30.30
1065,86027658,-0.9404,-0.1055,-0.1572,17.80,12.38,30.37
1066,86032658,-0.9468,-0.1045,-0.1533,20.12,13.05,30.37
1067,86037658,-0.9429,-0.1030,-0.1548,22.62,13.66,30.37
1068,86042658,-0.9429,-0.1079,-0.1562,24.57,14.33,30.37
1069,86047661,-0.9404,-0.1064,-0.1582,27.20,14.88,30.43
1070,86052658,-0.9419,-0.1084,-0.1582,28.90,15.30,30.30
1071,86058140,-0.9390,-0.1104,-0.1621,31.77,15.85,30.24
1072,86062658,-0.9404,-0.1045,-0.1514,33.54,16.28,30.12
1073,86067658,-0.9497,-0.1050,-0.1538,35.91,16.52,30.00
1074,86072658,-0.9546,-0.1055,-0.1621,38.17,16.83,29.88
1075,86077658,-0.9531,-0.1045,-0.1597,40.30,17.26,29.63
1076,86082658,-0.9521,-0.1064,-0.1641,42.50,17.50,29.45
1077,86087658,-0.9546,-0.1060,-0.1597,44.57,17.68,29.33
1078,86092658,-0.9541,-0.1045,-0.1606,46.65,17.80,29.09
1079,86097658,-0.9541,-0.1030,-0.1641,48.60,17.87,28.78
1080,86102826,-0.9546,-0.1035,-0.1660,50.55,17.80,28.54
1081,86107658,-0.9590,-0.1025,-0.1631,52.50,17.74,28.17
1082,86112696,-0.9624,-0.1016,-0.1650,54.33,17.74,28.05
1083,86117660,-0.9614,-0.1055,-0.1650,56.10,17.68,27.56
1084,86122658,-0.9541,-0.1035,-0.1655,57.68,17.50,27.32
1085,86127657,-0.9546,-0.1069,-0.1621,59.21,17.26,26.95
1086,86132656,-0.9468,-0.1064,-0.1655,60.61,17.01,26.65
1087,86137656,-0.9443,-0.1074,-0.1694,62.13,16.65,26.28
1088,86142658,-0.9473,-0.1055,-0.1660,63.35,16.34,25.91
1089,86147657,-0.9502,-0.1045,-0.1685,64.70,16.04,25.43
1090,86152881,-0.9541,-0.1069,-0.1719,65.79,15.43,25.12
1091,86157658,-0.9585,-0.1040,-0.1743,66.89,15.06,24.70
1092,86162889,-0.9507,-0.1035,-0.1719,67.80,14.57,24.15
1093,86167658,-0.9497,-0.1021,-0.1729,68.84,14.09,23.66
1094,86172658,-0.9482,-0.1006,-0.1777,69.57,13.54,23.11
1095,86177658,-0.9458,-0.0991,-0.1753,70.37,12.87,22.62
1096,86183025,-0.9463,-0.0962,-0.1797,70.91,12.01,21.95
1097,86187661,-0.9434,-0.0981,-0.1831,71.46,11.52,21.40
1098,86192657,-0.9468,-0.0942,-0.1782,71.89,10.79,20.73
1099,86197661,-0.9492,-0.0923,-0.1714,72.13,10.37,20.18
1100,86202970,-0.9473,-0.0928,-0.1777,72.32,9.82,19.51
1101,86207661,-0.9438,-0.0942,-0.1792,72.56,9.02,18.78
1102,86212658,-0.9478,-0.0981,-0.1812,72.38,8.54,18.23
1103,86217658,-0.9463,-0.0908,-0.1704,72.13,7.99,17.50
1104,86222658,-0.9492,-0.0918,-0.1821,71.89,7.38,16.83
1105,86227660,-0.9434,-0.0903,-0.1753,71.46,6.77,16.16
1106,86232902,-0.9497,-0.0903,-0.1777,70.98,6.16,15.43
1107,86237658,-0.9438,-0.0972,-0.1812,70.18,5.49,14.82
1108,86242658,-0.9360,-0.0938,-0.1738,69.27,4.82,14.15
1109,86247658,-0.9302,-0.0947,-0.1753,68.35,4.27,13.54
1110,86252658,-0.9258,-0.0928,-0.1743,67.20,3.60,12.87
1111,86257660,-0.9219,-0.0928,-0.1787,65.91,2.99,12.26
1112,86262657,-0.9199,-0.0913,-0.1763,64.45,2.32,11.46
1113,86267658,-0.9238,-0.0942,-0.1753,63.05,1.71,11.04
1114,86272924,-0.9189,-0.0918,-0.1792,61.40,1.04,10.43
1115,86278164,-0.9146,-0.0962,-0.1792,59.39,0.37,9.76
1116,86282658,-0.9102,-0.0962,-0.1680,57.93,0.06,9.27
1117,86287658,-0.9082,-0.0933,-0.1646,56.10,-0.49,8.78
1118,86293142,-0.9077,-0.0918,-0.1655,54.15,-0.85,8.29
1119,86297658,-0.9092,-0.0913,-0.1704,52.20,-1.40,7.80
1120,86302872,-0.9136,-0.0908,-0.1670,50.12,-1.89,7.32
1121,86307658,-0.9146,-0.0903,-0.1694,48.11,-2.07,6.77
1122,86312661,-0.9165,-0.0913,-0.1631,45.79,-2.38,6.40
1123,86317659,-0.9243,-0.0898,-0.1704,43.60,-2.87,5.98
1124,86322658,-0.9224,-0.0908,-0.1675,41.34,-2.99,5.61
1125,86327658,-0.9224,-0.0923,-0.1704,39.02,-3.48,5.18
1126,86332658,-0.9165,-0.0903,-0.1680,36.71,-3.72,4.94
1127,86337658,-0.9165,-0.0889,-0.1729,34.15,-3.84,4.76
1128,86343143,-0.9194,-0.0938,-0.1680,31.71,-4.21,4.45
1129,86347658,-0.9204,-0.0933,-0.1675,28.96,-4.63,4.27
1130,86352658,-0.9253,-0.0938,-0.1689,26.52,-4.94,3.96
1131,86357658,-0.9321,-0.0923,-0.1699,23.78,-5.12,3.90
1132,86362658,-0.9321,-0.0923,-0.1724,21.16,-5.49,3.78
1133,86367657,-0.9268,-0.0986,-0.1689,18.41,-5.79,3.66
1134,86372658,-0.9258,-0.0952,-0.1699,15.67,-5.98,3.66
1135,86378162,-0.9268,-0.0913,-0.1758,12.99,-6.28,3.66
1136,86382658,-0.9307,-0.0928,-0.1714,10.24,-6.46,3.72
1137,86387658,-0.9355,-0.0938,-0.1689,7.74,-6.83,3.66
1138,86392658,-0.9336,-0.0913,-0.1772,5.12,-7.20,3.72
1139,86398015,-0.9336,-0.0991,-0.1738,2.74,-7.38,3.78
1140,86402661,-0.9272,-0.0977,-0.1733,0.37,-7.68,3.84
1141,86407658,-0.9258,-0.0957,-0.1704,-1.95,-7.93,4.02
1142,86412658,-0.9248,-0.0923,-0.1704,-3.96,-8.11,4.15
1143,86417658,-0.9199,-0.0947,-0.1772,-6.04,-8.66,4.39
1144,86422657,-0.9204,-0.0977,-0.1743,-7.99,-8.84,4.57
1145,86427658,-0.9204,-0.0991,-0.1753,-9.88,-9.15,4.82
1146,86432656,-0.9224,-0.0981,-0.1704,-11.59,-9.21,5.00
1147,86437656,-0.9224,-0.0942,-0.1680,-13.23,-9.51,5.18
1148,86442656,-0.9263,-0.0938,-0.1709,-14.70,-9.63,5.43
1149,86447656,-0.9199,-0.0981,-0.1733,-16.04,-9.88,5.61
1150,86452996,-0.9214,-0.0991,-0.1738,-17.20,-10.06,5.85
1151,86457658,-0.9194,-0.0972,-0.1738,-18.35,-10.30,5.98
1152,86462658,-0.9165,-0.0977,-0.1787,-19.33,-10.43,6.16
1153,86467658,-0.9126,-0.1001,-0.1743,-20.24,-10.73,6.34
1154,86472658,-0.9170,-0.0947,-0.1777,-21.04,-10.73,6.46
1155,86477658,-0.9175,-0.0947,-0.1777,-21.65,-10.91,6.77
1156,86482834,-0.9214,-0.0933,-0.1772,-22.07,-10.98,6.89
1157,86487658,-0.9258,-0.0952,-0.1777,-22.56,-11.16,6.77
1158,86492953,-0.9302,-0.0972,-0.1758,-22.87,-11.16,7.01
1159,86497658,-0.9219,-0.0962,-0.1797,-23.11,-11.16,7.13
1160,86502658,-0.9263,-0.0991,-0.1758,-23.29,-11.34,7.20
1161,86507658,-0.9258,-0.0952,-0.1836,-23.29,-11.34,7.26
1162,86512658,-0.9326,-0.0991,-0.1860,-23.35,-11.28,7.20
1163,86517658,-0.9307,-0.0972,-0.1768,-23.11,-11.34,7.32
1164,86522660,-0.9375,-0.0977,-0.1802,-22.93,-11.22,7.38
1165,86527658,-0.9346,-0.0972,-0.1821,-22.68,-11.16,7.32
1166,86532880,-0.9360,-0.1021,-0.1831,-22.20,-11.22,7.38
1167,86537658,-0.9380,-0.0977,-0.1851,-21.71,-11.04,7.26
1168,86542658,-0.9375,-0.0977,-0.1836,-21.10,-10.79,7.20
1169,86547658,-0.9395,-0.0942,-0.1816,-20.43,-10.79,7.26
1170,86552657,-0.9395,-0.0972,-0.1855,-19.82,-10.73,7.07
1171,86558430,-0.9390,-0.0996,-0.1812,-18.84,-10.55,7.01
1172,86563572,-0.9390,-0.1011,-0.1807,-18.11,-10.43,6.95
1173,86567658,-0.9385,-0.1001,-0.1792,-17.20,-10.24,6.77
1174,86572658,-0.9365,-0.1001,-0.1816,-16.16,-10.06,6.65
1175,86577658,-0.9336,-0.0977,-0.1875,-15.30,-9.88,6.46
1176,86582658,-0.9346,-0.0903,-0.1802,-14.21,-9.76,6.34
1177,86588145,-0.9312,-0.0981,-0.1831,-13.05,-9.51,6.04
1178,86593151,-0.9336,-0.0996,-0.1914,-11.95,-9.33,5.85
1179,86597658,-0.9297,-0.0972,-0.1821,-10.98,-9.09,5.67
1180,86602658,-0.9336,-0.0977,-0.1865,-9.57,-8.90,5.30
