# skilleye imu stream v1
# device=xiao_esp32c6 imu=mpu6050 addr=0x68
# rate_hz=200 accel_range_g=16 gyro_range_dps=2000 dlpf_hz=94
# units: accel in g, gyro in deg/s, t_us in microseconds since boot (monotonic)
# no shared clock with the camera -- tap the racket once before each take
# so both recordings share a spike to align on
seq,t_us,ax,ay,az,gx,gy,gz
0,46475442,-0.6987,0.3110,0.7720,-13.11,27.01,37.07
1,46480448,-0.6909,0.3091,0.7656,-13.60,26.77,36.16
2,46485441,-0.6836,0.3057,0.7646,-14.21,26.16,35.24
3,46490442,-0.6782,0.3081,0.7627,-14.88,25.79,34.21
4,46495440,-0.6714,0.3022,0.7529,-15.43,25.12,33.17
5,46500444,-0.6641,0.3052,0.7505,-16.04,24.33,32.01
6,46505441,-0.6558,0.3013,0.7456,-16.59,23.78,30.98
7,46510442,-0.6519,0.3037,0.7412,-17.01,23.05,29.82
8,46515440,-0.6499,0.3096,0.7358,-17.26,22.20,28.66
9,46520442,-0.6567,0.3169,0.7334,-17.32,21.59,27.38
10,46525441,-0.6558,0.3276,0.7378,-17.26,20.61,26.16
11,46530440,-0.6553,0.3301,0.7349,-16.95,19.76,24.88
12,46535543,-0.6587,0.3354,0.7349,-16.52,18.84,23.54
13,46541809,-0.6616,0.3403,0.7344,-15.85,17.80,22.01
14,46545534,-0.6650,0.3428,0.7295,-15.37,17.07,20.91
15,46550442,-0.6694,0.3452,0.7310,-14.51,16.10,19.57
16,46555442,-0.6777,0.3452,0.7227,-13.66,15.30,18.41
17,46560440,-0.6812,0.3530,0.7227,-12.74,14.21,17.13
18,46565444,-0.6860,0.3618,0.7197,-11.65,13.35,15.91
19,46570574,-0.6860,0.3647,0.7168,-10.61,12.32,14.63
20,46575442,-0.6909,0.3706,0.7109,-9.63,11.34,13.29
21,46580444,-0.6948,0.3721,0.7114,-8.66,10.30,12.20
22,46585536,-0.6987,0.3818,0.7134,-7.68,9.27,11.04
23,46590445,-0.7036,0.3877,0.7109,-6.95,8.23,9.94
24,46595441,-0.7104,0.3916,0.7026,-6.10,7.38,8.90
25,46600444,-0.7168,0.3965,0.7095,-5.30,6.40,7.87
26,46605440,-0.7236,0.4062,0.7065,-4.70,5.43,6.89
27,46610444,-0.7363,0.4141,0.7002,-4.27,4.57,5.85
28,46615441,-0.7373,0.4170,0.7036,-3.78,3.72,4.94
29,46620442,-0.7402,0.4224,0.7070,-3.54,2.93,3.96
30,46625534,-0.7446,0.4238,0.7056,-3.48,1.95,3.17
31,46630440,-0.7471,0.4233,0.6997,-3.35,1.16,2.44
32,46635441,-0.7500,0.4248,0.7031,-3.72,0.43,1.83
33,46640444,-0.7456,0.4268,0.7002,-4.02,-0.49,1.10
34,46645442,-0.7461,0.4214,0.6914,-4.45,-1.34,0.49
35,46650442,-0.7422,0.4243,0.6958,-5.18,-2.13,0.12
36,46655441,-0.7388,0.4219,0.6909,-5.85,-2.87,-0.37
37,46660442,-0.7373,0.4238,0.6938,-6.71,-3.66,-0.73
38,46665440,-0.7373,0.4248,0.6816,-7.50,-4.51,-1.10
39,46670444,-0.7339,0.4336,0.6797,-8.29,-5.49,-1.22
40,46675441,-0.7349,0.4312,0.6821,-9.09,-6.28,-1.52
41,46680442,-0.7310,0.4336,0.6748,-9.70,-6.95,-1.71
42,46685440,-0.7305,0.4302,0.6792,-10.24,-7.80,-1.83
43,46690442,-0.7266,0.4336,0.6782,-10.61,-8.41,-1.89
44,46695441,-0.7266,0.4375,0.6777,-10.85,-9.33,-2.07
45,46700442,-0.7251,0.4434,0.6782,-10.85,-9.88,-2.07
46,46705440,-0.7246,0.4404,0.6748,-10.73,-10.43,-2.13
47,46710444,-0.7256,0.4424,0.6787,-10.43,-11.16,-2.01
48,46715441,-0.7227,0.4443,0.6768,-9.88,-11.65,-1.95
49,46720442,-0.7163,0.4453,0.6768,-9.21,-12.20,-1.77
50,46725440,-0.7188,0.4463,0.6777,-8.41,-12.56,-1.65
51,46730442,-0.7163,0.4482,0.6787,-7.44,-13.05,-1.34
52,46735441,-0.7148,0.4443,0.6763,-6.40,-13.48,-1.10
53,46740440,-0.7134,0.4414,0.6758,-5.30,-14.02,-0.79
54,46745444,-0.7080,0.4424,0.6792,-4.21,-14.33,-0.55
55,46750442,-0.7007,0.4434,0.6768,-3.05,-14.70,-0.24
56,46755441,-0.7007,0.4487,0.6660,-2.07,-15.12,0.06
57,46760442,-0.6929,0.4492,0.6675,-0.91,-15.55,0.49
58,46765440,-0.6924,0.4517,0.6704,0.12,-15.85,0.67
59,46770442,-0.6875,0.4546,0.6665,1.28,-16.34,0.91
60,46775441,-0.6851,0.4492,0.6606,2.44,-16.89,1.22
61,46780957,-0.6875,0.4580,0.6631,3.90,-17.13,1.46
62,46785444,-0.6836,0.4595,0.6655,4.76,-17.62,1.77
63,46790444,-0.6758,0.4556,0.6714,6.10,-18.11,2.07
64,46795441,-0.6709,0.4604,0.6709,7.50,-18.54,2.38
65,46800444,-0.6660,0.4604,0.6724,9.02,-18.84,2.74
66,46805440,-0.6582,0.4688,0.6738,10.67,-19.33,2.87
67,46810444,-0.6528,0.4761,0.6763,12.26,-19.57,3.05
68,46815441,-0.6489,0.4751,0.6880,13.84,-20.06,3.29
69,46820444,-0.6445,0.4800,0.6943,15.49,-20.43,3.48
70,46825440,-0.6450,0.4819,0.7021,17.01,-20.85,3.60
71,46830440,-0.6353,0.4849,0.7056,18.23,-21.46,3.72
72,46835440,-0.6274,0.4854,0.7051,19.51,-22.01,3.90
73,46840444,-0.6167,0.4873,0.7080,20.43,-22.38,3.90
74,46845444,-0.6045,0.4951,0.7109,21.22,-22.99,3.90
75,46850442,-0.5942,0.4951,0.7109,21.89,-23.60,3.96
76,46855441,-0.5845,0.5039,0.7168,22.38,-24.45,3.78
77,46860442,-0.5806,0.5068,0.7261,22.74,-25.12,3.60
78,46865440,-0.5679,0.5117,0.7310,22.80,-26.04,3.48
79,46870442,-0.5513,0.5195,0.7295,22.80,-26.83,3.35
80,46875441,-0.5542,0.5220,0.7412,22.80,-27.80,3.17
81,46880442,-0.5483,0.5303,0.7432,22.38,-28.78,3.05
82,46885440,-0.5518,0.5396,0.7432,21.77,-29.94,2.87
83,46890442,-0.5498,0.5405,0.7534,21.28,-30.85,2.80
84,46895441,-0.5547,0.5435,0.7632,20.61,-32.01,2.68
85,46900442,-0.5547,0.5425,0.7822,19.63,-33.05,2.87
86,46905440,-0.5503,0.5356,0.7949,18.66,-33.96,3.29
87,46910444,-0.5493,0.5327,0.8091,17.62,-35.00,3.66
88,46915441,-0.5464,0.5391,0.8120,16.59,-35.91,4.27
89,46920444,-0.5435,0.5400,0.8257,15.30,-36.95,4.82
90,46925440,-0.5459,0.5430,0.8345,13.96,-38.05,5.73
91,46930442,-0.5410,0.5474,0.8433,12.93,-38.90,6.77
92,46935440,-0.5454,0.5552,0.8496,12.07,-39.88,7.74
93,46940454,-0.5464,0.5625,0.8618,11.16,-40.79,8.96
94,46945440,-0.5552,0.5674,0.8794,10.37,-41.77,10.24
95,46950444,-0.5620,0.5752,0.8877,9.70,-42.50,11.59
96,46955441,-0.5708,0.5864,0.8936,9.27,-43.41,13.11
97,46960442,-0.5786,0.5962,0.9092,8.60,-44.09,14.57
98,46965440,-0.5854,0.6050,0.9238,8.11,-44.88,16.04
99,46970442,-0.5898,0.6138,0.9351,7.68,-45.61,17.62
100,46975441,-0.5967,0.6230,0.9360,7.01,-46.40,19.33
101,46980442,-0.5981,0.6309,0.9458,6.34,-46.95,20.85
102,46985440,-0.5986,0.6309,0.9526,5.61,-47.93,22.44
103,46990442,-0.5923,0.6416,0.9551,4.63,-48.72,24.15
104,46995441,-0.5859,0.6479,0.9595,3.66,-49.57,25.61
105,47000442,-0.5796,0.6543,0.9663,2.44,-50.55,27.20
106,47005440,-0.5752,0.6660,0.9663,0.98,-51.52,28.54
107,47010444,-0.5688,0.6724,0.9653,-0.61,-52.62,29.88
108,47015441,-0.5615,0.6748,0.9683,-2.07,-53.60,31.16
109,47020442,-0.5591,0.6855,0.9707,-3.66,-54.94,32.38
110,47025441,-0.5615,0.6938,0.9751,-5.30,-56.16,33.60
111,47030444,-0.5630,0.7002,0.9795,-6.83,-57.56,34.63
112,47035440,-0.5625,0.7148,0.9844,-8.41,-58.90,35.79
113,47040441,-0.5630,0.7227,0.9863,-10.06,-60.37,36.77
114,47045605,-0.5688,0.7324,0.9819,-11.59,-61.77,37.68
115,47050444,-0.5742,0.7437,0.9785,-13.17,-63.23,38.48
116,47055441,-0.5786,0.7549,0.9873,-14.76,-64.82,39.21
117,47060444,-0.5835,0.7637,0.9858,-16.40,-66.34,39.88
118,47065440,-0.5786,0.7720,0.9819,-18.11,-67.87,40.43
119,47070442,-0.5757,0.7793,0.9829,-19.70,-69.57,40.98
120,47075441,-0.5786,0.7881,0.9878,-21.10,-71.40,41.34
121,47080442,-0.5723,0.7925,0.9824,-22.44,-73.05,41.83
122,47085440,-0.5679,0.7959,0.9863,-23.54,-74.88,42.20
123,47090442,-0.5664,0.8013,0.9878,-24.57,-76.77,42.62
124,47095441,-0.5620,0.8091,0.9897,-25.43,-78.60,43.05
125,47100442,-0.5654,0.8125,0.9854,-26.34,-80.37,43.23
126,47105442,-0.5635,0.8169,0.9873,-27.01,-82.26,43.54
127,47110445,-0.5674,0.8120,0.9863,-27.56,-84.02,43.90
128,47115441,-0.5659,0.8120,0.9829,-28.17,-86.04,44.21
129,47120445,-0.5688,0.8149,0.9702,-28.72,-87.80,44.51
130,47125440,-0.5703,0.8179,0.9678,-28.84,-89.88,44.94
131,47130442,-0.5649,0.8213,0.9546,-28.60,-92.01,45.30
132,47135441,-0.5547,0.8188,0.9487,-27.99,-94.21,45.61
133,47140442,-0.5391,0.8213,0.9414,-27.07,-96.28,45.98
134,47145441,-0.5249,0.8228,0.9287,-25.85,-98.78,46.28
135,47150440,-0.5127,0.8228,0.9141,-24.27,-101.28,46.65
136,47155443,-0.5073,0.8193,0.9155,-22.68,-103.60,47.01
137,47160442,-0.4946,0.8125,0.9082,-20.91,-106.04,47.44
138,47165442,-0.4766,0.7993,0.9038,-19.15,-108.54,47.93
139,47170441,-0.4644,0.7871,0.9058,-17.44,-110.79,48.60
140,47175442,-0.4502,0.7852,0.9087,-15.67,-113.17,49.27
141,47180441,-0.4419,0.7778,0.9028,-13.90,-115.55,50.06
142,47185442,-0.4341,0.7710,0.8984,-12.26,-117.87,51.04
143,47190441,-0.4209,0.7715,0.8901,-10.79,-119.94,52.07
144,47195446,-0.4155,0.7695,0.8789,-9.15,-122.44,53.29
145,47200441,-0.4116,0.7676,0.8730,-7.74,-124.63,54.39
146,47205442,-0.4146,0.7661,0.8784,-6.22,-126.83,55.67
147,47210698,-0.4170,0.7710,0.8608,-4.82,-128.90,57.07
148,47215442,-0.4160,0.7690,0.8613,-3.23,-131.10,58.72
149,47220441,-0.4146,0.7690,0.8594,-1.59,-133.05,60.18
150,47225444,-0.4067,0.7686,0.8457,0.61,-134.88,62.07
151,47230441,-0.3965,0.7700,0.8457,2.93,-136.59,63.90
152,47235442,-0.3896,0.7695,0.8462,5.61,-138.35,65.98
153,47240441,-0.2998,1.0405,0.8208,9.39,-140.06,66.40
154,47245441,-0.2744,0.7490,0.8516,14.39,-142.07,66.16
155,47250442,-0.2397,0.6997,0.8770,18.78,-143.72,67.62
156,47255442,-0.0664,0.8306,0.7578,23.48,-145.73,68.78
157,47260442,-0.1953,0.7456,0.9082,28.11,-147.87,69.63
158,47265441,-0.2622,0.7295,0.8677,32.74,-149.02,71.59
159,47270442,-0.2295,0.7559,0.8501,37.20,-149.82,73.90
160,47275440,-0.2056,0.7617,0.8687,41.65,-150.55,76.52
161,47280442,-0.2065,0.7466,0.8506,46.16,-151.28,79.57
162,47285441,-0.2319,0.7480,0.8354,50.79,-151.83,83.11
163,47290442,-0.2700,0.7520,0.8467,55.43,-151.83,85.85
164,47295440,-0.3086,0.7646,0.8633,60.12,-151.46,90.55
165,47300442,-0.3374,0.7637,0.8535,64.39,-150.61,95.37
166,47305441,-0.3423,0.7661,0.8525,68.60,-149.33,100.30
167,47310442,-0.3413,0.7729,0.8589,72.56,-147.87,105.61
168,47315440,-0.3369,0.7754,0.8486,75.43,-146.46,110.06
169,47320442,-0.3247,0.7778,0.8384,78.90,-144.76,115.67
170,47325440,-0.2959,0.7812,0.8555,82.80,-142.26,122.44
171,47330444,-0.2856,0.7905,0.8472,85.12,-140.24,126.95
172,47335441,-0.2642,0.8008,0.8384,87.62,-137.93,132.62
173,47340440,-0.2529,0.8115,0.8345,90.00,-135.43,137.99
174,47345442,-0.2500,0.8398,0.8413,92.26,-132.68,142.93
175,47350441,-0.2485,0.8848,0.8779,94.02,-129.33,146.89
176,47355440,-0.2031,0.8179,0.8477,95.18,-125.61,150.37
177,47360440,-0.1787,0.8203,0.8462,96.34,-121.59,154.09
178,47365444,-0.1919,0.8579,0.8579,97.74,-117.68,157.62
179,47370442,-0.1987,0.8853,0.8301,99.45,-113.54,160.85
180,47375441,-0.1855,0.8853,0.8281,101.10,-109.76,163.48
181,47380444,-0.1636,0.8828,0.8394,102.68,-106.10,166.10
182,47385440,-0.1348,0.8672,0.8276,103.96,-102.26,168.29
183,47390442,-0.1064,0.8574,0.8203,105.00,-98.96,170.18
184,47395441,-0.0972,0.8613,0.8184,105.73,-95.55,171.95
185,47400442,-0.0918,0.8691,0.8047,106.10,-92.56,173.41
186,47405440,-0.0820,0.8740,0.7876,106.16,-89.39,174.70
187,47410442,-0.0723,0.8750,0.7871,106.10,-86.71,175.73
188,47415441,-0.0596,0.8789,0.7861,105.98,-84.02,176.83
189,47420444,-0.0562,0.8882,0.7871,105.67,-81.28,177.74
190,47425440,-0.0493,0.9009,0.7842,105.49,-78.54,178.60
191,47430440,-0.0493,0.9209,0.7954,105.43,-75.79,179.33
192,47435444,-0.0420,0.8960,0.7935,105.43,-72.99,180.30
193,47440442,-0.0195,0.8306,0.7832,105.06,-70.24,182.26
194,47445441,-0.0044,0.8882,0.7832,105.00,-67.74,184.76
195,47450441,0.0298,0.9072,0.7837,105.61,-65.30,187.13
196,47455442,0.0610,0.9062,0.7725,106.89,-62.80,189.70
197,47460440,0.0757,0.9204,0.7588,109.21,-60.24,192.32
198,47465442,0.1104,0.9375,0.7490,112.62,-57.68,194.70
199,47470442,0.0991,0.9170,0.7432,116.89,-55.06,196.83
200,47475442,0.0859,0.8896,0.7310,122.01,-52.20,199.27
201,47480441,0.0972,0.8594,0.7173,127.07,-48.96,201.89
202,47485442,0.1294,0.8618,0.6826,132.56,-45.55,204.94
203,47490440,0.1494,0.9189,0.6406,137.99,-41.89,207.50
204,47495443,0.1719,0.9731,0.6011,142.26,-38.41,209.33
205,47500444,0.2153,0.9932,0.5728,145.61,-34.76,210.43
206,47505441,0.2793,0.9976,0.5537,147.80,-31.77,211.10
207,47510442,0.3711,0.9966,0.5405,149.33,-28.72,211.16
208,47515440,0.4604,1.0205,0.5449,149.15,-25.85,210.85
209,47520440,0.4941,1.0093,0.5308,147.93,-23.35,210.06
210,47525444,0.4702,0.9946,0.5571,145.67,-21.10,208.72
211,47530441,0.4395,0.9551,0.5747,142.50,-18.41,207.26
212,47535462,0.4258,0.9360,0.5635,138.17,-15.91,205.73
213,47540440,0.4370,0.9131,0.5874,132.99,-13.23,203.84
214,47545444,0.4712,0.8770,0.5981,127.80,-9.33,201.28
215,47550443,0.5845,0.8604,0.5669,121.10,-5.61,198.78
216,47555443,0.7612,0.8604,0.5674,115.85,-2.32,196.28
217,47560997,0.6821,0.8242,0.5562,107.93,2.38,191.71
218,47565443,0.7544,0.8086,0.5698,103.23,5.61,188.11
219,47570442,0.7031,0.7979,0.5356,98.35,9.51,183.05
220,47575442,0.6479,0.7505,0.5024,95.49,13.11,177.93
221,47580441,0.6187,0.6943,0.4868,95.79,16.34,173.17
222,47585442,0.6123,0.6216,0.4414,100.12,19.82,167.99
223,47590709,0.6699,0.5796,0.3501,105.98,21.89,165.06
224,47595441,0.7446,0.5078,0.3901,117.68,24.33,162.93
225,47600443,0.6704,0.4663,0.3633,133.54,27.93,162.13
226,47605441,0.6045,0.4360,0.3394,152.50,31.46,161.77
227,47610443,0.6147,0.4302,0.4131,174.27,35.43,162.01
228,47615441,0.7026,0.3857,0.4614,198.48,39.88,162.56
229,47620443,0.7866,0.3745,0.4292,224.21,44.09,163.48
230,47625441,0.7871,0.3970,0.4321,250.91,48.54,164.21
231,47630821,0.6899,0.4292,0.4473,277.80,52.99,164.39
232,47635443,0.5815,0.4541,0.4297,303.66,57.32,163.84
233,47640442,0.5366,0.4585,0.4106,327.62,61.77,162.68
234,47645442,0.5430,0.4619,0.4062,350.18,65.79,160.79
235,47650443,0.5527,0.4790,0.3931,370.73,70.18,158.72
236,47655442,0.5337,0.4990,0.3774,389.02,74.57,156.22
237,47660441,0.5117,0.5278,0.3740,404.94,78.78,153.29
238,47665444,0.4531,0.5391,0.3989,418.11,83.11,149.88
239,47670442,0.4038,0.5737,0.4390,427.93,85.49,146.40
240,47675442,0.3135,0.5659,0.4897,434.33,88.84,142.87
241,47680441,0.3130,0.5547,0.4834,437.32,91.71,139.21
242,47685442,0.4248,0.5601,0.4292,437.01,93.90,135.79
243,47690441,0.4995,0.5786,0.3809,434.21,95.55,132.01
244,47695442,0.4917,0.5854,0.3262,428.96,97.07,127.87
245,47700441,0.4443,0.5928,0.2974,421.77,98.23,123.35
246,47705444,0.4062,0.5498,0.2798,412.56,99.39,118.90
247,47710442,0.3940,0.5352,0.2651,401.40,99.94,114.82
248,47715441,0.3984,0.5049,0.2446,388.41,100.37,110.67
249,47720440,0.3906,0.4663,0.2290,374.21,100.24,106.59
250,47725442,0.3721,0.4268,0.2148,358.84,100.18,102.68
251,47730442,0.3486,0.4087,0.2026,342.99,99.82,98.96
252,47735441,0.3013,0.4307,0.1860,327.44,99.33,94.94
253,47740442,0.2051,0.4985,0.2178,312.93,98.90,90.49
254,47745441,0.2041,0.5269,0.2266,300.12,98.41,87.62
255,47750442,0.3022,0.5649,0.1558,289.02,97.68,83.48
256,47755440,0.4575,0.8276,-0.1816,280.06,95.30,79.02
257,47760440,0.6558,0.6279,-0.0693,273.23,93.05,75.12
258,47765441,0.7642,0.5073,-0.0278,268.60,92.38,73.48
259,47770444,0.7388,0.5596,-0.0703,265.61,92.44,71.52
260,47775441,0.6689,0.6108,0.0347,263.72,92.44,68.90
261,47780442,0.6313,0.6860,0.0864,262.01,93.23,65.73
262,47785441,0.5435,0.6855,0.0938,261.52,94.27,62.74
263,47790442,0.6338,0.6890,0.1147,262.87,95.18,61.46
264,47795441,0.7935,0.6670,0.1821,264.88,96.40,60.30
265,47800442,0.8940,0.6343,0.1558,266.71,97.32,59.33
266,47805441,1.0220,0.6138,0.1436,268.23,97.87,58.35
267,47810442,0.9321,0.6792,0.1597,268.66,98.60,57.20
268,47815441,0.7930,0.7012,0.0996,268.54,99.09,55.55
269,47820442,0.6699,0.7402,0.1006,267.62,99.63,54.09
270,47825441,0.5708,0.7456,0.1011,266.04,100.91,52.20
271,47830442,0.5205,0.7295,0.0898,263.96,102.44,50.30
272,47835536,0.5083,0.7314,0.0449,261.16,103.90,48.23
273,47840444,0.5269,0.7236,0.0098,257.68,105.00,45.79
274,47845441,0.5640,0.7271,0.0210,253.72,106.10,43.35
275,47850442,0.5688,0.7466,0.0024,249.51,106.83,40.73
276,47855440,0.5713,0.7847,-0.0264,246.40,107.62,38.54
277,47860440,0.6060,0.7812,-0.0474,242.80,108.05,35.55
278,47865441,0.6182,0.7661,-0.0674,239.57,108.17,32.32
279,47870444,0.6196,0.7632,-0.0708,235.73,108.29,28.35
280,47875441,0.6152,0.7568,-0.0806,233.17,108.17,25.55
281,47880442,0.6069,0.7588,-0.0825,230.49,108.17,21.71
282,47885441,0.6035,0.7441,-0.0859,228.29,107.68,17.87
283,47890440,0.6030,0.7119,-0.0781,227.07,107.13,13.96
284,47895444,0.6055,0.6729,-0.0571,227.26,106.46,10.43
285,47900442,0.6060,0.6416,-0.0415,229.02,105.85,7.01
286,47905441,0.5898,0.6167,-0.0220,232.68,105.12,3.78
287,47910442,0.5586,0.5840,-0.0010,237.74,104.76,0.67
288,47915440,0.5083,0.5474,0.0156,245.61,104.51,-2.80
289,47920442,0.4849,0.5303,0.0103,251.65,104.57,-5.06
290,47925441,0.4663,0.5205,-0.0049,259.94,104.27,-8.11
291,47930594,0.4629,0.4951,-0.0186,270.85,103.78,-11.89
292,47935442,0.4565,0.4780,-0.0254,278.41,102.93,-14.57
293,47940442,0.4453,0.4536,-0.0352,288.41,101.65,-17.56
294,47945442,0.4253,0.4414,-0.0293,298.29,100.24,-20.55
295,47950441,0.4141,0.4336,-0.0195,307.93,98.66,-23.48
296,47955442,0.3979,0.4351,-0.0068,316.59,96.89,-26.46
297,47960441,0.3926,0.4185,-0.0005,324.51,94.70,-29.70
298,47965444,0.3818,0.3989,-0.0083,330.98,92.50,-32.93
299,47970444,0.3892,0.4170,-0.0044,336.40,89.88,-36.40
300,47975441,0.3911,0.4355,-0.0024,339.82,85.55,-40.67
301,47980444,0.3799,0.4370,-0.0264,341.59,84.57,-45.43
302,47985441,0.3794,0.4429,-0.0410,341.46,80.49,-50.85
303,47990442,0.3682,0.4541,-0.0435,339.63,76.83,-56.77
304,47995441,0.3101,0.5112,-0.0483,337.01,73.05,-63.35
305,48000442,0.2456,0.4736,-0.0732,335.00,69.57,-70.37
306,48005441,0.2085,0.4526,-0.0825,333.11,66.34,-77.20
307,48010442,0.2095,0.4536,-0.1157,331.65,63.41,-83.84
308,48015441,0.2202,0.4492,-0.1470,330.12,60.67,-90.12
309,48020442,0.2231,0.4365,-0.1631,328.66,57.93,-96.34
310,48025441,0.2202,0.4302,-0.1812,326.46,55.30,-102.20
311,48030442,0.1987,0.4146,-0.1836,323.29,52.87,-108.05
312,48035441,0.2246,0.4146,-0.2598,319.45,50.18,-113.60
313,48040440,0.2397,0.4272,-0.2456,312.68,46.71,-120.49
314,48045443,0.2075,0.4097,-0.2354,306.77,44.82,-125.12
315,48050442,0.1587,0.4023,-0.2407,298.17,42.56,-130.73
316,48055442,0.1206,0.3999,-0.2700,288.48,39.94,-135.91
317,48060441,0.1221,0.4102,-0.2900,277.93,37.80,-141.22
318,48065442,0.0952,0.4067,-0.3027,266.52,35.49,-146.22
319,48070441,0.0679,0.4194,-0.3018,254.88,33.23,-150.91
320,48075444,0.0688,0.4478,-0.2935,243.41,30.73,-155.49
321,48080442,0.0679,0.4600,-0.2866,232.44,28.29,-159.82
322,48085441,0.0508,0.4653,-0.2861,222.01,25.85,-164.21
323,48090442,0.0371,0.4771,-0.2695,212.38,23.54,-168.23
324,48095441,0.0200,0.4917,-0.2661,203.78,21.22,-172.13
325,48100442,0.0122,0.5063,-0.2671,196.34,18.84,-175.98
326,48105441,-0.0010,0.5122,-0.2559,189.63,16.52,-179.57
327,48110442,-0.0146,0.5273,-0.2671,184.33,14.02,-183.05
328,48115441,-0.0015,0.5342,-0.2578,180.12,11.77,-186.40
329,48120444,-0.0195,0.5483,-0.2617,176.40,9.21,-189.33
330,48125441,-0.0449,0.5771,-0.2710,173.35,6.65,-192.26
331,48130952,-0.0654,0.5903,-0.2583,170.73,3.60,-195.49
332,48135442,-0.0737,0.6069,-0.2583,169.33,1.28,-197.50
333,48140442,-0.0947,0.6362,-0.2642,167.74,-1.77,-200.00
334,48145442,-0.1084,0.6567,-0.2607,166.34,-5.12,-202.32
335,48150441,-0.1270,0.6816,-0.2588,165.43,-8.48,-204.45
336,48155442,-0.1401,0.6958,-0.2544,164.76,-12.38,-206.52
337,48160442,-0.1646,0.7046,-0.2271,164.21,-16.52,-208.35
338,48165442,-0.1870,0.7476,-0.1919,164.27,-20.67,-210.00
339,48170485,-0.2197,0.7700,-0.2007,165.06,-24.76,-211.65
340,48175440,-0.2393,0.7900,-0.1978,166.28,-29.15,-212.87
341,48180444,-0.2461,0.8110,-0.1982,167.68,-33.72,-213.84
342,48185441,-0.2617,0.8281,-0.1826,169.57,-37.93,-214.45
343,48190442,-0.2812,0.8506,-0.1880,171.10,-42.13,-214.82
344,48195444,-0.3130,0.8638,-0.1870,171.83,-46.28,-214.57
345,48200442,-0.3389,0.8687,-0.1929,171.59,-50.37,-214.09
346,48205441,-0.3672,0.8818,-0.1934,170.00,-54.70,-213.35
347,48210442,-0.3901,0.8926,-0.1899,167.01,-58.84,-212.07
348,48215441,-0.4316,0.8916,-0.1860,162.50,-62.68,-210.61
349,48220442,-0.4644,0.9023,-0.1885,156.59,-66.59,-208.96
350,48225441,-0.4912,0.9180,-0.1885,149.63,-70.55,-207.07
351,48230442,-0.5283,0.9248,-0.1855,141.89,-74.21,-204.88
352,48235441,-0.5488,0.9365,-0.1992,132.68,-77.56,-202.56
353,48240442,-0.5542,0.9541,-0.2012,126.04,-80.91,-199.88
354,48245441,-0.5640,0.9751,-0.2002,118.35,-84.39,-196.95
355,48250444,-0.5601,0.9951,-0.2139,111.59,-87.50,-193.84
356,48255441,-0.5640,1.0215,-0.2402,106.04,-90.67,-190.49
357,48260442,-0.5679,1.0649,-0.2739,102.44,-94.39,-186.77
358,48265440,-0.5771,1.1045,-0.3140,100.91,-98.29,-182.74
359,48270440,-0.5991,1.1460,-0.3594,101.89,-102.62,-178.41
360,48275441,-0.6060,1.1768,-0.3940,104.88,-107.26,-173.66
361,48280445,-0.6030,1.2026,-0.3999,109.39,-112.44,-168.54
362,48285441,-0.6440,1.2495,-0.4336,115.18,-117.68,-162.87
363,48290442,-0.6509,1.2856,-0.4658,122.20,-123.23,-156.59
364,48295441,-0.6494,1.3140,-0.4844,129.33,-129.02,-149.82
365,48300442,-0.6782,1.3281,-0.4180,138.05,-134.70,-142.74
366,48305441,-0.6982,1.3062,-0.4204,143.54,-140.06,-135.06
367,48310442,-0.7129,1.3286,-0.4409,148.48,-145.73,-127.13
368,48315441,-0.7822,1.3735,-0.4551,153.84,-151.52,-118.96
369,48320442,-0.7720,1.3623,-0.4229,159.21,-157.26,-110.30
370,48325441,-0.7783,1.3652,-0.3555,163.72,-162.38,-101.10
371,48330442,-0.8228,1.3452,-0.3330,165.98,-167.01,-91.40
372,48335441,-0.8296,1.3511,-0.3442,166.34,-171.34,-81.28
373,48340442,-0.8374,1.3413,-0.2642,166.04,-175.49,-70.98
374,48345441,-0.8584,1.3311,-0.2769,164.57,-179.27,-60.12
375,48350444,-0.8784,1.3120,-0.2402,162.26,-182.99,-49.27
376,48355441,-0.8955,1.2915,-0.2480,159.57,-186.89,-38.11
377,48360442,-0.9287,1.2729,-0.2598,155.91,-191.10,-26.65
378,48365441,-0.9521,1.2256,-0.2466,151.04,-195.30,-15.12
379,48370454,-0.9575,1.2007,-0.2236,145.61,-199.76,-3.41
380,48375440,-0.9946,1.1602,-0.2090,140.12,-204.21,8.35
381,48380440,-1.0342,1.1206,-0.2314,135.00,-208.84,20.00
382,48385440,-1.0586,1.0845,-0.2402,131.40,-213.72,31.71
383,48390936,-1.0869,1.0542,-0.2407,128.84,-218.60,43.54
384,48395457,-1.1240,1.0200,-0.2417,126.59,-223.54,55.37
385,48400441,-1.1680,0.9854,-0.2529,126.65,-228.66,67.26
386,48405444,-1.2192,0.9517,-0.2534,127.07,-233.84,79.15
387,48410442,-1.2744,0.9146,-0.2656,129.63,-239.51,90.98
388,48415441,-1.3159,0.8940,-0.2661,130.37,-243.90,100.67
389,48420442,-1.3750,0.8584,-0.2827,135.30,-249.63,112.80
390,48425441,-1.4453,0.8364,-0.2764,139.76,-255.61,125.12
391,48430440,-1.5176,0.8057,-0.2842,144.39,-261.40,137.44
392,48435444,-1.6011,0.7837,-0.2915,149.09,-267.62,150.06
393,48440442,-1.6914,0.7588,-0.2871,153.60,-273.78,162.62
394,48445442,-1.7847,0.7256,-0.2827,157.99,-280.00,175.37
395,48450440,-1.8843,0.6982,-0.2812,162.13,-286.16,188.17
396,48455440,-1.9849,0.6768,-0.2803,165.98,-292.44,201.28
397,48460443,-2.0874,0.6484,-0.2778,169.57,-298.72,214.27
398,48465442,-2.1924,0.6260,-0.2705,172.93,-305.00,227.68
399,48470441,-2.2998,0.5972,-0.2715,175.79,-311.40,241.10
400,48475440,-2.4160,0.5747,-0.2539,178.29,-317.68,254.63
401,48480440,-2.5303,0.5391,-0.2529,180.37,-324.02,268.17
402,48485445,-2.6611,0.5073,-0.2480,181.71,-330.43,282.01
403,48490441,-2.7876,0.4805,-0.2280,182.44,-337.20,295.91
404,48495441,-2.9326,0.4448,-0.2065,181.71,-343.90,309.88
405,48500504,-3.0825,0.4165,-0.1870,180.12,-351.10,323.84
406,48505444,-3.2354,0.4019,-0.1904,178.41,-358.54,337.87
407,48510442,-3.3804,0.3892,-0.1548,176.83,-366.34,351.52
408,48515442,-3.5327,0.3667,-0.1245,175.49,-374.45,365.12
409,48520441,-3.7036,0.3604,-0.1211,174.33,-382.62,378.35
410,48525442,-3.8882,0.3525,-0.1079,172.93,-391.10,391.22
411,48530441,-4.0576,0.3369,-0.0991,171.04,-399.94,403.90
412,48535441,-4.2437,0.3252,-0.0957,168.60,-409.33,416.34
413,48540442,-4.4224,0.3379,-0.1011,165.43,-418.66,428.17
414,48545441,-4.6099,0.3496,-0.1152,161.34,-428.41,439.45
415,48550442,-4.8184,0.3545,-0.1509,156.34,-438.29,450.00
416,48555441,-5.0215,0.3784,-0.1680,151.22,-448.54,459.94
417,48560444,-5.2227,0.4077,-0.1895,146.28,-459.27,469.39
418,48565442,-5.4189,0.4409,-0.1982,141.71,-469.76,478.11
419,48570444,-5.6045,0.4893,-0.2061,137.68,-479.88,486.71
420,48575440,-5.7979,0.5278,-0.2046,134.21,-489.82,494.70
421,48580443,-6.0000,0.5747,-0.2280,130.85,-499.15,502.38
422,48585998,-6.2134,0.6211,-0.2432,126.95,-509.70,511.16
423,48590445,-6.3682,0.6802,-0.2808,122.26,-516.40,516.46
424,48595440,-6.6211,0.7383,-0.3589,114.27,-524.33,522.44
425,48600444,-6.8638,0.8184,-0.4731,104.27,-532.26,528.05
426,48605440,-7.0991,0.9019,-0.5742,92.01,-540.18,532.62
427,48610444,-7.2925,0.9927,-0.7007,78.35,-548.29,536.28
428,48615440,-7.5347,1.1099,-0.8643,64.27,-556.46,539.33
429,48620444,-7.7227,1.2163,-1.0308,49.88,-564.33,541.59
430,48625440,-7.8628,1.3398,-1.2036,36.40,-571.65,543.90
431,48630444,-7.9639,1.4565,-1.4009,23.66,-577.68,546.34
432,48635440,-7.9976,1.6157,-1.6074,12.99,-582.44,549.70
433,48640444,-8.2583,1.8037,-1.8896,7.99,-585.67,553.84
434,48645440,-8.2861,1.7896,-1.8623,7.01,-586.59,558.96
435,48650444,-8.2651,1.9673,-2.1772,8.66,-585.12,565.85
436,48655440,-8.1333,2.0591,-2.3101,12.13,-581.95,574.21
437,48660444,-8.1235,2.1870,-2.3052,18.72,-575.37,583.41
438,48665440,-8.1123,2.2144,-2.4614,28.11,-566.28,594.09
439,48670444,-8.0493,2.2852,-2.6499,40.00,-555.00,606.04
440,48675440,-7.9873,2.2905,-2.7183,51.04,-540.73,618.84
441,48680441,-7.9219,2.2847,-2.8628,60.61,-524.45,632.32
442,48685442,-7.8701,2.2710,-3.0132,66.59,-506.59,645.61
443,48690442,-7.8193,2.2524,-3.1094,67.68,-487.80,658.23
444,48695441,-7.7505,2.2739,-3.2163,63.84,-468.48,670.24
445,48700791,-7.7104,2.2046,-3.3032,53.90,-448.96,680.85
446,48705442,-7.6348,2.2104,-3.2983,38.48,-429.63,690.37
447,48710442,-7.5078,2.1670,-3.3423,18.41,-411.10,698.29
448,48715442,-7.3857,2.1436,-3.3535,-6.46,-393.72,704.57
449,48720441,-7.2236,2.1089,-3.3560,-32.32,-377.01,709.82
450,48725442,-7.0635,2.0581,-3.3931,-55.00,-361.83,713.96
451,48730442,-6.9346,2.0029,-3.3955,-75.37,-347.50,717.44
452,48735442,-6.7939,1.9258,-3.4839,-92.38,-334.21,721.04
453,48740441,-6.6362,1.8496,-3.4312,-102.99,-321.40,724.94
454,48745442,-6.5054,1.8022,-3.5308,-109.21,-309.02,728.96
455,48750442,-6.4502,1.7290,-3.5796,-111.16,-297.44,733.48
456,48755442,-6.3677,1.6646,-3.5825,-106.52,-285.00,738.78
457,48760441,-6.2344,1.5908,-3.5957,-96.83,-271.95,745.00
458,48765442,-6.1367,1.4951,-3.5674,-84.45,-258.17,751.71
459,48770441,-6.0693,1.4644,-3.5825,-70.73,-242.74,758.78
460,48775442,-5.9814,1.4199,-3.5244,-53.41,-225.85,766.59
461,48780440,-5.9155,1.3384,-3.4810,-34.21,-207.99,774.51
462,48785441,-5.8550,1.2808,-3.4639,-17.68,-189.09,782.07
463,48790444,-5.8042,1.2080,-3.4297,-2.20,-168.90,789.45
464,48795441,-5.7910,1.1343,-3.3315,13.78,-147.93,796.16
465,48800444,-5.7593,1.0425,-3.3018,28.96,-126.10,802.01
466,48805441,-5.7002,0.9404,-3.2554,42.07,-103.72,807.13
467,48810442,-5.6411,0.8589,-3.2266,54.57,-80.49,811.16
468,48815441,-5.6040,0.7866,-3.1680,66.40,-57.38,814.09
469,48820442,-5.5820,0.6963,-3.1035,75.18,-34.57,815.73
470,48825441,-5.5352,0.6333,-3.0293,81.95,-12.01,816.04
471,48830442,-5.5034,0.5747,-2.9878,89.15,10.61,815.43
472,48835441,-5.4307,0.5425,-2.9492,96.34,33.23,813.60
473,48840442,-5.4116,0.4976,-2.8135,103.66,55.37,810.91
474,48845441,-5.4282,0.4224,-2.7251,111.89,76.34,807.68
475,48850442,-5.3955,0.3838,-2.6514,121.83,98.29,803.72
476,48855441,-5.3169,0.3545,-2.5659,131.59,120.43,798.90
477,48860441,-5.2515,0.3315,-2.4707,140.55,142.26,793.48
478,48865443,-5.2065,0.3232,-2.3765,147.26,163.17,786.89
479,48870442,-5.1387,0.3120,-2.2793,153.41,182.99,779.21
480,48875442,-5.0410,0.3027,-2.1816,158.23,202.07,770.37
481,48880443,-5.0127,0.3003,-2.0757,162.13,220.12,760.61
482,48885442,-4.9712,0.3027,-1.9546,165.30,236.59,750.30
483,48890806,-4.8843,0.2666,-1.8398,167.62,252.07,739.27
484,48895443,-4.8184,0.2383,-1.7251,170.49,266.65,728.29
485,48900790,-4.7959,0.2026,-1.6055,173.96,280.12,717.44
486,48905443,-4.7983,0.1353,-1.4922,177.56,292.74,707.32
487,48910442,-4.7949,0.1040,-1.3950,180.43,304.39,697.56
488,48915442,-4.7495,0.0957,-1.2935,182.68,315.00,687.87
489,48920441,-4.6631,0.0928,-1.1797,183.41,324.09,677.62
490,48925442,-4.5479,0.0557,-1.0962,181.59,331.59,666.83
491,48930442,-4.4463,0.0532,-0.9526,176.40,337.56,655.43
492,48935442,-4.4639,0.0264,-0.8530,168.60,342.01,643.23
493,48940441,-4.4956,0.0181,-0.7974,160.06,344.94,630.43
494,48945442,-4.4497,0.0073,-0.6519,151.34,346.89,617.01
495,48950442,-4.3677,-0.0024,-0.5322,144.09,348.48,603.17
496,48955442,-4.3018,-0.0352,-0.4780,139.88,349.39,591.52
497,48960442,-4.2461,-0.0581,-0.3560,136.65,350.98,573.17
498,48965441,-4.2412,-0.0571,-0.2896,137.07,352.13,560.37
499,48970442,-4.2417,-0.0874,-0.2012,141.46,353.72,543.17
500,48975441,-4.2759,-0.1514,-0.1455,149.94,355.79,526.28
501,48980440,-4.2886,-0.2100,-0.0259,161.16,359.09,509.63
502,48985442,-4.3237,-0.2886,0.0488,175.18,363.29,492.87
503,48990441,-4.3472,-0.3525,0.0894,190.61,368.60,475.67
504,48995440,-4.3799,-0.4082,0.1636,206.34,374.57,458.11
505,49000440,-4.3716,-0.4668,0.2656,221.16,381.16,440.06
506,49005444,-4.3257,-0.5293,0.3315,233.35,388.05,421.95
507,49010442,-4.3584,-0.5654,0.4302,241.89,394.88,403.29
508,49015441,-4.3823,-0.6089,0.5078,245.43,400.85,384.15
509,49020442,-4.3491,-0.6484,0.5610,244.27,406.04,364.76
510,49025441,-4.3135,-0.6650,0.6245,238.11,409.21,345.24
511,49030442,-4.2505,-0.6938,0.7163,227.01,410.67,326.04
512,49035441,-4.1421,-0.7266,0.7612,212.01,410.18,307.32
513,49040444,-4.0420,-0.7451,0.8286,194.82,407.38,289.33
514,49045441,-3.9331,-0.7651,0.8770,176.65,402.44,271.89
515,49050442,-3.8320,-0.7852,0.9014,158.35,395.18,255.12
516,49055441,-3.6997,-0.7949,0.9297,140.61,386.22,238.84
517,49060442,-3.5342,-0.9204,0.9072,123.60,375.37,223.96
518,49065441,-3.3843,-0.9673,0.9390,104.82,362.74,209.45
519,49070442,-3.2534,-1.0186,0.9434,85.00,348.78,194.82
520,49075441,-3.0986,-1.0830,0.9722,64.09,333.96,179.76
521,49080442,-2.9146,-1.1543,1.0186,42.99,318.05,164.57
522,49085440,-2.7520,-1.2256,1.0454,23.23,301.52,149.15
523,49090441,-2.5815,-1.2876,1.0713,7.13,284.45,133.60
524,49095440,-2.4048,-1.3354,1.0889,-4.88,266.59,117.87
525,49100440,-2.2642,-1.3945,1.1050,-12.44,249.27,101.95
526,49105444,-2.1221,-1.4409,1.1123,-15.43,231.46,85.98
527,49110442,-2.0020,-1.4937,1.1123,-13.23,213.90,70.18
528,49115441,-1.8789,-1.5469,1.1333,-5.85,196.71,54.21
529,49120444,-1.7549,-1.5703,1.1143,6.10,179.63,38.17
530,49125441,-1.6470,-1.6035,1.1006,21.16,163.11,21.65
531,49130442,-1.5518,-1.6270,1.0962,38.66,146.95,5.18
532,49135441,-1.4692,-1.6392,1.0762,56.52,130.91,-11.28
533,49140444,-1.4077,-1.6479,1.0630,73.54,115.18,-27.62
534,49145441,-1.3555,-1.6450,1.0601,88.78,99.82,-43.96
535,49150442,-1.3213,-1.6362,1.0479,102.01,85.24,-59.94
536,49155441,-1.3076,-1.6040,1.0259,113.11,70.55,-75.79
537,49160444,-1.2861,-1.5757,1.0024,122.07,56.34,-91.22
538,49165441,-1.2900,-1.5303,0.9795,129.15,42.87,-105.79
539,49170442,-1.3125,-1.4878,0.9482,133.05,29.88,-120.00
540,49175441,-1.3413,-1.4487,0.9204,136.46,17.50,-132.87
541,49180444,-1.3755,-1.3926,0.9102,138.48,5.67,-144.94
542,49185441,-1.3955,-1.3394,0.8818,139.88,-5.61,-155.91
543,49190442,-1.4541,-1.3081,0.8745,140.85,-16.46,-166.10
544,49195441,-1.5020,-1.2637,0.8569,141.28,-26.77,-175.18
545,49200440,-1.5127,-1.2280,0.8325,141.04,-36.95,-183.66
546,49205444,-1.5024,-1.1865,0.8037,140.37,-46.59,-191.16
547,49210442,-1.4946,-1.1396,0.7749,139.09,-55.73,-197.99
548,49215442,-1.4746,-1.0952,0.7466,137.13,-64.33,-204.27
549,49220443,-1.4595,-1.0586,0.7051,134.39,-72.62,-209.94
550,49225442,-1.4414,-1.0190,0.6694,129.09,-80.18,-215.06
551,49230442,-1.4219,-0.9775,0.6421,126.16,-87.44,-219.63
552,49235442,-1.3984,-0.9385,0.6162,120.49,-93.90,-223.54
553,49240441,-1.3784,-0.9009,0.5903,114.82,-100.24,-226.95
554,49245442,-1.3525,-0.8608,0.5591,109.02,-106.16,-229.94
555,49250442,-1.3179,-0.8223,0.5337,103.17,-111.71,-232.32
556,49255442,-1.2910,-0.7954,0.5112,97.32,-117.01,-234.33
557,49260440,-1.2559,-0.7681,0.4902,91.04,-121.89,-235.79
558,49265442,-1.2300,-0.7451,0.4727,84.82,-126.77,-236.77
559,49270442,-1.1973,-0.7158,0.4565,78.23,-131.59,-237.38
560,49275442,-1.1577,-0.6997,0.4492,72.13,-135.98,-237.80
561,49280443,-1.1201,-0.6870,0.4443,67.13,-140.18,-237.87
562,49285536,-1.0884,-0.6685,0.4346,63.78,-143.84,-237.62
563,49290533,-1.0527,-0.6553,0.4248,62.07,-147.01,-237.01
564,49295441,-1.0220,-0.6440,0.4019,61.89,-149.70,-236.04
565,49300440,-0.9883,-0.6343,0.3882,62.99,-152.07,-234.82
566,49305444,-0.9590,-0.6216,0.3677,65.00,-154.02,-233.35
567,49310914,-0.9326,-0.6050,0.3467,66.89,-155.79,-231.52
568,49315443,-0.9077,-0.6030,0.3369,68.84,-157.38,-229.63
569,49320441,-0.8730,-0.5928,0.3203,70.30,-158.54,-227.50
570,49325444,-0.8418,-0.5786,0.3076,70.91,-159.82,-225.12
571,49330442,-0.8188,-0.5718,0.2915,70.73,-160.79,-222.93
572,49335442,-0.7993,-0.5576,0.2939,69.51,-161.95,-220.73
573,49340443,-0.7778,-0.5508,0.2769,67.20,-162.68,-218.41
574,49345442,-0.7583,-0.5293,0.2656,63.72,-163.48,-216.52
575,49350442,-0.7290,-0.5308,0.2495,58.96,-164.45,-214.63
576,49355442,-0.7271,-0.5239,0.2505,53.41,-165.18,-212.93
577,49360441,-0.7173,-0.5361,0.2744,47.01,-165.85,-211.28
578,49365442,-0.6943,-0.5293,0.2754,40.06,-166.59,-209.63
579,49370442,-0.6987,-0.4966,0.2642,33.35,-167.26,-208.29
580,49375442,-0.6890,-0.4937,0.2793,27.74,-167.74,-207.13
581,49380441,-0.6587,-0.5024,0.2930,23.60,-167.93,-205.98
582,49385442,-0.6343,-0.5034,0.3091,21.04,-167.80,-204.45
583,49390442,-0.6138,-0.4985,0.3184,19.57,-167.32,-202.68
584,49395442,-0.5962,-0.4956,0.3267,18.84,-166.59,-200.55
585,49400440,-0.5728,-0.4980,0.3252,18.54,-165.91,-198.29
586,49405443,-0.5518,-0.4966,0.3374,18.23,-165.00,-195.85
587,49410442,-0.5327,-0.4927,0.3330,17.80,-164.09,-192.99
588,49415441,-0.5146,-0.4878,0.3511,16.95,-163.17,-190.30
589,49420442,-0.4868,-0.4976,0.3462,15.06,-162.32,-187.68
590,49425441,-0.4521,-0.4951,0.3340,12.44,-161.59,-185.12
591,49430442,-0.4321,-0.4927,0.3247,9.02,-160.79,-182.99
592,49435441,-0.4033,-0.4917,0.3276,5.18,-160.12,-181.10
593,49440442,-0.3794,-0.4951,0.3330,0.98,-159.45,-179.33
594,49445441,-0.3496,-0.4971,0.3350,-3.23,-158.48,-177.80
595,49450444,-0.3242,-0.5044,0.3306,-7.20,-157.38,-176.46
596,49455441,-0.3027,-0.5146,0.3291,-10.55,-156.10,-175.06
597,49460442,-0.2827,-0.5249,0.3252,-13.17,-154.51,-173.66
598,49465441,-0.2583,-0.5391,0.3198,-15.06,-152.50,-172.07
599,49470442,-0.2354,-0.5483,0.3105,-16.22,-150.61,-170.37
600,49475441,-0.2158,-0.5552,0.2979,-16.65,-148.17,-168.60
601,49480442,-0.1895,-0.5664,0.2900,-16.89,-145.79,-167.07
602,49485441,-0.1738,-0.5664,0.2842,-16.89,-143.90,-165.61
603,49490442,-0.1465,-0.5723,0.2705,-16.46,-141.04,-163.54
604,49495441,-0.1377,-0.5786,0.2554,-16.22,-138.96,-162.32
605,49500441,-0.1680,-0.4761,0.1689,-16.10,-137.01,-161.34
606,49505535,-0.0518,-0.6206,0.2153,-16.77,-134.09,-159.39
607,49510441,-0.0093,-0.6411,0.3076,-16.89,-131.65,-157.87
608,49515440,-0.0171,-0.5601,0.1880,-16.16,-129.51,-157.01
609,49520442,0.0054,-0.5430,0.2197,-15.85,-127.38,-156.46
610,49525441,0.0166,-0.5576,0.2378,-16.52,-124.70,-155.91
611,49530442,0.0327,-0.5811,0.1851,-17.93,-122.56,-155.43
612,49535441,0.0503,-0.5991,0.1992,-20.18,-120.30,-154.82
613,49540442,0.0933,-0.5991,0.2075,-22.44,-117.74,-154.09
614,49545442,0.1230,-0.5864,0.1807,-24.76,-115.37,-153.29
615,49550441,0.1479,-0.5889,0.1699,-26.46,-112.80,-152.56
616,49555440,0.1758,-0.5938,0.1748,-27.68,-110.24,-151.65
617,49560444,0.2080,-0.6030,0.1660,-28.11,-107.56,-150.73
618,49565441,0.2305,-0.5977,0.1465,-28.05,-105.00,-149.76
619,49570848,0.2671,-0.5986,0.1274,-27.13,-101.95,-148.41
620,49575443,0.2783,-0.5942,0.1191,-26.46,-100.18,-147.74
621,49580442,0.3027,-0.5889,0.0962,-25.00,-98.11,-146.77
622,49585442,0.3242,-0.5806,0.0786,-23.48,-96.22,-145.98
623,49590444,0.3403,-0.5801,0.0654,-22.07,-94.27,-145.12
624,49595442,0.3623,-0.5762,0.0557,-21.04,-93.11,-144.45
625,49600443,0.4058,-0.5635,0.0415,-20.37,-91.46,-143.78
626,49605441,0.4199,-0.5562,0.0381,-20.12,-90.12,-143.41
627,49610445,0.4429,-0.5552,0.0322,-19.94,-89.15,-142.99
628,49615441,0.4785,-0.5566,0.0298,-20.30,-87.74,-142.62
629,49620442,0.5005,-0.5547,0.0337,-20.85,-86.40,-142.26
630,49625441,0.5254,-0.5620,0.0352,-21.59,-85.00,-141.83
631,49630442,0.5449,-0.5688,0.0234,-22.68,-83.54,-141.22
632,49635441,0.5610,-0.5693,0.0190,-23.84,-81.95,-140.43
633,49640442,0.5859,-0.5767,0.0210,-25.12,-80.37,-139.63
634,49645441,0.6001,-0.5820,0.0215,-26.59,-78.78,-138.72
635,49650442,0.6211,-0.5796,0.0146,-28.05,-77.26,-137.93
636,49655441,0.6299,-0.5762,0.0078,-29.45,-75.79,-136.95
637,49660442,0.6460,-0.5791,0.0034,-30.73,-74.51,-136.04
638,49665441,0.6538,-0.5801,-0.0024,-31.83,-73.29,-135.18
639,49670442,0.6597,-0.5791,-0.0166,-32.62,-72.32,-134.21
640,49675441,0.6685,-0.5752,-0.0269,-33.23,-71.52,-133.29
641,49680442,0.6807,-0.5674,-0.0352,-33.23,-70.91,-132.38
642,49685441,0.7012,-0.5625,-0.0410,-32.74,-70.18,-131.59
643,49690442,0.7271,-0.5537,-0.0317,-31.52,-69.63,-130.91
644,49695441,0.7476,-0.5278,-0.0376,-29.70,-68.72,-130.37
645,49700440,0.7710,-0.5371,-0.0142,-26.89,-67.56,-129.70
646,49705444,0.7847,-0.5376,-0.0073,-23.29,-65.91,-128.72
647,49710444,0.8145,-0.5303,0.0239,-19.88,-64.57,-127.93
648,49715441,0.8442,-0.5317,-0.0049,-16.77,-62.87,-126.89
649,49720442,0.8496,-0.5239,-0.0366,-14.63,-61.40,-125.67
650,49725441,0.8838,-0.5376,0.0020,-13.29,-59.82,-124.27
651,49730442,0.9136,-0.5483,0.0195,-13.05,-57.80,-122.50
652,49735441,0.9180,-0.5527,0.0122,-13.41,-56.04,-120.73
653,49740440,0.9341,-0.5483,0.0005,-14.21,-54.33,-118.84
654,49745444,0.9722,-0.5312,-0.0083,-15.49,-52.87,-117.20
655,49750442,1.0410,-0.5020,0.0020,-16.83,-51.65,-115.67
656,49755441,1.0664,-0.4951,0.0039,-18.29,-50.49,-114.39
657,49760442,1.0439,-0.5557,0.0688,-18.72,-49.09,-112.44
658,49765441,1.0957,-0.4922,-0.0469,-18.41,-47.93,-110.49
659,49770442,1.1274,-0.4370,-0.0444,-17.93,-47.44,-108.96
660,49775443,1.1362,-0.4097,0.0029,-16.89,-47.01,-107.87
661,49780443,1.1553,-0.4038,-0.0264,-15.37,-46.59,-106.89
662,49785442,1.1724,-0.4028,-0.0381,-13.11,-46.22,-105.98
663,49790442,1.1802,-0.3862,-0.0059,-10.55,-45.73,-105.18
664,49795442,1.1660,-0.3643,-0.0098,-8.11,-44.94,-104.21
665,49800440,1.1484,-0.3486,-0.0347,-5.67,-44.15,-103.29
666,49805443,1.1235,-0.3394,-0.0376,-3.66,-43.41,-102.20
667,49810442,1.1089,-0.3311,-0.0317,-2.07,-42.44,-100.98
668,49815443,1.0923,-0.3159,-0.0410,-0.98,-41.83,-99.70
669,49820442,1.0894,-0.2954,-0.0532,-0.24,-40.91,-98.41
670,49825441,1.0918,-0.2817,-0.0605,0.06,-39.94,-97.20
671,49830442,1.0903,-0.2651,-0.0728,-0.24,-39.33,-96.10
672,49835441,1.0928,-0.2461,-0.0854,-0.85,-38.48,-94.94
673,49840442,1.0928,-0.2334,-0.0908,-1.83,-37.87,-94.02
674,49845441,1.0825,-0.2261,-0.0894,-3.17,-37.13,-93.05
675,49850442,1.0688,-0.2197,-0.0986,-4.51,-36.40,-91.95
676,49855441,1.0479,-0.2109,-0.1079,-6.28,-35.30,-90.79
677,49860442,1.0259,-0.1992,-0.1084,-7.99,-34.27,-89.82
678,49865441,1.0151,-0.1812,-0.1196,-10.18,-33.41,-88.54
679,49870442,1.0029,-0.1670,-0.1318,-12.44,-32.62,-87.38
680,49875441,1.0000,-0.1479,-0.1450,-15.00,-31.59,-86.34
681,49880442,0.9961,-0.1367,-0.1494,-17.74,-30.67,-85.30
682,49885441,0.9961,-0.1240,-0.1714,-20.79,-30.06,-84.27
683,49890444,0.9800,-0.1084,-0.1841,-24.02,-29.33,-83.05
684,49895441,0.9736,-0.0898,-0.2026,-27.32,-28.84,-82.01
685,49900442,0.9634,-0.0835,-0.2178,-30.49,-28.41,-80.85
686,49905441,0.9639,-0.0752,-0.2295,-33.23,-27.99,-79.63
687,49910443,0.9619,-0.0659,-0.2490,-35.61,-27.68,-78.41
688,49915441,0.9541,-0.0552,-0.2422,-37.32,-27.32,-76.95
689,49920444,0.9517,-0.0430,-0.2529,-38.29,-26.77,-75.43
690,49925441,0.9419,-0.0405,-0.2588,-38.23,-26.28,-73.78
691,49930442,0.9404,-0.0259,-0.2651,-37.07,-25.79,-71.89
692,49935441,0.9360,-0.0093,-0.2593,-35.00,-25.30,-70.06
693,49940444,0.9365,0.0181,-0.2671,-32.13,-24.82,-68.23
694,49945441,0.9375,0.0337,-0.2666,-28.60,-24.33,-66.34
695,49950442,0.9360,0.0483,-0.2744,-24.88,-24.21,-64.39
696,49955441,0.9282,0.0591,-0.2852,-20.67,-23.72,-62.38
697,49960442,0.9233,0.0693,-0.2959,-16.59,-23.72,-60.24
698,49965441,0.9165,0.0854,-0.3013,-12.32,-23.54,-57.99
699,49970442,0.9023,0.0938,-0.3018,-8.23,-23.17,-55.67
700,49975441,0.8960,0.0986,-0.3013,-4.21,-22.87,-53.29
701,49980444,0.8950,0.1064,-0.2979,-0.49,-22.38,-50.79
702,49985441,0.8970,0.1084,-0.3013,2.87,-21.59,-48.48
703,49990442,0.9004,0.1196,-0.3076,5.67,-21.10,-45.98
704,49995441,0.9004,0.1265,-0.3037,8.23,-20.30,-43.66
705,50000442,0.8979,0.1235,-0.3003,10.12,-19.57,-41.40
706,50005441,0.9082,0.1284,-0.3096,11.52,-18.78,-39.57
707,50010490,0.9180,0.1270,-0.3101,13.05,-17.87,-36.83
708,50015440,0.9180,0.1235,-0.3086,13.66,-17.13,-35.06
709,50020444,0.9229,0.1255,-0.3071,14.33,-16.28,-32.74
710,50025441,0.9268,0.1294,-0.3091,14.88,-15.18,-30.37
711,50030442,0.9331,0.1304,-0.3042,15.18,-14.33,-28.54
712,50035441,0.9380,0.1250,-0.2974,15.12,-13.17,-26.46
713,50040442,0.9468,0.1172,-0.2876,15.12,-12.13,-24.33
714,50045441,0.9595,0.1191,-0.2905,14.82,-11.10,-22.20
715,50050442,0.9590,0.1162,-0.2842,14.15,-10.12,-20.37
716,50055441,0.9634,0.1201,-0.2812,13.35,-9.09,-18.41
717,50060440,0.9653,0.1133,-0.2754,12.38,-7.87,-16.59
718,50065444,0.9746,0.1123,-0.2778,11.04,-7.01,-14.88
719,50070442,0.9736,0.1064,-0.2769,9.57,-6.10,-13.23
720,50075442,0.9795,0.1060,-0.2710,8.41,-5.06,-11.77
721,50080442,0.9844,0.0967,-0.2676,7.07,-4.02,-10.18
722,50085442,0.9844,0.0898,-0.2637,6.16,-2.99,-8.72
723,50090444,0.9907,0.0840,-0.2603,5.30,-2.26,-7.26
724,50095442,0.9893,0.0767,-0.2544,4.88,-1.16,-5.98
725,50100442,0.9893,0.0649,-0.2461,4.57,-0.49,-4.63
726,50105442,0.9946,0.0615,-0.2393,4.39,0.37,-3.41
727,50110443,1.0020,0.0537,-0.2363,4.33,1.22,-2.32
728,50115442,1.0078,0.0498,-0.2285,4.33,2.26,-1.22
729,50120674,1.0205,0.0498,-0.2236,4.76,3.17,-0.12
730,50125442,1.0225,0.0454,-0.2114,4.88,3.84,0.61
731,50130442,1.0254,0.0361,-0.2144,5.06,4.76,1.22
732,50135442,1.0278,0.0327,-0.2021,5.18,5.30,2.13
733,50140442,1.0239,0.0293,-0.2007,5.12,6.04,2.80
734,50145442,1.0215,0.0234,-0.1899,4.94,6.71,3.48
735,50150442,1.0229,0.0229,-0.1943,4.70,7.13,4.27
736,50155442,1.0308,0.0259,-0.1880,4.09,7.68,4.70
737,50160442,1.0293,0.0225,-0.1914,3.23,8.05,5.12
738,50165442,1.0249,0.0205,-0.1846,2.32,8.54,5.61
739,50170443,1.0166,0.0186,-0.1855,1.46,8.90,6.16
740,50175442,1.0137,0.0117,-0.1802,0.91,9.09,6.65
741,50180467,1.0186,0.0059,-0.1709,0.61,9.51,7.13
742,50185443,1.0103,0.0005,-0.1714,0.30,9.82,7.68
743,50190625,1.0054,-0.0034,-0.1704,0.43,10.24,8.29
744,50195444,1.0010,-0.0112,-0.1597,0.49,10.49,8.84
745,50200442,0.9966,-0.0146,-0.1577,0.67,10.79,9.39
746,50205442,0.9868,-0.0190,-0.1553,1.04,11.10,10.06
747,50210442,0.9878,-0.0200,-0.1475,1.28,11.34,10.55
748,50215442,0.9805,-0.0200,-0.1455,1.59,11.65,11.10
749,50220442,0.9775,-0.0283,-0.1411,1.89,12.13,11.46
750,50225442,0.9780,-0.0352,-0.1367,2.38,12.62,12.01
751,50230479,0.9731,-0.0371,-0.1382,2.74,13.05,12.44
752,50235443,0.9731,-0.0381,-0.1323,3.11,13.29,12.93
753,50240442,0.9771,-0.0381,-0.1353,3.35,13.84,13.23
754,50245442,0.9775,-0.0415,-0.1357,3.60,14.09,13.54
755,50250442,0.9810,-0.0449,-0.1387,3.41,14.15,13.72
756,50255442,0.9829,-0.0498,-0.1357,3.23,14.27,14.02
757,50260442,0.9761,-0.0586,-0.1289,3.05,14.51,14.15
758,50265442,0.9780,-0.0615,-0.1265,2.68,14.63,14.33
759,50270442,0.9736,-0.0654,-0.1230,2.50,15.00,14.63
760,50275442,0.9673,-0.0737,-0.1196,2.07,15.12,14.82
761,50280442,0.9663,-0.0791,-0.1211,2.01,15.30,14.94
762,50285442,0.9683,-0.0840,-0.1118,1.83,15.37,15.18
763,50290442,0.9692,-0.0923,-0.1167,1.89,15.55,15.37
764,50295442,0.9658,-0.0972,-0.1099,2.13,15.61,15.61
765,50300442,0.9663,-0.1030,-0.1055,2.32,15.79,15.61
766,50305442,0.9683,-0.1064,-0.1001,2.62,15.73,15.79
767,50310442,0.9658,-0.1099,-0.1035,2.99,15.85,15.85
768,50315442,0.9624,-0.1133,-0.0986,3.35,15.79,15.98
769,50320955,0.9634,-0.1182,-0.0933,3.78,15.73,15.98
770,50325442,0.9526,-0.1182,-0.0898,3.96,15.67,15.98
771,50330444,0.9448,-0.1299,-0.0825,4.09,15.73,15.85
772,50335441,0.9419,-0.1343,-0.0796,4.02,15.73,15.79
773,50340442,0.9404,-0.1401,-0.0806,3.96,15.61,15.73
774,50345441,0.9399,-0.1445,-0.0742,3.54,15.67,15.73
775,50350442,0.9351,-0.1504,-0.0747,2.87,15.55,15.67
776,50355441,0.9380,-0.1523,-0.0654,2.13,15.43,15.55
777,50360442,0.9419,-0.1572,-0.0693,1.10,15.24,15.49
778,50365441,0.9429,-0.1621,-0.0591,0.00,15.12,15.37
779,50370442,0.9404,-0.1631,-0.0557,-1.40,15.00,15.24
780,50375441,0.9326,-0.1733,-0.0542,-2.93,14.94,15.12
781,50380442,0.9355,-0.1772,-0.0522,-4.27,14.70,15.06
782,50385441,0.9365,-0.1807,-0.0513,-5.85,14.51,15.00
783,50390444,0.9370,-0.1880,-0.0488,-7.44,14.33,14.82
784,50395485,0.9434,-0.1919,-0.0483,-8.84,14.21,14.70
785,50400444,0.9453,-0.1968,-0.0474,-10.30,14.02,14.76
786,50405441,0.9492,-0.1978,-0.0396,-11.59,13.90,14.51
787,50410442,0.9482,-0.2012,-0.0435,-12.93,13.66,14.45
788,50415441,0.9575,-0.2065,-0.0435,-14.02,13.35,14.21
789,50420441,0.9580,-0.2080,-0.0508,-15.00,13.23,14.02
790,50425440,0.9570,-0.2109,-0.0459,-15.98,12.93,13.96
791,50430884,0.9634,-0.2153,-0.0469,-16.89,12.62,13.72
792,50435441,0.9614,-0.2188,-0.0498,-17.74,12.32,13.54
793,50440442,0.9653,-0.2212,-0.0513,-18.29,11.83,13.29
794,50445441,0.9653,-0.2256,-0.0449,-18.66,11.65,13.05
795,50450442,0.9634,-0.2324,-0.0566,-18.84,11.34,12.87
796,50455441,0.9673,-0.2388,-0.0508,-18.96,11.10,12.68
797,50460442,0.9653,-0.2339,-0.0532,-18.84,10.67,12.50
798,50465441,0.9741,-0.2305,-0.0601,-18.60,10.43,12.32
799,50470442,0.9731,-0.2354,-0.0566,-17.99,10.12,12.01
800,50475441,0.9736,-0.2383,-0.0591,-17.50,9.76,11.71
801,50480442,0.9751,-0.2388,-0.0615,-16.95,9.33,11.46
802,50485441,0.9824,-0.2432,-0.0586,-16.22,9.02,11.22
803,50490442,0.9849,-0.2417,-0.0703,-15.61,8.66,10.98
804,50495441,0.9873,-0.2397,-0.0693,-14.82,8.35,10.61
805,50500442,0.9878,-0.2441,-0.0664,-14.02,7.93,10.24
806,50505441,0.9863,-0.2446,-0.0693,-13.11,7.44,9.88
807,50510442,0.9873,-0.2451,-0.0620,-12.13,7.13,9.45
808,50515441,0.9873,-0.2451,-0.0698,-10.98,6.95,9.15
809,50520440,0.9888,-0.2480,-0.0693,-9.82,6.46,8.78
810,50525444,0.9844,-0.2520,-0.0713,-8.48,6.52,8.29
811,50530444,0.9849,-0.2534,-0.0679,-7.07,6.28,7.99
812,50535442,0.9766,-0.2520,-0.0679,-5.61,6.22,7.87
813,50540444,0.9741,-0.2500,-0.0684,-4.33,6.22,7.44
814,50545441,0.9780,-0.2471,-0.0645,-3.29,6.22,7.26
815,50550442,0.9751,-0.2451,-0.0654,-2.01,6.16,6.71
816,50555441,0.9761,-0.2441,-0.0654,-1.28,6.22,6.34
817,50560712,0.9785,-0.2397,-0.0596,-0.49,6.10,5.79
818,50565442,0.9741,-0.2368,-0.0615,-0.12,6.16,5.43
819,50570442,0.9722,-0.2383,-0.0601,0.37,6.04,5.06
820,50575441,0.9668,-0.2422,-0.0557,0.61,5.98,4.57
821,50580442,0.9595,-0.2412,-0.0474,0.85,6.04,4.39
822,50585441,0.9595,-0.2358,-0.0508,0.98,5.79,4.15
823,50590444,0.9575,-0.2402,-0.0566,1.04,5.67,3.90
824,50595442,0.9585,-0.2368,-0.0503,0.85,5.73,3.54
825,50600440,0.9526,-0.2349,-0.0454,0.61,5.55,3.35
826,50605443,0.9502,-0.2349,-0.0483,0.43,5.55,3.17
827,50610444,0.9487,-0.2310,-0.0444,0.37,5.43,2.99
828,50615441,0.9551,-0.2280,-0.0488,0.18,5.30,2.68
829,50620442,0.9551,-0.2212,-0.0449,-0.06,5.18,2.44
830,50625443,0.9580,-0.2197,-0.0415,0.00,5.06,2.07
831,50630441,0.9644,-0.2168,-0.0425,0.18,4.94,1.83
832,50635444,0.9600,-0.2173,-0.0391,0.24,4.70,1.46
833,50640442,0.9614,-0.2139,-0.0410,0.30,4.57,1.16
834,50645442,0.9604,-0.2197,-0.0347,0.55,4.33,0.98
835,50650441,0.9556,-0.2173,-0.0337,0.79,4.21,0.79
836,50655442,0.9536,-0.2188,-0.0298,1.22,4.09,0.73
837,50660441,0.9590,-0.2100,-0.0347,1.40,4.02,0.73
838,50665441,0.9580,-0.2061,-0.0391,1.65,3.66,0.55
839,50670442,0.9658,-0.2051,-0.0356,1.71,3.41,0.43
840,50675441,0.9614,-0.1987,-0.0420,1.95,3.35,0.12
841,50680442,0.9648,-0.2036,-0.0410,2.32,2.99,-0.06
842,50685441,0.9639,-0.2056,-0.0361,2.87,2.87,-0.18
843,50690442,0.9609,-0.2075,-0.0327,3.29,2.93,-0.18
844,50695441,0.9561,-0.2065,-0.0376,4.02,2.87,-0.24
845,50700442,0.9561,-0.2036,-0.0400,4.88,2.68,-0.30
846,50705441,0.9570,-0.2031,-0.0400,5.73,2.68,-0.37
847,50710442,0.9629,-0.1992,-0.0415,6.34,2.68,-0.55
848,50715441,0.9707,-0.1914,-0.0430,6.89,2.44,-0.79
849,50720442,0.9731,-0.1890,-0.0361,7.32,2.38,-0.98
850,50725441,0.9751,-0.1914,-0.0435,7.38,2.38,-1.34
851,50730441,0.9731,-0.1914,-0.0366,7.44,2.38,-1.59
852,50735444,0.9712,-0.1870,-0.0405,7.01,2.44,-1.77
853,50740442,0.9697,-0.1851,-0.0459,6.46,2.38,-1.95
854,50745441,0.9707,-0.1875,-0.0391,5.85,2.38,-2.32
855,50750442,0.9702,-0.1826,-0.0439,5.18,2.50,-2.38
856,50755441,0.9702,-0.1821,-0.0464,4.45,2.44,-2.68
857,50760444,0.9751,-0.1807,-0.0410,3.66,2.38,-2.80
858,50765441,0.9761,-0.1812,-0.0498,3.17,2.38,-3.05
859,50770442,0.9751,-0.1812,-0.0454,2.74,2.50,-3.11
860,50775441,0.9678,-0.1821,-0.0483,2.26,2.68,-3.17
861,50780442,0.9722,-0.1787,-0.0557,2.01,2.74,-3.23
862,50785441,0.9731,-0.1797,-0.0459,1.83,2.93,-3.35
863,50790442,0.9712,-0.1719,-0.0522,1.89,3.05,-3.35
864,50795441,0.9702,-0.1719,-0.0479,2.01,3.17,-3.54
865,50800444,0.9697,-0.1738,-0.0464,2.26,3.23,-3.66
866,50805441,0.9707,-0.1680,-0.0435,2.68,3.35,-3.66
867,50810444,0.9702,-0.1685,-0.0459,3.11,3.60,-3.72
868,50815441,0.9692,-0.1680,-0.0469,3.66,3.78,-3.78
869,50820442,0.9688,-0.1660,-0.0415,4.15,4.02,-3.90
870,50825441,0.9688,-0.1606,-0.0469,4.39,4.21,-3.96
871,50830441,0.9683,-0.1650,-0.0444,4.51,4.33,-4.02
872,50835525,0.9624,-0.1616,-0.0415,4.63,4.51,-4.09
873,50840444,0.9595,-0.1597,-0.0386,4.63,4.70,-4.02
874,50845441,0.9556,-0.1606,-0.0439,4.57,4.88,-4.02
875,50850442,0.9502,-0.1655,-0.0469,4.27,5.18,-3.96
876,50855441,0.9507,-0.1680,-0.0454,4.21,5.49,-3.96
877,50860442,0.9473,-0.1655,-0.0430,3.84,5.91,-3.66
878,50865441,0.9487,-0.1616,-0.0356,3.48,6.22,-3.66
879,50870442,0.9497,-0.1616,-0.0356,3.05,6.46,-3.72
880,50875441,0.9434,-0.1582,-0.0371,2.68,6.77,-3.54
881,50880442,0.9458,-0.1646,-0.0366,2.20,7.07,-3.60
882,50885441,0.9424,-0.1636,-0.0425,1.89,7.26,-3.48
883,50890442,0.9424,-0.1636,-0.0376,1.52,7.62,-3.41
884,50895441,0.9448,-0.1606,-0.0327,1.52,7.93,-3.41
885,50900444,0.9497,-0.1597,-0.0371,1.28,8.23,-3.41
886,50905441,0.9468,-0.1616,-0.0288,1.10,8.54,-3.35
887,50910444,0.9507,-0.1621,-0.0254,1.10,8.78,-3.41
888,50915441,0.9536,-0.1587,-0.0283,0.91,9.09,-3.35
889,50920442,0.9497,-0.1602,-0.0283,0.79,9.33,-3.35
890,50925441,0.9526,-0.1602,-0.0259,0.73,9.45,-3.35
891,50930442,0.9624,-0.1582,-0.0239,0.67,9.63,-3.35
892,50935441,0.9604,-0.1553,-0.0249,0.49,9.76,-3.41
893,50940444,0.9634,-0.1602,-0.0283,0.55,9.88,-3.41
894,50945441,0.9644,-0.1650,-0.0264,0.24,9.94,-3.48
895,50950442,0.9673,-0.1606,-0.0259,-0.06,10.18,-3.60
896,50955441,0.9707,-0.1592,-0.0190,-0.06,10.18,-3.72
897,50960442,0.9644,-0.1548,-0.0186,-0.24,10.18,-3.72
898,50965441,0.9673,-0.1548,-0.0249,-0.49,10.37,-3.78
899,50970442,0.9688,-0.1592,-0.0176,-0.55,10.43,-3.84
900,50975441,0.9692,-0.1572,-0.0142,-0.55,10.61,-3.78
901,50980442,0.9648,-0.1587,-0.0117,-0.67,10.67,-3.84
902,50985441,0.9702,-0.1562,-0.0093,-0.43,10.79,-3.96
903,50990442,0.9727,-0.1582,-0.0044,-0.49,10.85,-3.84
904,50995441,0.9771,-0.1602,-0.0059,-0.49,11.10,-3.78
905,51000442,0.9790,-0.1592,-0.0029,-0.49,11.16,-3.78
906,51005441,0.9814,-0.1572,0.0015,-0.43,11.10,-3.78
907,51010440,0.9785,-0.1606,0.0000,-0.67,11.10,-3.84
908,51015443,0.9829,-0.1597,0.0010,-0.98,11.10,-3.72
909,51020442,0.9844,-0.1587,0.0068,-1.16,11.04,-3.72
910,51025442,0.9839,-0.1572,0.0044,-1.65,11.22,-3.72
911,51030441,0.9863,-0.1553,0.0088,-2.01,11.10,-3.66
912,51035442,0.9839,-0.1528,0.0044,-2.26,11.16,-3.60
913,51040441,0.9849,-0.1543,0.0078,-2.44,11.22,-3.54
914,51045443,0.9829,-0.1543,0.0117,-2.74,11.16,-3.41
915,51050442,0.9844,-0.1553,0.0156,-2.93,11.10,-3.35
916,51055442,0.9873,-0.1519,0.0166,-3.05,11.22,-3.23
917,51060543,0.9907,-0.1450,0.0142,-3.11,11.10,-3.17
918,51065442,0.9888,-0.1475,0.0156,-3.29,11.16,-2.99
919,51070442,0.9873,-0.1475,0.0195,-3.29,11.16,-2.99
920,51075442,0.9907,-0.1450,0.0234,-3.41,11.22,-2.93
921,51080441,0.9927,-0.1416,0.0220,-3.60,11.22,-2.74
922,51085442,0.9971,-0.1431,0.0205,-3.60,11.10,-2.62
923,51090638,0.9956,-0.1387,0.0225,-3.78,11.04,-2.68
924,51095442,0.9985,-0.1406,0.0229,-3.84,10.85,-2.56
925,51100443,1.0010,-0.1372,0.0264,-3.78,10.91,-2.50
926,51105442,0.9995,-0.1387,0.0273,-3.78,10.67,-2.44
927,51110442,0.9937,-0.1357,0.0259,-3.72,10.79,-2.20
928,51115442,0.9980,-0.1289,0.0337,-3.48,10.79,-2.01
929,51120443,0.9946,-0.1348,0.0244,-3.17,10.73,-1.95
930,51125442,0.9937,-0.1377,0.0322,-2.87,10.55,-1.83
931,51130442,0.9927,-0.1338,0.0347,-2.50,10.73,-1.52
932,51135442,0.9927,-0.1309,0.0405,-2.13,10.79,-1.28
933,51140443,0.9917,-0.1270,0.0371,-1.77,10.85,-1.10
934,51145442,0.9839,-0.1245,0.0420,-1.65,10.73,-0.85
935,51150443,0.9839,-0.1235,0.0420,-1.46,10.79,-0.73
936,51155442,0.9849,-0.1226,0.0396,-1.28,10.61,-0.49
937,51160441,0.9858,-0.1226,0.0430,-1.46,10.61,-0.30
938,51165442,0.9824,-0.1226,0.0381,-1.46,10.61,-0.06
939,51170442,0.9795,-0.1240,0.0439,-1.40,10.49,0.12
940,51175442,0.9805,-0.1270,0.0420,-1.59,10.61,0.30
941,51180441,0.9761,-0.1250,0.0430,-1.46,10.55,0.67
942,51185442,0.9731,-0.1279,0.0361,-1.40,10.43,1.04
943,51190441,0.9741,-0.1304,0.0454,-1.40,10.49,1.28
944,51195444,0.9766,-0.1250,0.0444,-1.34,10.43,1.59
945,51200440,0.9834,-0.1211,0.0503,-1.16,10.73,1.89
946,51205443,0.9873,-0.1187,0.0532,-1.28,10.61,2.01
947,51210442,0.9897,-0.1201,0.0562,-1.52,10.61,2.20
948,51215441,0.9897,-0.1221,0.0532,-1.65,10.61,2.44
949,51220444,0.9839,-0.1187,0.0576,-1.89,10.55,2.68
950,51225441,0.9839,-0.1221,0.0557,-2.32,10.55,2.93
951,51230442,0.9819,-0.1245,0.0615,-2.80,10.30,3.23
952,51235441,0.9814,-0.1265,0.0610,-2.93,10.18,3.54
953,51240441,0.9819,-0.1250,0.0576,-3.29,10.24,3.84
954,51245442,0.9790,-0.1226,0.0649,-3.54,10.06,4.15
955,51250442,0.9795,-0.1270,0.0625,-3.72,9.94,4.45
956,51255442,0.9839,-0.1265,0.0728,-3.78,9.88,4.76
957,51260441,0.9844,-0.1289,0.0713,-3.72,9.82,4.94
958,51265442,0.9873,-0.1284,0.0713,-3.60,9.57,5.37
959,51270442,0.9834,-0.1299,0.0723,-3.41,9.39,5.55
960,51275442,0.9844,-0.1279,0.0752,-3.17,9.21,5.91
961,51280441,0.9829,-0.1338,0.0786,-2.87,9.09,6.22
962,51285442,0.9814,-0.1323,0.0791,-2.50,8.96,6.40
963,51290442,0.9771,-0.1333,0.0811,-2.20,8.84,6.65
964,51295442,0.9771,-0.1333,0.0796,-1.83,8.72,6.95
965,51300441,0.9766,-0.1299,0.0830,-1.52,8.48,6.95
966,51305442,0.9907,-0.1313,0.0835,-1.10,8.35,7.13
967,51310443,0.9907,-0.1328,0.0806,-0.85,8.11,7.32
968,51315442,0.9995,-0.1362,0.0820,-0.61,7.80,7.38
969,51320441,0.9980,-0.1362,0.0830,-0.24,7.50,7.38
970,51325442,1.0005,-0.1392,0.0811,-0.24,7.32,7.56
971,51330442,0.9990,-0.1450,0.0815,-0.18,7.07,7.44
972,51335442,1.0024,-0.1436,0.0820,-0.18,6.71,7.62
973,51340443,1.0029,-0.1445,0.0786,-0.12,6.52,7.68
974,51345442,0.9985,-0.1479,0.0859,-0.06,6.28,7.68
975,51350443,0.9990,-0.1479,0.0845,0.00,6.10,7.80
976,51355442,0.9985,-0.1523,0.0879,0.12,5.79,7.93
977,51360441,0.9956,-0.1548,0.0884,0.24,5.49,7.87
978,51365442,0.9941,-0.1577,0.0898,0.43,5.43,7.93
979,51370442,0.9873,-0.1548,0.0850,0.37,5.24,7.99
980,51375442,0.9873,-0.1626,0.0923,0.67,4.94,8.17
981,51380441,0.9790,-0.1592,0.0879,0.98,4.76,8.23
982,51385442,0.9775,-0.1616,0.0874,1.34,4.63,8.29
983,51390442,0.9785,-0.1685,0.0889,1.77,4.39,8.29
984,51395442,0.9849,-0.1655,0.0928,2.07,4.27,8.11
985,51400441,0.9902,-0.1685,0.0898,2.50,4.02,8.23
986,51405442,0.9873,-0.1665,0.0928,2.62,3.84,8.17
987,51410441,0.9902,-0.1699,0.0928,2.93,3.78,7.93
988,51415443,0.9907,-0.1704,0.0889,3.11,3.48,7.93
989,51420443,0.9893,-0.1704,0.0859,3.17,3.41,7.80
990,51425442,0.9917,-0.1729,0.0869,3.11,3.23,7.68
991,51430441,0.9863,-0.1724,0.0811,3.05,3.05,7.62
992,51435442,0.9922,-0.1738,0.0830,2.87,2.93,7.32
993,51440442,0.9902,-0.1724,0.0923,2.68,2.93,7.20
994,51445442,0.9902,-0.1748,0.0879,2.56,2.56,7.01
995,51450440,0.9888,-0.1753,0.0879,2.38,2.44,6.89
996,51455443,0.9858,-0.1797,0.0845,2.32,2.38,6.71
997,51460442,0.9863,-0.1812,0.0874,2.32,2.20,6.52
998,51465442,0.9829,-0.1821,0.0835,2.26,2.13,6.40
999,51470441,0.9854,-0.1797,0.0894,2.26,1.95,6.22
1000,51475442,0.9829,-0.1802,0.0894,2.32,1.83,5.91
1001,51480442,0.9839,-0.1807,0.0913,2.50,1.71,5.73
1002,51485442,0.9814,-0.1836,0.0908,2.56,1.65,5.67
1003,51490441,0.9766,-0.1792,0.0859,2.56,1.52,5.49
1004,51495442,0.9771,-0.1812,0.0898,2.68,1.34,5.24
1005,51500442,0.9746,-0.1777,0.0884,2.68,1.34,5.12
1006,51505442,0.9727,-0.1812,0.0854,2.50,1.16,4.88
1007,51510440,0.9741,-0.1802,0.0884,2.62,1.16,4.82
1008,51515440,0.9702,-0.1812,0.0845,2.38,0.98,4.57
1009,51520440,0.9678,-0.1812,0.0796,2.20,1.04,4.51
1010,51525443,0.9648,-0.1797,0.0811,2.07,1.10,4.39
1011,51530442,0.9639,-0.1782,0.0864,1.77,0.91,4.21
1012,51535441,0.9629,-0.1831,0.0874,1.65,0.91,4.02
1013,51540442,0.9629,-0.1841,0.0859,1.34,0.91,3.90
1014,51545441,0.9644,-0.1787,0.0835,1.22,0.73,3.84
1015,51550443,0.9570,-0.1812,0.0850,1.04,0.79,3.66
1016,51556042,0.9595,-0.1802,0.0806,0.73,0.79,3.66
1017,51560445,0.9604,-0.1787,0.0845,0.55,0.85,3.35
