# skilleye imu stream v1
# device=xiao_esp32c6 imu=mpu6050 addr=0x68
# rate_hz=200 accel_range_g=16 gyro_range_dps=2000 dlpf_hz=94
# units: accel in g, gyro in deg/s, t_us in microseconds since boot (monotonic)
# no shared clock with the camera -- tap the racket once before each take
# so both recordings share a spike to align on
seq,t_us,ax,ay,az,gx,gy,gz
0,155748296,0.6338,-0.4863,-0.5264,7.93,-16.77,13.48
1,155753301,0.6338,-0.4829,-0.5327,7.50,-17.13,12.80
2,155758295,0.6333,-0.4761,-0.5312,7.32,-17.26,12.07
3,155763296,0.6216,-0.4824,-0.5327,7.38,-17.44,10.85
4,155768296,0.6108,-0.4834,-0.5269,7.68,-17.62,10.12
5,155773296,0.6177,-0.4829,-0.5366,8.41,-17.44,8.84
6,155778300,0.6230,-0.4800,-0.5396,9.57,-17.32,7.93
7,155783296,0.6138,-0.4810,-0.5425,11.10,-16.95,6.71
8,155788296,0.6162,-0.4795,-0.5410,12.80,-16.83,5.67
9,155793297,0.6226,-0.4785,-0.5474,14.57,-16.46,4.45
10,155798296,0.6104,-0.4839,-0.5483,16.46,-16.28,3.29
11,155803296,0.6133,-0.4839,-0.5381,18.48,-15.79,2.20
12,155808296,0.6177,-0.4810,-0.5474,20.43,-15.49,1.10
13,155813296,0.6152,-0.4868,-0.5405,22.20,-15.12,-0.12
14,155818296,0.6157,-0.4917,-0.5483,23.66,-14.76,-1.16
15,155823296,0.6162,-0.4907,-0.5439,25.12,-14.39,-2.32
16,155828296,0.6157,-0.5024,-0.5381,26.10,-14.09,-3.41
17,155833296,0.6167,-0.5078,-0.5396,26.71,-13.72,-4.39
18,155838296,0.6260,-0.5137,-0.5469,26.71,-13.54,-5.30
19,155843296,0.6265,-0.5171,-0.5405,26.40,-13.29,-6.16
20,155848296,0.6338,-0.5288,-0.5439,25.55,-13.41,-6.89
21,155853299,0.6294,-0.5415,-0.5459,24.15,-13.41,-7.50
22,155858296,0.6357,-0.5518,-0.5439,22.38,-13.54,-8.05
23,155863511,0.6377,-0.5503,-0.5474,20.43,-13.90,-8.41
24,155868296,0.6367,-0.5615,-0.5557,18.11,-14.15,-8.90
25,155873296,0.6362,-0.5708,-0.5562,15.73,-14.51,-9.15
26,155878296,0.6357,-0.5698,-0.5630,13.29,-15.12,-9.51
27,155883298,0.6353,-0.5713,-0.5630,10.85,-15.67,-9.70
28,155888295,0.6284,-0.5723,-0.5620,8.66,-16.16,-10.00
29,155893296,0.6206,-0.5791,-0.5713,6.71,-16.71,-10.12
30,155898296,0.6206,-0.5781,-0.5742,5.00,-17.26,-10.49
31,155903296,0.6147,-0.5767,-0.5708,3.66,-17.87,-10.85
32,155908296,0.5981,-0.5762,-0.5762,2.68,-18.48,-11.16
33,155913296,0.5854,-0.5757,-0.5723,1.95,-18.66,-11.52
34,155918296,0.5786,-0.5762,-0.5703,1.46,-18.84,-11.89
35,155923296,0.5693,-0.5781,-0.5752,1.28,-18.84,-12.38
36,155928296,0.5586,-0.5723,-0.5737,1.28,-18.78,-13.05
37,155933296,0.5435,-0.5776,-0.5737,1.40,-18.48,-13.60
38,155938771,0.5356,-0.5796,-0.5684,1.71,-18.05,-14.21
39,155943296,0.5234,-0.5811,-0.5591,1.89,-17.56,-14.82
40,155948296,0.5063,-0.5801,-0.5649,2.07,-16.95,-15.49
41,155953296,0.5049,-0.5791,-0.5684,2.13,-15.85,-16.28
42,155958295,0.5000,-0.5732,-0.5654,2.07,-14.94,-16.89
43,155963296,0.4834,-0.5771,-0.5620,1.89,-13.90,-17.74
44,155968294,0.4785,-0.5762,-0.5679,1.40,-12.87,-18.54
45,155973296,0.4805,-0.5771,-0.5757,0.55,-11.95,-19.33
46,155978295,0.4756,-0.5713,-0.5786,-0.30,-10.73,-19.94
47,155983295,0.4790,-0.5664,-0.5767,-1.52,-9.70,-20.85
48,155988616,0.4668,-0.5664,-0.5835,-2.87,-8.72,-21.52
49,155993296,0.4634,-0.5586,-0.5815,-4.21,-7.80,-22.32
50,155998295,0.4614,-0.5591,-0.5815,-5.98,-6.71,-23.05
51,156003296,0.4648,-0.5557,-0.5815,-7.87,-5.61,-23.78
52,156008294,0.4595,-0.5557,-0.5845,-10.37,-4.70,-24.57
53,156013296,0.4644,-0.5513,-0.5708,-12.01,-3.96,-25.00
54,156018296,0.4712,-0.5503,-0.5781,-14.27,-3.05,-25.61
55,156023296,0.4707,-0.5479,-0.5762,-16.34,-2.26,-26.10
56,156028295,0.4619,-0.5483,-0.5791,-18.29,-1.46,-26.34
57,156033774,0.4683,-0.5454,-0.5718,-20.73,-0.49,-26.77
58,156038296,0.4688,-0.5439,-0.5742,-21.95,0.00,-26.95
59,156043296,0.4668,-0.5410,-0.5698,-23.78,0.61,-27.01
60,156048296,0.4683,-0.5386,-0.5645,-25.30,1.10,-27.13
61,156053296,0.4648,-0.5366,-0.5581,-26.71,1.65,-26.95
62,156058296,0.4702,-0.5298,-0.5527,-27.99,2.26,-27.01
63,156063296,0.4780,-0.5205,-0.5493,-29.02,2.68,-26.77
64,156068296,0.4849,-0.5151,-0.5371,-29.88,3.05,-26.59
65,156073295,0.4912,-0.5107,-0.5352,-30.43,3.54,-26.16
66,156078727,0.4878,-0.5020,-0.5234,-30.67,3.90,-25.67
67,156083296,0.4863,-0.5000,-0.5259,-30.37,4.09,-25.24
68,156088296,0.4985,-0.4893,-0.5171,-29.94,4.09,-24.76
69,156093296,0.5068,-0.4863,-0.5132,-29.02,4.27,-24.21
70,156098755,0.5083,-0.4795,-0.5107,-27.80,4.21,-23.41
71,156103296,0.5142,-0.4756,-0.5078,-26.77,4.15,-22.74
72,156108296,0.5151,-0.4741,-0.5010,-25.24,3.90,-22.07
73,156113320,0.5259,-0.4697,-0.4995,-23.60,3.66,-21.28
74,156118298,0.5371,-0.4604,-0.4873,-21.95,3.29,-20.37
75,156123296,0.5488,-0.4546,-0.4902,-19.94,2.99,-19.39
76,156128296,0.5410,-0.4570,-0.4854,-18.48,2.68,-18.66
77,156133296,0.5503,-0.4521,-0.4878,-16.71,2.26,-17.80
78,156138296,0.5459,-0.4478,-0.4824,-14.82,1.89,-17.07
79,156143299,0.5601,-0.4414,-0.4795,-12.74,1.46,-16.04
80,156148296,0.5649,-0.4326,-0.4819,-11.40,1.04,-15.37
81,156153296,0.5684,-0.4307,-0.4854,-9.63,0.55,-14.57
82,156158296,0.5640,-0.4341,-0.4834,-7.99,0.12,-13.84
83,156163296,0.5718,-0.4268,-0.4780,-6.34,-0.37,-13.11
84,156168295,0.5732,-0.4233,-0.4844,-4.82,-0.67,-12.56
85,156173701,0.5776,-0.4214,-0.4844,-3.17,-1.34,-11.65
86,156178296,0.5859,-0.4150,-0.4932,-2.01,-1.59,-11.16
87,156183296,0.5854,-0.4131,-0.5005,-0.73,-2.20,-10.61
88,156188297,0.5894,-0.4097,-0.5049,0.49,-2.74,-10.00
89,156193296,0.5869,-0.4043,-0.5093,1.71,-3.17,-9.57
90,156198299,0.5864,-0.4028,-0.5127,2.93,-3.90,-9.27
91,156203296,0.5884,-0.3999,-0.5166,3.66,-4.51,-9.02
92,156208296,0.5908,-0.3970,-0.5137,4.15,-5.00,-8.78
93,156213297,0.5923,-0.4028,-0.5215,4.45,-5.61,-8.54
94,156218692,0.5903,-0.4009,-0.5186,4.27,-6.16,-8.35
95,156223298,0.5952,-0.3979,-0.5234,3.60,-6.59,-8.17
96,156228297,0.5903,-0.3979,-0.5254,2.74,-7.07,-8.05
97,156233298,0.5869,-0.4058,-0.5273,1.16,-7.38,-7.99
98,156238294,0.5796,-0.4087,-0.5190,-0.67,-7.74,-7.80
99,156243640,0.5889,-0.4072,-0.5312,-3.11,-8.05,-7.56
100,156248296,0.5884,-0.4082,-0.5386,-5.24,-8.23,-7.38
101,156253296,0.6001,-0.4092,-0.5376,-8.35,-8.41,-7.26
102,156258295,0.5962,-0.4126,-0.5376,-11.04,-8.41,-7.13
103,156263296,0.5972,-0.4185,-0.5430,-14.09,-8.48,-6.83
104,156268769,0.5884,-0.4180,-0.5464,-16.89,-8.48,-6.65
105,156273296,0.5825,-0.4185,-0.5503,-19.51,-8.60,-6.40
106,156278298,0.5854,-0.4219,-0.5430,-21.83,-8.41,-6.22
107,156283401,0.5840,-0.4219,-0.5493,-23.90,-8.35,-6.04
108,156288295,0.5874,-0.4224,-0.5444,-25.49,-8.11,-5.79
109,156293294,0.5786,-0.4268,-0.5493,-26.59,-7.99,-5.49
110,156298656,0.5825,-0.4312,-0.5498,-27.26,-7.80,-5.37
111,156303296,0.5771,-0.4297,-0.5508,-27.13,-7.62,-5.12
112,156308295,0.5806,-0.4346,-0.5498,-26.65,-7.32,-4.82
113,156313294,0.5737,-0.4321,-0.5464,-25.43,-6.95,-4.63
114,156318454,0.5786,-0.4331,-0.5503,-23.72,-6.46,-4.39
115,156323300,0.5791,-0.4312,-0.5576,-21.59,-6.28,-4.33
116,156328296,0.5898,-0.4282,-0.5518,-18.72,-5.91,-4.09
117,156333296,0.5952,-0.4282,-0.5474,-15.67,-5.73,-3.96
118,156338296,0.5889,-0.4346,-0.5537,-12.56,-5.37,-3.72
119,156343300,0.5952,-0.4355,-0.5454,-9.02,-5.06,-3.48
120,156348296,0.6025,-0.4321,-0.5435,-5.61,-4.88,-3.29
121,156353296,0.6006,-0.4341,-0.5503,-2.01,-4.51,-3.11
122,156358296,0.6006,-0.4360,-0.5435,1.52,-4.21,-2.87
123,156363296,0.6035,-0.4380,-0.5449,4.94,-4.15,-2.80
124,156368296,0.6021,-0.4390,-0.5342,8.17,-3.96,-2.50
125,156373310,0.6045,-0.4360,-0.5381,11.28,-3.90,-2.32
126,156378345,0.6084,-0.4355,-0.5420,14.15,-3.84,-2.01
127,156383691,0.6099,-0.4360,-0.5356,16.65,-3.78,-1.71
128,156388296,0.6143,-0.4390,-0.5405,18.78,-3.96,-1.59
129,156393296,0.6260,-0.4355,-0.5337,20.61,-4.15,-1.16
130,156398296,0.6265,-0.4351,-0.5322,21.83,-4.21,-0.98
131,156403300,0.6279,-0.4395,-0.5308,22.80,-4.45,-0.73
132,156408297,0.6230,-0.4390,-0.5303,23.54,-4.63,-0.55
133,156413296,0.6260,-0.4424,-0.5254,23.84,-4.63,-0.24
134,156418296,0.6235,-0.4458,-0.5239,23.90,-5.00,0.00
135,156423296,0.6235,-0.4492,-0.5312,23.78,-5.12,0.24
136,156428296,0.6274,-0.4526,-0.5273,23.41,-5.43,0.55
137,156433296,0.6313,-0.4526,-0.5264,23.11,-5.67,0.79
138,156438296,0.6265,-0.4561,-0.5303,22.62,-6.04,1.10
139,156443296,0.6255,-0.4551,-0.5269,22.13,-6.22,1.40
140,156448296,0.6304,-0.4561,-0.5273,21.77,-6.52,1.59
141,156453296,0.6338,-0.4551,-0.5337,21.46,-6.89,1.77
142,156458296,0.6455,-0.4531,-0.5327,21.28,-7.26,1.89
143,156463296,0.6387,-0.4521,-0.5303,21.10,-7.56,2.07
144,156468298,0.6353,-0.4541,-0.5337,20.79,-7.80,2.07
145,156473295,0.6348,-0.4512,-0.5317,20.73,-8.17,2.07
146,156478296,0.6260,-0.4512,-0.5420,20.55,-8.60,2.13
147,156483294,0.6230,-0.4531,-0.5415,20.30,-8.84,2.07
148,156488298,0.6221,-0.4536,-0.5386,20.18,-9.27,2.13
149,156493296,0.6201,-0.4531,-0.5337,20.18,-9.51,2.01
150,156498301,0.6157,-0.4551,-0.5396,20.06,-9.94,1.95
151,156503296,0.6099,-0.4624,-0.5376,20.00,-10.06,1.77
152,156508452,0.6118,-0.4629,-0.5332,19.94,-10.24,1.89
153,156513297,0.6133,-0.4644,-0.5405,19.82,-10.37,1.77
154,156518294,0.5991,-0.4712,-0.5361,20.00,-10.49,1.77
155,156523296,0.5991,-0.4746,-0.5312,20.12,-10.79,1.71
156,156528296,0.5996,-0.4692,-0.5327,20.24,-10.73,1.59
157,156533296,0.5894,-0.4766,-0.5293,20.37,-10.79,1.65
158,156538296,0.5942,-0.4824,-0.5269,20.43,-10.67,1.59
159,156543296,0.5942,-0.4849,-0.5273,20.61,-10.85,1.40
160,156548780,0.6060,-0.4849,-0.5239,20.98,-10.67,1.52
161,156553296,0.5918,-0.4893,-0.5225,21.28,-10.67,1.59
162,156558296,0.5942,-0.4868,-0.5225,21.65,-10.61,1.65
163,156563296,0.5942,-0.4932,-0.5186,22.20,-10.55,1.83
164,156568296,0.5889,-0.4932,-0.5181,23.05,-10.43,2.01
165,156573296,0.5894,-0.4966,-0.5107,23.90,-10.37,2.07
166,156578295,0.5981,-0.5015,-0.5112,25.12,-10.30,2.26
167,156583298,0.5952,-0.5010,-0.5132,26.52,-10.49,2.44
168,156588294,0.5977,-0.5054,-0.5142,28.05,-10.37,2.68
169,156593294,0.6104,-0.5044,-0.5156,29.82,-10.37,2.99
170,156598294,0.6064,-0.5098,-0.5151,31.65,-10.43,3.17
171,156603296,0.6089,-0.5132,-0.5098,33.78,-10.24,3.41
172,156608296,0.6108,-0.5186,-0.5103,36.04,-10.37,3.54
173,156613295,0.6035,-0.5249,-0.5190,38.29,-10.24,3.90
174,156618296,0.6094,-0.5264,-0.5156,40.79,-10.43,4.09
175,156623296,0.5967,-0.5293,-0.5190,43.29,-10.37,4.33
176,156628296,0.6001,-0.5342,-0.5186,46.46,-10.37,4.57
177,156633296,0.6045,-0.5396,-0.5137,48.41,-10.37,4.88
178,156638296,0.5986,-0.5435,-0.5288,51.10,-10.37,5.06
179,156643296,0.6040,-0.5488,-0.5181,53.54,-10.55,5.37
180,156648296,0.6079,-0.5527,-0.5200,55.79,-10.55,5.55
181,156653296,0.6128,-0.5576,-0.5317,58.05,-10.73,5.79
182,156658298,0.6123,-0.5645,-0.5273,60.06,-10.79,5.91
183,156663296,0.6143,-0.5684,-0.5337,61.71,-10.79,6.10
184,156668296,0.6089,-0.5752,-0.5386,62.99,-11.04,6.28
185,156673296,0.6118,-0.5767,-0.5342,64.21,-11.10,6.40
186,156678296,0.6074,-0.5767,-0.5449,65.18,-11.28,6.52
187,156683295,0.6050,-0.5820,-0.5493,65.91,-11.46,6.46
188,156688296,0.6030,-0.5830,-0.5562,66.28,-11.65,6.34
189,156693296,0.5942,-0.5864,-0.5625,66.52,-11.83,6.16
190,156698296,0.5972,-0.5786,-0.5586,66.52,-12.01,5.91
191,156703296,0.5908,-0.5889,-0.5698,65.98,-12.13,5.67
192,156708296,0.5854,-0.5918,-0.5728,65.30,-12.26,5.30
193,156713296,0.5889,-0.5918,-0.5776,64.27,-12.26,4.88
194,156718296,0.5737,-0.6001,-0.5786,62.68,-12.07,4.57
195,156723296,0.5693,-0.6001,-0.5830,60.91,-11.71,4.02
196,156728742,0.5566,-0.6040,-0.5840,59.02,-11.34,3.54
197,156733296,0.5493,-0.6128,-0.5840,56.89,-10.79,3.11
198,156738296,0.5444,-0.6162,-0.5918,54.45,-10.18,2.62
199,156743296,0.5420,-0.6147,-0.5933,51.83,-9.39,2.13
200,156748296,0.5396,-0.6157,-0.5972,49.27,-8.54,1.65
201,156753296,0.5342,-0.6187,-0.5977,46.77,-7.38,1.16
202,156758296,0.5356,-0.6104,-0.6040,44.33,-6.28,0.73
203,156763296,0.5205,-0.6143,-0.6035,41.95,-5.00,0.37
204,156768296,0.5122,-0.6089,-0.6055,39.70,-3.84,-0.12
205,156773296,0.5049,-0.6147,-0.6084,37.56,-2.50,-0.55
206,156778296,0.5020,-0.6133,-0.6064,35.24,-0.98,-1.22
207,156783296,0.4912,-0.6128,-0.6016,33.05,0.55,-1.65
208,156788296,0.4976,-0.6133,-0.6094,31.16,1.83,-2.07
209,156793296,0.5015,-0.6079,-0.6152,29.27,3.41,-2.62
210,156798296,0.5024,-0.6011,-0.6128,27.80,4.88,-3.11
211,156803296,0.5073,-0.5986,-0.6123,26.46,6.34,-3.60
212,156808295,0.5117,-0.5996,-0.6313,25.37,7.68,-4.15
213,156813739,0.5103,-0.6011,-0.6216,24.57,9.02,-4.57
214,156818296,0.5068,-0.5952,-0.6138,23.84,10.30,-5.06
215,156823300,0.5039,-0.6030,-0.6172,23.17,11.65,-5.49
216,156828296,0.5186,-0.5947,-0.6133,22.38,12.93,-5.85
217,156833296,0.5181,-0.5947,-0.6123,21.95,14.45,-6.28
218,156838296,0.5186,-0.5923,-0.6108,21.46,15.61,-6.46
219,156843296,0.5225,-0.5864,-0.6138,21.10,16.83,-6.89
220,156848296,0.5156,-0.5889,-0.6182,20.91,18.11,-7.20
221,156853296,0.5229,-0.5830,-0.6104,20.43,19.21,-7.32
222,156858296,0.5410,-0.5801,-0.6001,19.94,20.18,-7.62
223,156863296,0.5381,-0.5786,-0.6050,19.15,21.28,-7.80
224,156868296,0.5386,-0.5781,-0.5996,18.29,22.07,-7.87
225,156873296,0.5425,-0.5767,-0.5884,17.13,22.99,-7.87
226,156878296,0.5493,-0.5723,-0.5908,15.98,23.78,-7.80
227,156883296,0.5620,-0.5698,-0.5806,14.70,24.63,-7.56
228,156888295,0.5601,-0.5605,-0.5796,13.29,25.18,-7.44
229,156893294,0.5713,-0.5508,-0.5757,12.01,26.04,-7.32
230,156898298,0.5674,-0.5479,-0.5718,10.67,26.59,-7.07
231,156903294,0.5684,-0.5479,-0.5640,9.21,27.13,-6.83
232,156908294,0.5679,-0.5420,-0.5547,7.74,27.62,-6.52
233,156913295,0.5762,-0.5400,-0.5503,6.16,28.17,-6.28
234,156918296,0.5801,-0.5312,-0.5469,4.45,28.60,-5.98
235,156923297,0.5806,-0.5298,-0.5444,2.74,29.15,-5.79
236,156928296,0.5684,-0.5317,-0.5361,0.91,29.76,-5.55
237,156933792,0.5708,-0.5293,-0.5356,-1.16,30.37,-4.94
238,156938296,0.5752,-0.5195,-0.5298,-2.56,30.85,-4.76
239,156943296,0.5762,-0.5195,-0.5322,-4.33,31.40,-4.33
240,156948296,0.5747,-0.5122,-0.5293,-6.04,31.89,-3.96
241,156953296,0.5718,-0.5073,-0.5210,-7.62,32.56,-3.60
242,156958296,0.5659,-0.5059,-0.5244,-8.66,33.05,-3.35
243,156963300,0.5654,-0.5063,-0.5181,-9.76,33.41,-2.99
244,156968296,0.5591,-0.5024,-0.5117,-10.67,34.09,-2.62
245,156973751,0.5620,-0.4951,-0.5127,-11.52,34.70,-2.20
246,156978296,0.5605,-0.4961,-0.5024,-12.20,35.12,-1.89
247,156983296,0.5713,-0.4956,-0.4956,-12.68,35.73,-1.59
248,156988296,0.5654,-0.4927,-0.4956,-13.17,36.34,-1.16
249,156993296,0.5703,-0.4907,-0.4922,-13.41,36.89,-0.79
250,156998295,0.5693,-0.4927,-0.4844,-13.60,37.50,-0.24
251,157003734,0.5669,-0.4873,-0.4756,-13.66,38.35,0.30
252,157008296,0.5747,-0.4863,-0.4771,-13.72,38.72,0.61
253,157013296,0.5703,-0.4858,-0.4775,-13.48,39.33,1.10
254,157018296,0.5620,-0.4824,-0.4702,-13.11,40.00,1.83
255,157023296,0.5586,-0.4878,-0.4585,-12.74,40.61,2.26
256,157028296,0.5674,-0.4922,-0.4731,-12.01,41.04,2.74
257,157033296,0.5752,-0.4946,-0.4590,-11.28,41.83,3.29
258,157038298,0.5718,-0.5039,-0.4556,-10.12,42.50,3.84
259,157043296,0.5527,-0.5049,-0.4497,-8.90,43.23,4.45
260,157048296,0.5581,-0.5010,-0.4580,-7.13,44.02,5.00
261,157053739,0.5542,-0.4966,-0.4673,-4.94,44.76,5.85
262,157058296,0.5420,-0.5024,-0.4604,-3.35,45.30,6.22
263,157063296,0.5273,-0.5005,-0.4556,-1.34,45.91,6.77
264,157068296,0.5205,-0.4927,-0.4658,1.28,46.52,7.32
265,157073296,0.5264,-0.4585,-0.4976,2.74,46.34,7.50
266,157078295,0.5322,-0.4312,-0.5112,4.15,46.04,7.26
267,157083742,0.5527,-0.4185,-0.4834,4.88,45.37,6.71
268,157088296,0.5708,-0.4351,-0.4834,4.70,45.18,6.10
269,157093296,0.5659,-0.4512,-0.4946,3.78,44.57,5.55
270,157098296,0.5562,-0.4502,-0.5039,2.13,44.15,5.12
271,157103296,0.5562,-0.4321,-0.5186,-0.30,43.23,4.51
272,157108732,0.5898,-0.4224,-0.5005,-3.84,41.89,3.60
273,157113326,0.6045,-0.4272,-0.5005,-6.46,41.10,3.05
274,157118298,0.5923,-0.4673,-0.4966,-10.37,40.18,2.50
275,157123296,0.6138,-0.5142,-0.5176,-14.70,38.78,2.74
276,157128296,0.6572,-0.4512,-0.4292,-18.72,37.87,3.11
277,157133296,0.6436,-0.4556,-0.4844,-22.13,37.68,2.93
278,157138296,0.6006,-0.5024,-0.4878,-24.27,37.38,2.93
279,157143296,0.6006,-0.4814,-0.4951,-26.77,37.07,2.93
280,157148296,0.6406,-0.4658,-0.4917,-29.09,36.59,2.74
281,157153296,0.6543,-0.4614,-0.5127,-30.30,36.28,2.50
282,157158296,0.6875,-0.5000,-0.5337,-31.95,35.55,2.80
283,157163296,0.6655,-0.4902,-0.5142,-33.23,34.88,3.29
284,157168296,0.6519,-0.4463,-0.5435,-34.27,34.15,3.72
285,157173297,0.6470,-0.4556,-0.5708,-34.82,33.35,3.78
286,157178297,0.6758,-0.4707,-0.5469,-35.00,32.44,4.02
287,157183698,0.6831,-0.4741,-0.5171,-35.06,31.71,4.76
288,157188298,0.6997,-0.4761,-0.5034,-34.70,31.59,5.49
289,157193295,0.6953,-0.4897,-0.4863,-33.96,31.65,6.65
290,157198390,0.6968,-0.4927,-0.4751,-32.80,31.89,7.87
291,157203294,0.6816,-0.4927,-0.4736,-31.16,32.32,9.33
292,157208869,0.6826,-0.4814,-0.4712,-28.96,33.05,10.67
293,157213298,0.6885,-0.4634,-0.4722,-26.22,33.60,12.13
294,157218473,0.6929,-0.4536,-0.4717,-22.93,34.21,13.48
295,157223296,0.6890,-0.4424,-0.4697,-19.33,35.00,14.70
296,157228296,0.6909,-0.4360,-0.4629,-15.55,35.30,15.85
297,157233296,0.6504,-0.4297,-0.4458,-11.95,35.55,17.01
298,157238295,0.6733,-0.4204,-0.4375,-8.23,36.16,17.99
299,157243296,0.6763,-0.4170,-0.4150,-4.57,36.71,18.96
300,157248296,0.6714,-0.4189,-0.4028,-0.85,37.13,19.88
301,157253294,0.6704,-0.4111,-0.3979,2.44,37.80,20.91
302,157258296,0.6567,-0.4146,-0.3857,5.55,38.17,21.83
303,157263295,0.6333,-0.4165,-0.3730,8.11,38.96,22.87
304,157268296,0.6401,-0.4150,-0.3887,10.49,39.51,23.84
305,157273294,0.6606,-0.4209,-0.3701,12.50,39.88,24.82
306,157278296,0.6699,-0.4263,-0.3579,14.21,40.43,25.61
307,157283296,0.6772,-0.4297,-0.3530,15.55,40.79,26.65
308,157288299,0.6738,-0.4370,-0.3462,16.71,41.10,27.68
309,157293296,0.6797,-0.4487,-0.3428,17.62,41.52,28.90
310,157298296,0.6782,-0.4658,-0.3291,18.29,41.89,30.18
311,157303296,0.6978,-0.4751,-0.3423,18.72,42.38,31.52
312,157308296,0.6963,-0.4883,-0.3408,19.15,42.62,32.93
313,157313296,0.7021,-0.4941,-0.3247,19.39,43.11,34.45
314,157318296,0.7026,-0.5015,-0.3271,19.45,43.72,35.67
315,157323296,0.6978,-0.5054,-0.3359,19.15,44.21,37.01
316,157328296,0.6973,-0.5044,-0.3354,18.90,44.33,38.17
317,157333296,0.7065,-0.5015,-0.3403,18.35,44.63,39.27
318,157338295,0.7134,-0.5107,-0.3379,17.56,44.88,40.18
319,157343769,0.7124,-0.5117,-0.3340,16.77,44.76,41.16
320,157348296,0.7090,-0.5215,-0.3433,15.55,44.76,41.71
321,157353296,0.7031,-0.5264,-0.3438,14.21,44.82,42.38
322,157358296,0.6968,-0.5303,-0.3452,12.74,44.51,42.74
323,157363583,0.6919,-0.5415,-0.3521,11.28,44.57,43.11
324,157368721,0.6963,-0.5518,-0.3506,9.76,44.57,43.41
325,157373296,0.6982,-0.5674,-0.3472,8.29,44.33,43.66
326,157378296,0.6914,-0.5796,-0.3569,6.65,44.15,44.09
327,157383296,0.6870,-0.5938,-0.3535,5.37,43.96,44.27
328,157388295,0.6812,-0.6030,-0.3550,3.90,44.21,44.76
329,157393296,0.6812,-0.6167,-0.3662,2.32,44.15,45.12
330,157398296,0.6758,-0.6226,-0.3770,0.91,44.02,45.49
331,157403298,0.6841,-0.6240,-0.3735,-0.79,44.09,45.85
332,157408295,0.6963,-0.6191,-0.3716,-2.26,44.09,46.10
333,157413300,0.6851,-0.6274,-0.3774,-4.15,44.02,46.16
334,157418296,0.6870,-0.6367,-0.3882,-5.37,43.90,46.10
335,157423296,0.6958,-0.6484,-0.4023,-7.13,43.78,46.16
336,157428296,0.6812,-0.6636,-0.4048,-9.45,43.60,46.10
337,157433297,0.6270,-0.7148,-0.4312,-11.46,43.60,46.40
338,157438296,0.6372,-0.6689,-0.3911,-14.21,43.41,46.65
339,157443296,0.6772,-0.6548,-0.4048,-17.07,43.54,46.77
340,157448296,0.6943,-0.6519,-0.3994,-20.30,43.48,46.77
341,157453296,0.7031,-0.6460,-0.3965,-22.13,43.41,46.71
342,157458296,0.6934,-0.6436,-0.3989,-24.21,43.29,46.16
343,157463296,0.7031,-0.6211,-0.4136,-26.10,43.11,45.73
344,157468296,0.6963,-0.6060,-0.4194,-27.93,42.93,44.63
345,157473296,0.7119,-0.5918,-0.4077,-28.90,42.87,43.78
346,157478296,0.7119,-0.5771,-0.4067,-29.76,42.50,42.32
347,157483296,0.7031,-0.5781,-0.4038,-30.06,42.26,40.67
348,157488296,0.6919,-0.5898,-0.4155,-29.82,41.95,39.09
349,157493295,0.6772,-0.5957,-0.4229,-29.57,41.83,37.20
350,157498294,0.6606,-0.5938,-0.4307,-28.66,41.52,35.43
351,157503298,0.6582,-0.6099,-0.4292,-27.62,41.46,33.72
352,157508295,0.6538,-0.6226,-0.4253,-26.40,41.52,32.26
353,157513296,0.6401,-0.6377,-0.4224,-25.00,41.59,31.04
354,157518296,0.6338,-0.6406,-0.4233,-23.41,41.77,29.76
355,157523300,0.6230,-0.6392,-0.4185,-21.59,42.26,28.48
356,157528296,0.6201,-0.6416,-0.4219,-20.61,42.38,27.56
357,157533297,0.6147,-0.6401,-0.4229,-19.57,42.87,26.34
358,157538296,0.6089,-0.6313,-0.4126,-18.23,43.41,25.24
359,157543296,0.6133,-0.6191,-0.3950,-16.83,44.09,23.96
360,157548297,0.6299,-0.6143,-0.3818,-15.43,44.94,22.74
361,157553296,0.6304,-0.6108,-0.3691,-13.60,46.22,21.40
362,157558745,0.6108,-0.6128,-0.3545,-11.22,47.56,20.06
363,157563296,0.6035,-0.6138,-0.3481,-9.70,48.66,19.02
364,157568296,0.5942,-0.6108,-0.3330,-8.05,50.18,17.93
365,157573296,0.5947,-0.6064,-0.3105,-6.59,51.77,16.95
366,157578716,0.5918,-0.6025,-0.2871,-5.30,53.78,15.85
367,157583296,0.5981,-0.6011,-0.2681,-4.88,55.30,15.24
368,157588296,0.5894,-0.6006,-0.2529,-4.70,56.95,14.51
369,157593295,0.5889,-0.5991,-0.2334,-5.12,58.84,13.96
370,157598296,0.5820,-0.5938,-0.2144,-5.91,60.49,13.54
371,157603296,0.5952,-0.5898,-0.1909,-7.20,62.74,13.23
372,157608296,0.5894,-0.5889,-0.1689,-8.72,64.21,13.23
373,157613295,0.5913,-0.5952,-0.1406,-10.37,65.79,13.35
374,157618577,0.6035,-0.6079,-0.1187,-12.26,67.26,13.78
375,157623765,0.5977,-0.6196,-0.0972,-14.27,68.72,14.45
376,157628296,0.5986,-0.6230,-0.0752,-16.04,69.94,15.55
377,157633296,0.5996,-0.6343,-0.0474,-17.74,71.10,16.95
378,157638297,0.6050,-0.6304,-0.0239,-19.02,72.13,18.72
379,157643643,0.6138,-0.6240,-0.0029,-19.45,73.17,20.55
380,157648296,0.6011,-0.6338,0.0200,-19.45,74.15,22.74
381,157653296,0.5884,-0.6289,0.0400,-18.90,75.24,24.88
382,157658296,0.5791,-0.6279,0.0488,-17.87,76.04,27.13
383,157663783,0.5757,-0.6240,0.0942,-16.59,76.71,29.51
384,157668296,0.5532,-0.6226,0.0576,-15.24,77.44,31.59
385,157673296,0.5249,-0.6318,0.0781,-13.66,77.44,33.48
386,157678296,0.5249,-0.6084,0.1265,-12.07,77.20,35.61
387,157683296,0.5435,-0.5840,0.1274,-10.61,76.83,37.01
388,157688296,0.5513,-0.5972,0.1519,-8.54,76.22,38.41
389,157693586,0.5308,-0.6104,0.1938,-5.85,75.61,39.76
390,157698296,0.5083,-0.6270,0.2065,-2.87,75.18,41.34
391,157703295,0.4897,-0.6421,0.2056,0.00,74.51,43.11
392,157708298,0.4868,-0.6523,0.2275,2.80,73.96,45.12
393,157713294,0.4814,-0.6572,0.2466,5.37,73.48,47.13
394,157718296,0.4751,-0.6558,0.2598,7.38,72.99,49.15
395,157723296,0.4683,-0.6606,0.2593,9.09,72.50,51.22
396,157728296,0.4541,-0.6538,0.2817,10.37,72.01,53.05
397,157733296,0.4346,-0.6558,0.2847,11.34,71.46,54.70
398,157738297,0.4307,-0.6519,0.2930,11.89,70.85,56.22
399,157743296,0.4297,-0.6445,0.2993,11.95,70.30,57.56
400,157748296,0.4292,-0.6401,0.3110,11.71,69.94,58.66
401,157753296,0.4199,-0.6318,0.3110,11.22,69.09,59.82
402,157758296,0.4189,-0.6294,0.3203,10.91,68.66,60.91
403,157763782,0.4072,-0.6191,0.3311,10.43,68.29,61.83
404,157768296,0.4102,-0.6133,0.3301,10.49,67.87,62.80
405,157773296,0.4141,-0.5952,0.3345,10.85,67.62,63.90
406,157778296,0.4004,-0.5923,0.3496,11.77,67.20,65.06
407,157783296,0.3984,-0.5957,0.3486,13.29,67.01,66.28
408,157788296,0.4058,-0.5923,0.3672,15.24,66.95,67.80
409,157793295,0.4067,-0.5908,0.3657,17.74,66.83,69.39
410,157798294,0.4077,-0.5942,0.3818,20.61,66.77,71.10
411,157803294,0.4141,-0.5991,0.3906,23.60,66.71,72.87
412,157808294,0.4082,-0.6060,0.4087,26.52,66.52,74.57
413,157813294,0.4048,-0.6133,0.4219,29.15,66.46,76.34
414,157818294,0.3999,-0.6279,0.4331,31.34,66.34,78.11
415,157823760,0.4048,-0.6333,0.4536,32.99,66.04,79.57
416,157828296,0.4136,-0.6470,0.4653,34.02,65.61,81.04
417,157833296,0.4097,-0.6543,0.4800,34.51,65.18,82.32
418,157838296,0.4038,-0.6680,0.4883,34.63,64.82,84.09
419,157843299,0.4121,-0.6826,0.5039,34.33,64.09,86.28
420,157848296,0.4033,-0.6938,0.5088,34.15,63.72,87.38
421,157853296,0.4199,-0.7002,0.5259,33.78,62.93,87.56
422,157858296,0.4121,-0.7075,0.5327,33.54,62.01,90.55
423,157863296,0.4209,-0.7173,0.5430,33.54,61.65,92.32
424,157868296,0.4111,-0.7422,0.5552,33.29,60.85,94.76
425,157873296,0.4072,-0.7651,0.5659,33.41,60.30,97.50
426,157878296,0.3877,-0.7817,0.5898,33.72,59.51,100.67
427,157883296,0.3701,-0.7915,0.6030,34.27,58.96,102.56
428,157888296,0.3623,-0.8003,0.6191,34.94,58.17,104.88
429,157893296,0.3477,-0.8184,0.6445,36.04,57.01,106.71
430,157898296,0.3281,-0.8477,0.6743,36.89,55.91,108.35
431,157903295,0.3071,-0.8730,0.6958,37.56,54.70,109.57
432,157908298,0.2920,-0.9009,0.7236,38.05,53.60,110.73
433,157913296,0.2852,-0.9214,0.7520,38.23,52.26,111.65
434,157918703,0.2573,-0.9595,0.7886,37.80,50.55,112.68
435,157923296,0.2573,-0.9756,0.7998,37.13,49.45,113.29
436,157928296,0.2544,-1.0132,0.8218,36.04,48.05,113.84
437,157933295,0.2461,-1.0464,0.8496,34.88,46.28,114.15
438,157938626,0.2100,-1.0747,0.8853,33.60,43.84,114.21
439,157943296,0.1938,-1.0991,0.9009,32.93,42.20,113.72
440,157948296,0.1719,-1.1338,0.9150,32.62,39.82,112.74
441,157953296,0.1489,-1.1699,0.9458,32.44,37.32,111.46
442,157958296,0.1313,-1.2163,0.9736,32.87,34.39,109.82
443,157963296,0.1055,-1.2544,0.9917,33.72,31.52,107.80
444,157968298,0.0869,-1.2905,1.0249,35.67,28.05,105.55
445,157973296,0.0854,-1.3203,1.0562,38.11,24.45,102.80
446,157978296,0.0703,-1.3535,1.0811,41.59,20.79,100.06
447,157983300,0.0562,-1.3896,1.1138,46.59,15.98,96.52
448,157988296,0.0444,-1.4180,1.1221,50.49,12.62,93.90
449,157993296,0.0308,-1.4478,1.1538,55.73,8.29,90.55
450,157998296,0.0210,-1.4790,1.1709,61.28,3.41,86.71
451,158003295,0.0098,-1.5186,1.1992,66.89,-1.59,83.29
452,158008296,-0.0044,-1.5513,1.2148,72.62,-7.56,78.48
453,158013296,-0.0210,-1.5723,1.2305,75.98,-12.01,75.18
454,158018295,-0.0317,-1.5913,1.2422,79.27,-17.50,71.04
455,158023370,-0.0312,-1.6035,1.2490,82.01,-24.27,65.85
456,158028294,-0.0449,-1.6143,1.2744,83.23,-29.94,61.59
457,158033296,-0.0464,-1.6226,1.2773,83.96,-34.45,58.35
458,158038296,-0.0542,-1.6187,1.2773,84.51,-40.43,54.21
459,158043296,-0.0469,-1.6099,1.2822,85.12,-47.80,49.39
460,158048297,-0.0557,-1.6162,1.2642,85.43,-52.74,46.40
461,158053296,-0.0596,-1.6084,1.2593,85.91,-59.02,42.80
462,158058296,-0.0542,-1.5908,1.2656,86.59,-66.83,38.66
463,158063300,-0.0581,-1.5737,1.2490,86.95,-73.48,35.12
464,158068296,-0.0693,-1.5645,1.2593,86.83,-78.66,32.20
465,158073296,-0.0791,-1.5581,1.2271,86.59,-86.59,27.74
466,158078295,-0.0830,-1.5493,1.2095,86.46,-93.29,24.21
467,158083296,-0.0835,-1.5190,1.1973,86.34,-100.30,20.73
468,158088296,-0.0952,-1.4976,1.1841,85.67,-107.20,17.38
469,158093294,-0.1035,-1.4648,1.1489,84.63,-113.72,14.09
470,158098294,-0.1060,-1.4434,1.1382,83.35,-120.24,11.10
471,158103296,-0.1157,-1.4165,1.0977,82.01,-126.71,8.41
472,158108295,-0.1221,-1.3799,1.0659,80.24,-132.80,6.10
473,158113318,-0.1318,-1.3394,1.0439,78.60,-138.72,4.02
474,158118296,-0.1479,-1.3032,1.0107,77.13,-144.21,2.26
475,158123297,-0.1567,-1.2666,0.9766,75.91,-149.15,0.91
476,158128296,-0.1553,-1.2246,0.9468,75.12,-154.02,-0.06
477,158133296,-0.1709,-1.1934,0.9077,74.94,-158.54,-0.67
478,158138299,-0.1748,-1.1611,0.8721,75.06,-162.80,-0.79
479,158143296,-0.1826,-1.1245,0.8379,75.37,-166.77,-0.55
480,158148297,-0.1919,-1.1011,0.7988,75.91,-170.43,0.24
481,158153295,-0.1938,-1.0688,0.7573,76.34,-174.02,1.34
482,158158296,-0.2002,-1.0400,0.7075,76.77,-177.20,2.68
483,158163296,-0.1943,-1.0190,0.6646,77.32,-180.37,4.45
484,158168715,-0.1899,-1.0010,0.6030,77.32,-183.11,6.46
485,158173296,-0.2012,-0.9761,0.5610,76.89,-185.49,8.66
486,158178296,-0.2021,-0.9639,0.5127,76.16,-187.80,11.46
487,158183296,-0.1968,-0.9482,0.4668,74.70,-189.70,14.27
488,158188296,-0.1904,-0.9424,0.4146,72.74,-191.52,17.26
489,158193295,-0.1772,-0.9409,0.3755,70.85,-192.80,20.30
490,158198744,-0.1816,-0.9370,0.3247,68.66,-194.21,23.48
491,158203296,-0.1812,-0.9380,0.2817,66.34,-195.49,26.28
492,158208296,-0.2002,-0.9434,0.2383,63.84,-196.40,28.90
493,158213298,-0.2021,-0.9497,0.1953,61.16,-197.26,31.04
494,158218296,-0.2065,-0.9644,0.1577,58.23,-197.87,32.99
495,158223296,-0.2056,-0.9668,0.1235,55.12,-198.35,34.57
496,158228298,-0.2183,-0.9834,0.0884,51.95,-198.78,35.85
497,158233296,-0.2241,-0.9946,0.0527,48.84,-198.90,36.77
498,158238296,-0.2217,-1.0093,0.0122,45.98,-199.21,37.44
499,158243296,-0.2285,-1.0234,-0.0278,43.48,-199.02,37.87
500,158248776,-0.2261,-1.0391,-0.0728,41.40,-198.78,37.80
501,158253296,-0.2271,-1.0522,-0.1074,40.06,-198.23,37.87
502,158258296,-0.2329,-1.0659,-0.1421,39.15,-197.38,37.50
503,158263296,-0.2178,-1.0801,-0.1772,38.66,-196.40,36.83
504,158268296,-0.2124,-1.1035,-0.2114,38.29,-195.12,36.10
505,158273296,-0.2080,-1.1284,-0.2466,37.99,-193.54,34.94
506,158278296,-0.2080,-1.1558,-0.2817,37.32,-192.01,33.72
507,158283294,-0.1919,-1.1782,-0.3193,36.46,-190.30,32.20
508,158288298,-0.1841,-1.1948,-0.3535,35.55,-188.35,30.49
509,158293294,-0.1748,-1.2100,-0.3784,34.51,-186.16,28.66
510,158298296,-0.1597,-1.2285,-0.4121,33.60,-184.02,26.52
511,158303296,-0.1489,-1.2407,-0.4355,33.23,-181.59,24.57
512,158308296,-0.1260,-1.2529,-0.4673,33.17,-179.09,22.44
513,158313296,-0.1133,-1.2559,-0.4941,33.41,-176.46,20.37
514,158318706,-0.0947,-1.2617,-0.5244,33.90,-173.78,18.35
515,158323297,-0.0728,-1.2617,-0.5420,34.27,-170.98,16.22
516,158328390,-0.0493,-1.2603,-0.5635,34.45,-167.93,13.96
517,158333296,-0.0269,-1.2559,-0.5884,34.21,-164.94,11.77
518,158338296,-0.0005,-1.2461,-0.6045,33.84,-161.22,8.96
519,158343296,0.0103,-1.2417,-0.6152,33.17,-158.72,7.20
520,158348296,0.0269,-1.2285,-0.6255,32.44,-155.24,4.57
521,158353296,0.0337,-1.2271,-0.6318,31.71,-151.89,2.01
522,158358296,0.0542,-1.2153,-0.6445,30.85,-148.23,-0.55
523,158363296,0.0723,-1.2095,-0.6509,30.18,-144.57,-3.11
524,158368297,0.0864,-1.2007,-0.6523,29.45,-140.79,-5.55
525,158373434,0.1060,-1.1958,-0.6450,28.90,-136.95,-7.80
526,158378778,0.1328,-1.1777,-0.6484,27.80,-132.20,-10.43
527,158383296,0.1475,-1.1655,-0.6445,27.13,-128.84,-12.13
528,158388295,0.1680,-1.1572,-0.6489,25.73,-124.76,-14.02
529,158393296,0.1934,-1.1523,-0.6436,23.78,-120.67,-15.73
530,158398298,0.2173,-1.1323,-0.6367,21.59,-116.59,-17.50
531,158403296,0.2295,-1.1211,-0.6338,18.90,-112.44,-19.09
532,158408295,0.2412,-1.1113,-0.6353,16.22,-108.41,-20.55
533,158413296,0.2451,-1.0938,-0.6235,13.78,-104.21,-22.13
534,158418294,0.2612,-1.0752,-0.6123,11.65,-100.37,-23.60
535,158423346,0.2681,-1.0605,-0.6035,10.30,-96.22,-24.94
536,158428296,0.2856,-1.0430,-0.5967,9.63,-92.68,-25.91
537,158433631,0.2876,-1.0254,-0.5806,10.00,-88.23,-27.13
538,158438296,0.2881,-1.0137,-0.5664,11.22,-85.30,-27.74
539,158443296,0.2939,-0.9951,-0.5571,13.29,-81.71,-28.29
540,158448296,0.2964,-0.9800,-0.5415,16.77,-77.68,-28.84
541,158453296,0.3066,-0.9683,-0.5293,19.57,-75.00,-29.02
542,158458297,0.3081,-0.9502,-0.5156,22.93,-71.77,-29.02
543,158463296,0.3047,-0.9419,-0.4971,26.22,-68.66,-28.84
544,158468296,0.3193,-0.9224,-0.4756,29.02,-65.61,-28.54
545,158473296,0.3286,-0.9058,-0.4546,31.16,-62.68,-28.11
546,158478296,0.3345,-0.9004,-0.4336,32.38,-60.06,-27.68
547,158483296,0.3315,-0.8877,-0.4033,32.44,-57.32,-27.20
548,158488296,0.3301,-0.8745,-0.3872,32.01,-54.76,-26.52
549,158493296,0.3418,-0.8623,-0.3633,30.73,-52.50,-25.85
550,158498296,0.3428,-0.8467,-0.3511,27.93,-49.94,-25.00
551,158503296,0.3462,-0.8408,-0.3296,25.79,-47.99,-24.45
552,158508296,0.3452,-0.8232,-0.3188,22.68,-46.04,-23.66
553,158513296,0.3525,-0.8184,-0.2939,19.27,-44.21,-22.87
554,158518295,0.3535,-0.8076,-0.2822,15.67,-42.38,-21.89
555,158523297,0.3540,-0.7988,-0.2720,12.32,-40.79,-20.85
556,158528752,0.3696,-0.7866,-0.2466,8.48,-39.02,-19.57
557,158533297,0.3672,-0.7793,-0.2344,6.34,-37.74,-18.66
558,158538295,0.3647,-0.7749,-0.2231,4.02,-36.46,-17.50
559,158543296,0.3799,-0.7676,-0.2119,2.32,-35.43,-16.34
560,158548294,0.3809,-0.7656,-0.2031,1.04,-34.33,-14.94
561,158553296,0.3838,-0.7612,-0.1782,0.67,-33.41,-13.29
562,158558741,0.3916,-0.7656,-0.1714,1.04,-32.62,-11.71
563,158563296,0.3936,-0.7627,-0.1606,2.13,-31.83,-10.24
564,158568296,0.3999,-0.7627,-0.1523,3.54,-31.22,-8.72
565,158573296,0.3999,-0.7603,-0.1479,5.12,-30.49,-7.07
566,158578296,0.4048,-0.7612,-0.1372,6.65,-30.00,-5.43
567,158583296,0.4023,-0.7661,-0.1367,7.87,-29.33,-3.66
568,158588296,0.4038,-0.7720,-0.1240,8.78,-28.84,-2.26
569,158593296,0.4146,-0.7749,-0.1162,8.84,-28.17,-0.67
570,158598296,0.4136,-0.7803,-0.1089,8.41,-27.38,0.73
571,158603296,0.4097,-0.7886,-0.1050,7.07,-26.83,2.20
572,158608296,0.4150,-0.7930,-0.0884,5.43,-26.16,3.48
573,158613296,0.4243,-0.7979,-0.0806,3.23,-25.43,4.45
574,158618296,0.4209,-0.8081,-0.0752,0.73,-24.70,5.49
575,158623296,0.4126,-0.8179,-0.0776,-2.07,-24.02,6.28
576,158628296,0.4209,-0.8218,-0.0688,-4.70,-23.35,7.13
577,158633296,0.4243,-0.8252,-0.0742,-7.13,-22.62,7.87
578,158638295,0.4233,-0.8330,-0.0693,-9.45,-21.89,8.41
579,158643297,0.4272,-0.8394,-0.0781,-11.52,-20.98,9.15
580,158648296,0.4214,-0.8438,-0.0806,-12.87,-20.24,9.70
581,158653296,0.4238,-0.8540,-0.0830,-13.78,-19.39,10.24
582,158658296,0.4287,-0.8569,-0.0791,-13.90,-18.48,10.61
583,158663297,0.4292,-0.8638,-0.0781,-13.54,-17.50,10.79
584,158668296,0.4331,-0.8667,-0.0776,-12.87,-16.59,11.16
585,158673296,0.4282,-0.8711,-0.0791,-11.95,-15.61,11.34
586,158678296,0.4355,-0.8809,-0.0723,-10.79,-14.39,11.34
587,158683296,0.4253,-0.8828,-0.0786,-9.70,-13.23,11.40
588,158688296,0.4331,-0.8892,-0.0781,-9.02,-11.95,11.22
589,158693296,0.4316,-0.8955,-0.0757,-8.54,-10.61,11.34
590,158698294,0.4346,-0.9014,-0.0801,-8.29,-9.57,11.16
591,158703294,0.4341,-0.9067,-0.0762,-8.29,-8.17,11.04
592,158708294,0.4443,-0.9092,-0.0747,-8.35,-6.77,10.98
593,158713294,0.4429,-0.9194,-0.0737,-8.66,-5.55,10.85
594,158718294,0.4419,-0.9263,-0.0688,-8.96,-4.21,10.61
595,158723298,0.4453,-0.9238,-0.0723,-9.02,-2.87,10.37
596,158728339,0.4448,-0.9282,-0.0640,-9.09,-1.65,10.30
597,158733715,0.4473,-0.9326,-0.0664,-9.15,-0.30,10.06
598,158738296,0.4487,-0.9341,-0.0674,-9.09,0.85,9.82
599,158743296,0.4521,-0.9360,-0.0649,-8.60,2.01,9.63
600,158748296,0.4531,-0.9365,-0.0596,-8.17,3.11,9.39
601,158753296,0.4575,-0.9380,-0.0542,-7.56,4.27,9.09
602,158758716,0.4507,-0.9395,-0.0469,-7.01,5.18,8.72
603,158763296,0.4590,-0.9375,-0.0449,-6.46,5.98,8.54
604,158768296,0.4565,-0.9448,-0.0356,-5.91,6.71,8.17
605,158773296,0.4536,-0.9497,-0.0356,-5.67,7.56,7.87
606,158778296,0.4629,-0.9492,-0.0303,-5.49,8.17,7.56
607,158783296,0.4580,-0.9478,-0.0264,-5.37,8.72,7.26
608,158788296,0.4585,-0.9526,-0.0229,-5.24,9.09,7.01
609,158793296,0.4673,-0.9517,-0.0205,-4.94,9.63,6.83
610,158798296,0.4648,-0.9517,-0.0156,-4.63,10.00,6.59
611,158803296,0.4663,-0.9492,-0.0156,-4.33,10.06,6.59
612,158808757,0.4653,-0.9541,-0.0107,-4.09,10.24,6.40
613,158813296,0.4658,-0.9541,-0.0078,-3.84,10.30,6.22
614,158818296,0.4639,-0.9541,-0.0059,-3.84,10.24,6.16
615,158823296,0.4546,-0.9580,-0.0015,-3.90,10.37,6.04
616,158828651,0.4561,-0.9570,-0.0078,-4.33,10.49,5.85
617,158833296,0.4541,-0.9619,-0.0039,-4.94,10.43,5.73
618,158838394,0.4565,-0.9609,-0.0073,-5.98,10.55,5.49
619,158843295,0.4580,-0.9619,-0.0020,-7.32,10.43,5.43
620,158848296,0.4570,-0.9570,0.0000,-9.02,10.43,5.43
621,158853296,0.4507,-0.9536,-0.0044,-10.79,10.73,5.49
622,158858296,0.4453,-0.9561,-0.0078,-12.80,10.73,5.43
623,158863786,0.4453,-0.9580,-0.0107,-15.30,11.10,5.67
624,158868296,0.4531,-0.9497,-0.0195,-16.89,11.22,5.85
625,158873296,0.4448,-0.9492,-0.0186,-18.66,11.28,6.04
626,158878296,0.4463,-0.9473,-0.0220,-20.43,11.46,6.28
627,158883296,0.4536,-0.9424,-0.0269,-22.01,11.83,6.65
628,158888296,0.4482,-0.9365,-0.0454,-23.35,12.13,7.01
629,158893296,0.4478,-0.9375,-0.0444,-24.51,12.32,7.44
630,158898727,0.4258,-0.9346,-0.0601,-25.73,12.62,7.93
631,158903296,0.4360,-0.9341,-0.0576,-26.22,12.74,8.48
632,158908296,0.4404,-0.9517,-0.0933,-25.85,12.50,9.70
633,158913296,0.4399,-0.9424,-0.0693,-24.39,12.26,11.04
634,158918296,0.4346,-0.9199,-0.0371,-22.26,12.32,12.38
635,158923296,0.4351,-0.9341,-0.0723,-19.33,12.38,13.96
636,158928296,0.4155,-0.9048,-0.0728,-16.28,12.20,15.61
637,158933297,0.4146,-0.8911,-0.0566,-13.54,12.44,16.89
638,158938730,0.4497,-0.8818,-0.0972,-10.91,12.26,18.66
639,158943296,0.4194,-0.8643,-0.0737,-9.21,11.95,19.39
640,158948296,0.3965,-0.8701,-0.0854,-7.13,11.95,20.37
641,158953296,0.4082,-0.9292,-0.0967,-5.24,11.89,21.65
642,158958296,0.4072,-0.9331,-0.0854,-5.06,11.83,22.99
643,158963296,0.3711,-0.8667,-0.0264,-5.06,11.83,24.45
644,158968299,0.3740,-0.8589,-0.0400,-4.51,11.95,26.28
645,158973296,0.3491,-0.8325,-0.1016,-3.96,11.59,27.07
646,158978296,0.3179,-0.8550,-0.0527,-3.41,11.59,28.29
647,158983549,0.3086,-0.8486,-0.0156,-2.68,12.01,29.51
648,158988296,0.2886,-0.8872,-0.0449,-2.32,12.68,30.37
649,158993296,0.2759,-0.8687,-0.0693,-1.89,13.23,31.40
650,158998294,0.2720,-0.8462,-0.0308,-1.40,13.84,32.44
651,159003294,0.2598,-0.8140,-0.0127,-0.79,14.57,33.29
652,159008294,0.2471,-0.8057,-0.0537,0.30,15.24,34.09
653,159013294,0.2329,-0.8154,-0.0518,1.65,15.67,34.82
654,159018294,0.2285,-0.8340,-0.0068,3.35,16.40,35.49
655,159023296,0.2417,-0.8462,-0.0312,5.24,16.89,36.46
656,159028296,0.2529,-0.8398,-0.0083,8.05,17.20,37.50
657,159033294,0.2397,-0.8198,0.0225,9.70,17.62,38.29
658,159038296,0.2725,-0.7373,-0.0513,11.46,18.17,39.15
659,159043465,0.2563,-0.7817,-0.0010,10.79,17.99,39.02
660,159048296,0.2622,-0.7798,-0.0703,9.33,17.56,38.84
661,159053297,0.2744,-0.7925,-0.0869,6.95,16.95,39.09
662,159058296,0.2881,-0.8003,-0.0278,4.57,16.40,39.45
663,159063299,0.2666,-0.7988,-0.0166,2.01,15.98,39.88
664,159068303,0.2661,-0.7954,-0.0698,-0.55,15.30,40.30
665,159073294,0.2583,-0.8096,-0.0649,-2.87,14.57,40.85
666,159078294,0.2212,-0.8247,-0.0200,-5.18,14.45,41.34
667,159083296,0.2148,-0.8267,-0.0459,-7.38,14.27,41.89
668,159088295,0.2056,-0.8203,-0.0830,-9.02,13.84,42.20
669,159093294,0.1982,-0.8062,-0.0571,-10.73,13.66,42.56
670,159098296,0.1919,-0.8052,-0.0171,-12.26,13.96,42.74
671,159103294,0.1875,-0.8008,-0.0425,-13.66,14.39,42.80
672,159108294,0.1846,-0.8110,-0.0596,-15.00,14.70,42.93
673,159113325,0.1797,-0.8130,-0.0308,-16.46,15.30,43.05
674,159118298,0.1694,-0.8203,0.0010,-18.05,16.28,42.99
675,159123705,0.1660,-0.8252,-0.0259,-19.76,17.32,42.99
676,159128296,0.1519,-0.8203,-0.0415,-21.40,18.11,42.99
677,159133296,0.1465,-0.8203,-0.0078,-23.41,19.15,42.87
678,159138295,0.1348,-0.8242,-0.0117,-25.55,20.55,42.87
679,159143296,0.1318,-0.8242,-0.0322,-27.74,21.65,42.87
680,159148298,0.1211,-0.8335,-0.0249,-30.24,22.87,42.93
681,159153295,0.1221,-0.8350,-0.0039,-32.68,24.15,42.93
682,159158296,0.1118,-0.8364,-0.0083,-35.12,25.43,42.93
683,159163296,0.1064,-0.8359,-0.0273,-37.80,26.65,42.99
684,159168296,0.1021,-0.8418,-0.0312,-40.49,27.74,43.11
685,159173297,0.0977,-0.8408,-0.0088,-43.17,29.02,43.17
686,159178296,0.0884,-0.8418,-0.0210,-45.98,30.18,43.23
687,159183296,0.0884,-0.8477,-0.0381,-48.78,31.16,43.35
688,159188363,0.0942,-0.8491,-0.0210,-51.65,32.32,43.66
689,159193294,0.0889,-0.8521,-0.0098,-54.33,33.48,43.84
690,159198746,0.0796,-0.8472,-0.0332,-56.71,34.51,43.96
691,159203296,0.0801,-0.8506,-0.0449,-59.02,35.24,44.21
692,159208296,0.0728,-0.8452,-0.0312,-61.16,36.10,44.39
693,159213323,0.0811,-0.8423,-0.0288,-63.11,36.89,44.57
694,159218295,0.0762,-0.8403,-0.0415,-65.18,37.56,44.76
695,159223296,0.0845,-0.8418,-0.0444,-67.26,37.99,44.88
696,159228296,0.0820,-0.8472,-0.0371,-69.27,38.66,45.12
697,159233296,0.0884,-0.8491,-0.0312,-71.46,39.27,45.55
698,159238296,0.0874,-0.8496,-0.0488,-73.48,40.06,45.85
699,159243296,0.0791,-0.8555,-0.0459,-75.79,40.30,46.28
700,159248295,0.0806,-0.8550,-0.0386,-78.11,40.91,46.77
701,159253296,0.0806,-0.8555,-0.0508,-80.30,41.40,47.32
702,159258298,0.0728,-0.8599,-0.0518,-82.74,41.95,47.93
703,159263295,0.0713,-0.8618,-0.0532,-84.88,42.32,48.48
704,159268704,0.0679,-0.8672,-0.0503,-87.20,42.68,49.02
705,159273296,0.0581,-0.8677,-0.0688,-89.33,43.11,49.70
706,159278300,0.0581,-0.8682,-0.0737,-91.28,43.41,50.24
707,159283307,0.0645,-0.8691,-0.0781,-93.72,43.96,50.79
708,159288297,0.0562,-0.8730,-0.0713,-95.73,44.39,51.46
709,159293296,0.0537,-0.8750,-0.0913,-97.38,44.63,52.01
710,159298296,0.0557,-0.8706,-0.0884,-99.45,45.24,52.44
711,159303298,0.0508,-0.8716,-0.0830,-101.71,45.43,53.05
712,159308296,0.0317,-0.8721,-0.0869,-103.90,46.10,53.60
713,159313296,0.0396,-0.8755,-0.1011,-106.04,46.52,54.33
714,159318297,0.0405,-0.8716,-0.1089,-108.54,47.01,54.94
715,159323296,0.0430,-0.8716,-0.1152,-110.00,47.38,55.30
716,159328296,0.0332,-0.8750,-0.1235,-112.01,47.68,55.85
717,159333295,0.0342,-0.8857,-0.1313,-113.72,48.29,56.71
718,159338296,0.0215,-0.8911,-0.1362,-115.30,48.72,57.38
719,159343296,0.0273,-0.8921,-0.1357,-116.65,49.27,58.17
720,159348296,0.0229,-0.8965,-0.1436,-117.87,49.57,59.09
721,159353778,0.0195,-0.9028,-0.1611,-118.96,50.18,60.24
722,159358297,0.0112,-0.9048,-0.1636,-119.45,50.61,61.16
723,159363296,0.0093,-0.9131,-0.1660,-120.00,51.16,62.32
724,159368738,0.0015,-0.9204,-0.1807,-119.88,51.83,63.96
725,159373296,-0.0034,-0.9214,-0.1895,-119.63,52.38,65.12
726,159378297,-0.0010,-0.9258,-0.1885,-119.09,53.11,66.83
727,159383295,0.0010,-0.9238,-0.1880,-118.11,53.78,68.35
728,159388294,0.0000,-0.9263,-0.2031,-116.77,54.45,70.00
729,159393294,0.0015,-0.9307,-0.2065,-115.24,55.12,72.01
730,159398294,0.0034,-0.9253,-0.2158,-113.29,55.85,73.78
731,159403294,0.0020,-0.9253,-0.2144,-111.16,56.52,75.73
732,159408294,0.0005,-0.9224,-0.2188,-108.60,57.20,77.87
733,159413296,0.0112,-0.9194,-0.2319,-106.10,57.80,79.88
734,159418295,0.0049,-0.9170,-0.2314,-103.35,58.48,81.89
735,159423296,0.0078,-0.9111,-0.2388,-100.55,58.96,83.90
736,159428469,0.0063,-0.9072,-0.2407,-97.62,59.76,85.61
737,159433296,0.0044,-0.9038,-0.2544,-94.76,60.12,87.01
738,159438296,0.0024,-0.9048,-0.2524,-91.83,60.73,89.33
739,159443297,0.0000,-0.9004,-0.2603,-88.90,61.52,91.10
740,159448296,0.0054,-0.8979,-0.2656,-85.79,61.95,93.05
741,159453296,0.0010,-0.8955,-0.2666,-82.68,62.56,94.63
742,159458295,-0.0044,-0.8940,-0.2661,-79.02,63.17,96.52
743,159463296,-0.0029,-0.8906,-0.2764,-76.46,63.66,97.74
744,159468296,-0.0068,-0.8843,-0.2788,-73.35,64.45,99.09
745,159473296,-0.0122,-0.8867,-0.2920,-70.18,65.00,100.55
746,159478296,-0.0215,-0.8896,-0.2993,-66.59,65.73,102.07
747,159483296,-0.0254,-0.8965,-0.3003,-64.45,66.22,102.99
748,159488295,-0.0352,-0.9097,-0.3115,-61.89,66.77,104.27
749,159493296,-0.0386,-0.9229,-0.3135,-59.39,67.32,105.98
750,159498296,-0.0371,-0.9248,-0.3091,-57.87,67.74,107.20
751,159503296,-0.0454,-0.9346,-0.3145,-55.98,68.35,108.72
752,159508296,-0.0381,-0.9292,-0.3096,-53.90,69.15,110.37
753,159513298,-0.0415,-0.9302,-0.3135,-52.50,69.76,111.40
754,159518296,-0.0449,-0.9277,-0.3164,-50.55,70.55,112.80
755,159523296,-0.0552,-0.9297,-0.3223,-48.23,71.10,113.96
756,159528296,-0.0591,-0.9336,-0.3218,-46.16,71.65,115.12
757,159533296,-0.0713,-0.9399,-0.3198,-43.41,72.32,116.59
758,159538296,-0.0781,-0.9385,-0.3193,-41.28,72.99,117.68
759,159543296,-0.0854,-0.9419,-0.3306,-38.96,73.48,118.72
760,159548295,-0.0854,-0.9399,-0.3291,-36.65,74.09,119.51
761,159553297,-0.0845,-0.9380,-0.3350,-34.27,74.63,120.49
762,159558296,-0.0952,-0.9443,-0.3354,-32.07,75.00,121.34
763,159563294,-0.0952,-0.9512,-0.3418,-29.63,75.37,122.07
764,159568296,-0.1011,-0.9438,-0.3423,-27.56,75.67,122.74
765,159573296,-0.1055,-0.9453,-0.3359,-25.18,75.98,123.41
766,159578296,-0.1118,-0.9551,-0.3442,-23.05,76.34,124.02
767,159583296,-0.1255,-0.9595,-0.3467,-20.85,76.59,124.33
768,159588445,-0.1250,-0.9692,-0.3574,-18.84,76.59,124.88
769,159593296,-0.1357,-0.9829,-0.3574,-16.89,76.77,125.49
770,159598770,-0.1421,-0.9868,-0.3516,-15.18,76.89,126.04
771,159603296,-0.1445,-0.9932,-0.3550,-13.48,77.13,126.52
772,159608296,-0.1504,-0.9937,-0.3457,-11.83,77.44,127.01
773,159613296,-0.1606,-0.9922,-0.3540,-10.18,77.74,127.44
774,159618296,-0.1592,-0.9902,-0.3545,-8.54,77.99,127.56
775,159623296,-0.1689,-0.9893,-0.3525,-6.59,78.29,127.62
776,159628296,-0.1670,-0.9839,-0.3550,-4.82,78.35,127.74
777,159633300,-0.1743,-0.9844,-0.3506,-2.74,78.66,127.44
778,159638296,-0.1699,-0.9790,-0.3428,-0.61,78.78,127.13
779,159643296,-0.1787,-0.9756,-0.3423,1.71,79.15,126.59
780,159648343,-0.1860,-0.9663,-0.3477,4.15,79.39,125.79
781,159653295,-0.2012,-0.9634,-0.3447,6.71,79.51,124.94
782,159658490,-0.2021,-0.9668,-0.3491,9.15,79.63,124.09
783,159663294,-0.2124,-0.9727,-0.3462,11.59,79.70,123.05
784,159668296,-0.2251,-0.9785,-0.3496,13.72,79.88,122.01
785,159673296,-0.2334,-0.9834,-0.3428,15.73,79.88,121.04
786,159678299,-0.2378,-0.9932,-0.3496,17.13,79.88,120.00
787,159683297,-0.2480,-1.0054,-0.3530,18.17,79.88,119.02
788,159688295,-0.2529,-1.0171,-0.3467,18.72,79.82,118.05
789,159693736,-0.2627,-1.0376,-0.3457,18.60,79.70,117.13
790,159698296,-0.2671,-1.0576,-0.3452,18.29,79.51,116.28
791,159703294,-0.2734,-1.0649,-0.3467,17.50,79.15,115.67
792,159708294,-0.2651,-1.0601,-0.3335,16.59,78.90,114.88
793,159713296,-0.2681,-1.0581,-0.3335,15.61,78.48,114.02
794,159718296,-0.2734,-1.0615,-0.3354,14.94,77.93,113.05
795,159723296,-0.2827,-1.0679,-0.3418,14.15,77.32,112.07
796,159728296,-0.2930,-1.0732,-0.3340,13.78,76.71,111.10
797,159733295,-0.2939,-1.0732,-0.3359,13.66,75.98,110.06
798,159738296,-0.2993,-1.0767,-0.3335,13.84,75.37,109.09
799,159743296,-0.3008,-1.0649,-0.3232,14.33,74.57,107.93
800,159748296,-0.3008,-1.0562,-0.3218,15.30,73.72,106.59
801,159753301,-0.3130,-1.0552,-0.3198,16.77,73.05,105.37
802,159758295,-0.3159,-1.0571,-0.3296,18.35,72.07,103.84
803,159763296,-0.3247,-1.0654,-0.3247,20.12,71.04,102.50
804,159768746,-0.3247,-1.0771,-0.3301,21.95,69.88,101.10
805,159773296,-0.3271,-1.0874,-0.3350,23.48,68.66,100.00
806,159778298,-0.3335,-1.0972,-0.3384,24.45,67.13,98.84
807,159783295,-0.3145,-1.0454,-0.2959,25.43,65.79,97.44
808,159788775,-0.3047,-1.0259,-0.2847,26.83,64.88,95.55
809,159793296,-0.3247,-1.0361,-0.3032,28.17,63.84,93.54
810,159798295,-0.3394,-1.0376,-0.3223,29.63,62.20,91.46
811,159803647,-0.3389,-1.0356,-0.3125,31.04,60.49,89.76
812,159808296,-0.3354,-1.0322,-0.2935,32.26,59.09,86.77
813,159813298,-0.3291,-1.0288,-0.2964,33.60,57.87,85.98
814,159818295,-0.3354,-1.0376,-0.3003,34.88,56.71,83.11
815,159823628,-0.3403,-1.0342,-0.2949,36.10,55.37,80.79
816,159828296,-0.3574,-1.0361,-0.2891,37.56,54.15,78.35
817,159833294,-0.3491,-1.0293,-0.2944,39.02,52.80,75.98
818,159838298,-0.3521,-1.0288,-0.2920,40.37,51.59,73.54
819,159843296,-0.3467,-1.0327,-0.2832,41.77,50.18,71.28
820,159848296,-0.3521,-1.0376,-0.2812,42.99,49.02,69.02
821,159853506,-0.3516,-1.0337,-0.2808,44.09,47.87,66.71
822,159858298,-0.3564,-1.0347,-0.2788,44.82,46.46,64.33
823,159863296,-0.3516,-1.0342,-0.2798,45.43,45.00,61.52
824,159868296,-0.3540,-1.0249,-0.2734,45.67,43.90,59.51
825,159873296,-0.3511,-1.0259,-0.2729,45.91,42.38,57.20
826,159878296,-0.3599,-1.0186,-0.2715,45.85,41.10,54.63
827,159883296,-0.3525,-1.0151,-0.2666,45.55,39.76,52.07
828,159888296,-0.3589,-1.0156,-0.2686,45.12,38.29,49.76
829,159893296,-0.3569,-1.0176,-0.2681,44.45,36.77,47.44
830,159898296,-0.3540,-1.0112,-0.2588,43.66,35.43,45.06
831,159903296,-0.3623,-1.0083,-0.2554,42.87,34.02,42.80
832,159908764,-0.3604,-1.0063,-0.2515,41.52,32.50,40.18
833,159913296,-0.3633,-1.0093,-0.2515,40.37,31.40,38.41
834,159918296,-0.3643,-1.0044,-0.2471,38.96,30.00,36.16
835,159923296,-0.3657,-1.0024,-0.2495,37.26,28.66,34.15
836,159928296,-0.3594,-0.9985,-0.2495,35.12,26.95,31.65
837,159933296,-0.3628,-0.9971,-0.2539,33.78,25.67,29.94
838,159938296,-0.3560,-0.9912,-0.2544,32.13,24.15,27.87
839,159943296,-0.3477,-0.9873,-0.2505,30.85,22.56,25.79
840,159948296,-0.3506,-0.9814,-0.2461,29.45,21.10,23.78
841,159953296,-0.3442,-0.9746,-0.2437,28.35,19.45,21.52
842,159958296,-0.3457,-0.9673,-0.2505,27.38,17.87,19.51
843,159963296,-0.3457,-0.9614,-0.2437,26.71,16.34,17.38
844,159968296,-0.3472,-0.9575,-0.2407,26.04,14.88,15.37
845,159973296,-0.3408,-0.9497,-0.2422,25.67,13.35,13.29
846,159978296,-0.3408,-0.9443,-0.2383,25.18,11.89,11.28
847,159983296,-0.3433,-0.9360,-0.2383,24.76,10.67,9.21
848,159988295,-0.3442,-0.9346,-0.2368,24.21,9.15,7.20
