# skilleye imu stream v1
# device=xiao_esp32c6 imu=mpu6050 addr=0x68
# rate_hz=200 accel_range_g=16 gyro_range_dps=2000 dlpf_hz=94
# units: accel in g, gyro in deg/s, t_us in microseconds since boot (monotonic)
# no shared clock with the camera -- tap the racket once before each take
# so both recordings share a spike to align on
seq,t_us,ax,ay,az,gx,gy,gz
0,57058847,-0.8311,0.1001,0.5762,-62.07,16.34,24.76
1,57063847,-0.8350,0.0991,0.5732,-61.71,16.10,24.51
2,57068848,-0.8418,0.1011,0.5767,-61.22,15.98,24.27
3,57074160,-0.8530,0.0967,0.5806,-60.49,15.55,23.96
4,57078848,-0.8569,0.1006,0.5771,-59.70,15.37,23.84
5,57083847,-0.8647,0.1021,0.5771,-58.54,14.88,23.60
6,57088847,-0.8701,0.0991,0.5776,-57.32,14.45,23.48
7,57094046,-0.8779,0.1011,0.5874,-55.67,13.90,23.35
8,57099176,-0.8838,0.0952,0.5864,-54.02,13.60,23.23
9,57103847,-0.8804,0.0977,0.5835,-52.74,13.23,22.93
10,57108847,-0.8862,0.0938,0.5815,-50.49,12.87,23.05
11,57113847,-0.8813,0.1001,0.5874,-48.60,12.56,22.93
12,57118850,-0.8818,0.0972,0.5889,-46.83,12.26,22.99
13,57123846,-0.8838,0.0986,0.5879,-44.88,11.77,22.93
14,57128845,-0.8921,0.0996,0.5923,-42.68,11.40,22.87
15,57133946,-0.9004,0.1001,0.5874,-40.06,11.04,22.87
16,57138849,-0.9077,0.1055,0.5811,-38.29,10.67,22.68
17,57143846,-0.9199,0.1021,0.5898,-36.16,10.30,22.68
18,57148845,-0.9297,0.1050,0.5884,-34.02,9.82,22.62
19,57154040,-0.9424,0.1045,0.5884,-31.65,9.15,22.56
20,57158849,-0.9492,0.1040,0.5781,-29.88,8.90,22.50
21,57163846,-0.9644,0.0986,0.5874,-27.93,8.29,22.68
22,57168849,-0.9731,0.1035,0.5894,-25.91,7.87,22.56
23,57173846,-0.9756,0.0967,0.5879,-23.96,7.44,22.68
24,57178849,-0.9780,0.1006,0.5903,-22.32,6.95,22.68
25,57183847,-0.9780,0.1021,0.5830,-20.79,6.40,22.56
26,57188847,-0.9678,0.1021,0.5806,-19.39,6.04,22.38
27,57193847,-0.9565,0.1001,0.5820,-18.23,5.55,22.20
28,57198850,-0.9517,0.1045,0.5732,-17.38,5.12,22.01
29,57203847,-0.9429,0.1016,0.5713,-16.46,4.63,21.83
30,57208847,-0.9316,0.1030,0.5693,-15.73,4.21,21.52
31,57214141,-0.9199,0.1016,0.5713,-15.30,3.78,21.04
32,57219016,-0.9097,0.1025,0.5713,-15.06,3.41,20.67
33,57224337,-0.8999,0.0986,0.5586,-14.70,2.93,20.18
34,57228847,-0.8960,0.0991,0.5547,-14.51,2.80,19.82
35,57233847,-0.8887,0.0977,0.5625,-14.39,2.32,19.33
36,57238847,-0.8779,0.0957,0.5654,-14.21,2.07,18.96
37,57243846,-0.8745,0.0972,0.5605,-14.02,1.71,18.48
38,57248847,-0.8623,0.1006,0.5596,-13.90,1.34,17.87
39,57253847,-0.8589,0.0952,0.5625,-13.90,1.04,17.38
40,57258919,-0.8584,0.0923,0.5566,-13.96,0.61,16.89
41,57263847,-0.8511,0.0923,0.5581,-13.84,0.37,16.34
42,57268849,-0.8472,0.0981,0.5522,-14.15,-0.06,15.73
43,57273893,-0.8501,0.0967,0.5483,-14.21,-0.43,15.24
44,57278847,-0.8477,0.0957,0.5493,-14.45,-0.91,14.45
45,57283846,-0.8496,0.0986,0.5493,-14.63,-1.52,13.84
46,57288847,-0.8535,0.1025,0.5454,-14.88,-2.01,13.17
47,57293847,-0.8555,0.1016,0.5537,-15.24,-2.62,12.26
48,57298847,-0.8521,0.1064,0.5474,-15.49,-3.17,11.46
49,57303847,-0.8647,0.1064,0.5518,-15.91,-3.96,10.79
50,57308848,-0.8691,0.1089,0.5488,-16.10,-4.51,10.00
51,57313845,-0.8848,0.1074,0.5444,-16.34,-5.24,9.09
52,57318847,-0.8945,0.1162,0.5425,-16.52,-5.91,8.29
53,57323847,-0.8984,0.1221,0.5464,-16.65,-6.71,7.44
54,57328845,-0.9004,0.1138,0.5396,-16.89,-7.56,6.59
55,57333847,-0.9033,0.1196,0.5405,-16.52,-8.48,5.91
56,57338847,-0.8950,0.1040,0.5225,-16.52,-9.27,5.12
57,57344146,-0.8955,0.1206,0.5620,-15.73,-10.18,4.27
58,57348855,-0.9097,0.1265,0.5273,-15.12,-10.55,3.72
59,57353847,-0.9243,0.1284,0.5273,-14.39,-11.34,3.11
60,57358850,-0.9292,0.1250,0.5342,-13.60,-12.13,2.44
61,57364157,-0.9258,0.1299,0.5298,-12.44,-12.99,1.59
62,57368851,-0.9160,0.1289,0.5234,-11.52,-13.41,1.16
63,57373847,-0.9106,0.1265,0.5278,-10.43,-13.96,0.67
64,57378847,-0.9058,0.1289,0.5288,-8.78,-14.51,0.24
65,57383847,-0.9033,0.1235,0.5225,-6.71,-15.12,-0.30
66,57388847,-0.8989,0.1235,0.5254,-5.18,-15.37,-0.43
67,57393846,-0.8950,0.1216,0.5210,-3.17,-15.49,-0.67
68,57398846,-0.8916,0.1182,0.5264,-1.04,-15.79,-0.98
69,57403845,-0.8936,0.1191,0.5225,1.10,-15.73,-0.98
70,57408848,-0.8857,0.1187,0.5278,3.05,-15.91,-0.98
71,57413845,-0.8799,0.1196,0.5254,4.94,-15.85,-1.10
72,57418846,-0.8838,0.1226,0.5293,6.89,-15.85,-1.16
73,57424066,-0.8838,0.1206,0.5312,8.60,-15.67,-1.22
74,57428847,-0.8828,0.1221,0.5308,10.12,-15.73,-1.28
75,57433847,-0.8823,0.1289,0.5298,11.52,-15.49,-1.34
76,57438846,-0.8848,0.1294,0.5312,12.80,-15.30,-1.34
77,57443847,-0.8857,0.1323,0.5312,13.90,-15.30,-1.34
78,57448849,-0.8887,0.1362,0.5298,14.82,-15.00,-1.46
79,57453846,-0.8965,0.1343,0.5376,15.67,-14.94,-1.34
80,57458845,-0.9023,0.1353,0.5342,16.40,-14.70,-1.46
81,57463933,-0.9048,0.1387,0.5376,17.01,-14.57,-1.28
82,57468847,-0.9067,0.1406,0.5449,17.50,-14.27,-1.40
83,57473847,-0.9082,0.1431,0.5479,17.62,-14.21,-1.28
84,57478847,-0.9062,0.1445,0.5464,17.87,-13.84,-1.10
85,57483847,-0.9087,0.1489,0.5444,17.93,-13.90,-0.79
86,57488847,-0.9121,0.1450,0.5405,17.74,-13.72,-0.67
87,57494018,-0.9087,0.1494,0.5410,17.20,-13.72,-0.43
88,57499047,-0.9136,0.1523,0.5376,16.59,-13.78,-0.24
89,57503847,-0.9189,0.1572,0.5366,15.61,-13.84,0.00
90,57508847,-0.9224,0.1616,0.5376,14.63,-13.84,0.12
91,57513847,-0.9248,0.1592,0.5381,13.48,-13.96,0.43
92,57518847,-0.9248,0.1626,0.5352,12.20,-14.09,0.79
93,57523847,-0.9214,0.1646,0.5361,10.73,-14.21,1.10
94,57528847,-0.9224,0.1606,0.5381,9.27,-14.39,1.40
95,57533846,-0.9170,0.1724,0.5405,7.87,-14.57,1.71
96,57538847,-0.9141,0.1729,0.5498,6.46,-14.63,2.01
97,57543847,-0.9141,0.1743,0.5474,5.06,-14.70,2.32
98,57548849,-0.9082,0.1807,0.5483,3.60,-14.76,2.62
99,57553847,-0.9058,0.1846,0.5474,2.38,-14.94,2.80
100,57558847,-0.9033,0.1860,0.5513,1.34,-14.88,3.11
101,57563846,-0.9023,0.1924,0.5479,0.37,-14.94,3.35
102,57568946,-0.8999,0.1929,0.5469,-0.49,-14.88,3.60
103,57573846,-0.9009,0.1978,0.5513,-1.22,-14.94,3.72
104,57578847,-0.8984,0.2021,0.5552,-1.65,-14.82,3.90
105,57583902,-0.8916,0.2036,0.5557,-1.71,-14.63,4.09
106,57588847,-0.8916,0.2065,0.5620,-1.77,-14.45,4.39
107,57593848,-0.8853,0.2070,0.5562,-1.59,-14.21,4.76
108,57598847,-0.8843,0.2100,0.5688,-1.22,-14.21,5.06
109,57603847,-0.8833,0.2144,0.5654,-1.04,-14.09,5.43
110,57608846,-0.8887,0.2168,0.5713,-0.67,-13.78,5.85
111,57613847,-0.8843,0.2163,0.5737,-0.55,-13.84,6.28
112,57618849,-0.8906,0.2256,0.5688,-0.43,-13.90,6.71
113,57623847,-0.8936,0.2271,0.5708,-0.43,-13.72,7.26
114,57628846,-0.8994,0.2344,0.5747,-0.49,-13.78,7.80
115,57633846,-0.9028,0.2397,0.5781,-0.61,-13.84,8.29
116,57638877,-0.9111,0.2471,0.5801,-0.73,-13.72,8.66
117,57643849,-0.9072,0.2549,0.5854,-0.85,-13.72,9.21
118,57648845,-0.9072,0.2568,0.5889,-0.85,-13.72,9.63
119,57653847,-0.9004,0.2573,0.5840,-0.91,-13.72,10.12
120,57658849,-0.8945,0.2593,0.5801,-0.85,-13.66,10.61
121,57664059,-0.8882,0.2637,0.5874,-0.98,-13.66,11.22
122,57668847,-0.8838,0.2686,0.5815,-1.22,-13.90,11.77
123,57673847,-0.8818,0.2700,0.5854,-1.52,-13.84,12.26
124,57678849,-0.8813,0.2739,0.5781,-2.07,-14.21,12.80
125,57683847,-0.8799,0.2729,0.5835,-2.44,-14.21,13.29
126,57689225,-0.8799,0.2734,0.5894,-2.93,-14.39,13.96
127,57694078,-0.8760,0.2764,0.5884,-3.54,-14.57,14.63
128,57698847,-0.8735,0.2778,0.5889,-3.96,-14.51,15.43
129,57703936,-0.8784,0.2749,0.5938,-4.33,-14.57,16.16
130,57709133,-0.8784,0.2734,0.5947,-4.51,-14.70,17.07
131,57714145,-0.8838,0.2734,0.5977,-4.51,-14.76,17.99
132,57719105,-0.8833,0.2725,0.5981,-4.15,-14.76,19.09
133,57724141,-0.8843,0.2739,0.6050,-3.72,-14.76,20.18
134,57729058,-0.8857,0.2739,0.6045,-3.23,-14.88,21.34
135,57734150,-0.8843,0.2725,0.6045,-2.56,-14.88,22.44
136,57738847,-0.8833,0.2754,0.6123,-1.95,-14.70,23.66
137,57743847,-0.8877,0.2754,0.6118,-1.34,-14.88,24.82
138,57748847,-0.8892,0.2832,0.6074,-0.55,-14.70,25.91
139,57754351,-0.8848,0.2871,0.6133,0.06,-14.63,26.71
140,57758849,-0.8823,0.2910,0.6133,0.49,-14.76,27.74
141,57763846,-0.8828,0.2910,0.6245,0.85,-14.63,28.54
142,57768847,-0.8789,0.2910,0.6216,1.22,-14.63,29.45
143,57773847,-0.8828,0.2900,0.6172,1.40,-14.63,30.06
144,57778846,-0.8857,0.2930,0.6226,1.65,-14.63,30.85
145,57784215,-0.8877,0.2954,0.6221,1.59,-14.51,31.52
146,57788848,-0.8809,0.2935,0.6211,1.52,-14.57,32.26
147,57793847,-0.8813,0.2954,0.6274,1.28,-14.45,32.74
148,57798847,-0.8774,0.2915,0.6284,1.22,-14.27,33.35
149,57803847,-0.8721,0.2944,0.6309,1.04,-14.33,33.84
150,57808846,-0.8677,0.2886,0.6270,0.85,-14.02,34.45
151,57813846,-0.8618,0.2856,0.6318,0.73,-13.84,34.88
152,57818847,-0.8579,0.2856,0.6255,0.55,-13.60,35.55
153,57823846,-0.8535,0.2856,0.6348,0.24,-13.48,36.22
154,57828846,-0.8516,0.2822,0.6353,0.12,-13.41,36.77
155,57833845,-0.8452,0.2798,0.6274,-0.12,-13.23,37.26
156,57838845,-0.8398,0.2788,0.6255,-0.43,-13.23,37.87
157,57843845,-0.8423,0.2773,0.6270,-0.98,-13.23,38.41
158,57848845,-0.8369,0.2744,0.6226,-1.65,-13.11,39.15
159,57853845,-0.8335,0.2764,0.6221,-2.32,-13.05,39.76
160,57858846,-0.8340,0.2764,0.6279,-3.41,-13.11,40.30
161,57863845,-0.8291,0.2749,0.6284,-4.51,-13.11,40.98
162,57868845,-0.8320,0.2739,0.6255,-5.55,-13.17,41.40
163,57873845,-0.8257,0.2725,0.6313,-6.71,-13.05,42.13
164,57878845,-0.8247,0.2710,0.6284,-7.80,-13.23,42.68
165,57883845,-0.8184,0.2734,0.6245,-8.54,-13.11,43.29
166,57888845,-0.8140,0.2725,0.6328,-9.51,-12.93,43.90
167,57893845,-0.8154,0.2759,0.6333,-10.24,-12.93,44.51
168,57898845,-0.8140,0.2710,0.6372,-10.98,-12.50,45.00
169,57903845,-0.8096,0.2729,0.6353,-11.46,-12.32,45.61
170,57908845,-0.8086,0.2734,0.6353,-12.13,-12.07,46.04
171,57913845,-0.8071,0.2778,0.6362,-12.74,-11.65,46.34
172,57918845,-0.8062,0.2778,0.6338,-13.41,-11.28,46.65
173,57923845,-0.8027,0.2764,0.6313,-14.15,-10.91,47.13
174,57928845,-0.7993,0.2764,0.6348,-14.57,-10.67,47.38
175,57933845,-0.8008,0.2729,0.6309,-14.94,-10.30,47.68
176,57938902,-0.8042,0.2734,0.6313,-15.37,-9.70,48.05
177,57943845,-0.7993,0.2739,0.6421,-15.67,-9.21,48.41
178,57948845,-0.8032,0.2676,0.6431,-15.85,-8.60,48.96
179,57953845,-0.8018,0.2720,0.6470,-15.98,-8.17,49.45
180,57958845,-0.7988,0.2720,0.6450,-16.10,-7.62,49.94
181,57963849,-0.7998,0.2734,0.6475,-16.22,-7.13,50.55
182,57968845,-0.8008,0.2715,0.6533,-16.59,-6.71,51.22
183,57973845,-0.8008,0.2744,0.6538,-16.77,-6.04,51.71
184,57978845,-0.7964,0.2754,0.6553,-17.20,-5.73,52.26
185,57983845,-0.7949,0.2808,0.6538,-17.74,-5.24,52.74
186,57988845,-0.7930,0.2832,0.6538,-18.41,-5.00,53.17
187,57993845,-0.7900,0.2827,0.6572,-19.15,-4.82,53.72
188,57998845,-0.7856,0.2832,0.6553,-19.63,-4.70,54.21
189,58003845,-0.7817,0.2856,0.6514,-20.18,-4.39,54.76
190,58008845,-0.7749,0.2891,0.6602,-20.79,-4.33,55.24
191,58013845,-0.7764,0.2905,0.6592,-21.40,-4.70,55.67
192,58018845,-0.7764,0.2935,0.6592,-21.83,-4.70,56.10
193,58023845,-0.7759,0.2935,0.6597,-22.26,-4.70,56.46
194,58028845,-0.7793,0.2964,0.6548,-22.68,-4.94,56.89
195,58033845,-0.7827,0.2959,0.6611,-22.87,-4.94,57.32
196,58038845,-0.7861,0.2969,0.6763,-22.93,-5.00,57.74
197,58043845,-0.7827,0.2979,0.6763,-23.11,-5.12,58.29
198,58048845,-0.7847,0.2993,0.6831,-22.99,-5.00,58.60
199,58053845,-0.7876,0.2993,0.6875,-23.05,-5.24,58.96
200,58058845,-0.7891,0.3052,0.6812,-23.05,-5.30,59.21
201,58063845,-0.7900,0.3086,0.6880,-22.99,-5.18,59.51
202,58068845,-0.7847,0.3101,0.6831,-22.99,-5.55,59.94
203,58073845,-0.7837,0.3105,0.6860,-22.99,-5.85,60.37
204,58078845,-0.7812,0.3154,0.6875,-22.87,-6.22,60.67
205,58083845,-0.7754,0.3169,0.6895,-22.93,-6.52,60.79
206,58088845,-0.7773,0.3188,0.6841,-22.99,-7.07,61.10
207,58093845,-0.7803,0.3218,0.6885,-23.11,-7.62,61.28
208,58098845,-0.7729,0.3281,0.6895,-23.29,-8.05,61.59
209,58104635,-0.7705,0.3311,0.6934,-23.35,-8.72,61.71
210,58108846,-0.7681,0.3335,0.6997,-23.60,-9.33,61.77
211,58113906,-0.7642,0.3394,0.6968,-23.66,-10.18,62.01
212,58118916,-0.7568,0.3438,0.7017,-23.84,-10.67,62.20
213,58123846,-0.7612,0.3496,0.7041,-23.84,-11.59,62.50
214,58128845,-0.7549,0.3501,0.7085,-23.72,-12.13,62.68
215,58133845,-0.7593,0.3555,0.7124,-23.48,-12.99,62.99
216,58138924,-0.7607,0.3574,0.7153,-23.23,-13.54,63.35
217,58143845,-0.7642,0.3599,0.7192,-22.87,-14.21,63.66
218,58148845,-0.7637,0.3672,0.7222,-22.50,-14.76,63.96
219,58153845,-0.7627,0.3799,0.7222,-22.01,-15.18,64.39
220,58158845,-0.7676,0.3809,0.7275,-21.28,-15.67,64.76
221,58163845,-0.7695,0.3872,0.7339,-20.61,-16.34,65.06
222,58168845,-0.7671,0.3794,0.7329,-19.51,-16.71,65.24
223,58173845,-0.7681,0.3828,0.7319,-18.23,-17.01,65.61
224,58178845,-0.7598,0.3828,0.7383,-16.59,-17.13,65.98
225,58183845,-0.7568,0.3857,0.7393,-14.70,-17.20,66.28
226,58188848,-0.7559,0.3901,0.7349,-12.87,-17.32,66.59
227,58193852,-0.7544,0.3901,0.7402,-10.98,-17.13,66.77
228,58198846,-0.7495,0.3892,0.7388,-9.09,-17.07,66.83
229,58203845,-0.7446,0.3896,0.7466,-7.26,-16.89,67.20
230,58208845,-0.7417,0.3892,0.7402,-5.55,-16.89,67.20
231,58213845,-0.7378,0.3940,0.7471,-4.21,-16.59,67.26
232,58218845,-0.7334,0.3960,0.7471,-3.29,-16.34,67.26
233,58223845,-0.7329,0.3984,0.7524,-2.20,-16.04,67.32
234,58228845,-0.7285,0.3975,0.7510,-1.40,-15.73,67.26
235,58233845,-0.7295,0.3940,0.7505,-0.91,-15.49,67.07
236,58238845,-0.7256,0.3965,0.7446,-0.49,-15.24,67.13
237,58243845,-0.7188,0.3940,0.7510,-0.30,-14.94,66.95
238,58248845,-0.7104,0.3970,0.7520,-0.18,-14.63,66.83
239,58253845,-0.7065,0.3994,0.7495,-0.49,-14.39,66.77
240,58258845,-0.7012,0.4019,0.7437,-0.91,-14.02,66.77
241,58263845,-0.6973,0.4004,0.7427,-1.59,-13.72,66.59
242,58268845,-0.6919,0.4023,0.7441,-2.32,-13.72,66.52
243,58273845,-0.6865,0.4004,0.7500,-3.35,-13.60,66.52
244,58278845,-0.6826,0.4009,0.7495,-4.45,-13.35,66.34
245,58283849,-0.6875,0.4028,0.7529,-5.61,-13.17,66.52
246,58288845,-0.6846,0.4087,0.7505,-6.83,-12.80,66.34
247,58293850,-0.6855,0.4146,0.7505,-8.11,-12.74,66.28
248,58298845,-0.6885,0.4165,0.7554,-9.27,-12.62,66.22
249,58303845,-0.6904,0.4199,0.7544,-10.61,-12.62,66.16
250,58308846,-0.6943,0.4263,0.7490,-12.01,-12.38,66.16
251,58313845,-0.7021,0.4360,0.7544,-13.35,-12.26,65.98
252,58318845,-0.7041,0.4404,0.7554,-14.88,-12.26,65.79
253,58323845,-0.7085,0.4497,0.7559,-16.34,-12.07,65.67
254,58328845,-0.7129,0.4580,0.7656,-17.68,-12.13,65.55
255,58333845,-0.7202,0.4678,0.7651,-19.33,-12.07,65.06
256,58338845,-0.7271,0.4727,0.7676,-20.91,-11.95,64.82
257,58343845,-0.7383,0.4775,0.7705,-22.56,-11.77,64.57
258,58348845,-0.7441,0.4893,0.7676,-23.90,-11.77,64.09
259,58353845,-0.7422,0.4917,0.7749,-25.49,-11.59,63.78
260,58358845,-0.7407,0.4976,0.7725,-26.89,-11.52,63.48
261,58363845,-0.7393,0.5044,0.7783,-28.29,-11.40,62.99
262,58368845,-0.7310,0.5103,0.7783,-29.63,-11.28,62.56
263,58373850,-0.7173,0.5220,0.7798,-31.22,-11.16,62.13
264,58378845,-0.7188,0.5298,0.7710,-32.20,-11.04,61.77
265,58383845,-0.7114,0.5366,0.7847,-33.48,-11.04,61.22
266,58388845,-0.7012,0.5474,0.7822,-34.63,-11.04,60.73
267,58393845,-0.6934,0.5522,0.7822,-35.79,-10.98,60.37
268,58398845,-0.6860,0.5601,0.7900,-36.89,-11.10,59.88
269,58404886,-0.6694,0.5684,0.7871,-38.11,-11.28,59.51
270,58408848,-0.6626,0.5708,0.7910,-38.72,-11.40,59.09
271,58413893,-0.6553,0.5737,0.7905,-39.57,-11.52,58.90
272,58418845,-0.6479,0.5771,0.7891,-40.24,-11.83,58.78
273,58423845,-0.6479,0.5815,0.7974,-40.67,-12.26,58.54
274,58428939,-0.6450,0.5869,0.8018,-41.10,-12.68,58.41
275,58433845,-0.6455,0.5903,0.7959,-41.28,-13.11,58.35
276,58438845,-0.6431,0.5952,0.8066,-41.34,-13.35,58.11
277,58443845,-0.6465,0.6050,0.8076,-41.34,-13.78,58.05
278,58448845,-0.6460,0.6089,0.8081,-41.10,-14.15,58.05
279,58453845,-0.6426,0.6172,0.8174,-40.79,-14.33,57.80
280,58458845,-0.6309,0.6289,0.8242,-40.24,-14.63,57.38
281,58463845,-0.6206,0.6411,0.8325,-39.51,-14.51,56.95
282,58468902,-0.6050,0.6523,0.8438,-38.72,-14.51,56.28
283,58474389,-0.5908,0.6621,0.8506,-37.50,-14.21,55.55
284,58478889,-0.5747,0.6641,0.8525,-36.83,-13.90,54.94
285,58483847,-0.5654,0.6733,0.8550,-35.85,-13.60,54.21
286,58488846,-0.5547,0.6719,0.8579,-35.06,-13.23,53.66
287,58494213,-0.5435,0.6753,0.8604,-34.21,-13.23,52.93
288,58498847,-0.5347,0.6748,0.8613,-33.66,-13.17,52.56
289,58503847,-0.5298,0.6763,0.8682,-32.93,-13.35,52.26
290,58508845,-0.5156,0.6719,0.8628,-32.32,-13.54,52.26
291,58513847,-0.5122,0.6689,0.8677,-31.77,-13.72,52.26
292,58518845,-0.5029,0.6709,0.8604,-31.46,-14.39,52.38
293,58523847,-0.4971,0.6733,0.8687,-31.34,-15.06,52.56
294,58529266,-0.4941,0.6821,0.8662,-31.46,-15.85,52.74
295,58533848,-0.4917,0.6821,0.8706,-31.71,-16.71,52.93
296,58538912,-0.4849,0.6899,0.8691,-32.20,-17.74,53.11
297,58544173,-0.4722,0.6919,0.8730,-32.50,-18.60,53.17
298,58548973,-0.4644,0.6904,0.8755,-32.74,-19.57,53.23
299,58553846,-0.4468,0.6895,0.8750,-32.99,-20.49,53.35
300,58558847,-0.4360,0.6880,0.8726,-32.87,-21.46,53.35
301,58563846,-0.4243,0.6816,0.8701,-32.87,-22.44,53.48
302,58568849,-0.4131,0.6807,0.8687,-32.44,-23.48,53.54
303,58573847,-0.4097,0.6797,0.8613,-31.77,-24.45,53.66
304,58578847,-0.3921,0.6680,0.8574,-30.73,-25.43,53.60
305,58583846,-0.3813,0.6597,0.8467,-29.70,-26.52,53.72
306,58588847,-0.3657,0.6509,0.8403,-28.29,-27.62,53.96
307,58593847,-0.3545,0.6470,0.8320,-26.65,-28.96,54.21
308,58598845,-0.3496,0.6318,0.8184,-24.94,-30.00,54.45
309,58603847,-0.3403,0.6255,0.8149,-22.80,-31.10,54.63
310,58608845,-0.3340,0.6133,0.8081,-20.55,-32.38,55.00
311,58613845,-0.3262,0.6045,0.7969,-18.05,-33.29,55.30
312,58618847,-0.3208,0.5991,0.7944,-15.43,-34.02,55.61
313,58623845,-0.3159,0.5928,0.7856,-12.68,-34.76,55.79
314,58628849,-0.3105,0.5771,0.7686,-9.76,-35.67,56.10
315,58633845,-0.3027,0.5703,0.7715,-6.59,-36.28,56.40
316,58638845,-0.2979,0.5591,0.7559,-3.48,-36.89,56.59
317,58643845,-0.2920,0.5576,0.7427,0.00,-37.32,56.95
318,58648845,-0.2954,0.5449,0.7412,3.48,-37.74,57.13
319,58653845,-0.2998,0.5347,0.7407,7.20,-38.05,57.38
320,58658845,-0.2949,0.5264,0.7271,10.91,-38.11,57.68
321,58663893,-0.2915,0.5181,0.7217,14.57,-38.23,57.93
322,58668845,-0.2954,0.5107,0.7188,18.17,-38.05,58.11
323,58673845,-0.2935,0.5049,0.7163,21.71,-37.93,58.29
324,58678845,-0.2935,0.4976,0.7070,25.06,-37.74,58.35
325,58683845,-0.2866,0.4917,0.7031,28.29,-37.13,58.41
326,58688845,-0.2915,0.4863,0.7017,31.10,-36.59,58.35
327,58693845,-0.2871,0.4805,0.6973,33.72,-35.79,58.23
328,58698845,-0.2822,0.4800,0.6987,35.98,-34.88,57.87
329,58703845,-0.2803,0.4736,0.6953,37.74,-34.09,57.62
330,58708845,-0.2832,0.4731,0.6948,39.33,-32.93,57.13
331,58713845,-0.2808,0.4722,0.6982,40.37,-31.95,56.40
332,58718845,-0.2852,0.4746,0.6978,41.04,-30.49,55.79
333,58723845,-0.2793,0.4746,0.7026,41.22,-29.15,55.00
334,58728845,-0.2837,0.4727,0.6938,40.79,-27.68,54.09
335,58733849,-0.2881,0.4702,0.6992,40.18,-25.98,52.93
336,58738846,-0.2832,0.4712,0.6982,39.15,-24.63,51.83
337,58743848,-0.2856,0.4717,0.6968,37.68,-22.99,50.67
338,58748846,-0.2842,0.4653,0.6914,35.85,-21.46,49.57
339,58753845,-0.2827,0.4619,0.6953,33.84,-19.88,48.41
340,58758849,-0.2842,0.4600,0.6987,31.52,-18.23,47.13
341,58763908,-0.2798,0.4590,0.6938,29.02,-16.65,45.79
342,58768846,-0.2773,0.4580,0.6855,26.40,-14.94,44.39
343,58773845,-0.2808,0.4521,0.6802,23.35,-13.29,43.11
344,58778847,-0.2773,0.4541,0.6777,20.30,-11.65,41.59
345,58783846,-0.2798,0.4526,0.6719,16.59,-9.57,39.70
346,58788849,-0.2734,0.4521,0.6733,13.90,-8.29,38.54
347,58793845,-0.2700,0.4482,0.6743,10.55,-6.71,37.13
348,58798847,-0.2646,0.4517,0.6733,7.26,-5.12,35.37
349,58803847,-0.2617,0.4565,0.6743,3.84,-3.41,33.84
350,58808845,-0.2612,0.4634,0.6670,0.61,-1.71,32.07
351,58813845,-0.2607,0.4653,0.6616,-2.56,-0.24,30.43
352,58818845,-0.2642,0.4722,0.6631,-5.43,1.28,28.60
353,58823846,-0.2681,0.4814,0.6704,-8.05,2.87,26.83
354,58828845,-0.2686,0.4839,0.6763,-10.00,4.45,25.12
355,58833845,-0.2769,0.4902,0.6782,-11.59,6.04,23.60
356,58838845,-0.2729,0.4888,0.6841,-12.44,7.68,22.07
357,58843850,-0.2788,0.4912,0.6836,-12.62,9.02,20.55
358,58848849,-0.2783,0.5000,0.6899,-12.38,10.24,19.33
359,58853848,-0.2793,0.5010,0.6890,-11.65,11.89,18.17
360,58858847,-0.2856,0.5059,0.6860,-10.55,12.99,16.95
361,58863847,-0.2900,0.5068,0.6909,-9.27,14.21,15.98
362,58868848,-0.2881,0.5156,0.7007,-7.62,15.49,15.18
363,58873845,-0.2832,0.5225,0.6997,-5.98,16.40,13.96
364,58878845,-0.2817,0.5239,0.7007,-4.21,17.32,13.17
365,58883845,-0.2842,0.5278,0.7080,-2.56,18.17,12.32
366,58888900,-0.2832,0.5312,0.7080,-0.98,18.90,11.52
367,58893845,-0.2842,0.5303,0.7119,0.49,19.45,10.67
368,58898845,-0.2891,0.5347,0.7188,1.52,19.88,9.88
369,58903845,-0.2910,0.5410,0.7261,2.44,20.30,9.15
370,58908863,-0.2915,0.5493,0.7329,3.17,20.55,8.29
371,58913845,-0.2925,0.5498,0.7388,3.60,20.85,7.50
372,58918845,-0.2930,0.5488,0.7500,4.09,20.85,6.65
373,58923850,-0.2900,0.5474,0.7510,4.45,20.91,5.91
374,58928845,-0.2783,0.5273,0.7959,4.88,21.46,5.37
375,58933845,-0.2817,0.5322,0.8130,5.06,21.52,4.76
376,58938845,-0.2930,0.5332,0.8115,4.94,21.95,4.21
377,58943850,-0.2964,0.5464,0.8057,4.57,22.01,3.54
378,58948845,-0.2930,0.5601,0.8291,4.02,22.07,2.93
379,58953845,-0.2817,0.5586,0.8447,3.23,22.26,2.20
380,58958845,-0.2588,0.5586,0.8608,2.32,22.38,1.52
381,58963845,-0.2612,0.5669,0.8730,1.28,22.44,0.85
382,58968845,-0.2559,0.5757,0.8896,-0.06,22.32,0.43
383,58973845,-0.2505,0.5791,0.9072,-1.59,21.89,-0.12
384,58978845,-0.2446,0.5811,0.9243,-3.11,21.65,-0.55
385,58983845,-0.2500,0.5996,0.9277,-5.06,21.16,-0.98
386,58988845,-0.2563,0.6128,0.9326,-7.20,20.37,-1.22
387,58993845,-0.2603,0.6226,0.9316,-9.27,19.45,-1.71
388,58998845,-0.2505,0.6377,0.9409,-11.28,18.60,-2.07
389,59003845,-0.2456,0.6411,0.9448,-12.74,17.50,-2.26
390,59008845,-0.2393,0.6494,0.9507,-13.78,16.40,-2.32
391,59013845,-0.2305,0.6475,0.9624,-14.33,15.37,-2.26
392,59018845,-0.2256,0.6548,0.9736,-14.63,14.33,-2.20
393,59023845,-0.2329,0.6704,0.9854,-14.82,13.17,-2.01
394,59028845,-0.2422,0.6772,0.9961,-14.63,12.01,-1.89
395,59033845,-0.2363,0.6934,1.0132,-13.90,11.04,-1.59
396,59038845,-0.2256,0.7017,1.0303,-12.80,10.12,-1.28
397,59043845,-0.2271,0.7114,1.0449,-11.22,9.27,-1.04
398,59048845,-0.2373,0.7158,1.0542,-9.39,8.54,-0.73
399,59053845,-0.2388,0.7261,1.0693,-7.20,7.56,-0.37
400,59058845,-0.2510,0.7383,1.0776,-5.00,6.83,0.00
401,59063845,-0.2485,0.7520,1.0977,-2.68,6.04,0.06
402,59068845,-0.2607,0.7656,1.1157,-0.61,5.12,0.12
403,59073845,-0.2720,0.7778,1.1235,1.52,4.45,0.06
404,59078845,-0.2861,0.7939,1.1387,3.23,3.66,-0.30
405,59083845,-0.2930,0.8027,1.1421,4.82,2.87,-0.67
406,59088845,-0.2925,0.8101,1.1440,6.28,2.13,-1.16
407,59093845,-0.2964,0.8164,1.1440,7.68,1.34,-1.59
408,59098845,-0.2930,0.8062,1.1387,9.39,0.18,-1.77
409,59103845,-0.2891,0.8022,1.1362,11.16,-1.04,-1.65
410,59108845,-0.2935,0.7944,1.1333,13.35,-2.50,-1.46
411,59113845,-0.3003,0.7832,1.1221,15.67,-4.33,-0.61
412,59118845,-0.3008,0.7720,1.1226,18.17,-6.10,0.37
413,59123845,-0.3105,0.7661,1.1147,21.04,-8.35,1.71
414,59128845,-0.3169,0.7578,1.1152,24.15,-10.61,3.11
415,59133845,-0.3184,0.7651,1.0981,27.50,-12.87,4.82
416,59138845,-0.3188,0.7666,1.1064,31.04,-15.24,6.59
417,59143845,-0.3149,0.7568,1.1060,34.88,-17.50,8.66
418,59148845,-0.3081,0.7529,1.0996,38.96,-19.88,10.67
419,59153845,-0.3032,0.7466,1.0986,43.11,-22.01,12.99
420,59158845,-0.2930,0.7466,1.1108,47.38,-24.27,15.30
421,59163845,-0.2852,0.7344,1.0967,51.71,-26.22,17.68
422,59168845,-0.2744,0.7236,1.1016,55.91,-28.11,20.12
423,59173845,-0.2700,0.7212,1.0786,59.94,-30.06,22.56
424,59178845,-0.2632,0.7192,1.0776,63.78,-31.65,25.06
425,59183845,-0.2559,0.7119,1.0840,67.32,-33.23,27.68
426,59188845,-0.2515,0.7070,1.0854,70.49,-34.82,30.06
427,59193845,-0.2495,0.6973,1.0791,73.29,-36.22,32.44
428,59198845,-0.2505,0.6890,1.0693,75.43,-37.38,34.63
429,59203845,-0.2485,0.6860,1.0796,77.07,-38.48,36.83
430,59208845,-0.2358,0.6816,1.0942,77.99,-39.45,38.78
431,59213845,-0.2344,0.6782,1.0928,78.23,-40.18,40.43
432,59218845,-0.2183,0.6777,1.1201,77.38,-41.16,41.77
433,59223853,-0.2017,0.6816,1.1084,75.55,-41.65,42.87
434,59228845,-0.1968,0.6885,1.0967,72.68,-42.50,43.78
435,59233845,-0.1865,0.6899,1.0815,68.90,-43.29,44.33
436,59238845,-0.1772,0.6890,1.0557,64.70,-44.21,44.57
437,59243850,-0.1719,0.6890,1.0405,59.82,-45.06,44.88
438,59248845,-0.1572,0.6826,1.0181,55.18,-46.04,45.00
439,59253845,-0.1543,0.6802,1.0093,50.30,-46.89,45.06
440,59258845,-0.1577,0.6836,0.9937,45.55,-48.05,45.06
441,59263845,-0.1548,0.6763,0.9814,40.91,-48.96,45.00
442,59268845,-0.1499,0.6660,0.9800,36.65,-50.06,44.94
443,59273845,-0.1465,0.6553,0.9761,32.26,-51.10,45.06
444,59278845,-0.1323,0.6519,0.9824,28.23,-52.38,45.18
445,59283845,-0.1255,0.6450,0.9834,24.39,-53.60,45.24
446,59288845,-0.1201,0.6343,0.9912,20.67,-54.70,45.24
447,59293845,-0.1128,0.6279,1.0000,17.13,-56.16,45.49
448,59298855,-0.1167,0.6328,0.9961,13.96,-57.44,45.85
449,59303846,-0.1147,0.6357,0.9805,11.28,-59.02,46.28
450,59308845,-0.1182,0.6323,0.9668,9.02,-60.30,46.46
451,59313845,-0.1143,0.6270,0.9561,7.80,-61.65,46.89
452,59318845,-0.1108,0.6260,0.9448,7.44,-62.68,47.38
453,59323845,-0.1035,0.6138,0.9292,7.80,-63.78,48.05
454,59328847,-0.1069,0.6108,0.9233,8.72,-64.76,48.60
455,59333845,-0.1021,0.6147,0.9155,10.12,-65.49,49.33
456,59338845,-0.1025,0.6182,0.9136,12.07,-66.22,49.88
457,59343845,-0.0918,0.6191,0.9014,14.21,-66.89,50.61
458,59348849,-0.0850,0.6187,0.8955,16.46,-67.50,51.04
459,59353845,-0.0811,0.6240,0.9058,18.90,-68.05,51.52
460,59358845,-0.0737,0.6274,0.9067,21.04,-68.41,51.95
461,59363845,-0.0752,0.6362,0.9160,22.68,-68.96,52.26
462,59368845,-0.0688,0.6431,0.9199,24.63,-69.33,52.62
463,59373845,-0.0537,0.6558,0.9136,26.28,-69.88,53.11
464,59378847,-0.0444,0.6841,0.9058,28.11,-70.61,53.54
465,59383846,-0.0400,0.6934,0.8896,29.82,-71.16,53.60
466,59388847,-0.0405,0.6963,0.8760,31.22,-71.71,53.60
467,59393845,-0.0327,0.6665,0.8618,32.44,-71.95,53.72
468,59398845,-0.0366,0.6411,0.8662,33.60,-72.20,53.78
469,59403845,-0.0591,0.6230,0.8735,34.21,-72.01,53.60
470,59408845,-0.0791,0.6211,0.8682,34.15,-71.46,53.41
471,59413845,-0.0830,0.6265,0.8667,33.60,-71.16,53.11
472,59418845,-0.0737,0.6421,0.8516,32.56,-70.67,52.68
473,59423845,-0.0610,0.6489,0.8325,30.85,-70.43,51.71
474,59428845,-0.0483,0.6680,0.8091,29.02,-69.82,50.91
475,59433845,-0.0449,0.6836,0.7729,27.01,-69.27,50.06
476,59438878,-0.0488,0.6875,0.7495,24.82,-68.78,48.84
477,59443845,-0.0459,0.6709,0.7505,22.80,-67.99,47.80
478,59448870,-0.0776,0.7134,0.7241,21.34,-67.74,46.65
479,59453847,0.0127,0.6587,0.7119,19.94,-65.67,45.67
480,59458847,0.0361,0.6440,0.7539,18.29,-64.70,45.06
481,59463845,0.0557,0.6538,0.7119,16.28,-63.66,44.27
482,59468849,0.0596,0.6592,0.6484,13.66,-62.07,43.60
483,59473845,0.0537,0.6616,0.7075,11.22,-61.28,43.05
484,59478849,0.0483,0.6367,0.6987,7.01,-59.45,42.07
485,59483845,0.0508,0.6123,0.6440,3.96,-58.17,41.40
486,59488845,0.0518,0.5991,0.6455,-0.37,-56.65,40.85
487,59493847,0.0596,0.5898,0.6475,-5.49,-54.88,39.88
488,59498845,0.0615,0.5903,0.6328,-8.90,-53.60,39.33
489,59503848,0.0679,0.5942,0.6025,-13.05,-51.77,38.60
490,59508845,0.0713,0.5918,0.5942,-16.83,-50.12,37.68
491,59513903,0.0718,0.5801,0.5918,-20.79,-47.68,36.89
492,59518845,0.0771,0.5674,0.5767,-23.23,-46.04,36.34
493,59523917,0.0728,0.5547,0.5620,-25.67,-43.96,35.67
494,59528848,0.0747,0.5454,0.5635,-27.87,-41.65,35.06
495,59533845,0.0737,0.5396,0.5542,-29.63,-39.21,34.27
496,59538848,0.0864,0.5356,0.5527,-31.95,-36.04,33.29
497,59543845,0.0996,0.5312,0.5444,-33.29,-34.21,32.56
498,59548845,0.1133,0.5283,0.5444,-34.57,-31.77,31.83
499,59553845,0.1196,0.5342,0.5396,-35.61,-29.21,30.98
500,59558845,0.1240,0.5449,0.5391,-36.40,-26.77,30.06
501,59563914,0.1372,0.5469,0.5352,-37.13,-24.21,29.02
502,59568845,0.1201,0.5342,0.5229,-38.05,-22.01,28.17
503,59573845,0.1279,0.5483,0.5190,-38.78,-19.88,27.38
504,59578845,0.1221,0.5610,0.5425,-39.27,-17.80,26.52
505,59583845,0.1362,0.5527,0.5391,-39.27,-15.67,25.67
506,59588845,0.1406,0.5508,0.5386,-38.84,-13.60,25.00
507,59593845,0.1372,0.5586,0.5464,-37.74,-11.52,24.27
508,59598845,0.1494,0.5718,0.5503,-35.91,-9.39,23.54
509,59603969,0.1880,0.5874,0.5439,-33.78,-7.20,22.80
510,59608847,0.1938,0.5918,0.5576,-31.22,-4.94,21.95
511,59613902,0.1553,0.5649,0.5498,-28.17,-2.38,21.34
512,59618847,0.1538,0.5762,0.5474,-26.28,-0.61,21.34
513,59623846,0.1650,0.5947,0.5869,-23.90,1.65,21.04
514,59628847,0.1836,0.5938,0.6069,-21.34,4.09,20.67
515,59633847,0.1982,0.5938,0.6196,-19.15,6.22,20.37
516,59638848,0.2085,0.6001,0.6362,-17.13,8.41,19.70
517,59643845,0.2144,0.6001,0.6597,-15.55,10.61,19.09
518,59648846,0.2178,0.6050,0.6724,-14.39,12.68,18.29
519,59653852,0.2095,0.6074,0.6885,-13.48,14.57,17.50
520,59658846,0.2012,0.6235,0.6997,-13.05,16.40,16.59
521,59663949,0.1934,0.6357,0.7163,-13.05,18.05,15.61
522,59668845,0.1865,0.6470,0.7285,-13.54,19.51,14.45
523,59674399,0.1738,0.6636,0.7412,-14.39,20.91,13.05
524,59678847,0.1699,0.6724,0.7524,-15.06,21.77,12.01
525,59683862,0.1597,0.6826,0.7661,-16.28,22.68,10.79
526,59688846,0.1562,0.6899,0.7930,-17.62,23.66,9.51
527,59693846,0.1621,0.7031,0.8022,-18.72,24.57,8.29
528,59698848,0.1558,0.7056,0.8174,-19.21,25.24,6.95
529,59703846,0.1646,0.7026,0.8398,-18.72,25.67,5.61
530,59708845,0.1743,0.6968,0.8560,-17.32,26.10,4.70
531,59713845,0.1772,0.6938,0.8716,-15.30,26.52,3.78
532,59718845,0.1768,0.6895,0.8965,-12.80,26.71,2.93
533,59723845,0.1782,0.6851,0.9087,-10.00,26.89,2.26
534,59728845,0.1763,0.6787,0.9116,-7.13,26.95,1.65
535,59733850,0.1777,0.6792,0.9185,-4.33,26.71,1.16
536,59738848,0.1719,0.6782,0.9243,-1.77,25.98,0.98
537,59743849,0.1655,0.6704,0.9180,0.49,25.24,0.61
538,59748845,0.1631,0.6685,0.9263,2.26,24.51,0.49
539,59753845,0.1631,0.6675,0.9277,3.66,23.29,0.49
540,59758846,0.1733,0.6641,0.9341,4.94,22.07,0.43
541,59763846,0.1782,0.6611,0.9370,5.61,20.73,0.37
542,59768845,0.1812,0.6611,0.9487,5.98,19.27,0.43
543,59773847,0.1821,0.6597,0.9663,6.59,17.74,0.61
544,59778849,0.1924,0.6582,0.9761,7.13,16.22,0.79
545,59783848,0.1958,0.6567,0.9932,7.68,14.51,0.98
546,59788845,0.2007,0.6592,1.0063,8.23,12.87,1.34
547,59793849,0.1968,0.6621,1.0171,8.72,11.22,1.65
548,59798846,0.1963,0.6650,1.0283,8.90,9.27,2.13
549,59803849,0.1992,0.6704,1.0386,8.41,7.74,2.50
550,59808848,0.2046,0.6777,1.0508,7.56,5.91,2.93
551,59813845,0.2114,0.6816,1.0542,6.40,4.21,3.29
552,59819077,0.2109,0.6992,1.0615,4.51,2.07,3.60
553,59823845,0.2114,0.7056,1.0605,2.99,0.43,3.78
554,59828847,0.2100,0.7114,1.0693,1.16,-1.34,4.21
555,59833845,0.2046,0.7144,1.0767,-0.55,-3.11,4.63
556,59839299,0.1963,0.7178,1.0854,-2.87,-5.12,4.94
557,59844151,0.1895,0.7261,1.0889,-4.39,-7.07,5.24
558,59848847,0.1846,0.7217,1.0947,-5.43,-8.41,5.73
559,59853846,0.1836,0.7217,1.1060,-6.46,-9.94,5.91
560,59858847,0.1821,0.7231,1.1108,-7.50,-12.07,6.40
561,59864262,0.1748,0.7236,1.1250,-8.23,-13.72,6.65
562,59868863,0.1719,0.7217,1.1270,-8.48,-15.00,6.83
563,59873848,0.1709,0.7261,1.1431,-8.72,-16.46,7.01
564,59879080,0.1709,0.7295,1.1475,-8.78,-18.11,7.07
565,59883849,0.1694,0.7358,1.1519,-8.72,-19.76,7.20
566,59888845,0.1670,0.7446,1.1655,-8.48,-21.71,7.44
567,59893935,0.1685,0.7485,1.1685,-8.29,-23.35,7.50
568,59898845,0.1582,0.7407,1.1753,-8.05,-25.24,7.87
569,59903845,0.1499,0.7397,1.1826,-7.93,-27.44,8.17
570,59909191,0.1445,0.7280,1.1875,-8.23,-29.94,8.66
571,59913845,0.1426,0.7183,1.1914,-8.48,-31.71,9.02
572,59918845,0.1348,0.7119,1.1997,-9.15,-34.15,9.63
573,59923847,0.1318,0.6943,1.1934,-10.18,-36.52,10.30
574,59928845,0.1270,0.6797,1.1953,-11.34,-38.84,11.04
575,59933851,0.1294,0.6689,1.2075,-13.29,-41.59,11.83
576,59938847,0.1323,0.6597,1.2070,-15.18,-43.90,12.50
577,59944148,0.1289,0.6562,1.2104,-16.71,-45.79,12.93
578,59948849,0.1240,0.6445,1.2021,-18.78,-48.17,13.41
579,59953846,0.1255,0.6323,1.2104,-20.85,-50.30,13.96
580,59958848,0.1221,0.6235,1.2104,-23.54,-53.05,14.39
581,59963851,0.1216,0.6172,1.2124,-25.06,-54.76,14.70
582,59968849,0.1309,0.6064,1.2168,-26.95,-56.83,14.94
583,59973849,0.1284,0.6030,1.2251,-28.84,-58.84,15.12
584,59978849,0.1392,0.5972,1.2266,-30.73,-60.98,15.00
585,59983846,0.1489,0.5972,1.2290,-32.74,-63.05,14.82
586,59988845,0.1606,0.5933,1.2271,-34.82,-64.94,14.51
587,59993845,0.1670,0.5898,1.2305,-37.26,-67.01,14.15
588,59998845,0.1753,0.5840,1.2246,-39.82,-69.09,13.60
589,60003889,0.1743,0.5820,1.2212,-42.13,-71.22,12.93
590,60008845,0.1836,0.5786,1.2275,-44.33,-73.35,12.07
591,60013845,0.1851,0.5698,1.2314,-46.22,-75.43,11.28
592,60018845,0.1909,0.5601,1.2319,-47.74,-77.62,10.43
593,60023845,0.1895,0.5552,1.2358,-48.96,-79.94,9.76
594,60028845,0.1860,0.5479,1.2285,-49.88,-82.13,8.78
595,60033845,0.1836,0.5415,1.2358,-50.37,-84.33,7.80
596,60038849,0.1792,0.5361,1.2422,-50.55,-86.71,6.95
597,60043845,0.1763,0.5317,1.2422,-50.61,-89.15,5.91
598,60048847,0.1812,0.5322,1.2471,-50.24,-91.46,4.88
599,60053847,0.1821,0.5288,1.2471,-49.70,-93.84,3.72
600,60059324,0.1743,0.5259,1.2539,-48.96,-96.22,2.44
601,60063848,0.1738,0.5288,1.2603,-48.41,-98.17,1.52
602,60068848,0.1724,0.5225,1.2549,-48.05,-100.49,0.37
603,60073849,0.1738,0.5176,1.2583,-47.68,-102.68,-0.85
604,60078847,0.1753,0.5127,1.2583,-47.62,-104.88,-2.13
605,60083847,0.1699,0.5112,1.2568,-47.80,-107.20,-3.48
606,60088847,0.1768,0.5044,1.2520,-48.35,-109.51,-4.94
607,60093847,0.1763,0.5063,1.2466,-49.02,-111.52,-6.28
608,60098847,0.1719,0.5029,1.2393,-50.18,-113.78,-7.74
609,60103848,0.1724,0.5049,1.2339,-51.34,-115.85,-9.09
610,60108868,0.1846,0.5083,1.2227,-53.05,-118.23,-10.73
611,60113846,0.1895,0.5005,1.2207,-54.51,-120.30,-12.26
612,60118850,0.1855,0.5015,1.2139,-56.28,-122.50,-13.96
613,60123845,0.1846,0.4961,1.2026,-58.29,-124.57,-15.55
614,60128848,0.1895,0.5015,1.2002,-60.55,-126.59,-17.26
615,60133846,0.1865,0.5034,1.1875,-62.87,-128.60,-19.02
616,60138845,0.1846,0.5044,1.1831,-65.30,-130.79,-20.73
617,60143845,0.1841,0.5112,1.1768,-67.62,-132.87,-22.38
618,60148849,0.1860,0.5112,1.1729,-69.76,-134.88,-24.33
619,60153849,0.1851,0.5112,1.1582,-71.59,-137.01,-26.16
620,60158845,0.1899,0.5142,1.1582,-73.29,-138.96,-27.80
621,60163848,0.1865,0.5132,1.1450,-74.63,-141.04,-29.63
622,60168848,0.1831,0.5103,1.1328,-75.79,-143.05,-31.34
623,60173853,0.1831,0.5078,1.1274,-76.65,-145.00,-32.99
624,60178847,0.1768,0.5063,1.1128,-77.50,-147.20,-34.45
625,60184651,0.1748,0.5049,1.1035,-77.93,-149.76,-36.34
626,60188847,0.1738,0.5054,1.0972,-78.17,-151.52,-37.38
627,60193846,0.1689,0.5068,1.0786,-78.23,-153.48,-38.72
628,60198849,0.1660,0.5088,1.0693,-78.23,-155.73,-40.06
629,60204317,0.1719,0.5181,1.0522,-78.11,-157.87,-41.28
630,60208847,0.1724,0.5220,1.0474,-77.93,-159.70,-42.56
631,60213848,0.1772,0.5327,1.0381,-77.44,-161.65,-43.78
632,60218905,0.1753,0.5391,1.0337,-77.07,-163.48,-45.00
633,60223845,0.1841,0.5503,1.0249,-76.59,-165.30,-46.28
634,60228848,0.1909,0.5610,1.0073,-76.40,-166.89,-47.56
635,60233846,0.1958,0.5674,0.9946,-76.04,-168.35,-49.02
636,60238889,0.2026,0.5791,0.9834,-75.79,-169.70,-50.43
637,60243848,0.2041,0.5845,0.9717,-75.79,-171.16,-51.83
638,60249273,0.2012,0.5894,0.9575,-75.67,-172.32,-53.05
639,60253846,0.1963,0.5928,0.9443,-75.55,-173.72,-54.39
640,60258846,0.1885,0.5933,0.9233,-75.49,-174.94,-55.61
641,60263846,0.1880,0.5947,0.9155,-75.43,-176.34,-56.65
642,60268849,0.1870,0.5972,0.9028,-75.37,-177.13,-57.74
643,60273847,0.1821,0.6006,0.8794,-75.37,-178.29,-58.90
644,60278849,0.1782,0.5991,0.8706,-75.18,-179.15,-59.94
645,60283847,0.1763,0.6035,0.8516,-75.18,-180.06,-60.91
646,60288847,0.1807,0.6016,0.8340,-75.00,-180.85,-61.95
647,60293849,0.1792,0.5991,0.8110,-75.24,-181.71,-62.99
648,60298850,0.1738,0.6025,0.7935,-75.37,-182.50,-63.84
649,60303847,0.1689,0.6021,0.7788,-75.61,-183.17,-64.94
650,60308847,0.1680,0.6006,0.7549,-76.04,-183.84,-65.98
651,60313845,0.1636,0.6016,0.7354,-76.59,-184.39,-66.95
652,60318847,0.1616,0.6021,0.7178,-77.26,-184.82,-68.17
653,60323849,0.1602,0.6050,0.6914,-77.87,-185.24,-69.27
654,60328845,0.1602,0.5977,0.6665,-78.41,-185.79,-70.67
655,60333847,0.1602,0.5962,0.6465,-78.84,-185.91,-71.95
656,60338845,0.1602,0.5928,0.6255,-79.21,-186.28,-73.17
657,60343849,0.1582,0.5889,0.5991,-79.39,-186.46,-74.51
658,60349265,0.1592,0.5942,0.5767,-79.39,-186.71,-75.79
659,60353849,0.1611,0.5894,0.5469,-79.09,-186.83,-77.13
660,60358846,0.1572,0.5903,0.5288,-78.54,-187.13,-78.54
661,60363847,0.1538,0.5928,0.5005,-77.74,-187.07,-79.82
662,60368845,0.1523,0.5898,0.4746,-76.59,-187.38,-81.10
663,60373847,0.1460,0.5918,0.4561,-75.24,-187.38,-82.32
664,60378845,0.1426,0.5898,0.4253,-73.48,-187.50,-83.48
665,60383847,0.1401,0.5938,0.4062,-71.28,-187.80,-84.63
666,60388847,0.1348,0.5874,0.3804,-68.90,-187.99,-85.61
667,60393845,0.1299,0.5869,0.3545,-66.04,-188.11,-86.52
668,60398847,0.1294,0.5825,0.3379,-62.80,-188.41,-87.50
669,60403847,0.1240,0.5762,0.3174,-59.70,-188.90,-88.35
670,60408847,0.1221,0.5674,0.2983,-56.52,-189.33,-89.21
671,60413847,0.1211,0.5620,0.2686,-53.48,-189.70,-90.06
672,60418847,0.1157,0.5547,0.2441,-50.67,-190.12,-90.98
673,60423849,0.1108,0.5566,0.2183,-48.05,-190.61,-91.89
674,60428845,0.1084,0.5557,0.1982,-45.73,-191.16,-92.80
675,60433957,0.1016,0.5542,0.1860,-43.66,-191.83,-93.78
676,60438847,0.1035,0.5679,0.1562,-41.34,-192.74,-94.94
677,60443845,0.1016,0.5688,0.1260,-39.27,-193.54,-96.16
678,60448849,0.1074,0.5757,0.0981,-36.89,-194.51,-97.38
679,60453845,0.1143,0.5776,0.0815,-34.39,-195.49,-98.60
680,60458845,0.1138,0.5850,0.0498,-31.83,-196.52,-99.88
681,60463847,0.1162,0.5845,0.0278,-29.21,-197.62,-101.10
682,60468845,0.1118,0.5850,0.0103,-26.52,-198.29,-102.44
683,60473846,0.1025,0.5786,-0.0181,-23.84,-199.15,-103.66
684,60478874,0.1079,0.5723,-0.0405,-21.34,-199.88,-105.00
685,60483847,0.1104,0.5776,-0.0610,-18.72,-200.67,-106.28
686,60488848,0.1333,0.5820,-0.0811,-16.16,-201.34,-107.74
687,60493846,0.1191,0.6035,-0.1050,-13.29,-201.71,-109.09
688,60498851,0.1035,0.6235,-0.1353,-10.43,-202.38,-110.67
689,60503847,0.1001,0.6318,-0.1782,-7.68,-202.68,-112.50
690,60508849,0.1055,0.6489,-0.2021,-5.24,-203.23,-114.39
691,60513847,0.1108,0.6558,-0.2217,-2.87,-203.60,-116.28
692,60518845,0.0752,0.6396,-0.2734,-1.16,-204.02,-118.35
693,60523845,0.0352,0.6411,-0.2998,0.67,-204.21,-120.18
694,60528845,0.0190,0.6353,-0.3394,2.68,-204.51,-122.01
695,60533847,0.0122,0.6294,-0.3789,4.94,-204.82,-123.60
696,60538849,0.0020,0.6270,-0.4150,7.26,-205.06,-125.18
697,60543847,-0.0005,0.6367,-0.4517,9.88,-205.12,-126.71
698,60548847,-0.0088,0.6543,-0.4814,12.74,-205.18,-128.41
699,60554272,-0.0205,0.6821,-0.5215,15.85,-205.12,-130.18
700,60558889,-0.0376,0.7173,-0.5464,19.39,-204.76,-132.13
701,60563853,-0.0977,0.7554,-0.5811,23.29,-204.09,-134.15
702,60568849,-0.0952,0.7549,-0.6060,27.26,-203.35,-136.10
703,60573847,-0.0586,0.7578,-0.6592,31.59,-202.50,-137.93
704,60578847,-0.0435,0.7505,-0.7007,36.22,-201.65,-139.39
705,60583845,-0.0371,0.7520,-0.7188,41.10,-200.55,-140.67
706,60588845,-0.0596,0.7578,-0.7417,45.98,-199.15,-141.65
707,60593845,-0.0903,0.7666,-0.7593,50.73,-197.38,-142.38
708,60598849,-0.1162,0.7866,-0.7910,55.43,-195.24,-143.54
709,60603846,-0.1792,0.8101,-0.8242,59.57,-192.80,-144.63
710,60608866,-0.1997,0.8223,-0.8818,63.29,-190.00,-145.79
711,60613845,-0.1899,0.8330,-0.9155,65.98,-187.62,-146.83
712,60618850,-0.1938,0.8838,-1.0112,69.45,-184.02,-148.23
713,60623845,-0.2129,0.8647,-1.0889,71.52,-181.40,-149.21
714,60628845,-0.2344,0.8867,-1.1387,74.09,-177.62,-150.30
715,60633848,-0.2666,0.8882,-1.1782,77.07,-172.74,-151.46
716,60638845,-0.2852,0.9131,-1.2178,79.09,-168.72,-152.13
717,60643847,-0.3076,0.9141,-1.2930,82.32,-162.07,-152.62
718,60648847,-0.3198,0.9312,-1.3325,84.70,-157.07,-152.99
719,60653849,-0.3403,0.9590,-1.3838,87.68,-148.72,-153.35
720,60658847,-0.3452,0.9629,-1.4209,89.63,-142.62,-153.60
721,60663846,-0.3560,1.0049,-1.4839,92.13,-132.50,-154.15
722,60668847,-0.3555,1.0308,-1.5205,93.05,-125.55,-154.82
723,60673846,-0.3569,1.0698,-1.5762,92.99,-114.02,-155.91
724,60678847,-0.3716,1.0830,-1.6201,92.01,-106.10,-156.83
725,60683847,-0.3633,1.0908,-1.6987,88.96,-95.73,-158.05
726,60688847,-0.3853,1.0806,-1.7461,84.70,-85.18,-159.21
727,60693849,-0.4224,1.0796,-1.8022,79.63,-74.09,-160.06
728,60698845,-0.4424,1.0811,-1.8604,74.39,-62.13,-160.61
729,60703848,-0.4644,1.0850,-1.9146,69.21,-49.88,-161.10
730,60708847,-0.4854,1.1021,-1.9653,65.37,-36.83,-161.16
731,60713845,-0.5190,1.1255,-2.0112,62.99,-23.35,-160.98
732,60718847,-0.5728,1.1431,-2.0693,62.44,-9.27,-160.67
733,60723852,-0.6372,1.1567,-2.1255,64.02,7.68,-160.18
734,60728845,-0.6675,1.1724,-2.1631,66.46,19.39,-159.70
735,60733849,-0.6812,1.1855,-2.2173,70.73,33.90,-159.39
736,60738845,-0.6772,1.2236,-2.2480,76.52,48.54,-159.45
737,60743847,-0.7861,1.2031,-2.2832,83.41,63.23,-159.88
738,60748847,-0.7896,1.2373,-2.3672,90.55,78.35,-160.37
739,60753849,-0.8086,1.2310,-2.3872,97.80,92.20,-160.98
740,60758847,-0.8716,1.2559,-2.4482,107.01,109.76,-161.77
741,60763845,-0.8979,1.2686,-2.5142,113.41,121.77,-162.74
742,60768849,-0.9355,1.3013,-2.5464,121.16,136.52,-164.33
743,60773888,-0.9985,1.3169,-2.5806,129.39,152.20,-166.65
744,60778845,-1.0605,1.3696,-2.6377,134.70,168.05,-169.21
745,60783847,-1.0396,1.3726,-2.6470,140.67,184.27,-172.62
746,60788847,-1.1299,1.4067,-2.6689,146.34,201.28,-176.40
747,60793849,-1.1602,1.4565,-2.6841,151.40,219.02,-181.16
748,60798899,-1.2104,1.5117,-2.6816,155.91,237.38,-186.89
749,60803878,-1.2607,1.5640,-2.6870,160.18,255.73,-193.29
750,60808846,-1.3276,1.6191,-2.6953,163.29,274.27,-200.43
751,60813848,-1.4023,1.6753,-2.6987,166.52,292.56,-207.99
752,60818845,-1.4688,1.7363,-2.6958,170.18,310.67,-215.61
753,60823847,-1.5264,1.8223,-2.6875,174.94,328.35,-223.35
754,60828860,-1.5938,1.9224,-2.6626,181.10,345.98,-230.85
755,60833846,-1.6626,2.0195,-2.6309,190.24,363.05,-237.74
756,60839005,-1.7500,2.1426,-2.5664,202.50,379.88,-243.90
757,60843846,-1.7510,2.2197,-2.5332,216.52,396.46,-249.51
758,60848845,-1.8252,2.3169,-2.5098,231.28,412.62,-254.21
759,60853898,-1.8892,2.4214,-2.4468,244.88,428.11,-258.48
760,60859143,-1.9692,2.5654,-2.3721,256.83,446.34,-263.35
761,60863847,-2.0244,2.6953,-2.2832,261.89,460.98,-267.26
762,60868845,-2.0464,2.7930,-2.1851,262.50,472.26,-270.37
763,60873847,-2.0542,2.9424,-2.0640,259.27,485.98,-273.78
764,60878846,-2.0732,3.0488,-1.9087,252.38,499.09,-276.71
765,60883847,-2.1069,3.1772,-1.7822,242.68,511.40,-278.35
766,60888845,-2.1758,3.2822,-1.6562,231.65,522.80,-278.05
767,60893847,-2.2319,3.3325,-1.5054,219.33,532.87,-275.73
768,60898845,-2.2822,3.3931,-1.3569,206.10,542.01,-270.30
769,60903847,-2.3486,3.4141,-1.2153,191.16,549.76,-262.32
770,60908845,-2.4126,3.4736,-1.0425,173.96,556.22,-251.52
771,60913845,-2.4453,3.4917,-0.8306,153.90,561.40,-239.02
772,60918845,-2.4854,3.6274,-0.7051,132.20,564.94,-224.88
773,60923847,-2.4658,3.4302,-0.4146,114.45,566.34,-211.04
774,60928845,-2.5850,3.2715,-0.3120,99.27,565.43,-193.84
775,60933845,-2.6826,3.2041,-0.1978,83.17,560.85,-175.00
776,60938847,-2.7114,3.1084,-0.0024,65.55,552.50,-154.02
777,60943845,-2.6260,3.1147,0.2456,49.94,541.65,-131.77
778,60948847,-2.5649,3.0410,0.5913,39.27,529.57,-109.21
779,60953847,-2.5513,2.9805,0.8604,32.99,517.74,-87.32
780,60958845,-2.4961,2.8823,1.0474,30.06,505.49,-66.52
781,60963847,-2.4136,2.7803,1.2080,30.18,492.26,-46.95
782,60968847,-2.3027,2.6904,1.3555,32.99,478.23,-28.60
783,60973849,-2.2188,2.5942,1.4829,38.11,462.80,-11.65
784,60978845,-2.1177,2.5049,1.5781,44.82,446.52,3.84
785,60983845,-2.0093,2.4326,1.6572,52.13,428.96,18.17
786,60988908,-1.8589,2.3442,1.7339,59.02,410.00,30.98
787,60993903,-1.7275,2.2515,1.8008,64.21,389.82,42.99
788,60998962,-1.6396,2.1426,1.8647,66.77,368.84,54.70
789,61003845,-1.5532,2.0234,1.9160,65.43,347.13,65.85
790,61008845,-1.4565,1.9038,1.9536,59.88,325.06,76.59
791,61013849,-1.3535,1.7856,1.9834,50.55,302.99,86.83
792,61018845,-1.2427,1.6763,2.0103,38.29,280.85,95.61
793,61023850,-1.1377,1.5693,2.0107,24.09,258.60,104.27
794,61028846,-1.0239,1.4634,1.9814,9.27,236.04,111.89
795,61033845,-0.9277,1.3291,1.9346,-8.17,210.61,120.30
796,61039032,-0.8745,1.2510,1.9033,-18.23,193.54,125.12
797,61043846,-0.7969,1.1528,1.8643,-28.05,173.05,130.43
798,61048847,-0.7173,1.0566,1.8389,-34.09,153.17,134.76
799,61054058,-0.6250,0.9741,1.7935,-36.40,134.39,138.11
800,61058849,-0.5620,0.9141,1.7432,-35.00,116.16,140.61
801,61063845,-0.4844,0.8223,1.6870,-30.61,99.02,141.95
802,61068846,-0.4092,0.7451,1.6138,-24.27,82.74,142.50
803,61073848,-0.3379,0.6836,1.5459,-16.40,67.80,142.32
804,61078846,-0.2822,0.6211,1.4873,-7.32,53.72,141.46
805,61083845,-0.2314,0.5654,1.4453,2.62,41.04,140.00
806,61088848,-0.1665,0.5098,1.3916,13.17,29.33,138.23
807,61093847,-0.1094,0.4639,1.3330,23.60,18.96,135.91
808,61098845,-0.0537,0.4136,1.2769,32.99,9.27,133.11
809,61103915,-0.0151,0.3779,1.2109,41.16,0.55,130.12
810,61108847,0.0132,0.3477,1.1455,47.44,-7.20,126.77
811,61113847,0.0605,0.3291,1.0864,51.59,-14.02,123.11
812,61118849,0.1108,0.3105,1.0229,53.35,-20.12,118.90
813,61123847,0.1567,0.2822,0.9741,52.68,-25.49,114.27
814,61128848,0.1982,0.2690,0.9277,49.82,-30.12,109.21
815,61133849,0.2344,0.2568,0.8794,45.30,-34.02,103.72
816,61138845,0.2642,0.2490,0.8301,39.76,-37.13,98.05
817,61143849,0.3101,0.2476,0.7695,33.35,-39.82,92.20
818,61148845,0.3413,0.2412,0.7275,26.40,-42.13,86.04
819,61153847,0.3657,0.2344,0.6709,18.90,-44.02,79.63
820,61158848,0.3867,0.2290,0.6074,11.16,-45.79,73.29
821,61163845,0.3999,0.2300,0.5601,3.90,-47.32,66.95
822,61168847,0.4150,0.2202,0.5151,-2.62,-48.60,60.67
823,61173846,0.4316,0.2202,0.4663,-8.17,-49.57,54.70
824,61178849,0.4512,0.2217,0.4302,-12.68,-50.43,48.96
825,61183845,0.4644,0.2188,0.3921,-15.73,-51.04,43.48
826,61188848,0.4829,0.2261,0.3652,-17.62,-51.10,38.35
827,61193850,0.5068,0.2241,0.3296,-18.29,-51.34,33.48
828,61198847,0.5234,0.2275,0.3018,-18.05,-51.10,29.09
829,61203848,0.5430,0.2339,0.2739,-17.32,-50.61,25.06
830,61208846,0.5576,0.2368,0.2461,-15.98,-49.94,21.22
831,61213845,0.5645,0.2378,0.2183,-14.45,-49.09,17.80
832,61218845,0.5728,0.2407,0.1890,-12.62,-47.93,14.63
833,61223845,0.5840,0.2539,0.1743,-10.55,-46.59,11.71
834,61228845,0.6016,0.2656,0.1592,-8.35,-45.06,9.02
835,61233845,0.6270,0.2808,0.1421,-6.28,-43.41,6.40
836,61238850,0.6509,0.2939,0.1265,-5.00,-41.59,4.02
837,61243845,0.6602,0.3052,0.1118,-4.45,-40.00,1.77
838,61248845,0.6821,0.3164,0.0972,-5.30,-38.23,-0.73
839,61253845,0.6997,0.3315,0.0737,-7.80,-36.83,-3.17
840,61258846,0.7148,0.3530,0.0542,-11.52,-35.73,-5.67
841,61263845,0.7314,0.3750,0.0376,-16.34,-34.33,-8.29
842,61268849,0.7524,0.3950,0.0195,-21.89,-33.29,-10.85
843,61273845,0.7769,0.4160,0.0020,-29.70,-31.95,-14.02
844,61278849,0.7856,0.4312,-0.0054,-34.88,-30.98,-16.04
845,61283845,0.7993,0.4395,-0.0156,-41.89,-29.82,-18.54
846,61288847,0.8105,0.4321,-0.0488,-48.23,-28.90,-20.67
847,61293962,0.8091,0.4727,-0.0410,-53.84,-27.62,-22.68
848,61298847,0.8120,0.4937,-0.0293,-58.84,-26.40,-24.82
849,61304084,0.8145,0.5166,-0.0435,-63.29,-24.94,-26.77
850,61308847,0.8149,0.5293,-0.0537,-67.01,-23.48,-28.66
851,61313847,0.8052,0.5366,-0.0562,-69.94,-21.71,-30.30
852,61318847,0.8037,0.5391,-0.0591,-72.32,-20.12,-31.83
853,61323847,0.7988,0.5459,-0.0654,-73.78,-18.48,-33.23
854,61328849,0.7949,0.5571,-0.0732,-74.63,-17.01,-34.51
855,61333847,0.7949,0.5693,-0.0742,-74.57,-15.30,-35.91
856,61338851,0.7974,0.5776,-0.0693,-73.66,-13.90,-36.95
857,61343879,0.7954,0.5894,-0.0659,-72.07,-12.38,-38.11
858,61348848,0.7910,0.6021,-0.0518,-70.00,-10.91,-39.21
859,61353845,0.7930,0.6147,-0.0479,-67.74,-9.57,-40.18
860,61358847,0.7944,0.6216,-0.0522,-65.49,-8.17,-41.10
861,61363845,0.7905,0.6401,-0.0576,-63.11,-6.89,-42.01
862,61368847,0.7817,0.6582,-0.0615,-61.10,-5.61,-42.87
863,61373845,0.7827,0.6655,-0.0635,-59.21,-4.63,-43.48
864,61378845,0.7715,0.6704,-0.0581,-57.87,-3.66,-44.15
865,61383849,0.7754,0.6831,-0.0532,-56.89,-2.56,-44.51
866,61389245,0.7744,0.6851,-0.0454,-56.71,-1.83,-45.00
867,61393846,0.7754,0.6895,-0.0537,-56.95,-0.91,-45.43
868,61399476,0.7681,0.6870,-0.0444,-57.99,-0.18,-45.79
869,61403847,0.7622,0.6914,-0.0444,-59.63,0.24,-46.04
870,61408849,0.7490,0.6929,-0.0371,-61.77,0.55,-46.28
871,61413901,0.7402,0.6978,-0.0288,-64.27,1.04,-46.59
872,61418850,0.7227,0.7002,-0.0220,-66.95,1.28,-46.89
873,61424099,0.7153,0.7046,-0.0205,-69.45,1.52,-47.13
874,61428851,0.7119,0.7002,-0.0137,-72.01,1.77,-47.44
875,61433853,0.7070,0.7002,-0.0073,-74.27,2.01,-47.56
876,61438848,0.6987,0.7041,-0.0122,-76.28,2.32,-47.74
877,61443845,0.6973,0.7119,-0.0063,-77.99,2.74,-47.74
878,61448845,0.6909,0.7144,-0.0054,-79.39,3.48,-47.68
879,61453845,0.6851,0.7085,0.0024,-80.61,4.09,-47.56
880,61458846,0.6855,0.7100,0.0029,-81.52,4.76,-47.32
881,61463848,0.6758,0.7095,-0.0049,-82.26,5.55,-47.13
882,61468845,0.6626,0.7021,0.0029,-82.80,6.28,-46.71
883,61473845,0.6562,0.7026,0.0029,-83.35,7.07,-46.46
884,61478845,0.6396,0.7085,0.0103,-83.72,7.62,-46.16
885,61483845,0.6279,0.7100,0.0103,-83.90,8.23,-46.04
886,61488845,0.6206,0.7124,0.0161,-83.90,8.84,-46.04
887,61493845,0.6030,0.7139,0.0215,-84.02,9.39,-46.04
888,61498857,0.5903,0.7148,0.0210,-84.09,9.94,-46.22
889,61503850,0.5801,0.7153,0.0205,-84.39,10.43,-46.46
890,61508845,0.5728,0.7104,0.0278,-84.63,10.67,-46.77
891,61513845,0.5698,0.7095,0.0205,-84.94,11.04,-47.07
892,61519015,0.5674,0.7056,0.0264,-85.37,11.04,-47.50
893,61523846,0.5601,0.6992,0.0200,-85.79,11.04,-47.93
894,61528847,0.5503,0.7002,0.0278,-86.28,10.98,-48.35
895,61533845,0.5469,0.6982,0.0356,-86.95,10.73,-48.90
896,61538848,0.5503,0.7007,0.0400,-87.74,10.79,-49.70
897,61543846,0.5537,0.7056,0.0410,-88.66,10.91,-50.49
898,61548845,0.5552,0.7002,0.0542,-89.51,10.73,-51.59
899,61553849,0.5513,0.6978,0.0562,-90.18,11.04,-52.80
900,61558845,0.5488,0.7007,0.0562,-90.79,11.40,-54.15
901,61563848,0.5449,0.6982,0.0669,-91.22,11.65,-55.67
902,61568845,0.5435,0.6958,0.0815,-91.77,12.07,-57.20
903,61573845,0.5400,0.6987,0.0889,-92.26,12.44,-58.84
904,61578845,0.5337,0.7017,0.1060,-92.93,12.99,-60.43
905,61583845,0.5200,0.7021,0.1343,-93.84,13.54,-62.32
906,61588849,0.5005,0.6860,0.1313,-94.88,14.15,-64.09
907,61593849,0.5049,0.6733,0.1230,-95.24,14.63,-65.61
908,61598850,0.5566,0.6621,0.1787,-94.27,15.06,-66.95
909,61604183,0.5205,0.6626,0.1636,-91.34,15.30,-68.17
910,61608871,0.5015,0.6777,0.1172,-88.35,15.30,-69.51
911,61613847,0.4946,0.7021,0.1279,-85.55,15.67,-70.79
912,61618849,0.4834,0.7231,0.1909,-83.66,15.98,-72.20
913,61623852,0.4600,0.6909,0.1602,-82.74,16.40,-73.54
914,61628846,0.4629,0.6782,0.1299,-81.95,16.71,-74.63
915,61633869,0.4404,0.6802,0.1572,-81.77,17.20,-75.91
916,61638849,0.4380,0.6787,0.1587,-81.65,17.50,-77.26
917,61643847,0.4292,0.6836,0.1279,-81.59,17.93,-78.54
918,61648845,0.4204,0.6973,0.1074,-81.46,18.48,-80.24
919,61653846,0.4058,0.7070,0.1123,-81.28,18.96,-81.89
920,61658847,0.3809,0.7251,0.1123,-81.10,19.39,-83.78
921,61663846,0.3633,0.7314,0.1040,-81.22,19.88,-85.85
922,61668849,0.3633,0.7368,0.0957,-81.22,20.24,-87.93
923,61673846,0.3599,0.7383,0.1147,-81.04,20.61,-89.88
924,61678848,0.3569,0.7393,0.1069,-80.79,20.85,-92.01
925,61683847,0.3560,0.7246,0.1074,-80.06,21.04,-93.78
926,61688848,0.3271,0.7212,0.1406,-79.27,21.34,-95.79
927,61693847,0.2964,0.7056,0.1792,-78.78,21.77,-97.50
928,61698845,0.2632,0.6694,0.2495,-78.72,21.95,-99.39
929,61703848,0.2715,0.6523,0.2134,-79.82,22.68,-100.85
930,61708846,0.2881,0.6499,0.1846,-80.85,23.05,-102.32
931,61713848,0.2915,0.6689,0.2104,-81.83,23.23,-103.84
932,61718846,0.2734,0.6782,0.2407,-82.50,23.54,-105.43
933,61724289,0.2700,0.6670,0.2241,-83.35,24.15,-106.89
934,61728847,0.2529,0.6167,0.2603,-84.33,24.88,-108.48
935,61733847,0.2695,0.6187,0.2798,-85.85,25.79,-110.06
936,61738847,0.2754,0.6357,0.2798,-87.87,26.77,-111.89
937,61743847,0.2651,0.6655,0.2759,-89.63,27.50,-113.54
938,61748847,0.2544,0.6968,0.2852,-91.52,28.23,-115.24
939,61753847,0.2358,0.7061,0.2935,-93.29,28.96,-117.01
940,61758847,0.2144,0.7046,0.2954,-94.88,29.21,-118.78
941,61763846,0.2007,0.6987,0.3066,-96.10,29.94,-120.24
942,61768847,0.1851,0.6880,0.3184,-96.95,30.37,-121.83
943,61773847,0.1782,0.6895,0.3193,-97.68,30.91,-123.17
944,61778847,0.1777,0.6953,0.3315,-97.99,31.46,-124.57
945,61783847,0.1792,0.7070,0.3374,-97.74,32.07,-125.91
946,61788847,0.1699,0.6973,0.3496,-97.62,32.68,-127.26
947,61793847,0.1602,0.6895,0.3486,-97.38,33.66,-128.54
948,61798848,0.1548,0.6826,0.3652,-97.38,34.76,-130.18
949,61803847,0.1587,0.6865,0.3750,-97.80,35.98,-131.95
950,61808845,0.1587,0.6948,0.3813,-98.66,37.01,-133.66
951,61813845,0.1519,0.6982,0.3813,-100.37,38.29,-135.85
952,61818847,0.1333,0.7002,0.3809,-102.32,39.57,-138.29
953,61823845,0.1104,0.7046,0.3799,-104.45,41.28,-140.79
954,61828845,0.1064,0.7188,0.3896,-106.52,42.68,-143.54
955,61833845,0.0928,0.7310,0.3931,-108.35,44.27,-146.28
956,61838848,0.0767,0.7480,0.3940,-110.00,46.34,-149.76
957,61843847,0.0557,0.7563,0.3999,-110.67,47.62,-152.07
958,61848847,0.0488,0.7607,0.4072,-111.04,49.39,-155.12
959,61853847,0.0342,0.7627,0.4180,-110.67,50.98,-157.80
960,61858847,0.0142,0.7651,0.4160,-109.94,52.62,-160.55
961,61863846,0.0059,0.7603,0.4253,-108.96,54.09,-163.05
962,61868847,-0.0195,0.7539,0.4307,-107.87,55.49,-165.30
963,61873847,-0.0581,0.7422,0.4448,-106.22,57.07,-167.74
964,61878848,-0.0850,0.7285,0.4512,-105.06,58.17,-168.96
965,61883894,-0.1172,0.7222,0.4512,-103.60,59.45,-170.55
966,61888850,-0.1357,0.7144,0.4629,-102.01,60.91,-172.32
967,61893846,-0.1411,0.7085,0.4604,-101.28,61.83,-173.23
968,61898845,-0.1621,0.7051,0.4736,-100.73,63.17,-174.70
969,61903848,-0.1748,0.7100,0.4790,-100.73,63.96,-175.61
970,61908847,-0.1924,0.7095,0.4888,-101.28,64.76,-176.71
971,61913937,-0.2173,0.7065,0.4863,-102.20,65.85,-178.05
972,61918848,-0.2285,0.7061,0.4873,-102.99,66.46,-178.84
973,61923847,-0.2378,0.7104,0.4917,-103.60,66.95,-180.00
974,61928845,-0.2451,0.7104,0.5015,-103.96,67.62,-181.04
975,61933849,-0.2456,0.7139,0.5112,-103.72,68.23,-181.95
976,61938845,-0.2573,0.7129,0.5103,-102.93,69.02,-182.99
977,61943890,-0.2666,0.7065,0.5249,-101.34,69.70,-183.60
978,61948845,-0.2861,0.7041,0.5386,-98.72,70.30,-184.15
979,61953849,-0.3022,0.7036,0.5518,-95.67,71.10,-184.33
980,61958845,-0.3218,0.7056,0.5615,-91.89,71.89,-184.39
981,61963855,-0.3389,0.7100,0.5874,-88.17,72.80,-184.51
982,61968848,-0.3604,0.7163,0.5972,-84.21,73.84,-184.63
983,61973847,-0.3730,0.7261,0.6167,-80.61,74.82,-184.57
984,61978848,-0.3872,0.7427,0.6323,-77.62,75.85,-184.70
985,61983872,-0.3970,0.7656,0.6362,-75.61,76.65,-184.63
986,61988848,-0.4121,0.7783,0.6470,-74.02,77.44,-185.06
987,61993846,-0.4385,0.7881,0.6504,-73.17,78.17,-185.43
988,61998851,-0.4795,0.7974,0.6743,-72.62,78.72,-185.85
989,62003845,-0.5010,0.8135,0.6851,-72.01,79.33,-186.16
990,62008845,-0.5181,0.8140,0.6904,-71.10,80.06,-186.59
991,62013850,-0.5166,0.8120,0.7036,-69.57,80.73,-186.95
992,62019159,-0.5264,0.8120,0.7207,-67.32,81.52,-187.13
993,62023848,-0.5386,0.8203,0.7207,-65.30,81.95,-187.50
994,62028849,-0.5527,0.8174,0.7368,-62.44,82.74,-187.68
995,62033949,-0.5747,0.8188,0.7505,-59.09,83.23,-187.87
996,62038900,-0.6006,0.8101,0.7539,-55.18,84.94,-188.11
997,62043850,-0.6191,0.8062,0.7573,-51.10,84.09,-188.17
998,62048845,-0.6421,0.8027,0.7598,-46.89,85.61,-188.23
999,62053849,-0.6685,0.7993,0.7715,-42.50,85.67,-188.11
1000,62058885,-0.6938,0.7964,0.7788,-38.11,85.67,-187.93
1001,62063850,-0.7090,0.7959,0.7876,-33.72,85.67,-187.62
1002,62068845,-0.7305,0.7993,0.7954,-29.70,85.61,-187.44
1003,62073845,-0.7554,0.8018,0.8169,-26.34,85.61,-187.01
1004,62078849,-0.7896,0.8027,0.8101,-23.54,85.61,-186.77
1005,62083845,-0.8213,0.8076,0.8145,-21.28,85.55,-186.34
1006,62088850,-0.8535,0.8032,0.8213,-19.27,85.55,-185.79
1007,62094040,-0.8813,0.7974,0.8257,-17.68,85.55,-185.12
1008,62098850,-0.9043,0.7861,0.8179,-15.98,85.49,-184.45
1009,62103845,-0.9341,0.7744,0.8184,-14.09,85.49,-183.48
1010,62108845,-0.9517,0.7622,0.8159,-11.89,85.49,-182.62
1011,62113845,-0.9697,0.7471,0.8047,-9.45,85.49,-181.52
1012,62118845,-0.9868,0.7290,0.8032,-6.95,85.43,-180.30
1013,62123845,-1.0039,0.7183,0.7959,-4.27,85.06,-178.90
1014,62128845,-1.0220,0.7031,0.7896,-1.46,84.15,-177.50
1015,62133850,-1.0464,0.6865,0.7808,1.40,83.17,-176.10
1016,62138847,-1.0708,0.6699,0.7725,4.33,82.93,-174.70
1017,62143848,-1.0825,0.6602,0.7681,7.13,82.74,-173.17
1018,62148847,-1.0991,0.6504,0.7612,9.82,82.93,-171.71
1019,62153848,-1.1016,0.6431,0.7490,12.07,82.62,-170.43
1020,62159000,-1.1011,0.6421,0.7437,14.27,82.07,-168.96
1021,62163845,-1.1074,0.6406,0.7485,16.04,81.59,-167.44
1022,62168848,-1.1118,0.6387,0.7563,16.89,81.28,-166.22
1023,62173847,-1.1265,0.6357,0.7456,17.62,80.61,-164.94
1024,62178845,-1.1465,0.6309,0.7456,17.99,79.94,-163.60
1025,62183851,-1.1641,0.6260,0.7461,17.93,79.27,-162.07
1026,62188847,-1.1860,0.6167,0.7397,17.50,78.17,-160.49
1027,62193847,-1.2031,0.6118,0.7397,16.95,77.50,-159.21
1028,62198848,-1.2212,0.6064,0.7319,16.04,76.71,-157.80
1029,62203848,-1.2388,0.5967,0.7295,14.94,76.10,-156.34
1030,62208845,-1.2500,0.5981,0.7217,13.60,75.55,-155.00
1031,62213852,-1.2588,0.5830,0.7212,12.32,74.88,-153.78
1032,62218845,-1.2729,0.5864,0.7241,10.98,74.70,-152.62
1033,62223848,-1.2900,0.5781,0.7100,9.76,74.57,-151.52
1034,62228847,-1.2891,0.5737,0.7051,8.48,74.57,-150.49
1035,62233848,-1.2798,0.5649,0.6938,7.01,74.63,-149.39
1036,62238845,-1.2764,0.5610,0.6865,5.55,74.88,-148.72
1037,62243848,-1.2700,0.5513,0.6797,3.96,75.12,-148.17
1038,62248847,-1.2681,0.5513,0.6724,2.20,75.55,-147.50
1039,62253852,-1.2720,0.5493,0.6641,0.24,75.98,-147.01
1040,62258926,-1.2749,0.5439,0.6582,-1.65,76.34,-146.71
1041,62263847,-1.2783,0.5396,0.6499,-3.66,76.83,-146.40
1042,62268849,-1.2749,0.5352,0.6328,-5.73,77.26,-145.91
1043,62273845,-1.2676,0.5239,0.6250,-7.87,77.56,-145.61
1044,62278846,-1.2700,0.5151,0.6182,-9.94,77.87,-145.24
1045,62283890,-1.2622,0.5151,0.6182,-12.07,78.29,-144.88
1046,62288848,-1.2495,0.5117,0.6021,-14.39,78.60,-144.39
1047,62293847,-1.2437,0.5034,0.6084,-16.77,78.78,-143.84
1048,62298845,-1.2456,0.4878,0.6006,-19.39,78.96,-142.93
1049,62303854,-1.2544,0.4775,0.5918,-21.89,79.02,-142.07
1050,62308847,-1.2515,0.4722,0.5957,-24.63,78.90,-140.91
1051,62313846,-1.2539,0.4644,0.5908,-27.07,78.72,-139.45
1052,62318845,-1.2524,0.4541,0.5806,-29.57,78.35,-137.62
1053,62323845,-1.2529,0.4419,0.5757,-31.95,77.93,-135.61
1054,62328845,-1.2573,0.4277,0.5723,-34.27,77.20,-133.23
1055,62333849,-1.2568,0.4219,0.5703,-36.46,76.59,-130.79
1056,62338846,-1.2529,0.4014,0.5679,-38.54,75.61,-127.93
1057,62343847,-1.2432,0.3921,0.5610,-40.37,74.70,-124.70
1058,62348846,-1.2280,0.3843,0.5581,-42.26,73.54,-121.28
1059,62353845,-1.2144,0.3687,0.5503,-43.96,72.56,-117.62
1060,62358845,-1.1978,0.3613,0.5488,-45.79,71.46,-113.84
1061,62363850,-1.1831,0.3521,0.5459,-47.68,70.06,-109.82
1062,62368847,-1.1558,0.3418,0.5376,-49.39,68.84,-105.67
1063,62373845,-1.1294,0.3276,0.5342,-51.16,67.50,-101.28
1064,62378847,-1.1025,0.3164,0.5239,-52.68,66.10,-96.89
1065,62383847,-1.0820,0.3096,0.5239,-54.02,64.63,-92.26
1066,62388846,-1.0664,0.2993,0.5166,-55.12,63.05,-87.50
1067,62393847,-1.0527,0.2954,0.5093,-56.22,61.46,-82.80
1068,62398853,-1.0396,0.2871,0.5059,-57.13,59.76,-78.17
1069,62403847,-1.0303,0.2793,0.5005,-57.93,58.11,-73.60
1070,62408845,-1.0225,0.2705,0.4971,-58.48,56.40,-68.78
1071,62413845,-1.0122,0.2681,0.4902,-58.96,54.70,-64.45
1072,62418845,-1.0117,0.2637,0.4902,-59.21,52.99,-60.12
1073,62423845,-1.0117,0.2622,0.4883,-59.39,51.40,-56.04
1074,62428848,-1.0068,0.2524,0.4893,-59.45,49.70,-52.13
1075,62433847,-1.0044,0.2524,0.4829,-59.27,47.68,-48.23
1076,62438847,-1.0020,0.2456,0.4751,-58.84,45.98,-44.57
1077,62443847,-0.9966,0.2397,0.4707,-58.11,44.15,-41.16
1078,62448847,-1.0073,0.2378,0.4668,-57.07,42.20,-37.87
1079,62453848,-1.0137,0.2368,0.4629,-55.79,40.24,-34.70
1080,62458847,-1.0142,0.2319,0.4580,-54.15,38.35,-31.83
1081,62463847,-1.0161,0.2261,0.4526,-52.38,36.34,-29.15
1082,62468847,-1.0156,0.2236,0.4404,-50.18,34.21,-26.40
1083,62473847,-1.0127,0.2217,0.4370,-47.93,32.20,-24.09
1084,62478846,-1.0142,0.2188,0.4380,-45.12,30.12,-21.65
1085,62483847,-1.0176,0.2080,0.4297,-42.13,28.05,-19.63
1086,62488846,-1.0190,0.2065,0.4287,-38.90,25.85,-17.56
1087,62493847,-1.0156,0.2036,0.4219,-35.37,23.72,-15.49
1088,62498848,-1.0166,0.1948,0.4316,-31.65,21.65,-13.66
1089,62503846,-1.0186,0.1919,0.4194,-27.62,19.76,-11.77
1090,62508848,-1.0220,0.1875,0.4233,-23.48,17.56,-10.00
1091,62513847,-1.0269,0.1841,0.4248,-19.15,15.43,-8.35
1092,62518849,-1.0264,0.1831,0.4180,-14.70,13.23,-6.77
1093,62523847,-1.0259,0.1782,0.4155,-10.24,11.40,-5.43
1094,62528846,-1.0254,0.1792,0.4131,-5.73,9.39,-3.96
1095,62533847,-1.0293,0.1743,0.4087,-1.10,7.38,-2.62
1096,62538847,-1.0220,0.1670,0.4023,3.35,5.30,-1.46
1097,62543847,-1.0195,0.1582,0.4009,7.99,3.54,-0.24
1098,62548847,-1.0156,0.1489,0.3955,12.74,1.52,0.91
1099,62553847,-1.0054,0.1523,0.3901,17.26,-0.24,2.07
1100,62558845,-0.9961,0.1470,0.3896,21.77,-2.26,3.17
1101,62563846,-0.9897,0.1396,0.3882,26.16,-4.09,4.27
1102,62568847,-0.9829,0.1357,0.3779,30.67,-5.73,5.37
1103,62573847,-0.9756,0.1201,0.3799,35.30,-7.44,6.46
1104,62578951,-0.9663,0.1221,0.3662,39.88,-9.09,7.62
1105,62583896,-0.9624,0.1182,0.3726,44.27,-10.49,8.78
1106,62588849,-0.9585,0.1133,0.3745,48.60,-11.89,9.76
1107,62593912,-0.9600,0.1113,0.3770,52.80,-13.05,10.79
1108,62598847,-0.9575,0.1089,0.3730,56.83,-13.90,11.77
1109,62603846,-0.9565,0.1108,0.3779,60.61,-14.94,12.56
1110,62608851,-0.9482,0.1099,0.3652,64.27,-15.85,13.41
1111,62614086,-0.9360,0.1099,0.3706,67.56,-16.46,14.09
1112,62618847,-0.9268,0.1084,0.3677,70.61,-17.38,14.70
1113,62623847,-0.9219,0.1084,0.3579,73.35,-17.99,15.37
1114,62628846,-0.9102,0.1133,0.3618,75.79,-18.78,15.91
1115,62633848,-0.9048,0.1079,0.3511,77.93,-19.51,16.34
1116,62638847,-0.8945,0.1050,0.3491,79.82,-20.12,16.83
1117,62643847,-0.8931,0.0981,0.3452,81.40,-20.91,17.32
1118,62648847,-0.8921,0.1011,0.3491,82.80,-21.83,17.68
1119,62653847,-0.8936,0.0918,0.3496,84.09,-22.68,18.17
1120,62658946,-0.9004,0.0938,0.3457,85.18,-23.35,18.66
1121,62663847,-0.9067,0.0898,0.3511,85.98,-24.02,19.15
1122,62668849,-0.9189,0.0864,0.3521,86.34,-24.63,19.57
1123,62673845,-0.9302,0.0859,0.3535,86.52,-25.30,20.12
1124,62678845,-0.9414,0.0908,0.3550,86.83,-25.79,20.67
1125,62683845,-0.9395,0.0903,0.3511,86.59,-26.10,21.04
1126,62688845,-0.9365,0.0864,0.3525,86.10,-26.65,21.46
1127,62693845,-0.9346,0.0854,0.3462,85.61,-27.07,21.77
1128,62698849,-0.9360,0.0815,0.3496,84.94,-27.44,22.32
1129,62703847,-0.9434,0.0815,0.3486,83.96,-27.93,22.68
1130,62708848,-0.9487,0.0806,0.3423,82.87,-28.29,23.17
1131,62713846,-0.9497,0.0762,0.3379,81.59,-28.78,23.41
1132,62718845,-0.9517,0.0791,0.3394,80.37,-29.15,23.78
1133,62723845,-0.9482,0.0791,0.3359,78.66,-29.45,24.02
1134,62728845,-0.9390,0.0806,0.3389,76.89,-29.82,24.33
1135,62733847,-0.9355,0.0737,0.3345,75.12,-30.24,24.63
1136,62738847,-0.9395,0.0776,0.3340,73.17,-30.37,24.70
1137,62743846,-0.9404,0.0781,0.3320,71.10,-30.61,25.00
1138,62748861,-0.9482,0.0806,0.3398,68.84,-30.85,25.12
1139,62753847,-0.9517,0.0815,0.3364,66.28,-31.10,25.30
1140,62758847,-0.9585,0.0806,0.3320,63.54,-31.28,25.18
1141,62763846,-0.9619,0.0781,0.3262,60.79,-31.34,25.30
1142,62769288,-0.9668,0.0815,0.3423,57.80,-31.34,25.30
1143,62773848,-0.9741,0.0854,0.3398,54.70,-31.28,25.18
1144,62778861,-0.9854,0.0840,0.3389,51.52,-31.46,25.06
1145,62784369,-0.9922,0.0923,0.3452,48.29,-31.52,25.00
1146,62788848,-0.9966,0.0889,0.3467,45.18,-31.59,24.88
1147,62793845,-1.0000,0.0864,0.3369,42.01,-31.52,24.76
1148,62798848,-0.9995,0.0815,0.3447,38.96,-31.65,24.70
1149,62804021,-1.0000,0.0815,0.3467,35.85,-31.52,24.57
1150,62808847,-0.9990,0.0762,0.3423,33.17,-31.59,24.63
1151,62813846,-0.9927,0.0742,0.3403,30.55,-31.34,24.70
1152,62818847,-0.9883,0.0732,0.3384,28.17,-31.28,24.88
1153,62823845,-0.9780,0.0728,0.3433,25.85,-31.10,24.88
1154,62828848,-0.9688,0.0693,0.3447,23.72,-30.85,25.12
1155,62833847,-0.9609,0.0679,0.3467,21.83,-30.61,25.18
1156,62838848,-0.9585,0.0659,0.3457,19.82,-30.18,25.43
1157,62843845,-0.9502,0.0645,0.3403,17.99,-29.88,25.67
1158,62848847,-0.9468,0.0615,0.3491,16.04,-29.39,25.91
1159,62853880,-0.9390,0.0640,0.3433,14.33,-28.96,25.98
1160,62858847,-0.9399,0.0645,0.3467,12.38,-28.54,26.22
1161,62863846,-0.9336,0.0645,0.3477,10.67,-27.87,26.34
1162,62868849,-0.9346,0.0669,0.3486,8.66,-27.13,26.52
1163,62873847,-0.9370,0.0649,0.3516,6.83,-26.52,26.52
1164,62878847,-0.9370,0.0645,0.3477,4.82,-26.04,26.65
1165,62883848,-0.9409,0.0684,0.3486,2.74,-25.30,26.59
1166,62888848,-0.9478,0.0669,0.3428,0.91,-24.88,26.65
1167,62893846,-0.9551,0.0635,0.3486,-1.16,-24.39,26.77
1168,62898846,-0.9600,0.0620,0.3530,-2.62,-23.90,26.95
1169,62904135,-0.9634,0.0630,0.3477,-4.15,-23.29,27.20
1170,62908847,-0.9707,0.0571,0.3481,-5.18,-22.74,27.44
1171,62913847,-0.9756,0.0542,0.3535,-6.04,-22.07,27.68
1172,62918848,-0.9814,0.0552,0.3467,-6.59,-21.34,28.11
1173,62923845,-0.9839,0.0513,0.3564,-6.95,-20.61,28.54
1174,62928845,-0.9819,0.0503,0.3604,-7.32,-19.70,28.90
1175,62933846,-0.9805,0.0469,0.3657,-7.62,-18.96,29.27
1176,62938847,-0.9829,0.0522,0.3706,-7.80,-17.99,29.70
1177,62943845,-0.9819,0.0522,0.3716,-8.11,-16.89,29.88
1178,62948845,-0.9829,0.0537,0.3687,-8.54,-15.98,30.18
1179,62953848,-0.9785,0.0557,0.3682,-9.02,-14.76,30.43
1180,62958846,-0.9697,0.0566,0.3633,-9.45,-13.78,30.61
1181,62963845,-0.9648,0.0547,0.3672,-10.12,-12.62,30.85
1182,62968849,-0.9575,0.0503,0.3711,-10.73,-11.65,30.91
1183,62973845,-0.9585,0.0518,0.3706,-11.40,-10.55,31.10
1184,62978849,-0.9551,0.0547,0.3770,-12.13,-9.45,31.16
1185,62983845,-0.9570,0.0503,0.3735,-12.99,-8.17,31.22
1186,62988847,-0.9575,0.0503,0.3745,-13.78,-6.95,31.16
1187,62993890,-0.9531,0.0518,0.3789,-14.76,-5.85,31.28
1188,62998847,-0.9521,0.0532,0.3779,-15.73,-4.51,31.22
1189,63003848,-0.9473,0.0601,0.3745,-16.71,-3.29,31.16
1190,63008846,-0.9424,0.0586,0.3867,-17.74,-2.26,30.73
1191,63013845,-0.9409,0.0645,0.3843,-18.84,-0.91,30.67
1192,63018864,-0.9370,0.0679,0.3813,-20.30,0.37,30.24
1193,63023998,-0.9331,0.0674,0.3867,-21.52,1.46,29.94
1194,63028849,-0.9272,0.0713,0.3818,-22.87,2.56,29.51
1195,63033845,-0.9268,0.0674,0.3735,-23.66,3.35,29.27
1196,63038849,-0.9199,0.0630,0.3730,-24.88,4.33,28.78
1197,63043846,-0.9189,0.0591,0.3735,-25.67,5.24,28.78
1198,63048850,-0.9165,0.0557,0.3735,-26.16,5.73,28.54
1199,63053852,-0.9106,0.0518,0.3765,-26.77,6.52,28.48
1200,63058847,-0.9102,0.0518,0.3765,-27.07,6.95,28.35
1201,63063848,-0.9131,0.0527,0.3755,-27.38,7.62,28.35
1202,63068848,-0.9121,0.0522,0.3730,-27.80,8.23,28.41
1203,63073895,-0.9155,0.0542,0.3843,-28.29,8.90,28.41
1204,63078845,-0.9170,0.0537,0.3882,-28.84,9.33,28.41
1205,63083849,-0.9189,0.0581,0.3843,-29.70,10.06,28.29
1206,63088845,-0.9175,0.0605,0.3833,-30.49,10.30,28.29
1207,63093845,-0.9214,0.0679,0.3882,-31.71,10.73,28.17
1208,63098847,-0.9204,0.0693,0.3911,-33.05,11.16,27.99
1209,63103849,-0.9219,0.0747,0.3877,-34.63,11.40,27.62
1210,63108848,-0.9277,0.0801,0.3833,-36.46,11.59,27.20
1211,63113856,-0.9272,0.0835,0.3911,-38.35,11.83,26.83
1212,63118847,-0.9331,0.0889,0.3838,-40.43,11.95,26.40
1213,63123845,-0.9331,0.0874,0.3911,-42.20,11.83,25.98
1214,63128845,-0.9321,0.0879,0.3799,-44.02,11.71,25.49
1215,63133845,-0.9341,0.0854,0.3809,-45.67,11.65,25.06
1216,63138845,-0.9365,0.0835,0.3794,-46.83,11.40,24.88
1217,63143845,-0.9355,0.0771,0.3730,-47.80,11.04,24.63
1218,63148845,-0.9380,0.0757,0.3721,-48.41,10.79,24.51
1219,63153850,-0.9375,0.0771,0.3706,-48.60,10.49,24.45
1220,63158909,-0.9395,0.0728,0.3755,-48.60,10.37,24.51
1221,63163848,-0.9434,0.0703,0.3794,-48.48,10.18,24.51
1222,63168845,-0.9399,0.0747,0.3799,-48.17,9.88,24.33
1223,63173845,-0.9482,0.0762,0.3794,-47.80,9.76,24.33
1224,63178945,-0.9468,0.0786,0.3813,-47.56,9.57,24.33
1225,63183849,-0.9463,0.0796,0.3770,-47.44,9.33,24.09
1226,63188850,-0.9424,0.0850,0.3833,-47.32,9.21,23.90
1227,63193939,-0.9434,0.0918,0.3789,-47.38,9.21,23.54
1228,63198851,-0.9424,0.0933,0.3794,-47.38,9.09,23.23
1229,63203845,-0.9399,0.0952,0.3843,-47.68,8.78,22.80
1230,63208848,-0.9375,0.1030,0.3853,-47.99,8.72,22.20
1231,63213845,-0.9390,0.1060,0.3809,-48.35,8.72,21.65
1232,63218845,-0.9380,0.1064,0.3872,-48.84,8.60,21.10
1233,63223850,-0.9351,0.1074,0.3789,-49.21,8.35,20.49
1234,63228845,-0.9355,0.1011,0.3833,-49.33,8.29,19.94
1235,63233892,-0.9399,0.1030,0.3804,-49.45,8.05,19.39
1236,63238847,-0.9463,0.1016,0.3804,-49.21,7.74,19.02
1237,63243845,-0.9541,0.0996,0.3770,-48.72,7.74,18.60
1238,63248849,-0.9565,0.0942,0.3838,-48.11,7.44,18.35
1239,63253904,-0.9624,0.0981,0.3857,-47.20,7.44,17.99
1240,63258847,-0.9531,0.0967,0.3877,-46.10,7.20,17.87
1241,63263847,-0.9517,0.0942,0.3906,-44.94,7.20,17.68
1242,63268845,-0.9443,0.0967,0.3906,-43.66,7.07,17.50
1243,63273845,-0.9463,0.0942,0.3921,-42.38,7.32,17.38
1244,63278849,-0.9399,0.0967,0.3940,-41.10,7.26,17.20
1245,63283848,-0.9341,0.0967,0.3926,-39.88,7.26,17.07
1246,63288853,-0.9282,0.0977,0.3989,-38.66,7.38,17.13
1247,63293891,-0.9282,0.1016,0.3916,-37.56,7.38,16.89
1248,63298846,-0.9233,0.1016,0.3999,-36.77,7.74,16.77
1249,63303848,-0.9258,0.1021,0.3931,-35.85,7.80,16.59
1250,63309024,-0.9282,0.1064,0.3994,-35.24,7.93,16.40
1251,63314315,-0.9238,0.1045,0.3960,-34.70,8.48,16.16
1252,63318847,-0.9224,0.1089,0.3911,-34.51,8.41,15.98
1253,63323846,-0.9224,0.1055,0.3945,-33.96,8.54,15.85
1254,63328846,-0.9258,0.1045,0.3950,-33.48,8.90,15.67
1255,63333847,-0.9321,0.1040,0.4077,-33.17,9.15,15.67
1256,63338846,-0.9375,0.1060,0.4106,-32.62,9.63,15.49
1257,63343847,-0.9385,0.1064,0.4160,-31.95,10.12,15.37
1258,63348847,-0.9487,0.1089,0.4175,-31.52,10.61,15.30
1259,63353845,-0.9526,0.1069,0.4194,-31.04,11.34,15.24
1260,63358848,-0.9663,0.1094,0.4175,-30.91,11.83,15.12
1261,63363847,-0.9707,0.1099,0.4248,-30.67,12.56,15.06
1262,63368848,-0.9771,0.1128,0.4287,-30.67,13.23,14.94
1263,63373847,-0.9756,0.1084,0.4287,-30.67,13.84,14.88
1264,63379031,-0.9688,0.1089,0.4316,-30.91,14.51,14.82
1265,63383849,-0.9697,0.1108,0.4321,-30.98,15.18,14.94
1266,63388845,-0.9678,0.1084,0.4355,-31.40,15.67,15.06
1267,63393846,-0.9707,0.1108,0.4287,-31.59,16.22,15.12
1268,63398847,-0.9736,0.1104,0.4272,-32.01,16.77,15.30
1269,63403849,-0.9697,0.1074,0.4312,-32.13,17.13,15.55
1270,63408847,-0.9609,0.1143,0.4219,-32.62,17.44,15.85
1271,63414110,-0.9585,0.1099,0.4243,-33.11,17.87,16.16
1272,63418847,-0.9526,0.1084,0.4268,-33.72,18.11,16.34
1273,63423847,-0.9526,0.1069,0.4307,-34.33,18.72,16.71
1274,63429335,-0.9478,0.1104,0.4253,-35.30,19.09,17.26
1275,63433847,-0.9507,0.1118,0.4302,-36.10,19.39,17.50
1276,63438847,-0.9478,0.1104,0.4238,-37.07,19.70,17.80
1277,63443848,-0.9473,0.1064,0.4346,-38.17,19.82,18.23
1278,63448847,-0.9434,0.1104,0.4292,-39.45,20.30,18.60
1279,63453848,-0.9438,0.1094,0.4297,-40.73,20.43,19.02
1280,63458847,-0.9453,0.1079,0.4263,-42.07,20.67,19.39
1281,63463847,-0.9438,0.1079,0.4282,-43.41,20.85,19.82
1282,63468847,-0.9395,0.1060,0.4302,-44.76,20.79,20.24
1283,63473847,-0.9463,0.1040,0.4277,-46.16,21.04,20.73
1284,63478847,-0.9482,0.1040,0.4258,-47.56,20.98,21.22
1285,63483847,-0.9521,0.1025,0.4277,-48.84,20.91,21.83
1286,63488847,-0.9590,0.1016,0.4243,-50.30,21.10,22.38
1287,63493847,-0.9644,0.1030,0.4238,-51.52,21.10,22.87
1288,63498879,-0.9648,0.1006,0.4287,-52.99,20.98,23.35
1289,63503846,-0.9658,0.1001,0.4316,-54.33,21.04,23.72
1290,63508950,-0.9712,0.0962,0.4302,-55.73,21.04,24.15
1291,63513878,-0.9673,0.0962,0.4302,-57.20,21.04,24.57
1292,63518847,-0.9717,0.0986,0.4268,-58.48,20.91,24.94
1293,63523848,-0.9688,0.1021,0.4282,-59.94,20.85,25.24
1294,63528849,-0.9639,0.1011,0.4243,-61.28,20.73,25.43
1295,63533847,-0.9702,0.1011,0.4248,-62.68,20.61,25.67
1296,63538847,-0.9746,0.0972,0.4199,-63.90,20.37,25.91
1297,63543847,-0.9775,0.0977,0.4111,-65.06,20.06,26.10
1298,63548847,-0.9824,0.0981,0.4180,-66.10,19.82,26.10
1299,63553847,-0.9795,0.0947,0.4160,-67.01,19.45,26.40
1300,63558847,-0.9902,0.0942,0.4175,-67.74,19.21,26.34
1301,63563847,-0.9883,0.0923,0.4111,-68.35,18.66,26.59
1302,63568847,-0.9893,0.0889,0.4062,-68.72,18.29,26.52
1303,63573847,-0.9917,0.0889,0.4082,-68.90,17.93,26.65
1304,63578847,-1.0010,0.0938,0.4043,-69.15,17.50,26.71
1305,63583847,-0.9980,0.0913,0.4033,-69.33,16.83,26.59
1306,63588847,-1.0020,0.0913,0.4043,-69.21,16.28,26.59
1307,63593847,-0.9937,0.0908,0.3984,-69.02,15.98,26.46
1308,63598847,-0.9868,0.0840,0.3965,-68.72,15.24,26.34
1309,63603848,-0.9878,0.0874,0.3867,-67.99,14.51,26.22
1310,63608846,-0.9824,0.0869,0.3892,-67.20,14.21,26.04
1311,63613845,-0.9834,0.0840,0.3853,-66.10,13.60,25.85
1312,63618845,-0.9780,0.0884,0.3789,-64.82,12.87,25.67
1313,63623847,-0.9678,0.0835,0.3823,-63.48,12.26,25.30
1314,63628845,-0.9585,0.0830,0.3711,-61.71,11.52,25.06
1315,63633849,-0.9448,0.0806,0.3672,-59.88,10.61,24.88
1316,63638847,-0.9268,0.0786,0.3652,-57.74,9.88,24.63
1317,63643847,-0.9189,0.0737,0.3584,-55.55,8.96,24.39
1318,63648848,-0.9072,0.0757,0.3579,-53.23,8.17,24.02
1319,63653846,-0.8940,0.0796,0.3481,-50.43,7.50,23.78
1320,63658849,-0.8862,0.0718,0.3501,-47.80,6.59,23.48
1321,63663846,-0.8975,0.0728,0.3511,-45.12,5.73,23.23
1322,63668845,-0.9072,0.0752,0.3516,-42.50,5.00,22.93
1323,63673849,-0.9126,0.0728,0.3467,-39.63,4.15,22.50
1324,63678845,-0.9185,0.0698,0.3472,-36.83,3.35,22.13
1325,63683849,-0.9170,0.0718,0.3481,-33.84,2.56,21.89
1326,63688847,-0.9180,0.0723,0.3486,-31.04,1.83,21.46
1327,63693849,-0.9146,0.0713,0.3462,-28.23,1.16,20.98
1328,63698846,-0.9180,0.0693,0.3462,-25.49,0.55,20.67
1329,63703845,-0.9224,0.0728,0.3457,-22.80,-0.12,20.18
1330,63708849,-0.9243,0.0703,0.3486,-20.18,-0.91,19.82
1331,63713845,-0.9287,0.0703,0.3442,-17.68,-1.52,19.33
1332,63718847,-0.9277,0.0757,0.3438,-15.43,-2.07,18.90
1333,63723846,-0.9204,0.0757,0.3442,-13.05,-2.50,18.41
1334,63728847,-0.9268,0.0698,0.3433,-10.91,-3.11,17.80
1335,63733847,-0.9258,0.0679,0.3462,-8.90,-3.78,17.32
1336,63738847,-0.9282,0.0723,0.3438,-6.89,-4.02,16.83
1337,63743913,-0.9292,0.0693,0.3418,-5.00,-4.70,16.28
1338,63748849,-0.9346,0.0742,0.3511,-3.41,-4.94,15.67
1339,63753847,-0.9346,0.0713,0.3403,-1.89,-5.24,15.06
1340,63758847,-0.9409,0.0776,0.3486,-0.37,-5.37,14.45
1341,63763848,-0.9473,0.0771,0.3501,0.79,-5.37,13.78
1342,63768847,-0.9512,0.0776,0.3545,1.71,-5.55,13.11
1343,63773848,-0.9570,0.0801,0.3569,2.50,-5.49,12.38
1344,63778847,-0.9580,0.0801,0.3584,3.17,-5.37,11.65
1345,63783846,-0.9600,0.0801,0.3589,3.54,-5.18,10.79
1346,63789361,-0.9678,0.0806,0.3613,3.90,-5.06,10.06
1347,63793874,-0.9673,0.0850,0.3628,4.09,-5.00,9.27
1348,63798846,-0.9727,0.0879,0.3618,4.02,-4.76,8.41
1349,63803845,-0.9741,0.0884,0.3657,4.09,-4.51,7.62
1350,63808849,-0.9751,0.0894,0.3667,3.96,-4.09,6.83
1351,63813849,-0.9678,0.0889,0.3638,3.90,-3.96,6.22
1352,63818996,-0.9653,0.0918,0.3706,3.90,-3.78,5.55
1353,63823847,-0.9678,0.0913,0.3628,3.66,-3.41,4.70
1354,63828849,-0.9619,0.0874,0.3726,3.41,-3.23,3.96
1355,63833848,-0.9644,0.0898,0.3687,3.11,-2.93,3.48
1356,63838849,-0.9634,0.0903,0.3662,2.93,-2.80,2.93
1357,63843862,-0.9663,0.0894,0.3711,2.50,-2.44,2.26
1358,63848847,-0.9683,0.0913,0.3721,2.07,-2.26,1.71
1359,63853848,-0.9727,0.0952,0.3716,1.52,-1.95,1.34
1360,63858848,-0.9751,0.0923,0.3687,0.91,-1.65,0.79
1361,63863847,-0.9790,0.0957,0.3726,0.24,-1.40,0.24
1362,63868848,-0.9849,0.1011,0.3691,-0.43,-1.22,-0.12
1363,63873851,-0.9917,0.0972,0.3682,-1.10,-1.04,-0.61
1364,63878845,-0.9941,0.1025,0.3711,-1.83,-0.85,-1.10
1365,63883847,-0.9976,0.1021,0.3765,-2.74,-0.73,-1.46
1366,63888849,-1.0049,0.1021,0.3730,-3.66,-0.55,-1.83
1367,63893913,-1.0059,0.1064,0.3706,-4.63,-0.61,-2.38
1368,63898847,-1.0137,0.1074,0.3696,-5.79,-0.43,-2.68
1369,63903852,-1.0181,0.1045,0.3740,-6.89,-0.37,-3.17
1370,63908845,-1.0161,0.1128,0.3711,-7.93,-0.55,-3.60
1371,63913845,-1.0166,0.1099,0.3691,-9.02,-0.37,-4.02
1372,63918846,-1.0078,0.1143,0.3716,-10.12,-0.37,-4.39
1373,63923847,-1.0015,0.1128,0.3677,-11.16,-0.37,-4.88
1374,63928847,-0.9907,0.1104,0.3652,-12.26,-0.30,-5.18
1375,63933845,-0.9839,0.1089,0.3740,-12.93,-0.24,-5.49
1376,63938847,-0.9795,0.1089,0.3672,-13.72,0.00,-5.98
1377,63943850,-0.9692,0.1099,0.3740,-14.27,0.12,-6.28
1378,63948847,-0.9658,0.1074,0.3594,-14.63,0.30,-6.46
1379,63953847,-0.9521,0.1035,0.3667,-14.88,0.55,-6.77
1380,63958847,-0.9390,0.0996,0.3667,-14.88,0.91,-7.01
1381,63963847,-0.9248,0.0991,0.3623,-15.00,1.34,-7.26
1382,63968847,-0.9189,0.0967,0.3618,-14.88,1.71,-7.38
1383,63973847,-0.9219,0.1011,0.3652,-14.76,2.13,-7.44
1384,63978847,-0.9229,0.1006,0.3672,-14.51,2.56,-7.62
1385,63983847,-0.9243,0.0996,0.3628,-14.39,3.05,-7.74
1386,63988847,-0.9282,0.1030,0.3638,-14.39,3.72,-7.99
1387,63993847,-0.9248,0.1006,0.3745,-14.27,4.21,-8.17
1388,63998847,-0.9282,0.1016,0.3730,-14.27,4.88,-8.48
1389,64003847,-0.9312,0.1055,0.3784,-14.39,5.43,-8.72
1390,64008847,-0.9404,0.1055,0.3721,-14.70,6.16,-8.96
1391,64013848,-0.9526,0.1064,0.3716,-15.00,6.71,-9.27
1392,64018847,-0.9678,0.1143,0.3848,-15.55,7.26,-9.70
1393,64023847,-0.9854,0.1108,0.3794,-15.91,7.99,-10.00
1394,64028847,-0.9941,0.1138,0.3838,-16.46,8.41,-10.43
1395,64033847,-1.0015,0.1226,0.3828,-17.20,9.02,-10.98
1396,64038847,-1.0005,0.1177,0.3901,-17.93,9.57,-11.52
1397,64043847,-0.9995,0.1201,0.3848,-18.48,10.06,-12.13
1398,64048847,-0.9966,0.1226,0.3867,-19.15,10.73,-12.56
1399,64053847,-0.9990,0.1250,0.3862,-19.76,11.22,-13.23
1400,64058847,-0.9995,0.1221,0.3867,-20.37,11.65,-13.78
1401,64063847,-1.0005,0.1235,0.3911,-20.85,12.20,-14.45
1402,64068847,-0.9980,0.1235,0.3828,-21.28,12.44,-15.06
1403,64073847,-0.9897,0.1250,0.3799,-21.65,12.68,-15.67
1404,64078847,-0.9844,0.1255,0.3857,-21.95,13.11,-16.34
1405,64083847,-0.9771,0.1240,0.3828,-22.20,13.29,-17.01
1406,64088847,-0.9746,0.1230,0.3901,-22.32,13.41,-17.62
1407,64093847,-0.9712,0.1289,0.3818,-22.38,13.60,-18.11
1408,64098848,-0.9619,0.1289,0.3804,-22.26,13.66,-18.72
1409,64103847,-0.9541,0.1274,0.3774,-21.95,13.72,-19.33
1410,64108848,-0.9487,0.1279,0.3770,-21.52,13.48,-19.88
1411,64113847,-0.9473,0.1255,0.3843,-21.10,13.54,-20.30
1412,64118845,-0.9434,0.1274,0.3809,-20.55,13.41,-20.91
1413,64123848,-0.9399,0.1265,0.3765,-19.94,13.35,-21.40
1414,64128847,-0.9385,0.1279,0.3770,-19.21,13.05,-22.01
1415,64133847,-0.9331,0.1279,0.3740,-18.48,12.68,-22.44
1416,64138847,-0.9312,0.1279,0.3740,-17.50,12.32,-22.93
1417,64143847,-0.9282,0.1289,0.3667,-16.59,12.07,-23.29
1418,64148848,-0.9258,0.1284,0.3687,-15.61,11.65,-23.72
1419,64153848,-0.9287,0.1279,0.3687,-14.45,10.98,-23.96
1420,64158847,-0.9312,0.1289,0.3687,-13.23,10.37,-24.27
1421,64163847,-0.9297,0.1270,0.3696,-12.01,9.82,-24.57
1422,64168847,-0.9312,0.1270,0.3701,-10.79,9.09,-24.88
1423,64173847,-0.9312,0.1235,0.3701,-9.63,8.41,-25.12
1424,64178847,-0.9307,0.1265,0.3691,-8.05,7.87,-25.37
1425,64183847,-0.9346,0.1274,0.3721,-6.89,7.20,-25.49
1426,64188847,-0.9399,0.1294,0.3682,-5.37,6.46,-25.73
1427,64193846,-0.9375,0.1279,0.3643,-3.66,5.67,-25.98
1428,64198849,-0.9419,0.1299,0.3633,-1.89,4.88,-26.16
1429,64203847,-0.9375,0.1245,0.3662,0.49,3.84,-26.46
1430,64208847,-0.9351,0.1245,0.3608,2.07,3.11,-26.52
1431,64213845,-0.9414,0.1270,0.3569,4.39,2.38,-26.65
1432,64218847,-0.9365,0.1279,0.3608,6.59,1.40,-26.89
1433,64223845,-0.9404,0.1279,0.3589,9.27,0.61,-27.01
1434,64228847,-0.9434,0.1318,0.3633,11.89,-0.12,-27.20
1435,64233847,-0.9448,0.1255,0.3589,14.70,-1.04,-27.44
1436,64238846,-0.9536,0.1318,0.3545,17.62,-1.89,-27.56
1437,64243847,-0.9521,0.1299,0.3623,20.55,-2.87,-27.74
1438,64248846,-0.9502,0.1294,0.3594,23.60,-3.41,-27.99
1439,64253925,-0.9478,0.1284,0.3501,27.50,-4.45,-28.11
1440,64258845,-0.9487,0.1274,0.3535,30.12,-5.00,-28.35
1441,64263846,-0.9492,0.1294,0.3540,33.54,-5.73,-28.48
1442,64268847,-0.9561,0.1270,0.3540,37.01,-6.59,-28.66
1443,64273847,-0.9546,0.1265,0.3472,40.55,-7.13,-28.78
1444,64278847,-0.9556,0.1245,0.3491,44.15,-7.93,-28.90
1445,64283847,-0.9575,0.1221,0.3467,47.93,-8.78,-28.84
1446,64288847,-0.9629,0.1235,0.3486,51.83,-9.70,-28.90
1447,64293847,-0.9614,0.1235,0.3477,55.61,-10.43,-29.02
1448,64298847,-0.9609,0.1177,0.3423,59.63,-11.28,-29.02
1449,64303847,-0.9614,0.1123,0.3452,63.54,-11.95,-28.96
1450,64308849,-0.9634,0.1152,0.3428,67.56,-12.56,-28.96
1451,64313845,-0.9648,0.1123,0.3452,71.46,-13.29,-29.09
1452,64318848,-0.9673,0.1143,0.3438,75.43,-13.96,-28.96
1453,64323845,-0.9619,0.1162,0.3467,79.27,-14.63,-28.96
1454,64328847,-0.9575,0.1172,0.3447,83.11,-15.06,-29.15
1455,64333850,-0.9531,0.1157,0.3467,86.83,-15.55,-29.09
1456,64338849,-0.9487,0.1113,0.3477,90.37,-16.16,-29.15
1457,64343846,-0.9438,0.1123,0.3472,94.21,-16.46,-29.21
1458,64348848,-0.9307,0.1133,0.3452,97.62,-16.83,-29.27
1459,64353847,-0.9253,0.1079,0.3438,101.71,-17.07,-29.15
1460,64358848,-0.9185,0.1035,0.3452,104.33,-17.50,-29.21
1461,64363848,-0.9102,0.1035,0.3462,107.68,-17.74,-29.09
1462,64369141,-0.8999,0.0991,0.3452,111.71,-18.23,-28.84
1463,64373847,-0.8911,0.0972,0.3423,114.27,-18.60,-28.78
1464,64378848,-0.8794,0.0928,0.3379,117.32,-18.90,-28.48
1465,64383854,-0.8716,0.0889,0.3452,120.37,-19.02,-28.23
1466,64388847,-0.8730,0.0879,0.3506,123.35,-19.33,-27.87
1467,64393847,-0.8804,0.0869,0.3481,126.77,-19.57,-27.50
1468,64398846,-0.9072,0.0830,0.3516,130.06,-19.82,-27.13
1469,64403850,-0.9595,0.0864,0.3438,130.61,-20.24,-26.65
1470,64408847,-1.0098,0.0845,0.3481,133.60,-20.73,-26.10
1471,64413850,-1.0645,0.0894,0.3462,135.55,-21.59,-25.73
1472,64418845,-1.1040,0.0957,0.3438,137.20,-22.38,-25.30
1473,64423845,-1.1191,0.0967,0.3457,138.11,-23.11,-25.06
1474,64428846,-1.1157,0.1011,0.3521,138.78,-24.02,-24.82
1475,64433848,-1.1147,0.1011,0.3496,139.09,-24.76,-24.63
1476,64438845,-1.1074,0.1025,0.3545,139.33,-25.30,-24.70
1477,64443847,-1.1079,0.1099,0.3613,139.45,-25.91,-24.82
1478,64448851,-1.1113,0.1079,0.3599,139.45,-26.40,-24.76
1479,64453846,-1.1138,0.1084,0.3496,139.33,-27.07,-25.00
1480,64458845,-1.1123,0.1113,0.3467,139.09,-27.50,-25.24
1481,64463845,-1.1074,0.1084,0.3457,138.72,-28.05,-25.55
1482,64468845,-1.0986,0.1143,0.3398,138.41,-28.78,-25.85
1483,64473849,-1.0864,0.1108,0.3398,137.99,-29.39,-26.16
1484,64478847,-1.0747,0.1108,0.3467,137.62,-30.00,-26.52
1485,64483848,-1.0649,0.1113,0.3433,137.07,-30.43,-26.89
1486,64488847,-1.0537,0.1060,0.3438,136.52,-30.85,-27.32
1487,64493847,-1.0454,0.1064,0.3433,135.85,-31.22,-27.80
1488,64498848,-1.0293,0.1045,0.3506,135.24,-31.40,-28.05
1489,64503846,-1.0156,0.1006,0.3579,134.51,-31.40,-28.23
1490,64508845,-1.0010,0.0967,0.3657,133.60,-31.22,-28.60
1491,64513845,-0.9810,0.0972,0.3726,132.50,-30.85,-28.78
1492,64518849,-0.9653,0.0898,0.3774,131.34,-30.37,-28.84
1493,64523847,-0.9502,0.0913,0.3774,129.27,-29.82,-28.96
1494,64528845,-0.9326,0.0840,0.3862,129.09,-29.02,-28.96
1495,64533845,-0.9194,0.0830,0.3877,128.90,-28.35,-28.78
1496,64539003,-0.9062,0.0781,0.3872,126.46,-27.56,-28.66
1497,64543849,-0.8970,0.0757,0.3833,124.88,-26.65,-28.41
1498,64548845,-0.8872,0.0791,0.3862,122.93,-25.73,-28.05
1499,64553848,-0.8784,0.0732,0.3862,120.55,-25.00,-27.62
1500,64559257,-0.8701,0.0718,0.3857,117.93,-24.09,-27.13
1501,64563848,-0.8623,0.0698,0.3818,115.91,-23.29,-26.65
1502,64568845,-0.8535,0.0688,0.3774,112.68,-22.44,-25.98
1503,64573850,-0.8535,0.0640,0.3779,110.49,-21.89,-25.49
1504,64578850,-0.8481,0.0620,0.3828,107.50,-21.10,-24.70
1505,64583845,-0.8481,0.0601,0.3848,103.84,-20.24,-23.60
1506,64588848,-0.8496,0.0576,0.3916,101.28,-19.70,-22.93
1507,64593847,-0.8560,0.0586,0.3867,97.99,-18.90,-21.95
1508,64598845,-0.8608,0.0542,0.3877,94.63,-18.23,-20.79
1509,64603849,-0.8706,0.0547,0.3911,90.98,-17.56,-19.63
1510,64608847,-0.8770,0.0503,0.3936,87.44,-16.95,-18.35
1511,64613851,-0.8828,0.0542,0.3940,84.09,-16.22,-16.95
1512,64618849,-0.8892,0.0513,0.3965,80.67,-15.61,-15.61
1513,64623845,-0.8916,0.0503,0.4004,76.95,-14.94,-14.27
1514,64628850,-0.8965,0.0513,0.3994,73.48,-14.21,-12.87
1515,64633904,-0.9043,0.0513,0.4043,69.94,-13.54,-11.46
1516,64638845,-0.9141,0.0571,0.4072,66.16,-12.87,-10.18
1517,64643852,-0.9316,0.0596,0.4102,62.44,-12.20,-8.84
1518,64648846,-0.9414,0.0596,0.4136,58.54,-11.34,-7.50
1519,64653849,-0.9521,0.0605,0.4146,54.51,-10.67,-6.22
1520,64658848,-0.9688,0.0674,0.4121,50.43,-9.70,-5.18
1521,64663847,-0.9800,0.0630,0.4170,46.28,-9.09,-4.02
1522,64668848,-0.9927,0.0649,0.4209,42.13,-8.11,-2.99
1523,64673849,-0.9941,0.0625,0.4253,37.80,-7.38,-1.83
1524,64678849,-0.9922,0.0596,0.4360,33.72,-6.40,-0.67
1525,64683848,-0.9941,0.0630,0.4233,29.45,-5.37,0.30
1526,64688847,-0.9912,0.0576,0.4272,25.30,-4.45,1.22
1527,64693848,-0.9878,0.0581,0.4297,21.22,-3.48,2.32
1528,64698848,-0.9829,0.0547,0.4229,17.13,-2.50,3.29
1529,64703848,-0.9810,0.0503,0.4263,13.60,-1.52,4.33
1530,64708846,-0.9722,0.0493,0.4248,9.94,-0.37,5.37
1531,64713847,-0.9692,0.0479,0.4292,6.65,0.73,6.40
1532,64718911,-0.9526,0.0449,0.4277,3.35,1.77,7.26
1533,64723845,-0.9395,0.0400,0.4277,0.24,2.93,8.35
1534,64728846,-0.9302,0.0347,0.4282,-2.56,3.90,9.45
1535,64733845,-0.9141,0.0288,0.4297,-5.00,5.24,10.43
1536,64738845,-0.9072,0.0239,0.4272,-7.50,6.22,11.52
1537,64743882,-0.8931,0.0220,0.4307,-9.82,7.56,12.62
1538,64748897,-0.8906,0.0205,0.4287,-11.77,8.78,13.66
1539,64753847,-0.8823,0.0225,0.4341,-13.84,10.06,14.82
1540,64758849,-0.8818,0.0244,0.4341,-15.73,11.28,15.61
1541,64763922,-0.8813,0.0229,0.4312,-17.50,12.56,16.52
1542,64768847,-0.8779,0.0254,0.4326,-19.27,13.54,17.32
1543,64773849,-0.8721,0.0264,0.4341,-20.91,14.76,17.99
1544,64778845,-0.8716,0.0264,0.4282,-22.50,15.91,18.54
1545,64783849,-0.8667,0.0298,0.4277,-23.96,16.95,19.15
1546,64788847,-0.8672,0.0303,0.4272,-25.37,17.87,19.57
