# skilleye imu stream v1
# device=xiao_esp32c6 imu=mpu6050 addr=0x68
# rate_hz=200 accel_range_g=16 gyro_range_dps=2000 dlpf_hz=94
# units: accel in g, gyro in deg/s, t_us in microseconds since boot (monotonic)
# no shared clock with the camera -- tap the racket once before each take
# so both recordings share a spike to align on
seq,t_us,ax,ay,az,gx,gy,gz
0,812563089,0.1299,-0.8691,0.5903,1.16,1.10,3.11
1,812568091,0.1284,-0.8608,0.5913,1.04,0.98,2.99
2,812573086,0.1299,-0.8643,0.5894,1.10,0.98,2.93
3,812578087,0.1304,-0.8647,0.5923,0.98,0.98,2.87
4,812583087,0.1323,-0.8677,0.5967,0.98,0.98,2.74
5,812588086,0.1357,-0.8652,0.5894,0.98,0.91,2.62
6,812593087,0.1348,-0.8662,0.5933,1.10,0.85,2.50
7,812598089,0.1333,-0.8672,0.5933,1.10,0.85,2.38
8,812603086,0.1294,-0.8638,0.5923,1.22,0.61,2.32
9,812608140,0.1274,-0.8633,0.5967,1.28,0.61,2.20
10,812613086,0.1250,-0.8652,0.5918,1.28,0.67,2.20
11,812618089,0.1279,-0.8667,0.5928,1.40,0.43,2.07
12,812623086,0.1230,-0.8647,0.5942,1.34,0.43,2.07
13,812628089,0.1211,-0.8672,0.5908,1.28,0.49,1.89
14,812633086,0.1245,-0.8633,0.5889,1.10,0.30,1.95
15,812638085,0.1255,-0.8726,0.5952,0.98,0.30,1.77
16,812643089,0.1270,-0.8745,0.5918,0.85,0.24,1.71
17,812648117,0.1250,-0.8760,0.5972,0.67,0.00,1.65
18,812653085,0.1265,-0.8735,0.6006,0.49,0.00,1.71
19,812658089,0.1299,-0.8770,0.5938,0.43,0.12,1.59
20,812663086,0.1318,-0.8770,0.5996,0.49,-0.12,1.65
21,812668087,0.1294,-0.8735,0.5894,0.43,-0.18,1.59
22,812673086,0.1279,-0.8760,0.5996,0.37,-0.18,1.65
23,812678085,0.1289,-0.8794,0.5918,0.55,-0.18,1.59
24,812683088,0.1289,-0.8843,0.5918,0.73,-0.30,1.52
25,812688625,0.1284,-0.8774,0.5942,0.85,-0.30,1.59
26,812693087,0.1265,-0.8745,0.5913,1.22,-0.43,1.65
27,812698088,0.1279,-0.8745,0.5977,1.40,-0.37,1.71
28,812703087,0.1245,-0.8755,0.5933,1.71,-0.18,1.65
29,812708085,0.1250,-0.8774,0.5947,2.01,-0.37,1.59
30,812713087,0.1294,-0.8784,0.6001,2.32,-0.49,1.65
31,812718158,0.1279,-0.8794,0.5928,2.68,-0.55,1.65
32,812723089,0.1265,-0.8770,0.5942,2.87,-0.37,1.65
33,812728087,0.1279,-0.8784,0.5908,3.17,-0.43,1.65
34,812733087,0.1333,-0.8789,0.5923,3.41,-0.43,1.65
35,812738085,0.1265,-0.8779,0.5972,3.48,-0.37,1.65
36,812743109,0.1274,-0.8760,0.5908,3.60,-0.43,1.65
37,812748087,0.1289,-0.8770,0.5947,3.72,-0.37,1.59
38,812753086,0.1299,-0.8760,0.5942,3.78,-0.49,1.71
39,812758089,0.1299,-0.8696,0.5898,3.72,-0.37,1.59
40,812763085,0.1270,-0.8667,0.5957,3.72,-0.49,1.52
41,812768086,0.1226,-0.8657,0.5889,3.72,-0.43,1.52
42,812773088,0.1201,-0.8652,0.5947,3.54,-0.43,1.59
43,812778087,0.1201,-0.8613,0.5947,3.66,-0.24,1.59
44,812783087,0.1191,-0.8599,0.5908,3.66,-0.43,1.59
45,812788086,0.1216,-0.8613,0.5884,3.54,-0.37,1.59
46,812793087,0.1240,-0.8599,0.5918,3.48,-0.30,1.65
47,812798505,0.1206,-0.8613,0.5918,3.60,-0.43,1.65
48,812803087,0.1235,-0.8633,0.5923,3.48,-0.37,1.59
49,812808088,0.1245,-0.8604,0.5894,3.29,-0.49,1.59
50,812813087,0.1270,-0.8604,0.5913,3.35,-0.37,1.65
51,812818086,0.1274,-0.8589,0.5889,3.23,-0.49,1.65
52,812823087,0.1274,-0.8564,0.5938,3.23,-0.43,1.77
53,812828087,0.1309,-0.8550,0.5864,3.29,-0.49,1.77
54,812833087,0.1333,-0.8555,0.5859,3.23,-0.43,1.95
55,812838086,0.1318,-0.8550,0.5913,3.29,-0.49,1.95
56,812843087,0.1279,-0.8579,0.5913,3.29,-0.49,1.95
57,812848087,0.1216,-0.8579,0.5884,3.23,-0.67,2.07
58,812853087,0.1211,-0.8608,0.5908,2.99,-0.61,2.01
59,812858086,0.1294,-0.8574,0.5879,2.80,-0.61,2.07
60,812863087,0.1255,-0.8584,0.5884,2.68,-0.55,2.07
61,812868086,0.1240,-0.8599,0.5923,2.50,-0.67,2.01
62,812873089,0.1260,-0.8652,0.5933,2.50,-0.67,2.07
63,812878087,0.1284,-0.8643,0.5933,2.26,-0.67,2.01
64,812883087,0.1255,-0.8633,0.5952,2.13,-0.55,2.07
65,812888085,0.1260,-0.8618,0.5933,2.01,-0.73,2.07
66,812893088,0.1240,-0.8677,0.5938,1.95,-0.61,2.01
67,812898087,0.1279,-0.8667,0.5889,1.83,-0.73,2.01
68,812903086,0.1221,-0.8721,0.5874,1.71,-0.55,2.01
69,812908089,0.1255,-0.8652,0.5859,1.59,-0.73,1.95
70,812913086,0.1245,-0.8657,0.5879,1.52,-0.67,1.89
71,812918087,0.1245,-0.8672,0.5894,1.46,-0.73,1.89
72,812923086,0.1357,-0.8652,0.5811,1.40,-0.67,1.83
73,812928089,0.1289,-0.8662,0.5874,1.34,-0.79,1.83
74,812933086,0.1270,-0.8623,0.5845,1.28,-0.91,1.77
75,812938085,0.1270,-0.8652,0.5864,1.28,-0.85,1.77
76,812943085,0.1274,-0.8682,0.5815,1.22,-0.91,1.77
77,812948087,0.1274,-0.8682,0.5894,1.22,-0.79,1.71
78,812953088,0.1240,-0.8682,0.5767,1.22,-0.85,1.65
79,812958087,0.1260,-0.8687,0.5889,1.22,-0.98,1.83
80,812963087,0.1201,-0.8696,0.5854,1.22,-0.91,1.71
81,812968086,0.1221,-0.8672,0.5854,1.16,-1.04,1.65
82,812973087,0.1255,-0.8706,0.5874,1.16,-1.10,1.65
83,812978088,0.1250,-0.8677,0.5884,1.22,-1.10,1.65
84,812983087,0.1250,-0.8711,0.5874,1.10,-1.22,1.59
85,812988086,0.1265,-0.8696,0.5894,1.04,-1.28,1.59
86,812993087,0.1279,-0.8701,0.5898,1.10,-1.28,1.59
87,812998086,0.1270,-0.8677,0.5879,1.04,-1.28,1.59
88,813003087,0.1230,-0.8667,0.5850,0.91,-1.52,1.46
89,813008088,0.1289,-0.8672,0.5908,0.98,-1.52,1.46
90,813013087,0.1270,-0.8657,0.5898,0.98,-1.52,1.52
91,813018085,0.1274,-0.8613,0.5806,1.16,-1.52,1.40
92,813023086,0.1304,-0.8643,0.5806,1.40,-1.71,1.46
93,813028087,0.1274,-0.8613,0.5864,1.65,-1.65,1.65
94,813033086,0.1265,-0.8623,0.5874,1.95,-1.71,1.59
95,813038089,0.1245,-0.8657,0.5903,2.13,-1.83,1.59
96,813043086,0.1279,-0.8682,0.5859,2.26,-1.77,1.65
97,813048087,0.1318,-0.8691,0.5889,2.38,-1.89,1.65
98,813053086,0.1328,-0.8657,0.5835,2.44,-1.83,1.77
99,813058089,0.1318,-0.8691,0.5869,2.44,-2.01,1.77
100,813063086,0.1343,-0.8691,0.5884,2.44,-1.89,1.71
101,813068087,0.1309,-0.8711,0.5908,2.44,-2.01,1.77
102,813073086,0.1299,-0.8706,0.5898,2.44,-1.95,1.77
103,813078087,0.1294,-0.8696,0.5918,2.20,-1.95,1.77
104,813083086,0.1279,-0.8687,0.5874,2.20,-1.95,1.71
105,813088186,0.1289,-0.8687,0.5898,1.95,-1.89,1.71
106,813093086,0.1289,-0.8687,0.5850,1.95,-1.89,1.65
107,813098089,0.1250,-0.8687,0.5947,1.77,-1.89,1.65
108,813103086,0.1284,-0.8740,0.5850,1.65,-1.83,1.65
109,813108085,0.1274,-0.8701,0.5815,1.59,-1.83,1.65
110,813113088,0.1304,-0.8745,0.5884,1.59,-1.65,1.59
111,813118087,0.1333,-0.8711,0.5879,1.71,-1.52,1.65
112,813123087,0.1348,-0.8721,0.5811,1.71,-1.52,1.65
113,813128088,0.1343,-0.8770,0.5908,1.71,-1.46,1.59
114,813133087,0.1372,-0.8740,0.5825,1.83,-1.46,1.52
115,813138086,0.1357,-0.8740,0.5908,1.77,-1.28,1.59
116,813143087,0.1372,-0.8711,0.5840,1.65,-1.34,1.52
117,813148086,0.1333,-0.8730,0.5889,1.59,-1.16,1.46
118,813153087,0.1343,-0.8745,0.5864,1.59,-1.28,1.40
119,813158088,0.1313,-0.8755,0.5806,1.52,-1.16,1.46
120,813163087,0.1294,-0.8687,0.5894,1.46,-1.10,1.46
121,813168131,0.1279,-0.8721,0.5850,1.40,-0.98,1.22
122,813173087,0.1284,-0.8677,0.5889,1.28,-0.98,1.28
123,813178087,0.1294,-0.8706,0.5869,1.46,-1.04,1.22
124,813183087,0.1284,-0.8628,0.5869,1.46,-0.91,1.28
125,813188086,0.1279,-0.8652,0.5869,1.71,-0.85,1.16
126,813193087,0.1323,-0.8647,0.5874,1.77,-0.85,1.22
127,813198090,0.1313,-0.8643,0.5894,1.89,-0.85,1.04
128,813203088,0.1343,-0.8608,0.5815,2.01,-0.73,1.04
129,813208086,0.1353,-0.8608,0.5845,2.13,-0.61,1.10
130,813213087,0.1309,-0.8613,0.5815,2.20,-0.55,1.04
131,813218088,0.1289,-0.8579,0.5776,2.44,-0.67,0.91
132,813223087,0.1309,-0.8564,0.5776,2.44,-0.67,1.10
133,813228086,0.1348,-0.8579,0.5820,2.50,-0.61,1.04
134,813233087,0.1348,-0.8574,0.5806,2.44,-0.73,0.98
135,813238087,0.1318,-0.8643,0.5786,2.32,-0.85,0.98
136,813243087,0.1309,-0.8677,0.5879,2.26,-0.85,0.91
137,813248086,0.1323,-0.8682,0.5796,2.13,-0.67,1.04
138,813253087,0.1294,-0.8721,0.5908,1.89,-0.73,1.04
139,813258088,0.1343,-0.8721,0.5874,1.65,-0.73,1.04
140,813263087,0.1284,-0.8711,0.5859,1.28,-0.79,0.91
141,813268089,0.1343,-0.8662,0.5771,0.98,-0.98,0.91
142,813273086,0.1348,-0.8677,0.5771,0.73,-0.85,0.85
143,813278087,0.1343,-0.8667,0.5815,0.61,-0.98,0.91
144,813283086,0.1313,-0.8726,0.5732,0.43,-1.04,0.98
145,813288087,0.1323,-0.8750,0.5762,0.12,-1.04,1.04
146,813293086,0.1284,-0.8750,0.5796,0.00,-0.98,1.16
147,813298089,0.1294,-0.8740,0.5825,-0.18,-1.04,1.04
148,813303086,0.1299,-0.8784,0.5835,-0.24,-1.10,1.16
149,813308087,0.1309,-0.8745,0.5815,-0.49,-1.10,1.16
150,813313086,0.1323,-0.8765,0.5884,-0.55,-1.10,1.22
151,813318089,0.1318,-0.8809,0.5879,-0.73,-0.98,1.34
152,813323086,0.1362,-0.8789,0.5840,-0.79,-1.16,1.34
153,813328085,0.1362,-0.8755,0.5820,-0.73,-1.04,1.40
154,813333089,0.1338,-0.8760,0.5845,-0.67,-1.10,1.40
155,813338086,0.1338,-0.8745,0.5903,-0.61,-1.10,1.46
156,813343087,0.1353,-0.8750,0.5825,-0.49,-0.91,1.52
157,813348088,0.1313,-0.8760,0.5776,-0.30,-1.10,1.59
158,813353087,0.1318,-0.8765,0.5776,0.06,-1.10,1.59
159,813358086,0.1338,-0.8760,0.5894,0.30,-1.10,1.71
160,813363087,0.1299,-0.8750,0.5864,0.49,-0.98,1.77
161,813368088,0.1309,-0.8750,0.5767,0.79,-0.98,1.77
162,813373087,0.1328,-0.8760,0.5771,1.04,-0.98,1.89
163,813378087,0.1343,-0.8740,0.5781,1.22,-0.98,1.95
164,813383086,0.1318,-0.8726,0.5767,1.34,-0.98,1.89
165,813388089,0.1284,-0.8760,0.5776,1.52,-1.04,1.95
166,813393086,0.1294,-0.8770,0.5762,1.65,-0.85,1.95
167,813398087,0.1294,-0.8711,0.5815,1.71,-0.85,1.89
168,813403086,0.1323,-0.8755,0.5874,1.71,-0.85,1.95
169,813408089,0.1274,-0.8745,0.5830,1.71,-0.91,2.01
170,813413086,0.1270,-0.8735,0.5835,1.83,-0.91,1.95
171,813418089,0.1270,-0.8745,0.5845,1.71,-0.79,2.01
172,813423086,0.1265,-0.8711,0.5830,1.65,-0.79,2.07
173,813428087,0.1284,-0.8726,0.5850,1.65,-0.67,2.01
174,813433086,0.1230,-0.8706,0.5854,1.52,-0.73,1.95
175,813438087,0.1260,-0.8726,0.5859,1.52,-0.73,1.89
176,813443086,0.1294,-0.8730,0.5806,1.52,-0.67,2.01
177,813448089,0.1299,-0.8735,0.5874,1.52,-0.61,2.01
178,813453086,0.1294,-0.8760,0.5894,1.52,-0.55,1.95
179,813458087,0.1284,-0.8716,0.5815,1.59,-0.55,1.89
180,813463086,0.1309,-0.8726,0.5820,1.59,-0.55,1.95
181,813468087,0.1284,-0.8735,0.5840,1.65,-0.43,1.95
182,813473085,0.1294,-0.8730,0.5801,1.71,-0.30,1.83
183,813478089,0.1270,-0.8716,0.5786,1.77,-0.37,1.95
184,813483086,0.1196,-0.8726,0.5732,1.89,-0.30,1.83
185,813488087,0.1226,-0.8721,0.5664,2.01,-0.24,1.77
186,813493086,0.1235,-0.8721,0.5728,2.20,-0.12,1.71
187,813498087,0.1221,-0.8706,0.5752,2.20,-0.24,1.71
188,813503086,0.1216,-0.8755,0.5718,2.44,-0.06,1.59
189,813508089,0.1226,-0.8755,0.5747,2.32,-0.12,1.59
190,813513086,0.1265,-0.8726,0.5723,2.38,-0.06,1.59
191,813518089,0.1279,-0.8755,0.5757,2.32,0.00,1.52
192,813523086,0.1265,-0.8765,0.5752,2.26,0.12,1.52
193,813528114,0.1260,-0.8750,0.5693,2.20,0.00,1.40
194,813533087,0.1250,-0.8721,0.5767,2.07,0.00,1.40
195,813538086,0.1284,-0.8745,0.5767,1.83,0.06,1.34
196,813543089,0.1255,-0.8750,0.5713,1.83,0.06,1.34
197,813548087,0.1313,-0.8745,0.5771,1.59,-0.18,1.40
198,813553087,0.1299,-0.8711,0.5815,1.34,-0.12,1.34
199,813558086,0.1328,-0.8672,0.5767,1.22,-0.24,1.28
200,813563087,0.1299,-0.8696,0.5806,1.04,-0.37,1.28
201,813568087,0.1309,-0.8672,0.5742,0.91,-0.43,1.28
202,813573089,0.1309,-0.8687,0.5791,0.73,-0.37,1.34
203,813578087,0.1299,-0.8696,0.5825,0.73,-0.37,1.28
204,813583086,0.1289,-0.8691,0.5806,0.55,-0.55,1.28
205,813588085,0.1333,-0.8726,0.5806,0.55,-0.61,1.40
206,813593089,0.1270,-0.8706,0.5801,0.49,-0.73,1.34
207,813598086,0.1309,-0.8711,0.5728,0.55,-0.79,1.34
208,813603089,0.1274,-0.8721,0.5757,0.61,-0.91,1.34
209,813608087,0.1294,-0.8706,0.5747,0.61,-0.98,1.28
210,813613087,0.1284,-0.8711,0.5796,0.61,-1.04,1.34
211,813618086,0.1318,-0.8711,0.5791,0.55,-1.16,1.34
212,813623087,0.1250,-0.8726,0.5742,0.49,-1.04,1.40
213,813628089,0.1177,-0.8721,0.5747,0.43,-1.16,1.34
214,813633086,0.1240,-0.8750,0.5742,0.49,-1.28,1.22
215,813638087,0.1211,-0.8755,0.5762,0.49,-1.28,1.22
216,813643086,0.1245,-0.8721,0.5796,0.49,-1.40,1.22
217,813648087,0.1250,-0.8706,0.5747,0.79,-1.59,1.34
218,813653086,0.1260,-0.8574,0.5776,1.04,-1.52,1.28
219,813658087,0.1255,-0.8618,0.5757,1.28,-1.65,1.34
220,813663086,0.1274,-0.8643,0.5698,1.52,-1.83,1.46
221,813668087,0.1289,-0.8721,0.5786,1.77,-1.83,1.46
222,813673086,0.1323,-0.8721,0.5825,1.83,-1.95,1.46
223,813678087,0.1270,-0.8696,0.5786,1.77,-2.01,1.52
224,813683086,0.1323,-0.8716,0.5728,1.83,-1.95,1.52
225,813688089,0.1309,-0.8760,0.5811,1.77,-2.07,1.59
226,813693086,0.1299,-0.8721,0.5767,1.77,-2.20,1.71
227,813698087,0.1318,-0.8711,0.5786,1.52,-2.32,1.59
228,813703086,0.1289,-0.8721,0.5815,1.46,-2.44,1.71
229,813708087,0.1284,-0.8789,0.5776,1.34,-2.50,1.65
230,813713086,0.1279,-0.8799,0.5791,1.28,-2.68,1.65
231,813718085,0.1284,-0.8774,0.5796,1.22,-2.62,1.83
232,813723087,0.1289,-0.8784,0.5737,1.10,-2.74,1.77
233,813728088,0.1299,-0.8818,0.5732,1.10,-2.80,1.95
234,813733087,0.1318,-0.8804,0.5732,1.16,-2.93,1.95
235,813738086,0.1338,-0.8828,0.5742,1.28,-2.87,1.95
236,813743087,0.1367,-0.8833,0.5737,1.34,-2.99,1.95
237,813748088,0.1299,-0.8813,0.5659,1.40,-2.99,1.95
238,813753087,0.1309,-0.8848,0.5776,1.52,-3.05,2.01
239,813758086,0.1279,-0.8818,0.5708,1.71,-3.11,1.95
240,813763087,0.1318,-0.8833,0.5737,1.77,-3.17,2.01
241,813768089,0.1299,-0.8804,0.5737,1.83,-3.11,2.07
242,813773086,0.1313,-0.8809,0.5757,1.95,-3.17,2.01
243,813778087,0.1270,-0.8838,0.5728,1.95,-3.17,2.07
244,813783086,0.1318,-0.8813,0.5786,2.07,-3.41,1.95
245,813788087,0.1338,-0.8804,0.5723,2.01,-3.17,1.95
246,813793086,0.1323,-0.8823,0.5781,1.95,-3.29,1.95
247,813798089,0.1333,-0.8813,0.5752,2.13,-3.17,1.83
248,813803088,0.1372,-0.8818,0.5767,2.01,-3.29,1.83
249,813808086,0.1338,-0.8813,0.5713,1.83,-3.35,1.83
250,813813087,0.1406,-0.8823,0.5728,1.95,-3.35,1.77
251,813818086,0.1401,-0.8789,0.5737,1.95,-3.35,1.77
252,813823087,0.1401,-0.8750,0.5771,1.89,-3.35,1.71
253,813828088,0.1377,-0.8823,0.5752,1.83,-3.35,1.65
254,813833087,0.1353,-0.8818,0.5747,1.83,-3.29,1.65
255,813838086,0.1323,-0.8789,0.5703,1.77,-3.05,1.71
256,813843087,0.1318,-0.8784,0.5737,1.71,-3.11,1.59
257,813848087,0.1353,-0.8779,0.5723,1.71,-3.05,1.65
258,813853087,0.1377,-0.8818,0.5801,1.65,-2.99,1.52
259,813858086,0.1362,-0.8765,0.5693,1.65,-2.99,1.46
260,813863087,0.1382,-0.8804,0.5713,1.71,-2.93,1.46
261,813868087,0.1396,-0.8784,0.5776,1.71,-2.87,1.52
262,813873087,0.1426,-0.8784,0.5732,1.77,-2.87,1.46
263,813878088,0.1431,-0.8813,0.5742,1.71,-2.80,1.34
264,813883087,0.1401,-0.8765,0.5742,1.83,-2.87,1.34
265,813888088,0.1436,-0.8794,0.5679,2.07,-2.80,1.28
266,813893087,0.1484,-0.8765,0.5737,2.07,-2.80,1.22
267,813898089,0.1406,-0.8740,0.5620,2.38,-2.68,1.22
268,813903086,0.1411,-0.8760,0.5688,2.50,-2.68,1.16
269,813908087,0.1392,-0.8779,0.5649,2.80,-2.80,1.16
270,813913086,0.1421,-0.8750,0.5669,2.99,-2.74,1.22
271,813918089,0.1396,-0.8740,0.5693,3.11,-2.68,1.10
272,813923086,0.1362,-0.8784,0.5659,3.23,-2.68,1.10
273,813928089,0.1392,-0.8784,0.5718,3.17,-2.50,1.04
274,813933086,0.1382,-0.8789,0.5723,3.11,-2.44,0.98
275,813938087,0.1421,-0.8789,0.5664,2.99,-2.32,0.91
276,813943086,0.1416,-0.8809,0.5713,2.80,-2.32,0.85
277,813948087,0.1431,-0.8765,0.5713,2.50,-2.32,0.79
278,813953086,0.1455,-0.8799,0.5732,2.32,-2.20,0.85
279,813958085,0.1382,-0.8760,0.5698,2.20,-2.01,0.85
280,813963088,0.1431,-0.8760,0.5659,2.13,-2.07,0.98
281,813968087,0.1382,-0.8755,0.5645,2.07,-2.01,0.91
282,813973087,0.1396,-0.8750,0.5635,1.89,-1.95,0.91
283,813978086,0.1357,-0.8770,0.5742,1.89,-1.83,0.85
284,813983087,0.1343,-0.8789,0.5659,1.77,-1.83,0.91
285,813988088,0.1367,-0.8799,0.5752,1.71,-1.65,0.85
286,813993087,0.1387,-0.8774,0.5742,1.77,-1.59,0.91
287,813998086,0.1411,-0.8809,0.5713,1.77,-1.77,0.91
288,814003087,0.1475,-0.8838,0.5679,1.77,-1.52,0.98
289,814008086,0.1450,-0.8838,0.5762,1.89,-1.34,0.91
290,814013089,0.1426,-0.8853,0.5708,1.89,-1.40,0.98
291,814018087,0.1382,-0.8828,0.5708,1.95,-1.34,0.98
292,814023087,0.1426,-0.8813,0.5674,1.95,-1.22,0.91
293,814028085,0.1450,-0.8828,0.5688,2.01,-1.34,0.98
294,814033088,0.1421,-0.8809,0.5708,2.13,-1.40,1.10
295,814038087,0.1396,-0.8823,0.5693,2.13,-1.40,1.04
296,814043086,0.1436,-0.8813,0.5718,2.26,-1.34,1.22
297,814048089,0.1426,-0.8804,0.5713,2.44,-1.22,1.22
298,814053086,0.1470,-0.8794,0.5742,2.68,-1.22,1.28
299,814058089,0.1455,-0.8794,0.5713,2.87,-1.16,1.40
300,814063086,0.1436,-0.8726,0.5718,3.11,-1.34,1.40
301,814068087,0.1421,-0.8740,0.5732,3.29,-1.34,1.46
302,814073086,0.1445,-0.8701,0.5732,3.41,-1.22,1.52
303,814078087,0.1445,-0.8706,0.5801,3.48,-1.28,1.52
304,814083086,0.1431,-0.8696,0.5771,3.35,-1.22,1.65
305,814088087,0.1372,-0.8687,0.5771,3.41,-1.28,1.71
306,814093086,0.1411,-0.8672,0.5806,3.23,-1.34,1.71
307,814098087,0.1338,-0.8696,0.5767,3.11,-1.22,1.71
308,814103086,0.1367,-0.8687,0.5820,3.11,-1.28,1.71
309,814108087,0.1372,-0.8667,0.5806,2.74,-1.34,1.77
310,814113086,0.1396,-0.8711,0.5791,2.56,-1.28,1.83
311,814118090,0.1411,-0.8696,0.5757,2.44,-1.28,1.77
312,814123086,0.1421,-0.8726,0.5815,2.38,-1.22,1.71
313,814128085,0.1387,-0.8716,0.5806,2.32,-1.34,1.83
314,814133089,0.1401,-0.8770,0.5771,2.26,-1.22,1.83
315,814138086,0.1416,-0.8765,0.5757,2.20,-1.22,1.77
316,814143087,0.1382,-0.8760,0.5723,2.13,-1.34,1.83
317,814148088,0.1362,-0.8706,0.5649,2.26,-1.28,1.77
318,814153158,0.1338,-0.8662,0.5742,2.38,-1.34,1.77
319,814158085,0.1343,-0.8716,0.5713,2.56,-1.16,1.77
320,814163088,0.1309,-0.8706,0.5674,2.62,-1.28,1.77
321,814168087,0.1299,-0.8726,0.5669,2.87,-1.28,1.71
322,814173086,0.1318,-0.8726,0.5742,3.05,-1.34,1.65
323,814178087,0.1309,-0.8740,0.5742,3.23,-1.28,1.65
324,814183086,0.1289,-0.8691,0.5723,3.29,-1.46,1.59
325,814188088,0.1348,-0.8735,0.5703,3.41,-1.28,1.59
326,814193085,0.1318,-0.8735,0.5693,3.54,-1.40,1.65
327,814198089,0.1323,-0.8755,0.5811,3.54,-1.40,1.65
328,814203087,0.1309,-0.8745,0.5728,3.54,-1.40,1.52
329,814208087,0.1333,-0.8779,0.5737,3.48,-1.46,1.59
330,814213086,0.1357,-0.8755,0.5752,3.48,-1.52,1.52
331,814218089,0.1406,-0.8760,0.5757,3.41,-1.65,1.59
332,814223086,0.1401,-0.8760,0.5747,3.23,-1.71,1.52
333,814228089,0.1387,-0.8779,0.5771,3.17,-1.77,1.46
334,814233087,0.1372,-0.8696,0.5781,3.05,-1.83,1.46
335,814238089,0.1367,-0.8735,0.5737,2.93,-1.77,1.52
336,814243086,0.1372,-0.8730,0.5762,2.74,-1.83,1.52
337,814248087,0.1357,-0.8687,0.5771,2.74,-1.89,1.52
338,814253086,0.1348,-0.8711,0.5703,2.68,-1.95,1.59
339,814258087,0.1377,-0.8696,0.5728,2.68,-2.01,1.59
340,814263086,0.1411,-0.8672,0.5781,2.74,-2.20,1.65
341,814268089,0.1392,-0.8740,0.5737,2.68,-2.13,1.65
342,814273086,0.1392,-0.8687,0.5811,2.74,-2.20,1.83
343,814278399,0.1396,-0.8701,0.5771,2.87,-2.20,1.83
344,814283087,0.1382,-0.8740,0.5850,2.87,-2.38,1.83
345,814288087,0.1426,-0.8696,0.5781,2.93,-2.32,1.83
346,814293087,0.1401,-0.8696,0.5786,2.93,-2.32,1.83
347,814298088,0.1382,-0.8711,0.5762,2.99,-2.44,1.95
348,814303087,0.1396,-0.8735,0.5830,2.93,-2.38,1.95
349,814308087,0.1387,-0.8716,0.5806,2.87,-2.44,1.95
350,814313087,0.1401,-0.8721,0.5806,2.74,-2.56,1.89
351,814318088,0.1367,-0.8726,0.5815,2.68,-2.56,1.95
352,814323087,0.1411,-0.8701,0.5767,2.62,-2.62,1.89
353,814328088,0.1416,-0.8740,0.5771,2.56,-2.68,1.89
354,814333087,0.1401,-0.8726,0.5752,2.56,-2.74,1.83
355,814338089,0.1387,-0.8687,0.5767,2.38,-2.80,1.83
356,814343086,0.1416,-0.8711,0.5718,2.20,-2.80,1.89
357,814348087,0.1333,-0.8716,0.5757,2.26,-2.80,1.83
358,814353086,0.1382,-0.8711,0.5737,2.26,-2.80,1.83
359,814358087,0.1392,-0.8716,0.5776,2.20,-2.87,1.71
360,814363086,0.1328,-0.8726,0.5752,2.26,-2.93,1.77
361,814368087,0.1362,-0.8721,0.5737,2.26,-2.93,1.65
362,814373086,0.1392,-0.8711,0.5728,2.38,-2.87,1.65
363,814378085,0.1377,-0.8726,0.5786,2.32,-3.11,1.59
364,814383089,0.1382,-0.8745,0.5747,2.26,-2.87,1.59
365,814388086,0.1392,-0.8740,0.5796,2.32,-2.99,1.40
366,814393087,0.1367,-0.8628,0.5698,2.20,-3.17,1.46
367,814398088,0.1362,-0.8647,0.5767,2.38,-3.23,1.34
368,814403087,0.1377,-0.8696,0.5742,2.62,-2.99,1.40
369,814408281,0.1362,-0.8647,0.5757,2.62,-2.99,1.46
370,814413087,0.1377,-0.8677,0.5762,2.74,-3.05,1.46
371,814418086,0.1372,-0.8643,0.5728,2.68,-3.05,1.46
372,814423087,0.1396,-0.8682,0.5728,2.68,-3.17,1.52
373,814428088,0.1465,-0.8682,0.5747,2.56,-3.23,1.65
374,814433162,0.1470,-0.8760,0.5771,2.56,-3.23,1.65
375,814438088,0.1484,-0.8809,0.5742,2.38,-3.29,1.71
376,814443087,0.1484,-0.8745,0.5757,2.20,-3.17,1.77
377,814448090,0.1509,-0.8740,0.5776,2.07,-3.17,1.83
378,814453087,0.1504,-0.8735,0.5757,2.07,-3.23,1.83
379,814458087,0.1514,-0.8716,0.5723,2.01,-3.41,1.95
380,814463087,0.1533,-0.8765,0.5796,2.01,-3.29,1.89
381,814468086,0.1489,-0.8770,0.5767,2.01,-3.29,2.07
382,814473087,0.1499,-0.8765,0.5723,2.01,-3.11,2.13
383,814478088,0.1489,-0.8755,0.5708,2.20,-3.23,2.20
384,814483092,0.1455,-0.8755,0.5713,2.38,-3.05,2.20
385,814488085,0.1455,-0.8745,0.5703,2.38,-2.99,2.13
386,814493086,0.1445,-0.8774,0.5674,2.62,-2.87,2.20
387,814498087,0.1470,-0.8750,0.5630,2.56,-2.74,2.20
388,814503087,0.1450,-0.8721,0.5601,2.68,-2.80,2.26
389,814508087,0.1450,-0.8779,0.5581,2.74,-2.74,2.32
390,814513086,0.1460,-0.8745,0.5615,2.74,-2.56,2.26
391,814518087,0.1489,-0.8774,0.5635,2.62,-2.50,2.44
392,814523086,0.1494,-0.8760,0.5586,2.62,-2.38,2.38
393,814528087,0.1504,-0.8779,0.5684,2.50,-2.38,2.32
394,814533086,0.1494,-0.8799,0.5654,2.44,-2.20,2.38
395,814538085,0.1499,-0.8794,0.5645,2.38,-2.13,2.20
396,814543089,0.1504,-0.8745,0.5688,2.44,-2.07,2.20
397,814548087,0.1519,-0.8750,0.5684,2.38,-1.83,2.20
398,814553086,0.1475,-0.8799,0.5688,2.20,-1.77,2.13
399,814558087,0.1494,-0.8774,0.5713,2.01,-1.65,2.07
400,814563087,0.1494,-0.8711,0.5693,1.89,-1.46,2.01
401,814568087,0.1514,-0.8770,0.5723,1.59,-1.46,1.95
402,814573089,0.1489,-0.8765,0.5747,1.40,-1.46,1.83
403,814578145,0.1455,-0.8730,0.5732,1.22,-1.28,1.83
404,814583086,0.1470,-0.8677,0.5718,1.16,-1.16,1.65
405,814588089,0.1475,-0.8716,0.5713,1.10,-1.04,1.65
406,814593089,0.1475,-0.8647,0.5615,1.10,-0.85,1.77
407,814598088,0.1455,-0.8696,0.5669,0.91,-0.79,1.65
408,814603086,0.1445,-0.8701,0.5625,0.85,-0.67,1.52
409,814608087,0.1489,-0.8672,0.5659,0.67,-0.61,1.65
410,814613086,0.1450,-0.8716,0.5630,0.55,-0.37,1.52
411,814618087,0.1460,-0.8730,0.5659,0.43,-0.43,1.46
412,814623086,0.1455,-0.8696,0.5703,0.37,-0.24,1.40
413,814628089,0.1436,-0.8750,0.5713,0.30,-0.30,1.40
414,814633148,0.1479,-0.8643,0.5664,0.18,-0.18,1.34
415,814638086,0.1440,-0.8677,0.5679,0.30,-0.24,1.28
416,814643087,0.1460,-0.8726,0.5630,0.55,0.00,1.22
417,814648087,0.1440,-0.8760,0.5635,0.61,0.00,1.34
418,814653086,0.1460,-0.8730,0.5713,0.73,0.06,1.22
419,814658089,0.1431,-0.8716,0.5713,0.61,0.06,1.22
420,814663086,0.1450,-0.8774,0.5674,0.55,0.12,1.22
421,814668085,0.1450,-0.8804,0.5649,0.49,0.06,1.22
422,814673087,0.1475,-0.8799,0.5698,0.30,0.00,1.28
423,814678088,0.1450,-0.8799,0.5674,0.12,0.06,1.22
424,814683087,0.1455,-0.8853,0.5732,0.06,0.00,1.22
425,814688085,0.1465,-0.8828,0.5703,0.00,0.12,1.22
426,814693087,0.1470,-0.8794,0.5664,-0.18,0.06,1.34
427,814698088,0.1440,-0.8828,0.5737,-0.06,0.06,1.34
428,814703087,0.1455,-0.8818,0.5737,0.00,-0.12,1.40
429,814708085,0.1411,-0.8848,0.5688,0.00,-0.12,1.34
430,814713546,0.1421,-0.8843,0.5679,0.24,-0.18,1.40
431,814718087,0.1406,-0.8838,0.5698,0.30,-0.24,1.28
432,814723087,0.1406,-0.8828,0.5747,0.49,-0.43,1.34
433,814728087,0.1372,-0.8833,0.5742,0.79,-0.43,1.34
434,814733190,0.1338,-0.8794,0.5693,1.16,-0.55,1.34
435,814738088,0.1338,-0.8813,0.5708,1.34,-0.67,1.28
436,814743086,0.1353,-0.8833,0.5679,1.59,-0.73,1.28
437,814748258,0.1304,-0.8804,0.5664,1.83,-0.85,1.28
438,814753088,0.1348,-0.8789,0.5718,2.01,-1.04,1.22
439,814758086,0.1328,-0.8774,0.5654,2.13,-1.16,1.10
440,814763087,0.1357,-0.8789,0.5669,2.20,-1.22,1.10
441,814768087,0.1318,-0.8828,0.5649,2.26,-1.28,1.10
442,814773087,0.1362,-0.8794,0.5747,2.26,-1.46,1.16
443,814778086,0.1353,-0.8828,0.5718,2.26,-1.65,1.04
444,814783087,0.1362,-0.8799,0.5708,2.20,-1.77,1.10
445,814788086,0.1348,-0.8765,0.5718,2.32,-2.07,0.98
446,814793087,0.1416,-0.8750,0.5708,2.20,-2.07,0.98
447,814798087,0.1392,-0.8774,0.5718,2.20,-2.26,0.98
448,814803087,0.1406,-0.8745,0.5742,2.13,-2.56,0.91
449,814808086,0.1401,-0.8779,0.5752,2.07,-2.68,0.91
450,814813087,0.1372,-0.8750,0.5767,2.07,-2.87,0.79
451,814818088,0.1387,-0.8735,0.5752,2.07,-3.05,0.85
452,814823087,0.1396,-0.8745,0.5786,2.01,-3.41,0.79
453,814828087,0.1416,-0.8721,0.5718,2.01,-3.48,0.73
454,814833087,0.1396,-0.8691,0.5737,2.13,-3.60,0.91
455,814838086,0.1416,-0.8706,0.5703,2.20,-3.72,0.73
456,814843374,0.1426,-0.8706,0.5674,2.26,-3.90,0.73
457,814848088,0.1436,-0.8735,0.5728,2.44,-3.90,0.79
458,814853523,0.1396,-0.8730,0.5654,2.56,-4.02,0.79
459,814858087,0.1426,-0.8721,0.5649,2.68,-4.09,0.79
460,814863087,0.1436,-0.8706,0.5703,2.74,-4.33,0.79
461,814868087,0.1416,-0.8701,0.5654,2.93,-4.21,0.85
462,814873086,0.1421,-0.8691,0.5596,2.87,-4.21,0.91
463,814878087,0.1445,-0.8711,0.5586,2.93,-4.21,0.85
464,814883088,0.1440,-0.8691,0.5571,2.87,-4.15,0.85
465,814888087,0.1421,-0.8726,0.5542,2.62,-4.33,0.91
466,814893086,0.1426,-0.8706,0.5562,2.32,-4.33,0.85
467,814898087,0.1455,-0.8726,0.5635,2.13,-4.27,0.91
468,814903087,0.1460,-0.8711,0.5649,1.89,-4.33,0.91
469,814908090,0.1431,-0.8740,0.5640,1.40,-4.21,0.98
470,814913088,0.1450,-0.8770,0.5596,1.10,-4.21,0.98
471,814918087,0.1470,-0.8750,0.5625,0.79,-4.15,0.98
472,814923087,0.1475,-0.8760,0.5684,0.37,-4.21,1.04
473,814928087,0.1494,-0.8809,0.5605,0.00,-4.27,0.98
474,814933086,0.1514,-0.8794,0.5630,-0.12,-4.02,0.85
475,814938087,0.1504,-0.8779,0.5625,-0.30,-3.90,1.04
476,814943088,0.1499,-0.8770,0.5635,-0.37,-3.90,0.98
477,814948087,0.1489,-0.8799,0.5620,-0.37,-3.84,0.98
478,814953085,0.1455,-0.8794,0.5610,-0.30,-3.54,1.04
479,814958087,0.1499,-0.8770,0.5605,-0.18,-3.48,0.98
480,814963087,0.1494,-0.8745,0.5591,0.00,-3.48,1.04
481,814968087,0.1509,-0.8779,0.5542,0.06,-3.29,1.04
482,814973085,0.1475,-0.8765,0.5513,0.30,-3.11,1.10
483,814978087,0.1533,-0.8779,0.5522,0.30,-2.80,1.10
484,814983087,0.1538,-0.8774,0.5552,0.43,-2.87,1.10
485,814988088,0.1558,-0.8784,0.5557,0.55,-2.74,1.22
486,814993086,0.1533,-0.8779,0.5557,0.49,-2.50,1.28
487,814998087,0.1548,-0.8774,0.5571,0.49,-2.38,1.34
488,815003087,0.1533,-0.8813,0.5615,0.43,-2.26,1.40
489,815008087,0.1572,-0.8809,0.5581,0.37,-2.26,1.46
490,815013086,0.1548,-0.8804,0.5581,0.37,-2.07,1.59
491,815018087,0.1548,-0.8789,0.5635,0.18,-2.20,1.52
492,815023608,0.1558,-0.8848,0.5674,0.18,-1.95,1.65
493,815028087,0.1611,-0.8784,0.5649,0.12,-1.89,1.65
494,815033088,0.1602,-0.8828,0.5620,-0.06,-2.07,1.59
495,815038087,0.1577,-0.8809,0.5654,-0.06,-2.01,1.71
496,815043086,0.1587,-0.8804,0.5684,-0.06,-1.89,1.77
497,815048087,0.1572,-0.8848,0.5674,0.00,-1.77,1.77
498,815053088,0.1582,-0.8896,0.5693,0.12,-1.95,1.83
499,815058087,0.1567,-0.8833,0.5601,0.37,-1.89,2.01
500,815063086,0.1558,-0.8818,0.5654,0.49,-1.83,2.01
501,815068087,0.1533,-0.8799,0.5615,0.73,-1.83,2.13
502,815073086,0.1543,-0.8887,0.5571,1.04,-1.83,2.13
503,815078088,0.1504,-0.8848,0.5610,1.10,-1.77,2.20
504,815083087,0.1543,-0.8843,0.5601,1.22,-1.59,2.32
505,815088087,0.1543,-0.8838,0.5640,1.40,-1.83,2.20
506,815093086,0.1548,-0.8843,0.5635,1.52,-1.65,2.32
507,815098087,0.1509,-0.8823,0.5601,1.71,-1.95,2.38
508,815103087,0.1548,-0.8833,0.5596,2.01,-1.83,2.44
509,815108087,0.1553,-0.8823,0.5649,2.13,-1.77,2.50
510,815113086,0.1514,-0.8843,0.5605,2.20,-1.83,2.50
511,815118089,0.1558,-0.8838,0.5630,2.32,-1.89,2.50
512,815123087,0.1543,-0.8818,0.5635,2.20,-1.77,2.62
513,815128087,0.1553,-0.8857,0.5635,2.20,-1.95,2.50
514,815133085,0.1533,-0.8853,0.5669,2.07,-1.89,2.50
515,815138088,0.1538,-0.8809,0.5654,2.13,-1.95,2.56
516,815143087,0.1528,-0.8838,0.5625,2.01,-2.01,2.56
517,815148088,0.1494,-0.8804,0.5679,1.89,-1.95,2.56
518,815153086,0.1494,-0.8789,0.5684,1.89,-2.20,2.56
519,815158087,0.1504,-0.8794,0.5732,1.83,-2.20,2.50
520,815163087,0.1475,-0.8784,0.5635,1.83,-2.20,2.50
521,815168087,0.1499,-0.8760,0.5615,1.71,-2.32,2.50
522,815173088,0.1455,-0.8750,0.5576,1.65,-2.32,2.44
523,815178087,0.1440,-0.8730,0.5640,1.65,-2.38,2.38
524,815183087,0.1460,-0.8760,0.5615,1.59,-2.32,2.44
525,815188087,0.1455,-0.8735,0.5581,1.71,-2.32,2.38
526,815193389,0.1484,-0.8740,0.5596,1.71,-2.32,2.32
527,815198089,0.1440,-0.8779,0.5547,1.83,-2.32,2.26
528,815203090,0.1494,-0.8794,0.5522,1.89,-2.38,2.20
529,815208086,0.1533,-0.8872,0.5513,1.95,-2.56,2.20
530,815213087,0.1514,-0.8843,0.5522,1.95,-2.68,2.13
531,815218086,0.1543,-0.8823,0.5615,1.95,-2.74,2.07
532,815223087,0.1528,-0.8882,0.5557,2.01,-2.62,2.07
533,815228086,0.1509,-0.8862,0.5605,2.01,-2.80,1.89
534,815233089,0.1514,-0.8887,0.5586,2.07,-2.80,2.01
535,815238086,0.1519,-0.8892,0.5605,2.20,-2.80,1.89
536,815243087,0.1528,-0.8838,0.5610,2.20,-3.05,1.89
537,815248086,0.1479,-0.8809,0.5532,2.32,-2.99,1.71
538,815253087,0.1484,-0.8784,0.5557,2.56,-3.05,1.95
539,815258087,0.1494,-0.8779,0.5498,2.80,-3.05,1.83
540,815263087,0.1514,-0.8794,0.5503,2.99,-2.99,1.83
541,815268086,0.1514,-0.8794,0.5542,2.99,-2.99,1.95
542,815273085,0.1509,-0.8789,0.5508,2.93,-2.99,1.95
543,815278088,0.1489,-0.8794,0.5522,2.87,-3.05,1.89
544,815283087,0.1528,-0.8760,0.5552,2.74,-2.99,1.89
545,815288087,0.1509,-0.8809,0.5557,2.56,-3.05,1.83
546,815293086,0.1489,-0.8833,0.5522,2.32,-2.99,1.83
547,815298087,0.1553,-0.8799,0.5586,2.07,-3.17,1.77
548,815303087,0.1543,-0.8799,0.5571,1.77,-3.11,1.77
549,815308087,0.1548,-0.8828,0.5527,1.52,-3.11,1.83
550,815313086,0.1523,-0.8799,0.5615,1.16,-3.11,1.71
551,815318087,0.1523,-0.8809,0.5591,0.98,-3.17,1.71
552,815323088,0.1572,-0.8779,0.5537,1.10,-3.23,1.71
553,815328087,0.1538,-0.8726,0.5591,0.98,-3.05,1.77
554,815333086,0.1523,-0.8730,0.5562,1.04,-3.23,1.71
555,815338087,0.1509,-0.8750,0.5576,1.28,-3.23,1.83
556,815343089,0.1509,-0.8779,0.5542,1.34,-3.29,1.77
557,815348086,0.1465,-0.8755,0.5542,1.59,-3.23,1.83
558,815353086,0.1436,-0.8760,0.5571,1.89,-3.35,1.83
559,815358085,0.1411,-0.8750,0.5527,1.95,-3.29,1.77
560,815363087,0.1431,-0.8813,0.5576,1.95,-3.23,1.71
561,815368086,0.1426,-0.8823,0.5581,2.01,-3.35,1.65
562,815373087,0.1479,-0.8848,0.5562,2.01,-3.29,1.71
563,815378086,0.1479,-0.8853,0.5581,1.83,-3.41,1.71
564,815383087,0.1587,-0.8755,0.5439,1.71,-3.54,1.46
565,815388087,0.1509,-0.8740,0.5483,1.77,-3.41,1.46
566,815393087,0.1494,-0.8784,0.5464,1.95,-3.41,1.52
567,815398086,0.1558,-0.8872,0.5493,1.89,-3.60,1.65
568,815403087,0.1543,-0.8853,0.5537,1.83,-3.66,1.59
569,815408086,0.1523,-0.8823,0.5537,1.77,-3.66,1.59
570,815413089,0.1514,-0.8833,0.5537,1.52,-3.78,1.71
571,815418086,0.1548,-0.8809,0.5547,1.28,-3.84,1.77
572,815423087,0.1504,-0.8828,0.5566,1.16,-3.96,1.77
573,815428086,0.1533,-0.8828,0.5557,0.98,-4.02,1.77
574,815433087,0.1538,-0.8823,0.5605,0.79,-4.02,1.77
575,815438086,0.1528,-0.8872,0.5601,0.67,-4.09,1.89
576,815443087,0.1543,-0.8872,0.5547,0.43,-4.27,1.95
577,815448087,0.1558,-0.8823,0.5542,0.43,-4.33,2.01
578,815453088,0.1538,-0.8804,0.5513,0.43,-4.33,2.01
579,815458086,0.1514,-0.8799,0.5591,0.43,-4.51,2.13
580,815463087,0.1514,-0.8813,0.5488,0.61,-4.57,2.20
581,815468087,0.1553,-0.8818,0.5566,0.79,-4.63,2.26
582,815473087,0.1562,-0.8813,0.5518,0.98,-4.76,2.32
583,815478087,0.1592,-0.8779,0.5483,1.16,-4.70,2.38
584,815483086,0.1567,-0.8833,0.5513,1.40,-4.76,2.44
585,815488087,0.1616,-0.8843,0.5537,1.59,-4.88,2.44
586,815493087,0.1606,-0.8818,0.5469,1.65,-4.88,2.44
587,815498087,0.1587,-0.8838,0.5542,1.77,-4.82,2.44
588,815503086,0.1592,-0.8833,0.5542,1.83,-5.00,2.44
589,815508087,0.1582,-0.8862,0.5547,1.77,-5.12,2.38
590,815513087,0.1577,-0.8857,0.5542,1.71,-5.12,2.44
591,815518087,0.1602,-0.8809,0.5464,1.65,-5.18,2.26
592,815523085,0.1484,-0.8818,0.5576,1.59,-5.18,2.26
593,815528089,0.1504,-0.8838,0.5503,1.59,-5.18,2.20
594,815533087,0.1528,-0.8838,0.5581,1.46,-5.24,2.07
595,815538087,0.1514,-0.8867,0.5552,1.40,-5.24,2.13
596,815543086,0.1489,-0.8843,0.5483,1.28,-5.18,2.07
597,815548087,0.1514,-0.8784,0.5425,1.28,-5.24,2.01
598,815553087,0.1553,-0.8809,0.5483,1.34,-5.24,2.01
599,815558087,0.1499,-0.8804,0.5537,1.77,-5.18,2.07
600,815563640,0.1553,-0.8862,0.5493,2.07,-5.24,2.13
601,815568088,0.1543,-0.8784,0.5518,2.26,-5.00,2.13
602,815573087,0.1582,-0.8804,0.5498,2.50,-5.00,2.20
603,815578087,0.1587,-0.8784,0.5479,2.62,-5.00,2.20
604,815583086,0.1543,-0.8804,0.5474,2.80,-4.94,2.32
605,815588087,0.1538,-0.8882,0.5479,2.80,-4.88,2.26
606,815593088,0.1592,-0.8828,0.5508,2.62,-4.94,2.38
607,815598087,0.1543,-0.8877,0.5527,2.68,-4.94,2.26
608,815603086,0.1543,-0.8828,0.5527,2.50,-4.82,2.44
609,815608087,0.1558,-0.8848,0.5513,2.50,-4.70,2.38
610,815613088,0.1523,-0.8857,0.5508,2.44,-4.76,2.50
611,815618087,0.1572,-0.8882,0.5537,2.32,-4.70,2.56
612,815623085,0.1577,-0.8882,0.5498,2.20,-4.45,2.62
613,815628087,0.1567,-0.8857,0.5425,2.20,-4.57,2.68
614,815633086,0.1592,-0.8896,0.5488,2.20,-4.45,2.74
615,815638150,0.1606,-0.8887,0.5474,2.01,-4.33,2.80
616,815643087,0.1592,-0.8867,0.5464,2.07,-4.15,2.93
617,815648087,0.1587,-0.8872,0.5459,2.01,-4.02,2.99
618,815653087,0.1597,-0.8867,0.5415,1.89,-3.96,3.05
619,815658087,0.1582,-0.8838,0.5405,1.89,-3.84,3.11
620,815663086,0.1582,-0.8848,0.5366,1.89,-3.84,3.17
621,815668085,0.1582,-0.8833,0.5469,1.89,-3.78,3.35
622,815673085,0.1582,-0.8794,0.5425,1.89,-3.84,3.41
623,815678087,0.1592,-0.8774,0.5488,1.71,-3.48,3.54
624,815683087,0.1582,-0.8804,0.5391,1.77,-3.48,3.72
625,815688087,0.1597,-0.8770,0.5415,1.77,-3.35,3.84
626,815693088,0.1597,-0.8765,0.5449,1.77,-3.23,3.90
627,815698087,0.1577,-0.8760,0.5464,1.77,-3.35,4.02
628,815703087,0.1553,-0.8765,0.5474,1.71,-3.29,4.15
629,815708087,0.1577,-0.8755,0.5493,1.71,-3.29,4.33
630,815713088,0.1504,-0.8740,0.5439,1.65,-3.17,4.45
631,815718087,0.1514,-0.8726,0.5410,1.65,-3.29,4.45
632,815723087,0.1602,-0.8779,0.5410,1.52,-3.17,4.57
633,815728087,0.1533,-0.8740,0.5435,1.34,-3.23,4.76
634,815733086,0.1602,-0.8740,0.5493,1.34,-3.29,4.70
635,815738087,0.1626,-0.8765,0.5430,1.28,-3.23,4.82
636,815743087,0.1597,-0.8745,0.5439,1.34,-3.23,4.82
637,815748087,0.1631,-0.8730,0.5449,1.22,-3.17,4.82
638,815753086,0.1636,-0.8740,0.5425,1.04,-3.29,4.94
639,815758087,0.1616,-0.8779,0.5405,0.98,-3.35,4.94
640,815763086,0.1602,-0.8784,0.5366,0.91,-3.54,4.82
641,815768087,0.1626,-0.8799,0.5396,0.79,-3.48,4.88
642,815773088,0.1650,-0.8813,0.5454,0.55,-3.48,4.82
643,815778087,0.1670,-0.8789,0.5410,0.49,-3.66,4.88
644,815783086,0.1694,-0.8813,0.5454,0.37,-3.60,4.82
645,815788087,0.1753,-0.8799,0.5361,0.24,-3.72,4.88
646,815793087,0.1689,-0.8789,0.5391,0.43,-3.78,4.88
647,815798087,0.1650,-0.8784,0.5386,0.43,-3.78,4.82
648,815803430,0.1646,-0.8833,0.5469,0.43,-3.96,4.82
649,815808088,0.1655,-0.8799,0.5435,0.43,-3.96,4.82
650,815813087,0.1685,-0.8813,0.5400,0.30,-4.02,4.82
651,815818087,0.1689,-0.8804,0.5439,0.24,-4.27,4.88
652,815823088,0.1709,-0.8872,0.5498,0.12,-4.21,4.76
653,815828087,0.1655,-0.8838,0.5518,0.06,-4.39,4.63
654,815833087,0.1704,-0.8926,0.5503,0.00,-4.39,4.57
655,815838087,0.1670,-0.8896,0.5469,-0.12,-4.45,4.57
656,815843086,0.1714,-0.8882,0.5415,-0.24,-4.51,4.51
657,815848087,0.1699,-0.8955,0.5483,-0.12,-4.57,4.45
658,815853194,0.1680,-0.8950,0.5513,-0.12,-4.63,4.27
659,815858088,0.1689,-0.8936,0.5498,-0.18,-4.63,4.21
660,815863086,0.1680,-0.8975,0.5498,0.00,-4.57,4.02
661,815868087,0.1670,-0.9077,0.5781,0.24,-4.45,4.15
662,815873368,0.1655,-0.8877,0.5342,0.49,-4.57,3.96
663,815878087,0.1562,-0.8843,0.5522,0.55,-4.63,3.96
664,815883087,0.1577,-0.8867,0.5566,0.85,-4.57,3.72
665,815888087,0.1782,-0.8970,0.5415,1.10,-4.51,3.60
666,815893086,0.1655,-0.8965,0.5361,1.28,-4.51,3.54
667,815898087,0.1606,-0.8970,0.5605,1.46,-4.45,3.41
668,815903087,0.1611,-0.8994,0.5532,1.71,-4.45,3.35
669,815908087,0.1606,-0.8999,0.5425,1.95,-4.15,3.11
670,815913088,0.1597,-0.8979,0.5435,2.01,-4.09,2.93
671,815918087,0.1553,-0.9014,0.5522,2.26,-3.96,2.80
672,815923087,0.1602,-0.8965,0.5420,2.32,-3.78,2.68
673,815928087,0.1567,-0.8994,0.5459,2.38,-3.84,2.44
674,815933086,0.1553,-0.9004,0.5474,2.50,-3.60,2.38
675,815938087,0.1533,-0.9053,0.5430,2.38,-3.66,2.26
676,815943087,0.1558,-0.9043,0.5405,2.50,-3.48,2.13
677,815948087,0.1519,-0.9062,0.5435,2.56,-3.29,1.89
678,815953086,0.1528,-0.9033,0.5454,2.44,-3.17,1.77
679,815958087,0.1553,-0.9038,0.5425,2.56,-3.17,1.46
680,815963087,0.1553,-0.9028,0.5366,2.62,-2.93,1.52
681,815968087,0.1533,-0.9014,0.5356,2.62,-2.87,1.46
682,815973086,0.1494,-0.9023,0.5332,2.87,-2.74,1.28
683,815978088,0.1533,-0.8999,0.5376,3.05,-2.56,1.10
684,815983087,0.1519,-0.9009,0.5322,3.11,-2.50,0.85
685,815988087,0.1519,-0.8999,0.5342,3.35,-2.50,0.85
686,815993086,0.1519,-0.8936,0.5332,3.60,-2.20,0.61
687,815998087,0.1519,-0.8940,0.5381,3.78,-2.26,0.61
688,816003088,0.1523,-0.8945,0.5396,3.96,-2.26,0.61
689,816008087,0.1509,-0.8931,0.5352,4.21,-2.26,0.61
690,816013085,0.1533,-0.8926,0.5386,4.39,-2.13,0.49
691,816018226,0.1543,-0.8887,0.5327,4.45,-2.07,0.49
692,816023087,0.1538,-0.8892,0.5415,4.45,-2.20,0.61
693,816028086,0.1582,-0.8818,0.5400,4.39,-2.20,0.49
694,816033085,0.1577,-0.8809,0.5405,4.27,-2.20,0.55
695,816038088,0.1592,-0.8838,0.5430,4.15,-2.13,0.61
696,816043087,0.1626,-0.8789,0.5425,3.96,-2.26,0.73
697,816048087,0.1626,-0.8774,0.5415,3.84,-2.38,0.73
698,816053086,0.1665,-0.8730,0.5366,3.54,-2.44,0.79
699,816058087,0.1631,-0.8735,0.5420,3.29,-2.50,0.98
700,816063562,0.1606,-0.8672,0.5381,3.11,-2.62,0.98
701,816068087,0.1636,-0.8677,0.5449,2.99,-2.68,1.16
702,816073086,0.1631,-0.8643,0.5420,2.93,-2.87,1.22
703,816078089,0.1592,-0.8657,0.5464,2.68,-3.05,1.28
704,816083087,0.1587,-0.8696,0.5444,2.62,-3.05,1.40
705,816088086,0.1587,-0.8701,0.5400,2.44,-3.17,1.52
706,816093087,0.1562,-0.8687,0.5469,2.13,-3.35,1.59
707,816098086,0.1523,-0.8726,0.5464,1.89,-3.41,1.71
708,816103087,0.1538,-0.8804,0.5439,1.52,-3.54,1.71
709,816108086,0.1553,-0.8833,0.5410,0.98,-3.41,1.65
710,816113087,0.1558,-0.8867,0.5410,0.55,-3.48,1.77
711,816118089,0.1587,-0.8896,0.5376,0.12,-3.66,1.71
712,816123087,0.1592,-0.8916,0.5381,-0.49,-3.72,1.71
713,816128086,0.1626,-0.8955,0.5366,-0.79,-3.84,1.65
714,816133087,0.1655,-0.8979,0.5444,-1.10,-3.84,1.71
715,816138087,0.1636,-0.8989,0.5415,-1.22,-3.96,1.65
716,816143085,0.1675,-0.8936,0.5347,-1.22,-3.90,1.65
717,816148087,0.1660,-0.8940,0.5391,-1.10,-4.02,1.59
718,816153087,0.1646,-0.8936,0.5366,-0.73,-3.90,1.71
719,816158087,0.1621,-0.8853,0.5361,-0.30,-4.09,1.77
720,816163086,0.1621,-0.8896,0.5288,0.24,-4.02,1.71
721,816168087,0.1602,-0.8853,0.5400,0.79,-3.90,1.71
722,816173086,0.1577,-0.8857,0.5366,1.28,-4.02,1.77
723,816178087,0.1626,-0.8887,0.5405,1.77,-3.84,1.83
724,816183087,0.1631,-0.8892,0.5410,2.32,-3.90,1.77
725,816188087,0.1621,-0.8887,0.5454,2.62,-3.90,1.83
726,816193086,0.1650,-0.8931,0.5454,2.87,-3.84,1.89
727,816198088,0.1709,-0.8911,0.5430,3.11,-3.84,1.89
728,816203088,0.1680,-0.8936,0.5400,3.11,-3.66,1.83
729,816208087,0.1709,-0.8916,0.5435,3.11,-3.66,1.83
730,816213087,0.1709,-0.8945,0.5439,3.05,-3.84,1.95
731,816218087,0.1675,-0.8887,0.5425,2.87,-3.66,1.83
732,816223090,0.1694,-0.8901,0.5347,2.74,-3.84,1.89
733,816228086,0.1709,-0.8896,0.5454,2.68,-3.78,1.95
734,816233087,0.1699,-0.8896,0.5425,2.62,-3.66,1.83
735,816238086,0.1724,-0.8843,0.5425,2.62,-3.72,1.89
736,816243087,0.1738,-0.8843,0.5483,2.74,-3.72,1.89
737,816248086,0.1719,-0.8818,0.5454,2.87,-3.78,1.95
738,816253087,0.1699,-0.8848,0.5337,2.93,-3.72,2.01
739,816258086,0.1709,-0.8853,0.5352,3.05,-3.60,2.01
740,816263087,0.1699,-0.8901,0.5444,3.17,-3.41,2.07
741,816268087,0.1714,-0.8857,0.5356,3.23,-3.48,2.01
742,816273088,0.1709,-0.8882,0.5415,3.23,-3.35,2.01
743,816278086,0.1738,-0.8911,0.5366,3.23,-3.41,2.07
744,816283087,0.1743,-0.8911,0.5405,3.29,-3.41,2.01
745,816288087,0.1753,-0.8916,0.5415,3.11,-3.23,2.07
746,816293087,0.1729,-0.8921,0.5391,3.23,-3.11,2.07
747,816298087,0.1753,-0.8955,0.5352,3.11,-3.11,2.01
748,816303157,0.1753,-0.8931,0.5366,3.23,-2.93,2.01
749,816308088,0.1748,-0.8906,0.5376,3.35,-2.87,2.01
750,816313087,0.1733,-0.8896,0.5332,3.23,-2.68,1.95
751,816318087,0.1758,-0.8921,0.5312,3.35,-2.56,1.89
752,816323085,0.1733,-0.8916,0.5322,3.48,-2.44,1.95
753,816328088,0.1714,-0.8872,0.5356,3.54,-2.26,1.95
754,816333087,0.1675,-0.8862,0.5352,3.60,-2.07,1.95
755,816338086,0.1655,-0.8887,0.5278,3.60,-1.89,1.83
756,816343087,0.1665,-0.8906,0.5332,3.66,-1.71,1.89
757,816348086,0.1641,-0.8877,0.5322,3.66,-1.65,1.89
758,816353087,0.1670,-0.8911,0.5366,3.54,-1.40,1.77
759,816358086,0.1636,-0.8901,0.5317,3.29,-1.28,1.71
760,816363160,0.1685,-0.8892,0.5332,3.23,-0.98,1.65
761,816368088,0.1665,-0.8926,0.5352,3.17,-1.04,1.65
762,816373087,0.1641,-0.8945,0.5342,2.80,-0.79,1.65
763,816378087,0.1655,-0.8906,0.5400,2.68,-0.79,1.52
764,816383085,0.1685,-0.8877,0.5327,2.50,-0.61,1.59
765,816388089,0.1709,-0.8872,0.5356,2.38,-0.49,1.46
766,816393087,0.1636,-0.8887,0.5322,2.32,-0.24,1.52
767,816398087,0.1680,-0.8882,0.5386,2.26,-0.37,1.34
768,816403086,0.1660,-0.8882,0.5371,2.26,-0.30,1.46
769,816408087,0.1660,-0.8853,0.5298,2.26,-0.12,1.59
770,816413087,0.1675,-0.8828,0.5342,2.38,-0.12,1.52
771,816418088,0.1646,-0.8813,0.5376,2.56,0.00,1.65
772,816423086,0.1660,-0.8804,0.5386,2.68,0.00,1.71
773,816428087,0.1646,-0.8823,0.5303,2.93,-0.06,1.71
774,816433087,0.1631,-0.8838,0.5386,2.93,0.06,1.77
775,816438087,0.1665,-0.8813,0.5396,2.93,0.06,1.71
776,816443086,0.1611,-0.8857,0.5449,2.99,0.06,1.77
777,816448087,0.1660,-0.8823,0.5352,2.93,0.06,1.89
778,816453087,0.1655,-0.8779,0.5386,2.74,0.00,1.83
779,816458087,0.1616,-0.8813,0.5410,2.50,0.00,1.95
780,816463086,0.1626,-0.8857,0.5410,2.32,-0.18,1.95
781,816468087,0.1611,-0.8799,0.5513,2.07,-0.30,1.89
782,816473087,0.1660,-0.8813,0.5435,2.01,-0.30,2.07
783,816478087,0.1655,-0.8809,0.5410,1.71,-0.43,2.07
784,816483086,0.1636,-0.8794,0.5435,1.59,-0.30,2.01
785,816488088,0.1572,-0.8813,0.5405,1.46,-0.55,2.07
786,816493087,0.1621,-0.8853,0.5400,1.40,-0.79,2.13
787,816498087,0.1606,-0.8862,0.5400,1.34,-0.79,2.20
788,816503086,0.1597,-0.8857,0.5396,1.40,-0.91,2.20
789,816508087,0.1631,-0.8843,0.5439,1.46,-0.98,2.26
790,816513087,0.1616,-0.8857,0.5386,1.65,-1.28,2.32
791,816518087,0.1597,-0.8838,0.5361,1.59,-1.34,2.44
792,816523086,0.1611,-0.8823,0.5400,1.77,-1.34,2.32
793,816528087,0.1655,-0.8882,0.5420,1.83,-1.46,2.38
794,816533087,0.1641,-0.8813,0.5391,1.95,-1.71,2.50
795,816538087,0.1631,-0.8838,0.5386,2.13,-1.89,2.44
796,816543088,0.1636,-0.8813,0.5439,2.26,-2.01,2.44
797,816548087,0.1646,-0.8818,0.5415,2.32,-2.20,2.56
798,816553087,0.1631,-0.8818,0.5410,2.44,-2.38,2.56
799,816558087,0.1641,-0.8833,0.5322,2.62,-2.62,2.62
800,816563086,0.1631,-0.8804,0.5420,2.80,-2.68,2.68
801,816568098,0.1626,-0.8804,0.5444,2.74,-2.80,2.68
802,816573090,0.1626,-0.8789,0.5400,2.87,-2.80,2.62
803,816578086,0.1631,-0.8804,0.5400,3.05,-2.99,2.68
804,816583086,0.1621,-0.8774,0.5410,3.05,-3.11,2.68
805,816588087,0.1655,-0.8784,0.5327,3.11,-3.23,2.68
806,816593088,0.1646,-0.8745,0.5347,2.99,-3.23,2.68
807,816598087,0.1655,-0.8726,0.5376,2.99,-3.29,2.68
808,816603086,0.1665,-0.8755,0.5337,2.87,-3.29,2.74
809,816608087,0.1587,-0.8721,0.5386,2.62,-3.29,2.68
810,816613087,0.1592,-0.8687,0.5337,2.44,-3.29,2.68
811,816618087,0.1602,-0.8745,0.5283,2.20,-3.23,2.50
812,816623086,0.1606,-0.8745,0.5371,2.01,-3.29,2.50
813,816628087,0.1602,-0.8691,0.5288,1.77,-3.11,2.50
814,816633203,0.1587,-0.8687,0.5283,1.46,-3.11,2.50
815,816638089,0.1548,-0.8735,0.5229,0.98,-3.05,2.44
816,816643087,0.1611,-0.8774,0.5269,0.49,-2.87,2.32
817,816648086,0.1611,-0.8730,0.5244,0.12,-2.62,2.32
818,816653089,0.1543,-0.8745,0.5269,-0.37,-2.62,2.20
819,816658086,0.1587,-0.8809,0.5293,-0.85,-2.56,2.13
820,816663087,0.1562,-0.8804,0.5229,-1.46,-2.50,2.07
821,816668086,0.1558,-0.8828,0.5249,-2.01,-2.26,1.95
822,816673087,0.1562,-0.8813,0.5293,-2.50,-2.26,1.83
823,816678086,0.1558,-0.8872,0.5254,-2.93,-2.13,1.77
824,816683088,0.1582,-0.8877,0.5225,-3.41,-2.01,1.77
825,816688086,0.1558,-0.8882,0.5205,-3.72,-2.01,1.65
826,816693089,0.1582,-0.8843,0.5239,-3.96,-2.07,1.52
827,816698086,0.1592,-0.8848,0.5249,-4.15,-1.83,1.40
828,816703087,0.1611,-0.8789,0.5176,-4.21,-1.83,1.34
829,816708086,0.1577,-0.8804,0.5220,-4.09,-1.89,1.34
830,816713097,0.1602,-0.8882,0.5195,-3.66,-1.77,1.46
831,816718088,0.1631,-0.8877,0.5156,-3.17,-1.83,1.52
832,816723087,0.1606,-0.8887,0.5225,-2.74,-1.83,1.52
833,816728087,0.1670,-0.8848,0.5210,-2.32,-1.71,1.65
834,816733086,0.1665,-0.8906,0.5317,-2.07,-1.77,1.71
835,816738087,0.1680,-0.8872,0.5283,-1.77,-1.89,1.83
836,816743087,0.1714,-0.8882,0.5259,-1.52,-1.83,1.95
837,816748087,0.1694,-0.8896,0.5298,-1.34,-1.89,2.01
838,816753086,0.1709,-0.8940,0.5376,-1.28,-1.89,2.07
839,816758087,0.1670,-0.8916,0.5332,-1.40,-1.95,2.13
840,816763088,0.1694,-0.8901,0.5361,-1.46,-2.07,2.13
841,816768087,0.1680,-0.8945,0.5347,-1.71,-2.13,2.26
842,816773085,0.1655,-0.8926,0.5405,-2.01,-2.13,2.32
843,816778087,0.1689,-0.8945,0.5386,-2.20,-2.26,2.32
844,816783087,0.1670,-0.8931,0.5308,-2.56,-2.13,2.32
845,816788087,0.1675,-0.8936,0.5337,-2.74,-2.32,2.38
846,816793086,0.1694,-0.8940,0.5347,-2.87,-2.32,2.50
847,816798088,0.1689,-0.8965,0.5322,-2.87,-2.38,2.56
848,816803087,0.1729,-0.8975,0.5327,-2.93,-2.44,2.62
849,816808087,0.1758,-0.9004,0.5342,-2.80,-2.50,2.62
850,816813086,0.1709,-0.8984,0.5322,-2.80,-2.56,2.50
851,816818087,0.1699,-0.8975,0.5317,-2.62,-2.74,2.56
852,816823087,0.1675,-0.8955,0.5259,-2.50,-2.87,2.50
853,816828087,0.1704,-0.9028,0.5322,-2.13,-2.87,2.50
854,816833086,0.1621,-0.8975,0.5332,-1.83,-3.05,2.56
855,816838087,0.1665,-0.9014,0.5342,-1.46,-3.17,2.44
856,816843087,0.1650,-0.9023,0.5293,-1.22,-3.35,2.50
857,816848087,0.1675,-0.9058,0.5317,-0.79,-3.29,2.50
858,816853086,0.1680,-0.9033,0.5293,-0.37,-3.54,2.44
859,816858087,0.1685,-0.9028,0.5332,-0.06,-3.48,2.44
860,816863087,0.1689,-0.9062,0.5288,0.30,-3.72,2.32
861,816868087,0.1641,-0.9062,0.5327,0.61,-3.60,2.26
862,816873086,0.1675,-0.9097,0.5322,0.91,-3.72,2.20
863,816878087,0.1704,-0.9072,0.5273,1.10,-3.72,2.20
864,816883088,0.1650,-0.9131,0.5244,1.28,-3.72,2.07
865,816888087,0.1685,-0.9189,0.5293,1.46,-3.84,2.20
866,816893085,0.1685,-0.9082,0.5132,1.77,-3.72,2.13
867,816898087,0.1670,-0.9053,0.5278,1.95,-3.78,2.01
868,816903610,0.1616,-0.9062,0.5254,2.13,-3.72,1.89
869,816908088,0.1665,-0.9087,0.5112,2.26,-3.72,1.89
870,816913087,0.1743,-0.9189,0.5166,2.38,-3.54,1.77
871,816918087,0.1704,-0.9116,0.5190,2.50,-3.72,1.71
872,816923086,0.1685,-0.9102,0.5176,2.56,-3.54,1.71
873,816928087,0.1597,-0.9004,0.5098,2.62,-3.48,1.59
874,816933087,0.1689,-0.9019,0.5161,2.80,-3.41,1.52
875,816938087,0.1650,-0.9028,0.5156,2.87,-3.29,1.52
876,816943086,0.1670,-0.9048,0.5107,2.99,-3.23,1.46
877,816948087,0.1675,-0.8989,0.5073,2.99,-3.23,1.46
878,816953087,0.1680,-0.9004,0.5112,3.05,-2.93,1.59
879,816958087,0.1675,-0.8989,0.5083,2.93,-2.93,1.46
880,816963086,0.1694,-0.8984,0.5112,2.80,-2.74,1.46
881,816968087,0.1709,-0.8999,0.5112,2.62,-2.68,1.40
882,816973087,0.1729,-0.8911,0.5088,2.38,-2.56,1.46
883,816978087,0.1719,-0.8950,0.5132,2.01,-2.50,1.52
884,816983087,0.1733,-0.8916,0.5083,1.59,-2.38,1.52
885,816988087,0.1787,-0.8906,0.5142,1.22,-2.26,1.59
886,816993462,0.1748,-0.8882,0.5166,0.73,-2.26,1.65
887,816998087,0.1709,-0.8857,0.5151,0.43,-2.26,1.77
888,817003088,0.1733,-0.8853,0.5151,0.18,-2.07,1.95
889,817008087,0.1753,-0.8833,0.5200,-0.24,-2.07,2.07
890,817013086,0.1733,-0.8843,0.5195,-0.43,-1.89,1.95
891,817018087,0.1753,-0.8867,0.5176,-0.67,-1.71,2.13
892,817023198,0.1768,-0.8823,0.5205,-0.73,-1.71,2.20
893,817028088,0.1709,-0.8867,0.5166,-0.91,-1.65,2.32
894,817033086,0.1733,-0.8901,0.5229,-1.10,-1.59,2.44
895,817038087,0.1738,-0.8901,0.5190,-1.22,-1.34,2.44
896,817043087,0.1704,-0.8921,0.5195,-1.28,-1.40,2.62
897,817048087,0.1714,-0.8960,0.5151,-1.46,-1.34,2.62
898,817053086,0.1699,-0.8945,0.5156,-1.65,-1.28,2.68
899,817058087,0.1704,-0.8950,0.5186,-1.65,-1.22,2.80
900,817063088,0.1699,-0.8945,0.5195,-1.65,-1.04,2.87
901,817068087,0.1719,-0.8936,0.5156,-1.71,-0.98,2.87
902,817073086,0.1709,-0.8965,0.5132,-1.59,-0.98,2.93
903,817078087,0.1660,-0.9009,0.5146,-1.52,-0.98,3.05
904,817083087,0.1680,-0.8979,0.5161,-1.46,-0.85,3.05
905,817088087,0.1680,-0.9023,0.5146,-1.22,-0.98,3.05
906,817093086,0.1631,-0.9023,0.5195,-1.10,-0.85,3.05
907,817098087,0.1655,-0.9028,0.5151,-0.91,-0.91,3.11
908,817103088,0.1665,-0.9053,0.5186,-0.67,-0.91,3.05
909,817108087,0.1636,-0.9014,0.5166,-0.37,-0.85,3.05
910,817113085,0.1611,-0.9023,0.5117,-0.18,-0.79,2.99
911,817118088,0.1689,-0.9048,0.5176,0.18,-0.91,2.99
912,817123087,0.1636,-0.9053,0.5225,0.49,-0.91,2.99
913,817128087,0.1611,-0.9062,0.5239,0.67,-0.91,2.93
914,817133088,0.1655,-0.9067,0.5186,0.73,-0.91,2.93
915,817138087,0.1675,-0.9062,0.5142,1.10,-0.91,2.87
916,817143087,0.1631,-0.9048,0.5142,1.22,-0.85,2.93
917,817148087,0.1660,-0.9067,0.5127,1.40,-0.98,2.93
918,817153086,0.1641,-0.9053,0.5146,1.59,-0.98,2.99
919,817158087,0.1631,-0.9092,0.5161,1.77,-1.04,2.93
920,817163087,0.1689,-0.9092,0.5181,1.89,-0.98,2.99
921,817168087,0.1680,-0.9097,0.5171,2.07,-1.04,2.87
922,817173086,0.1689,-0.9131,0.5137,2.20,-1.10,2.93
923,817178087,0.1699,-0.9102,0.5132,2.32,-1.16,2.87
924,817183087,0.1689,-0.9062,0.5229,2.50,-1.16,2.87
925,817188087,0.1680,-0.9067,0.5063,2.50,-1.34,2.93
926,817193086,0.1748,-0.9097,0.5161,2.62,-1.22,2.93
927,817198087,0.1753,-0.9058,0.5117,2.74,-1.28,3.05
928,817203089,0.1719,-0.9072,0.5142,2.80,-1.22,2.99
929,817208087,0.1709,-0.9048,0.5156,2.87,-1.40,3.05
930,817213087,0.1748,-0.9062,0.5112,2.99,-1.22,3.17
931,817218087,0.1704,-0.9053,0.5146,2.99,-1.34,3.05
932,817223089,0.1670,-0.8989,0.5161,2.99,-1.28,3.11
933,817228086,0.1689,-0.8999,0.5127,3.05,-1.34,3.17
934,817233087,0.1646,-0.8984,0.5083,3.17,-1.40,3.11
935,817238086,0.1675,-0.9009,0.5063,3.11,-1.34,3.05
936,817243087,0.1650,-0.8979,0.5093,3.05,-1.52,3.23
937,817248086,0.1685,-0.9009,0.5098,3.11,-1.40,3.11
938,817253087,0.1650,-0.8955,0.5127,3.11,-1.40,3.05
939,817258086,0.1655,-0.8984,0.5083,3.11,-1.40,3.05
940,817263346,0.1660,-0.8989,0.5107,3.05,-1.40,2.99
941,817268088,0.1631,-0.8989,0.5107,2.99,-1.40,2.93
942,817273087,0.1621,-0.9028,0.5059,2.87,-1.40,2.93
943,817278087,0.1626,-0.8999,0.5054,2.62,-1.10,2.80
944,817283088,0.1616,-0.9033,0.5093,2.50,-1.16,2.80
945,817288087,0.1611,-0.9023,0.5039,2.26,-1.22,2.68
946,817293087,0.1602,-0.9023,0.5005,2.13,-1.10,2.62
947,817298087,0.1611,-0.9023,0.5088,1.95,-0.98,2.68
948,817303085,0.1587,-0.9038,0.5049,1.77,-0.98,2.62
949,817308088,0.1611,-0.9028,0.5063,1.59,-0.85,2.38
950,817313087,0.1626,-0.9023,0.5044,1.65,-0.98,2.38
951,817318086,0.1592,-0.8984,0.5068,1.52,-0.85,2.38
952,817323087,0.1636,-0.9004,0.5024,1.65,-0.85,2.26
953,817328086,0.1636,-0.8970,0.5103,1.65,-0.85,2.26
954,817333085,0.1660,-0.8999,0.5088,1.65,-0.79,2.20
955,817338089,0.1631,-0.9004,0.5049,1.83,-0.73,2.07
956,817343453,0.1636,-0.8926,0.5088,1.83,-0.91,2.01
957,817348087,0.1592,-0.8945,0.5142,1.89,-0.91,1.95
958,817353088,0.1592,-0.8960,0.5093,2.07,-0.85,2.07
959,817358087,0.1611,-0.8955,0.5107,2.20,-0.79,1.95
960,817363086,0.1606,-0.8945,0.5146,2.20,-0.85,1.89
961,817368087,0.1562,-0.8975,0.5142,2.20,-0.85,1.89
962,817373087,0.1621,-0.8970,0.5088,2.32,-0.91,1.95
963,817378087,0.1631,-0.8965,0.5151,2.20,-0.91,2.01
964,817383300,0.1592,-0.8945,0.5112,2.20,-1.04,1.95
965,817388087,0.1641,-0.8979,0.5049,2.01,-0.91,1.89
966,817393086,0.1694,-0.9004,0.5073,1.95,-0.98,1.95
967,817398087,0.1665,-0.9004,0.5107,1.77,-1.10,1.95
968,817403276,0.1631,-0.9023,0.5112,1.65,-1.16,2.01
969,817408088,0.1616,-0.8989,0.5151,1.40,-1.16,2.07
970,817413086,0.1655,-0.8955,0.5078,1.40,-1.34,2.13
971,817418087,0.1641,-0.8979,0.5112,1.28,-1.46,2.26
972,817423087,0.1665,-0.9023,0.5181,1.28,-1.40,2.26
973,817428087,0.1650,-0.8999,0.5112,1.16,-1.46,2.26
974,817433085,0.1626,-0.8955,0.5098,1.28,-1.59,2.32
975,817438089,0.1587,-0.8989,0.5098,1.40,-1.52,2.38
976,817443087,0.1587,-0.8994,0.5166,1.46,-1.77,2.38
977,817448087,0.1611,-0.8979,0.5151,1.65,-1.89,2.44
978,817453085,0.1587,-0.8994,0.5181,1.65,-1.95,2.50
979,817458201,0.1616,-0.8989,0.5049,1.83,-2.01,2.50
980,817463087,0.1626,-0.8857,0.5083,2.01,-2.13,2.38
981,817468086,0.1597,-0.8926,0.5088,2.32,-2.20,2.50
982,817473087,0.1631,-0.8921,0.5068,2.74,-2.20,2.62
983,817478087,0.1641,-0.8970,0.5068,2.93,-2.26,2.68
984,817483089,0.1660,-0.8960,0.5005,3.11,-2.26,2.68
985,817488086,0.1665,-0.8970,0.5088,3.41,-2.50,2.68
986,817493087,0.1665,-0.8940,0.5010,3.35,-2.38,2.80
987,817498086,0.1694,-0.8945,0.5063,3.35,-2.50,2.87
988,817503089,0.1694,-0.8960,0.5049,3.41,-2.56,2.80
989,817508086,0.1670,-0.8950,0.5029,3.29,-2.62,2.74
990,817513085,0.1641,-0.8965,0.4995,3.23,-2.68,2.80
991,817518087,0.1631,-0.8979,0.5024,3.11,-2.68,2.87
992,817523087,0.1606,-0.8950,0.5015,2.80,-2.74,2.87
993,817528087,0.1587,-0.8936,0.4951,2.62,-2.62,2.93
994,817533086,0.1562,-0.8940,0.5054,2.44,-2.74,2.87
995,817538087,0.1621,-0.8994,0.5020,2.13,-2.56,2.80
996,817543087,0.1577,-0.9004,0.5093,1.89,-2.68,2.74
997,817548087,0.1631,-0.8965,0.5093,1.71,-2.56,2.80
998,817553086,0.1636,-0.9019,0.5049,1.52,-2.38,2.74
999,817558087,0.1680,-0.9014,0.5054,1.28,-2.32,2.80
1000,817563087,0.1665,-0.9077,0.5029,1.10,-2.26,2.68
1001,817568087,0.1611,-0.9082,0.5029,0.85,-2.20,2.74
1002,817573086,0.1641,-0.9121,0.5059,0.67,-2.20,2.68
1003,817578087,0.1670,-0.9077,0.5098,0.37,-2.07,2.74
1004,817583087,0.1650,-0.9111,0.5073,0.12,-2.13,2.68
1005,817588087,0.1636,-0.9092,0.5098,0.06,-1.89,2.68
1006,817593086,0.1660,-0.9126,0.5073,-0.18,-1.95,2.68
1007,817598088,0.1641,-0.9126,0.5049,-0.37,-1.89,2.50
1008,817603087,0.1650,-0.9106,0.5098,-0.24,-1.89,2.62
1009,817608087,0.1655,-0.9126,0.5122,-0.12,-1.89,2.44
1010,817613088,0.1631,-0.9102,0.5142,0.18,-1.83,2.44
1011,817618087,0.1606,-0.9092,0.5112,0.49,-1.65,2.44
1012,817623087,0.1636,-0.9043,0.5078,0.91,-1.59,2.38
1013,817628087,0.1602,-0.9058,0.5073,1.40,-1.52,2.26
1014,817633086,0.1602,-0.9043,0.5063,1.83,-1.59,2.32
1015,817638087,0.1606,-0.9077,0.5039,2.20,-1.40,2.20
1016,817643087,0.1587,-0.9043,0.5049,2.56,-1.28,2.13
1017,817648088,0.1602,-0.9014,0.5103,2.68,-1.22,2.07
1018,817653088,0.1592,-0.9062,0.5068,2.93,-1.10,2.01
1019,817658087,0.1606,-0.9048,0.5078,2.93,-1.10,2.01
1020,817663087,0.1572,-0.9038,0.5137,2.93,-1.04,1.95
1021,817668087,0.1606,-0.9009,0.5073,2.87,-0.98,1.83
1022,817673087,0.1650,-0.9048,0.5073,2.87,-0.98,1.77
1023,817678088,0.1597,-0.9019,0.5132,2.68,-1.04,1.83
1024,817683158,0.1636,-0.9058,0.5049,2.44,-0.91,1.77
1025,817688087,0.1631,-0.9023,0.5137,2.38,-1.10,1.71
1026,817693086,0.1631,-0.8999,0.5117,2.26,-0.98,1.65
1027,817698087,0.1660,-0.8989,0.5078,2.01,-0.98,1.65
1028,817703087,0.1675,-0.8994,0.5112,2.01,-0.98,1.65
1029,817708087,0.1660,-0.8999,0.5132,1.83,-1.04,1.71
1030,817713085,0.1665,-0.8979,0.5112,1.77,-1.16,1.77
1031,817718088,0.1636,-0.8970,0.5073,1.77,-1.16,1.77
1032,817723087,0.1665,-0.9019,0.5088,1.77,-1.10,1.71
1033,817728087,0.1650,-0.9009,0.5044,1.77,-1.04,1.83
1034,817733088,0.1665,-0.9019,0.5083,1.83,-1.16,1.89
1035,817738087,0.1689,-0.9023,0.5049,1.89,-1.16,1.83
1036,817743087,0.1704,-0.9038,0.4990,1.95,-1.22,1.95
1037,817748087,0.1685,-0.9019,0.5000,2.01,-1.16,2.01
1038,817753087,0.1689,-0.8979,0.5005,2.13,-1.10,2.07
1039,817758087,0.1680,-0.9019,0.5015,2.20,-1.28,2.20
1040,817763087,0.1694,-0.9023,0.5039,2.20,-1.16,2.26
1041,817768087,0.1641,-0.9023,0.5107,2.20,-1.28,2.32
1042,817773087,0.1641,-0.9009,0.5024,2.26,-1.46,2.38
1043,817778087,0.1636,-0.9014,0.5059,2.32,-1.34,2.44
1044,817783087,0.1636,-0.8979,0.5044,2.20,-1.40,2.50
1045,817788087,0.1641,-0.9038,0.5010,2.26,-1.34,2.50
1046,817793087,0.1631,-0.9072,0.5044,2.26,-1.40,2.50
1047,817798087,0.1587,-0.9048,0.5010,2.13,-1.46,2.50
1048,817803088,0.1655,-0.9097,0.5068,2.01,-1.52,2.56
1049,817808087,0.1660,-0.9077,0.5020,2.07,-1.52,2.50
1050,817813107,0.1660,-0.9062,0.5132,2.01,-1.34,2.44
1051,817818088,0.1675,-0.9072,0.5044,2.01,-1.40,2.44
1052,817823087,0.1689,-0.9053,0.5098,2.01,-1.46,2.44
1053,817828089,0.1714,-0.8979,0.4995,1.89,-1.34,2.38
1054,817833090,0.1699,-0.9009,0.5054,2.07,-1.40,2.44
1055,817838086,0.1665,-0.9038,0.4976,2.26,-1.40,2.56
1056,817843087,0.1641,-0.9023,0.4980,2.32,-1.40,2.62
1057,817848086,0.1650,-0.9028,0.5010,2.32,-1.40,2.62
1058,817853087,0.1616,-0.9043,0.5010,2.20,-1.34,2.68
1059,817858086,0.1631,-0.9014,0.5020,2.07,-1.28,2.62
1060,817863087,0.1675,-0.9004,0.5054,1.89,-1.28,2.62
1061,817868086,0.1636,-0.9038,0.5034,1.77,-1.22,2.68
1062,817873087,0.1670,-0.9048,0.5088,1.71,-1.22,2.74
1063,817878086,0.1665,-0.9043,0.5049,1.71,-1.16,2.80
1064,817883087,0.1675,-0.9033,0.5054,1.59,-1.28,2.74
1065,817888086,0.1655,-0.9038,0.5059,1.52,-1.10,2.87
1066,817893087,0.1616,-0.9048,0.5034,1.52,-1.10,2.74
1067,817898087,0.1646,-0.9004,0.5073,1.40,-1.16,2.68
1068,817903089,0.1650,-0.9043,0.5010,1.40,-1.16,2.68
1069,817908088,0.1665,-0.9092,0.5015,1.28,-1.16,2.62
1070,817913086,0.1636,-0.9053,0.5083,1.28,-1.22,2.56
1071,817918089,0.1650,-0.9053,0.5020,1.22,-1.22,2.56
1072,817923087,0.1626,-0.9014,0.4976,1.34,-1.22,2.62
1073,817928087,0.1670,-0.9028,0.4985,1.52,-1.04,2.62
1074,817933086,0.1665,-0.9053,0.4980,1.65,-0.91,2.62
1075,817938140,0.1631,-0.9053,0.5020,1.89,-0.98,2.62
1076,817943086,0.1675,-0.9106,0.5034,2.20,-1.04,2.68
1077,817948087,0.1675,-0.9072,0.5015,2.44,-0.91,2.56
1078,817953087,0.1699,-0.9062,0.5039,2.68,-0.79,2.50
1079,817958087,0.1636,-0.9028,0.5039,2.87,-0.67,2.44
1080,817963086,0.1626,-0.9043,0.4985,2.99,-0.61,2.44
1081,817968087,0.1631,-0.9043,0.5024,3.23,-0.67,2.32
1082,817973087,0.1597,-0.9038,0.5098,3.35,-0.61,2.32
1083,817978087,0.1606,-0.9019,0.5024,3.29,-0.30,2.26
1084,817983086,0.1567,-0.8994,0.5005,3.29,-0.30,2.13
1085,817988087,0.1592,-0.9058,0.5029,3.23,-0.24,2.01
1086,817993087,0.1543,-0.9033,0.5020,3.05,-0.24,2.07
1087,817998087,0.1606,-0.9072,0.5039,2.99,-0.12,1.95
1088,818003087,0.1577,-0.9053,0.5049,2.68,-0.12,1.77
1089,818008086,0.1577,-0.9082,0.5088,2.50,0.00,1.71
1090,818013088,0.1597,-0.9058,0.5137,2.32,-0.06,1.71
1091,818018086,0.1631,-0.9067,0.5073,2.26,0.00,1.59
1092,818023086,0.1660,-0.9077,0.5073,2.07,0.00,1.46
1093,818028087,0.1665,-0.9067,0.5098,2.13,0.00,1.59
1094,818033087,0.1631,-0.9048,0.5063,2.20,0.06,1.40
1095,818038087,0.1650,-0.9033,0.5054,2.38,0.00,1.46
1096,818043085,0.1602,-0.9028,0.5029,2.56,0.00,1.28
1097,818048087,0.1611,-0.9053,0.5024,2.74,0.00,1.34
1098,818053086,0.1641,-0.9028,0.4990,3.11,-0.06,1.40
1099,818058087,0.1631,-0.9023,0.4995,3.23,0.06,1.40
1100,818063087,0.1602,-0.9023,0.5010,3.60,0.06,1.52
1101,818068088,0.1646,-0.8989,0.4961,3.90,0.06,1.40
1102,818073086,0.1646,-0.9014,0.4990,4.02,-0.06,1.46
1103,818078087,0.1670,-0.8965,0.5000,4.27,-0.12,1.59
1104,818083088,0.1626,-0.9009,0.5020,4.21,-0.12,1.59
1105,818088087,0.1592,-0.9009,0.5029,4.15,0.00,1.65
1106,818093086,0.1606,-0.9023,0.5039,4.02,-0.18,1.59
1107,818098087,0.1543,-0.9019,0.5005,3.84,-0.24,1.59
1108,818103087,0.1606,-0.9023,0.5103,3.60,-0.30,1.52
1109,818108087,0.1514,-0.9009,0.5073,3.29,-0.30,1.59
1110,818113089,0.1621,-0.9004,0.5078,2.93,-0.37,1.52
1111,818118087,0.1597,-0.8975,0.5088,2.74,-0.49,1.52
1112,818123405,0.1606,-0.9004,0.5049,2.44,-0.55,1.59
1113,818128087,0.1631,-0.9033,0.5049,2.13,-0.67,1.40
1114,818133087,0.1582,-0.9033,0.5078,1.89,-0.67,1.52
1115,818138087,0.1606,-0.9048,0.5122,1.71,-0.73,1.46
1116,818143088,0.1641,-0.8999,0.5024,1.59,-0.79,1.40
1117,818148103,0.1636,-0.9014,0.5078,1.40,-0.98,1.34
1118,818153087,0.1611,-0.8975,0.5054,1.34,-1.10,1.28
1119,818158087,0.1602,-0.9033,0.5093,1.34,-1.04,1.34
1120,818163087,0.1597,-0.9014,0.5010,1.52,-1.16,1.28
1121,818168085,0.1577,-0.8955,0.5078,1.77,-1.22,1.28
1122,818173087,0.1582,-0.8975,0.5024,2.13,-1.40,1.22
1123,818178178,0.1611,-0.8940,0.5029,2.50,-1.40,1.28
1124,818183087,0.1587,-0.8960,0.5029,2.74,-1.34,1.22
1125,818188087,0.1582,-0.8955,0.5054,3.17,-1.40,1.28
1126,818193087,0.1543,-0.8960,0.5049,3.41,-1.52,1.22
1127,818198089,0.1577,-0.8989,0.5034,3.54,-1.46,1.22
1128,818203089,0.1592,-0.9028,0.5024,3.60,-1.46,1.22
1129,818208087,0.1587,-0.9033,0.5083,3.54,-1.52,1.22
1130,818213087,0.1538,-0.9058,0.5010,3.41,-1.46,1.22
1131,818218087,0.1616,-0.9102,0.5073,3.11,-1.40,1.10
1132,818223085,0.1641,-0.9097,0.5103,2.80,-1.34,1.10
1133,818228087,0.1660,-0.9062,0.5127,2.44,-1.34,1.04
1134,818233102,0.1621,-0.9048,0.5078,2.13,-1.34,1.10
1135,818238089,0.1626,-0.8989,0.5020,1.83,-1.28,1.10
1136,818243087,0.1616,-0.9023,0.5073,1.65,-1.22,1.04
1137,818248087,0.1665,-0.9019,0.4985,1.59,-1.04,1.04
1138,818253085,0.1616,-0.9019,0.5000,1.52,-1.04,1.04
1139,818258085,0.1587,-0.9019,0.4976,1.52,-0.98,1.16
1140,818263085,0.1582,-0.9014,0.5044,1.40,-0.91,1.16
1141,818268089,0.1606,-0.8994,0.5024,1.34,-0.91,1.04
1142,818273086,0.1631,-0.9033,0.5015,1.28,-0.85,1.10
1143,818278089,0.1680,-0.9048,0.5024,1.34,-0.91,1.22
1144,818283086,0.1729,-0.9048,0.5034,1.52,-0.85,1.22
1145,818288086,0.1743,-0.9097,0.5034,1.71,-0.67,1.22
1146,818293088,0.1714,-0.9092,0.5063,1.83,-0.61,1.28
1147,818298087,0.1797,-0.9092,0.5083,2.01,-0.49,1.34
1148,818303087,0.1758,-0.9082,0.4976,2.32,-0.55,1.40
1149,818308087,0.1797,-0.9106,0.4985,2.56,-0.43,1.52
1150,818313085,0.1772,-0.9087,0.4990,2.74,-0.30,1.71
1151,818318086,0.1748,-0.9092,0.5005,2.93,-0.12,1.77
1152,818323088,0.1743,-0.9097,0.4985,3.11,-0.30,1.83
1153,818328269,0.1743,-0.9033,0.5000,3.17,-0.12,1.95
1154,818333087,0.1748,-0.9087,0.5010,3.35,0.00,2.01
1155,818338087,0.1758,-0.9102,0.5039,3.41,0.18,2.13
1156,818343085,0.1738,-0.9087,0.5054,3.35,0.18,2.13
1157,818348087,0.1772,-0.9058,0.4980,3.35,0.24,2.13
1158,818353087,0.1777,-0.9038,0.5015,3.29,0.43,2.13
1159,818358087,0.1768,-0.9072,0.5122,3.29,0.49,2.13
1160,818363087,0.1729,-0.9102,0.5093,3.23,0.73,2.13
1161,818368086,0.1738,-0.9038,0.5059,3.05,0.73,2.07
1162,818373087,0.1733,-0.9028,0.5059,2.93,0.85,2.07
1163,818378086,0.1675,-0.9058,0.5083,2.68,1.10,2.07
1164,818383087,0.1699,-0.9023,0.5044,2.62,1.16,1.95
1165,818388086,0.1694,-0.9062,0.5039,2.56,1.34,1.89
1166,818393085,0.1685,-0.9043,0.5020,2.56,1.40,1.71
1167,818398087,0.1680,-0.9058,0.5083,2.44,1.52,1.77
1168,818403087,0.1680,-0.9062,0.5088,2.56,1.59,1.71
1169,818408086,0.1675,-0.9062,0.5127,2.68,1.83,1.65
1170,818413089,0.1636,-0.9033,0.5063,2.87,1.95,1.46
1171,818418086,0.1602,-0.9038,0.5063,3.05,2.07,1.34
1172,818423088,0.1621,-0.9023,0.5127,3.17,2.20,1.22
1173,818428086,0.1577,-0.9004,0.5112,3.48,2.38,1.10
1174,818433087,0.1538,-0.8994,0.5059,3.72,2.50,0.98
1175,818438086,0.1523,-0.8979,0.5059,3.84,2.68,0.79
1176,818443087,0.1484,-0.8950,0.5063,4.15,2.68,0.73
1177,818448086,0.1523,-0.8906,0.5142,4.27,2.68,0.61
1178,818453452,0.1475,-0.8906,0.5059,4.33,2.80,0.49
1179,818458087,0.1475,-0.8970,0.5063,4.33,2.74,0.43
1180,818463087,0.1484,-0.8911,0.5088,4.33,2.87,0.24
1181,818468087,0.1484,-0.8906,0.5088,4.21,2.99,0.12
1182,818473468,0.1465,-0.8926,0.5127,4.15,2.74,0.06
1183,818478087,0.1465,-0.8887,0.5107,3.84,2.87,0.00
1184,818483087,0.1504,-0.8896,0.5083,3.60,2.80,-0.24
1185,818488087,0.1504,-0.8911,0.5107,3.29,2.80,-0.24
1186,818493088,0.1514,-0.8936,0.5049,3.11,2.68,-0.30
1187,818498087,0.1543,-0.8916,0.5112,2.80,2.50,-0.30
1188,818503087,0.1528,-0.8906,0.5161,2.44,2.32,-0.37
1189,818508087,0.1533,-0.8911,0.5112,2.26,2.32,-0.30
1190,818513086,0.1553,-0.8936,0.5117,1.95,2.07,-0.30
1191,818518087,0.1592,-0.8911,0.5103,1.83,2.01,-0.12
1192,818523088,0.1587,-0.8896,0.5088,1.65,1.71,-0.18
1193,818528087,0.1626,-0.8882,0.5059,1.59,1.46,0.00
1194,818533086,0.1592,-0.8916,0.5098,1.59,1.22,0.06
1195,818538087,0.1577,-0.8887,0.5044,1.59,0.98,0.18
1196,818543087,0.1587,-0.8936,0.5078,1.71,0.85,0.24
1197,818548088,0.1597,-0.8936,0.5103,1.95,0.61,0.49
1198,818553086,0.1616,-0.8936,0.5073,2.07,0.37,0.61
1199,818558087,0.1582,-0.8994,0.5068,2.38,0.18,0.67
1200,818563087,0.1558,-0.8979,0.5112,2.38,-0.12,0.85
1201,818568086,0.1606,-0.8984,0.5103,2.44,-0.43,1.04
1202,818573087,0.1577,-0.8989,0.5054,2.50,-0.49,1.10
1203,818578086,0.1616,-0.8979,0.5054,2.56,-0.73,1.22
1204,818583087,0.1611,-0.9004,0.5107,2.50,-0.91,1.40
1205,818588086,0.1650,-0.8984,0.5088,2.38,-1.22,1.46
1206,818593089,0.1660,-0.9038,0.5024,2.20,-1.28,1.65
1207,818598086,0.1646,-0.9067,0.5083,2.01,-1.46,1.77
1208,818603087,0.1689,-0.9038,0.5068,1.77,-1.59,1.83
1209,818608086,0.1699,-0.9053,0.5044,1.52,-1.77,1.89
1210,818613087,0.1680,-0.9048,0.5093,1.28,-2.01,1.95
1211,818618087,0.1665,-0.9033,0.5039,0.98,-2.13,2.01
1212,818623087,0.1675,-0.9019,0.5088,0.61,-2.13,2.13
1213,818628086,0.1646,-0.8989,0.5034,0.43,-2.20,2.07
1214,818633085,0.1616,-0.9023,0.5073,0.37,-2.32,2.07
1215,818638326,0.1670,-0.8999,0.5181,0.30,-2.38,2.07
1216,818643087,0.1650,-0.9009,0.5122,0.24,-2.32,2.07
1217,818648086,0.1631,-0.9033,0.5146,0.24,-2.44,2.13
1218,818653087,0.1660,-0.9033,0.5166,0.24,-2.38,2.07
1219,818658086,0.1655,-0.9028,0.5156,0.30,-2.38,2.07
1220,818663087,0.1587,-0.8999,0.5146,0.49,-2.38,2.01
1221,818668087,0.1611,-0.9009,0.5181,0.55,-2.38,1.89
1222,818673087,0.1606,-0.9004,0.5137,0.55,-2.44,1.83
1223,818678087,0.1602,-0.8960,0.5103,0.61,-2.26,1.77
1224,818683087,0.1606,-0.9053,0.5171,0.73,-2.32,1.71
1225,818688090,0.1592,-0.9004,0.5117,0.79,-2.38,1.65
1226,818693089,0.1597,-0.9043,0.5112,0.91,-2.07,1.59
1227,818698087,0.1597,-0.9004,0.5024,1.22,-2.07,1.46
1228,818703087,0.1602,-0.8999,0.5068,1.40,-1.95,1.40
1229,818708086,0.1616,-0.8984,0.5015,1.59,-1.83,1.28
1230,818713087,0.1626,-0.9009,0.5063,2.07,-1.89,1.34
1231,818718087,0.1592,-0.9019,0.5103,2.32,-1.59,1.28
1232,818723091,0.1587,-0.9043,0.5073,2.50,-1.71,1.28
1233,818728086,0.1582,-0.9028,0.5073,2.80,-1.59,1.16
1234,818733086,0.1621,-0.9097,0.5137,2.87,-1.28,1.16
1235,818738085,0.1641,-0.9038,0.5127,2.93,-1.28,1.10
1236,818743087,0.1582,-0.9048,0.5059,2.93,-1.22,1.04
1237,818748086,0.1616,-0.9092,0.5103,2.99,-1.28,1.10
1238,818753087,0.1660,-0.9062,0.5146,2.93,-1.10,1.04
1239,818758087,0.1641,-0.9062,0.5098,2.87,-0.98,0.91
1240,818763636,0.1567,-0.9058,0.5107,2.87,-0.85,1.04
1241,818768087,0.1631,-0.9077,0.5024,2.93,-0.91,0.98
1242,818773087,0.1626,-0.9062,0.5083,2.74,-0.91,1.10
1243,818778088,0.1641,-0.9121,0.4961,2.74,-0.79,0.98
1244,818783085,0.1646,-0.9082,0.4985,2.62,-0.73,1.04
1245,818788087,0.1650,-0.9048,0.5020,2.68,-0.85,1.10
1246,818793087,0.1611,-0.9062,0.5034,2.80,-0.73,1.16
1247,818798087,0.1631,-0.9048,0.5015,2.93,-0.73,1.28
1248,818803086,0.1606,-0.9033,0.5063,2.99,-0.79,1.28
1249,818808087,0.1670,-0.9004,0.5029,3.05,-0.91,1.34
1250,818813087,0.1685,-0.9038,0.5068,3.35,-0.79,1.40
1251,818818087,0.1675,-0.9019,0.5112,3.54,-0.85,1.59
1252,818823086,0.1709,-0.9009,0.5049,3.66,-0.91,1.59
1253,818828087,0.1714,-0.8970,0.5054,3.84,-0.91,1.71
1254,818833087,0.1714,-0.8945,0.5112,3.96,-1.10,1.83
1255,818838087,0.1670,-0.8936,0.5122,4.15,-1.10,1.89
1256,818843431,0.1685,-0.8955,0.5073,4.27,-0.98,2.01
1257,818848087,0.1719,-0.8936,0.5083,4.27,-1.10,2.07
1258,818853087,0.1670,-0.8960,0.5093,4.27,-1.22,2.13
1259,818858087,0.1729,-0.8911,0.5054,4.33,-1.28,2.20
1260,818863086,0.1685,-0.8965,0.5083,4.15,-1.34,2.32
1261,818868087,0.1660,-0.8960,0.5000,3.96,-1.34,2.38
1262,818873087,0.1641,-0.9014,0.5059,3.78,-1.34,2.32
1263,818878087,0.1685,-0.9048,0.5054,3.35,-1.28,2.32
1264,818883086,0.1650,-0.9072,0.5112,2.93,-1.52,2.38
1265,818888087,0.1670,-0.9062,0.5127,2.56,-1.59,2.38
1266,818893087,0.1699,-0.9131,0.5068,2.20,-1.40,2.38
1267,818898087,0.1689,-0.9141,0.5049,1.65,-1.40,2.32
1268,818903416,0.1694,-0.9175,0.5112,1.40,-1.46,2.20
1269,818908087,0.1699,-0.9072,0.4990,1.22,-1.46,2.26
1270,818913087,0.1709,-0.9116,0.5044,1.28,-1.46,2.20
1271,818918087,0.1694,-0.9033,0.5024,1.34,-1.34,2.13
1272,818923087,0.1675,-0.9092,0.5020,1.77,-1.40,2.13
1273,818928090,0.1670,-0.9126,0.5059,2.01,-1.40,2.13
1274,818933346,0.1646,-0.9194,0.5098,2.44,-1.46,2.26
1275,818938087,0.1685,-0.9150,0.5078,2.87,-1.28,2.13
1276,818943086,0.1699,-0.9165,0.5142,3.29,-1.16,2.20
1277,818948087,0.1738,-0.9165,0.5127,3.66,-1.22,2.13
1278,818953087,0.1699,-0.9136,0.5063,3.96,-1.16,2.20
1279,818958087,0.1738,-0.9106,0.5059,4.33,-1.16,2.13
1280,818963086,0.1738,-0.9170,0.5059,4.70,-1.16,2.13
1281,818968088,0.1758,-0.9170,0.5132,5.00,-1.04,2.07
1282,818973087,0.1724,-0.9150,0.5132,5.30,-1.04,2.01
1283,818978087,0.1704,-0.9199,0.5161,5.49,-0.85,2.01
1284,818983159,0.1738,-0.9155,0.5107,5.91,-0.73,2.07
1285,818988087,0.1680,-0.9102,0.5083,6.22,-0.67,1.95
1286,818993087,0.1738,-0.9067,0.5034,6.52,-0.55,1.95
1287,818998087,0.1772,-0.9097,0.5029,6.95,-0.43,2.07
1288,819003087,0.1704,-0.9077,0.5088,7.13,-0.30,1.95
1289,819008087,0.1689,-0.9014,0.5098,7.44,-0.18,2.01
1290,819013087,0.1748,-0.9004,0.5024,7.56,-0.06,2.01
1291,819018087,0.1685,-0.8979,0.5039,7.68,0.24,1.95
1292,819023086,0.1724,-0.8931,0.5044,7.68,0.24,2.01
1293,819028087,0.1758,-0.8931,0.5088,7.44,0.49,1.89
1294,819033087,0.1709,-0.8887,0.5137,7.07,0.61,1.83
1295,819038087,0.1733,-0.8906,0.5098,6.46,0.85,1.77
1296,819043085,0.1699,-0.8892,0.5098,5.85,1.16,1.83
1297,819048087,0.1665,-0.8921,0.5137,4.88,1.28,1.71
1298,819053087,0.1611,-0.8911,0.5093,4.15,1.40,1.71
1299,819058087,0.1646,-0.8911,0.5132,3.11,1.52,1.71
1300,819063086,0.1621,-0.8848,0.5176,2.56,1.77,1.83
1301,819068087,0.1665,-0.8901,0.5107,1.71,2.01,1.83
1302,819073087,0.1660,-0.8857,0.5151,1.40,2.13,1.77
1303,819078087,0.1646,-0.8813,0.5161,1.10,2.26,1.83
1304,819083321,0.1621,-0.8857,0.5186,1.04,2.50,1.83
1305,819088087,0.1636,-0.8823,0.5132,1.22,2.50,1.83
1306,819093087,0.1597,-0.8823,0.5137,1.52,2.68,1.83
1307,819098087,0.1592,-0.8794,0.5127,1.77,2.74,1.95
1308,819103086,0.1572,-0.8833,0.5098,2.20,2.80,1.89
1309,819108087,0.1572,-0.8804,0.5054,2.62,2.74,1.95
1310,819113087,0.1494,-0.8862,0.5034,3.11,2.80,1.95
1311,819118088,0.1499,-0.8867,0.5029,3.41,2.80,1.95
1312,819123087,0.1504,-0.8896,0.5103,3.60,2.74,2.01
1313,819128146,0.1484,-0.8882,0.5068,3.90,2.62,2.01
1314,819133086,0.1494,-0.8950,0.5132,4.21,2.50,2.01
1315,819138087,0.1475,-0.8975,0.5220,4.33,2.50,2.07
1316,819143086,0.1514,-0.8965,0.5166,4.51,2.38,1.95
1317,819148087,0.1504,-0.9004,0.5190,4.57,2.20,1.89
1318,819153086,0.1470,-0.9033,0.5166,4.57,2.01,1.83
1319,819158085,0.1514,-0.8970,0.5195,4.45,1.83,1.77
1320,819163087,0.1489,-0.9033,0.5210,4.33,1.65,1.71
1321,819168087,0.1489,-0.8984,0.5259,4.15,1.28,1.65
1322,819173087,0.1484,-0.8965,0.5181,3.78,1.22,1.71
1323,819178087,0.1494,-0.8936,0.5161,3.66,0.85,1.65
1324,819183087,0.1489,-0.8926,0.5161,3.60,0.61,1.59
1325,819188087,0.1475,-0.8940,0.5146,3.48,0.30,1.59
1326,819193086,0.1514,-0.8906,0.5171,3.48,0.00,1.59
1327,819198091,0.1499,-0.8896,0.5112,3.48,-0.24,1.71
1328,819203088,0.1523,-0.8911,0.5205,3.54,-0.49,1.71
1329,819208088,0.1548,-0.8872,0.5186,3.72,-0.85,1.77
1330,819213086,0.1499,-0.8887,0.5229,3.84,-1.04,1.89
1331,819218087,0.1548,-0.8916,0.5264,3.90,-1.34,1.95
1332,819223087,0.1528,-0.8936,0.5225,4.09,-1.65,1.95
1333,819228088,0.1562,-0.8926,0.5239,4.15,-2.07,2.07
1334,819233086,0.1592,-0.8984,0.5239,4.15,-2.26,2.26
1335,819238087,0.1572,-0.8960,0.5205,4.33,-2.56,2.26
1336,819243087,0.1582,-0.8955,0.5205,4.27,-2.80,2.26
1337,819248087,0.1567,-0.8984,0.5181,4.21,-3.17,2.38
1338,819253461,0.1567,-0.8975,0.5225,4.09,-3.41,2.44
1339,819258087,0.1587,-0.9019,0.5220,4.15,-3.60,2.56
1340,819263087,0.1606,-0.8994,0.5156,4.02,-3.78,2.56
1341,819268087,0.1641,-0.8989,0.5156,3.90,-3.96,2.62
1342,819273087,0.1636,-0.9014,0.5146,3.84,-4.15,2.62
1343,819278087,0.1626,-0.9038,0.5166,3.84,-4.33,2.68
1344,819283087,0.1606,-0.9014,0.5166,3.78,-4.45,2.74
1345,819288086,0.1621,-0.9019,0.5146,3.90,-4.63,2.80
1346,819293087,0.1606,-0.8975,0.5073,3.96,-4.70,2.80
1347,819298086,0.1631,-0.8970,0.5151,3.90,-4.88,2.87
1348,819303087,0.1587,-0.9009,0.5107,4.09,-4.76,2.87
1349,819308086,0.1597,-0.9019,0.5166,4.15,-4.82,2.93
1350,819313087,0.1606,-0.9038,0.5083,4.27,-4.82,2.93
1351,819318086,0.1611,-0.9009,0.5156,4.33,-4.82,2.87
1352,819323085,0.1636,-0.8979,0.5200,4.39,-4.76,2.93
1353,819328087,0.1616,-0.8984,0.5176,4.39,-4.57,2.93
1354,819333087,0.1631,-0.8975,0.5132,4.33,-4.51,2.93
1355,819338087,0.1646,-0.8960,0.5156,4.33,-4.57,2.93
1356,819343087,0.1641,-0.8950,0.5117,4.21,-4.33,2.80
1357,819348087,0.1626,-0.8970,0.5171,4.02,-4.15,2.74
1358,819353085,0.1655,-0.8979,0.5137,3.84,-3.84,2.80
1359,819358087,0.1636,-0.8940,0.5098,3.66,-3.84,2.74
1360,819363086,0.1646,-0.8960,0.5146,3.41,-3.60,2.62
1361,819368087,0.1650,-0.9009,0.5107,3.23,-3.48,2.68
1362,819373087,0.1660,-0.8989,0.5112,3.11,-3.17,2.74
1363,819378087,0.1655,-0.8999,0.5132,2.99,-2.93,2.56
1364,819383086,0.1699,-0.9004,0.5107,2.87,-2.62,2.56
1365,819388087,0.1670,-0.9023,0.5078,2.62,-2.38,2.50
1366,819393087,0.1641,-0.8984,0.5093,2.56,-2.01,2.50
1367,819398087,0.1660,-0.8960,0.5146,2.50,-1.83,2.44
1368,819403086,0.1646,-0.9019,0.5112,2.44,-1.46,2.44
1369,819408087,0.1650,-0.8975,0.5112,2.44,-1.22,2.38
1370,819413452,0.1709,-0.9058,0.5088,2.44,-0.98,2.20
1371,819418087,0.1704,-0.9028,0.5034,2.44,-0.79,2.13
1372,819423087,0.1670,-0.8999,0.5117,2.44,-0.55,2.01
1373,819428087,0.1694,-0.9004,0.5107,2.50,-0.24,1.89
1374,819433086,0.1631,-0.9004,0.5103,2.62,0.12,1.83
1375,819438087,0.1655,-0.9028,0.5107,2.68,0.24,1.71
1376,819443658,0.1602,-0.9014,0.5068,2.74,0.55,1.59
1377,819448087,0.1631,-0.9019,0.5103,2.80,0.73,1.46
1378,819453086,0.1592,-0.8989,0.5088,2.74,0.85,1.34
1379,819458087,0.1606,-0.9004,0.5127,2.80,1.10,1.34
1380,819463087,0.1606,-0.9004,0.5181,2.80,1.16,1.22
1381,819468088,0.1567,-0.8989,0.5117,2.80,1.34,1.10
1382,819473087,0.1582,-0.8979,0.5205,2.62,1.34,0.98
1383,819478087,0.1572,-0.8989,0.5142,2.50,1.52,0.98
1384,819483087,0.1602,-0.8960,0.5107,2.44,1.71,0.91
1385,819488086,0.1641,-0.8911,0.5122,2.38,1.52,0.91
1386,819493087,0.1611,-0.8901,0.5142,2.38,1.71,0.85
1387,819498087,0.1616,-0.8896,0.5103,2.38,1.59,0.85
1388,819503086,0.1646,-0.8887,0.5132,2.38,1.46,0.98
1389,819508087,0.1611,-0.8872,0.5107,2.50,1.52,0.85
1390,819513087,0.1641,-0.8833,0.5107,2.56,1.52,0.98
1391,819518087,0.1572,-0.8906,0.5142,2.62,1.46,1.10
1392,819523086,0.1572,-0.8862,0.5181,2.74,1.28,1.16
1393,819528087,0.1558,-0.8916,0.5171,2.74,1.10,1.10
1394,819533368,0.1567,-0.8916,0.5225,2.74,0.85,1.16
1395,819538154,0.1592,-0.8931,0.5146,2.56,0.79,1.22
1396,819543087,0.1592,-0.8960,0.5229,2.32,0.61,1.16
1397,819548087,0.1606,-0.9038,0.5244,2.07,0.43,1.28
1398,819553086,0.1621,-0.9072,0.5166,1.83,0.30,1.34
1399,819558086,0.1587,-0.9043,0.5200,1.52,0.12,1.34
1400,819563087,0.1592,-0.9087,0.5195,1.34,-0.06,1.40
1401,819568086,0.1577,-0.9058,0.5156,1.22,-0.30,1.52
1402,819573087,0.1597,-0.9067,0.5161,1.10,-0.43,1.52
1403,819578086,0.1650,-0.9048,0.5146,1.04,-0.61,1.59
1404,819583087,0.1582,-0.9028,0.5132,1.16,-0.73,1.65
1405,819588086,0.1597,-0.9028,0.5176,1.34,-0.85,1.77
1406,819593087,0.1597,-0.8970,0.5122,1.59,-0.85,1.83
1407,819598086,0.1567,-0.8926,0.5122,2.07,-1.10,1.83
1408,819603087,0.1562,-0.8940,0.5137,2.44,-1.22,1.95
1409,819608087,0.1519,-0.8970,0.5190,2.93,-1.10,2.07
1410,819613087,0.1538,-0.8955,0.5200,3.29,-1.46,2.20
1411,819618087,0.1602,-0.8926,0.5200,3.60,-1.52,2.26
1412,819623087,0.1577,-0.8916,0.5269,3.84,-1.59,2.44
1413,819628086,0.1572,-0.8979,0.5239,4.09,-1.71,2.44
1414,819633087,0.1626,-0.8936,0.5259,4.33,-1.89,2.56
1415,819638086,0.1572,-0.8965,0.5220,4.45,-1.89,2.68
1416,819643085,0.1616,-0.8955,0.5239,4.39,-2.01,2.74
1417,819648087,0.1602,-0.8960,0.5288,4.57,-2.20,2.87
1418,819653087,0.1587,-0.9009,0.5210,4.39,-2.20,2.80
1419,819658086,0.1572,-0.8965,0.5239,4.39,-2.26,2.87
1420,819663391,0.1587,-0.9014,0.5234,4.33,-2.20,2.87
1421,819668087,0.1558,-0.9028,0.5220,4.21,-2.32,2.93
1422,819673087,0.1533,-0.9009,0.5176,4.09,-2.32,2.99
1423,819678088,0.1606,-0.9028,0.5166,3.96,-2.38,2.99
1424,819683613,0.1567,-0.9019,0.5225,3.96,-2.38,2.99
1425,819688088,0.1533,-0.9028,0.5146,3.90,-2.32,2.87
1426,819693087,0.1587,-0.9028,0.5161,3.72,-2.20,2.93
1427,819698087,0.1567,-0.9082,0.5190,3.66,-2.20,2.93
1428,819703085,0.1528,-0.9097,0.5156,3.66,-2.26,2.87
1429,819708087,0.1538,-0.9121,0.5186,3.66,-2.13,2.99
1430,819713087,0.1558,-0.9106,0.5244,3.72,-2.07,2.87
1431,819718087,0.1523,-0.9141,0.5225,3.66,-2.01,2.87
1432,819723087,0.1558,-0.9150,0.5254,3.72,-1.95,2.74
1433,819728087,0.1587,-0.9136,0.5234,3.84,-1.95,2.68
1434,819733087,0.1562,-0.9136,0.5259,4.02,-1.77,2.68
1435,819738087,0.1616,-0.9097,0.5186,4.33,-1.77,2.68
1436,819743116,0.1592,-0.9087,0.5239,4.57,-1.59,2.68
1437,819748087,0.1616,-0.9067,0.5278,4.94,-1.59,2.68
1438,819753087,0.1602,-0.9067,0.5254,5.37,-1.52,2.74
1439,819758087,0.1567,-0.9028,0.5215,5.85,-1.40,2.74
1440,819763565,0.1558,-0.9023,0.5200,6.40,-1.40,2.68
1441,819768087,0.1548,-0.8999,0.5200,6.77,-1.34,2.80
1442,819773087,0.1553,-0.8960,0.5259,7.13,-1.16,2.68
1443,819778087,0.1567,-0.8984,0.5176,7.50,-1.10,2.68
1444,819783087,0.1606,-0.9004,0.5186,7.68,-1.04,2.74
1445,819788088,0.1587,-0.8999,0.5146,7.87,-0.91,2.87
1446,819793531,0.1592,-0.8999,0.5244,7.93,-0.91,2.80
1447,819798087,0.1587,-0.8984,0.5234,7.87,-0.79,2.80
1448,819803087,0.1641,-0.9014,0.5259,7.99,-0.79,2.80
1449,819808087,0.1685,-0.8984,0.5288,7.93,-0.79,2.74
1450,819813086,0.1631,-0.8979,0.5264,7.87,-0.67,2.87
1451,819818087,0.1592,-0.8970,0.5288,7.68,-0.73,2.80
1452,819823087,0.1611,-0.8921,0.5229,7.50,-0.55,2.93
1453,819828087,0.1611,-0.8877,0.5293,7.20,-0.55,2.93
1454,819833087,0.1577,-0.8906,0.5239,7.07,-0.49,2.93
1455,819838087,0.1611,-0.8862,0.5239,6.71,-0.55,3.05
1456,819843086,0.1631,-0.8867,0.5283,6.34,-0.49,3.11
1457,819848087,0.1606,-0.8853,0.5215,6.04,-0.37,3.11
1458,819853087,0.1616,-0.8843,0.5234,5.85,-0.55,3.23
1459,819858087,0.1592,-0.8813,0.5244,5.43,-0.37,3.23
1460,819863085,0.1592,-0.8833,0.5244,5.43,-0.30,3.23
1461,819868087,0.1562,-0.8843,0.5264,5.30,-0.30,3.41
1462,819873087,0.1567,-0.8804,0.5303,5.12,-0.43,3.41
1463,819878087,0.1548,-0.8794,0.5273,4.94,-0.24,3.35
1464,819883087,0.1553,-0.8823,0.5234,4.94,-0.18,3.48
1465,819888089,0.1494,-0.8833,0.5278,4.76,-0.12,3.41
1466,819893087,0.1499,-0.8833,0.5283,4.57,-0.18,3.41
1467,819898087,0.1509,-0.8833,0.5244,4.39,-0.12,3.41
1468,819903086,0.1479,-0.8843,0.5244,4.27,0.00,3.35
1469,819908088,0.1519,-0.8877,0.5249,3.78,-0.18,3.35
1470,819913087,0.1533,-0.8892,0.5312,3.72,-0.12,3.35
1471,819918087,0.1494,-0.8838,0.5327,3.48,-0.12,3.17
1472,819923086,0.1528,-0.8936,0.5332,3.29,-0.12,3.17
1473,819928087,0.1460,-0.8882,0.5273,3.11,-0.24,3.05
1474,819933087,0.1475,-0.8867,0.5293,2.87,-0.24,2.99
1475,819938087,0.1470,-0.8867,0.5288,2.80,-0.30,2.87
1476,819943086,0.1479,-0.8892,0.5298,2.80,-0.30,2.93
1477,819948088,0.1465,-0.8901,0.5278,2.80,-0.49,2.93
1478,819953086,0.1440,-0.8887,0.5249,2.80,-0.55,2.80
1479,819958086,0.1470,-0.8896,0.5229,2.99,-0.67,2.80
1480,819963241,0.1465,-0.8833,0.5308,3.05,-0.73,2.74
1481,819968086,0.1465,-0.8848,0.5342,3.17,-0.98,2.74
1482,819973086,0.1421,-0.8892,0.5317,3.29,-1.04,2.68
1483,819978088,0.1484,-0.8892,0.5322,3.48,-1.28,2.68
1484,819983086,0.1484,-0.8926,0.5342,3.60,-1.34,2.62
1485,819988087,0.1558,-0.8892,0.5400,3.54,-1.65,2.62
1486,819993086,0.1553,-0.8926,0.5352,3.66,-1.65,2.68
1487,819998087,0.1504,-0.8916,0.5386,3.60,-1.89,2.68
1488,820003087,0.1548,-0.8931,0.5322,3.48,-2.01,2.68
1489,820008087,0.1538,-0.8921,0.5396,3.48,-2.26,2.74
1490,820013086,0.1533,-0.8926,0.5356,3.29,-2.44,2.80
1491,820018087,0.1562,-0.8906,0.5347,3.29,-2.56,2.80
1492,820023087,0.1528,-0.8901,0.5308,3.29,-2.68,2.93
1493,820028088,0.1523,-0.8887,0.5410,3.35,-3.05,2.93
1494,820033085,0.1509,-0.8892,0.5371,3.35,-2.99,2.99
1495,820038087,0.1514,-0.8872,0.5327,3.41,-3.11,2.99
1496,820043087,0.1523,-0.8877,0.5352,3.41,-3.29,3.05
1497,820048088,0.1528,-0.8892,0.5337,3.54,-3.48,3.17
1498,820053088,0.1538,-0.8887,0.5405,3.60,-3.60,3.17
1499,820058162,0.1577,-0.8887,0.5347,3.66,-3.72,3.23
1500,820063088,0.1597,-0.8906,0.5327,3.78,-3.84,3.41
1501,820068089,0.1621,-0.8911,0.5332,3.72,-4.02,3.41
1502,820073086,0.1636,-0.8965,0.5317,3.84,-4.15,3.54
1503,820078087,0.1602,-0.8921,0.5298,3.96,-4.21,3.54
1504,820083089,0.1602,-0.8921,0.5352,3.90,-4.45,3.54
1505,820088086,0.1597,-0.8901,0.5317,4.02,-4.33,3.60
1506,820093087,0.1602,-0.8950,0.5342,4.15,-4.39,3.66
1507,820098086,0.1650,-0.8940,0.5396,4.33,-4.51,3.60
1508,820103087,0.1606,-0.8994,0.5386,4.33,-4.51,3.60
1509,820108087,0.1631,-0.8994,0.5391,4.39,-4.45,3.60
1510,820113352,0.1641,-0.8979,0.5400,4.39,-4.39,3.72
1511,820118089,0.1641,-0.8960,0.5400,4.57,-4.39,3.60
1512,820123320,0.1621,-0.8945,0.5317,4.63,-4.57,3.48
1513,820128088,0.1655,-0.8984,0.5312,4.70,-4.33,3.54
1514,820133086,0.1655,-0.8940,0.5332,4.76,-4.33,3.48
1515,820138087,0.1655,-0.8940,0.5322,4.88,-4.27,3.41
1516,820143087,0.1660,-0.8931,0.5264,4.94,-4.15,3.29
1517,820148085,0.1641,-0.8921,0.5288,5.06,-4.02,3.23
1518,820153086,0.1616,-0.8892,0.5269,5.00,-3.90,3.11
1519,820158089,0.1636,-0.8906,0.5278,4.94,-3.66,2.99
1520,820163533,0.1597,-0.8896,0.5264,4.88,-3.66,2.87
1521,820168087,0.1611,-0.8882,0.5283,4.76,-3.41,2.87
1522,820173087,0.1572,-0.8901,0.5278,4.57,-3.41,2.74
1523,820178087,0.1587,-0.8916,0.5303,4.39,-3.23,2.50
1524,820183086,0.1626,-0.8940,0.5337,4.27,-2.93,2.44
1525,820188088,0.1616,-0.8945,0.5386,3.96,-2.80,2.26
1526,820193085,0.1621,-0.8975,0.5293,3.72,-2.62,2.26
1527,820198091,0.1670,-0.9009,0.5337,3.41,-2.38,2.13
1528,820203087,0.1641,-0.8970,0.5352,3.17,-2.13,1.95
1529,820208087,0.1655,-0.8970,0.5332,3.05,-2.13,1.95
1530,820213087,0.1650,-0.8994,0.5308,2.80,-1.71,1.77
1531,820218087,0.1646,-0.8979,0.5244,2.62,-1.71,1.59
1532,820223085,0.1646,-0.8960,0.5215,2.56,-1.52,1.59
1533,820228089,0.1646,-0.8965,0.5273,2.56,-1.34,1.59
1534,820233086,0.1606,-0.8950,0.5308,2.50,-1.16,1.52
1535,820238089,0.1597,-0.8931,0.5317,2.80,-0.85,1.34
1536,820244096,0.1621,-0.8916,0.5342,2.93,-0.85,1.40
1537,820248089,0.1597,-0.8906,0.5254,3.05,-0.79,1.34
1538,820253115,0.1602,-0.8921,0.5322,3.35,-0.73,1.34
1539,820258087,0.1606,-0.8901,0.5312,3.60,-0.49,1.34
1540,820263087,0.1616,-0.8853,0.5381,3.90,-0.43,1.34
1541,820268086,0.1602,-0.8877,0.5322,4.02,-0.49,1.28
1542,820273085,0.1592,-0.8872,0.5376,4.33,-0.30,1.34
1543,820278088,0.1670,-0.8896,0.5386,4.51,-0.30,1.40
1544,820283086,0.1606,-0.8901,0.5400,4.82,-0.12,1.40
1545,820288087,0.1646,-0.8872,0.5361,4.88,0.00,1.40
1546,820293087,0.1602,-0.8877,0.5361,4.94,-0.12,1.52
1547,820298088,0.1592,-0.8867,0.5371,4.94,-0.12,1.40
1548,820303103,0.1631,-0.8867,0.5366,4.76,0.00,1.52
1549,820308086,0.1592,-0.8848,0.5337,4.57,0.12,1.46
1550,820313176,0.1567,-0.8848,0.5352,4.39,0.12,1.46
1551,820318087,0.1528,-0.8838,0.5371,4.15,0.06,1.52
1552,820323087,0.1538,-0.8818,0.5303,3.78,0.06,1.52
1553,820328087,0.1553,-0.8877,0.5322,3.60,0.12,1.52
1554,820333086,0.1538,-0.8853,0.5371,3.41,0.12,1.52
1555,820338087,0.1572,-0.8853,0.5312,3.05,0.18,1.52
1556,820343087,0.1577,-0.8833,0.5342,2.93,0.18,1.59
1557,820348087,0.1577,-0.8877,0.5352,2.62,0.12,1.65
1558,820353134,0.1548,-0.8872,0.5317,2.50,0.12,1.59
1559,820358088,0.1553,-0.8857,0.5439,2.32,0.06,1.59
1560,820363087,0.1572,-0.8877,0.5449,2.26,0.06,1.71
1561,820368087,0.1577,-0.8867,0.5435,2.13,-0.06,1.59
1562,820373086,0.1592,-0.8887,0.5435,2.20,-0.12,1.77
1563,820378087,0.1577,-0.8862,0.5400,2.32,-0.12,1.77
1564,820383087,0.1631,-0.8848,0.5400,2.38,-0.12,1.77
1565,820388087,0.1602,-0.8857,0.5415,2.56,-0.24,1.89
1566,820393086,0.1553,-0.8853,0.5400,2.99,-0.24,1.83
1567,820398088,0.1587,-0.8843,0.5396,3.17,-0.43,1.89
1568,820403087,0.1611,-0.8853,0.5410,3.60,-0.43,2.01
1569,820408089,0.1553,-0.8833,0.5332,3.72,-0.49,2.07
1570,820413089,0.1528,-0.8848,0.5405,4.09,-0.61,2.07
1571,820418088,0.1562,-0.8828,0.5449,4.21,-0.79,2.07
1572,820423116,0.1548,-0.8882,0.5386,4.33,-0.85,2.20
1573,820428085,0.1543,-0.8848,0.5405,4.33,-0.98,2.20
1574,820433087,0.1572,-0.8857,0.5415,4.39,-0.91,2.26
1575,820438087,0.1533,-0.8853,0.5454,4.27,-1.10,2.32
1576,820443085,0.1558,-0.8823,0.5371,3.96,-1.16,2.32
1577,820448088,0.1582,-0.8882,0.5420,3.84,-1.16,2.32
1578,820453087,0.1567,-0.8901,0.5391,3.60,-1.22,2.32
1579,820458087,0.1572,-0.8882,0.5483,3.23,-1.28,2.38
1580,820463086,0.1538,-0.8823,0.5483,3.05,-1.46,2.32
1581,820468087,0.1572,-0.8848,0.5420,2.80,-1.59,2.44
1582,820473087,0.1592,-0.8853,0.5488,2.74,-1.52,2.38
1583,820478089,0.1548,-0.8838,0.5396,2.56,-1.65,2.50
1584,820483087,0.1523,-0.8838,0.5405,2.56,-1.59,2.50
1585,820488087,0.1538,-0.8813,0.5366,2.44,-1.65,2.44
1586,820493086,0.1577,-0.8877,0.5439,2.44,-1.52,2.50
1587,820498087,0.1592,-0.8809,0.5415,2.56,-1.52,2.50
1588,820503087,0.1548,-0.8818,0.5410,2.62,-1.46,2.50
1589,820508088,0.1528,-0.8813,0.5405,2.68,-1.40,2.50
1590,820513087,0.1528,-0.8867,0.5444,2.80,-1.52,2.62
1591,820518086,0.1494,-0.8833,0.5361,2.87,-1.46,2.50
1592,820523087,0.1548,-0.8862,0.5430,2.87,-1.34,2.50
1593,820528086,0.1538,-0.8872,0.5430,2.93,-1.52,2.44
1594,820533087,0.1523,-0.8867,0.5425,2.93,-1.52,2.38
1595,820538086,0.1572,-0.8872,0.5356,3.05,-1.52,2.32
1596,820543087,0.1567,-0.8848,0.5415,2.93,-1.40,2.32
1597,820548086,0.1562,-0.8906,0.5405,2.87,-1.46,2.20
1598,820553087,0.1558,-0.8896,0.5396,2.80,-1.40,2.26
1599,820558086,0.1538,-0.8892,0.5439,2.80,-1.34,2.26
1600,820563089,0.1543,-0.8906,0.5366,2.74,-1.40,2.13
1601,820568086,0.1558,-0.8950,0.5356,2.56,-1.28,2.13
1602,820573088,0.1582,-0.8911,0.5410,2.50,-1.40,2.13
1603,820578088,0.1577,-0.8896,0.5425,2.44,-1.34,2.01
1604,820583089,0.1567,-0.8877,0.5420,2.38,-1.34,2.01
1605,820588086,0.1558,-0.8892,0.5405,2.38,-1.40,2.01
1606,820593087,0.1558,-0.8892,0.5356,2.38,-1.52,1.89
1607,820598086,0.1538,-0.8892,0.5396,2.50,-1.40,1.95
1608,820603087,0.1572,-0.8921,0.5381,2.56,-1.40,1.83
1609,820608086,0.1567,-0.8892,0.5405,2.62,-1.40,1.83
1610,820613385,0.1572,-0.8862,0.5376,2.68,-1.34,1.83
1611,820618087,0.1606,-0.8867,0.5386,2.62,-1.40,1.71
1612,820623087,0.1606,-0.8867,0.5356,2.62,-1.46,1.65
1613,820628087,0.1611,-0.8867,0.5420,2.62,-1.46,1.71
1614,820633086,0.1562,-0.8853,0.5381,2.74,-1.40,1.52
1615,820638087,0.1582,-0.8882,0.5420,2.68,-1.46,1.59
1616,820643088,0.1538,-0.8853,0.5396,2.68,-1.52,1.52
1617,820648087,0.1509,-0.8818,0.5381,2.56,-1.59,1.46
1618,820653086,0.1499,-0.8804,0.5425,2.50,-1.59,1.46
1619,820658087,0.1514,-0.8872,0.5449,2.38,-1.65,1.40
1620,820663087,0.1538,-0.8838,0.5371,2.32,-1.52,1.40
1621,820668087,0.1533,-0.8857,0.5469,2.07,-1.65,1.34
1622,820673086,0.1572,-0.8892,0.5420,1.89,-1.71,1.28
1623,820678087,0.1572,-0.8906,0.5459,1.65,-1.59,1.28
1624,820683086,0.1567,-0.8916,0.5371,1.65,-1.65,1.34
1625,820688087,0.1592,-0.8892,0.5415,1.52,-1.77,1.40
1626,820693087,0.1592,-0.8877,0.5405,1.28,-1.77,1.34
1627,820698088,0.1562,-0.8882,0.5410,1.28,-1.83,1.46
1628,820703087,0.1572,-0.8911,0.5371,1.10,-1.77,1.52
1629,820708087,0.1572,-0.8901,0.5317,0.98,-1.83,1.59
1630,820713210,0.1548,-0.8921,0.5288,0.85,-1.83,1.59
1631,820718087,0.1597,-0.8901,0.5342,0.85,-1.95,1.77
1632,820723087,0.1562,-0.8926,0.5337,0.73,-2.01,1.83
1633,820728087,0.1582,-0.8892,0.5337,0.85,-2.07,1.89
1634,820733526,0.1572,-0.8901,0.5361,0.85,-2.13,2.07
1635,820738087,0.1587,-0.8931,0.5371,0.98,-2.20,2.13
1636,820743087,0.1641,-0.8857,0.5391,1.04,-2.26,2.26
1637,820748087,0.1602,-0.8892,0.5415,1.16,-2.32,2.38
1638,820753086,0.1606,-0.8892,0.5366,1.10,-2.44,2.44
1639,820758087,0.1543,-0.8877,0.5415,1.22,-2.50,2.38
1640,820763088,0.1553,-0.8882,0.5444,1.16,-2.56,2.50
1641,820768087,0.1553,-0.8901,0.5420,1.04,-2.68,2.56
1642,820773230,0.1543,-0.8877,0.5479,0.98,-2.93,2.56
1643,820778087,0.1533,-0.8892,0.5410,0.85,-2.93,2.62
1644,820783086,0.1499,-0.8857,0.5435,0.79,-2.87,2.62
1645,820788086,0.1523,-0.8857,0.5410,0.61,-3.11,2.62
1646,820793087,0.1543,-0.8887,0.5430,0.55,-3.17,2.62
1647,820798086,0.1538,-0.8853,0.5400,0.55,-3.23,2.50
1648,820803087,0.1533,-0.8848,0.5420,0.49,-3.23,2.62
1649,820808086,0.1572,-0.8833,0.5322,0.67,-3.35,2.50
1650,820813087,0.1514,-0.8770,0.5288,0.79,-3.35,2.50
1651,820818086,0.1519,-0.8794,0.5347,0.98,-3.35,2.44
1652,820823087,0.1543,-0.8794,0.5342,1.28,-3.35,2.44
1653,820828086,0.1538,-0.8833,0.5322,1.65,-3.41,2.32
1654,820833087,0.1514,-0.8770,0.5342,1.95,-3.54,2.44
1655,820838086,0.1504,-0.8789,0.5337,2.26,-3.35,2.32
1656,820843089,0.1436,-0.8799,0.5396,2.44,-3.41,2.38
1657,820848086,0.1455,-0.8857,0.5439,2.44,-3.54,2.26
1658,820853087,0.1479,-0.8877,0.5444,2.50,-3.54,2.13
1659,820858086,0.1494,-0.8931,0.5435,2.38,-3.48,2.07
1660,820863087,0.1509,-0.8926,0.5405,2.20,-3.41,1.89
1661,820868087,0.1494,-0.8926,0.5444,1.95,-3.41,1.83
1662,820873087,0.1489,-0.8975,0.5425,1.59,-3.29,1.71
1663,820878086,0.1504,-0.8984,0.5415,1.28,-3.29,1.59
1664,820883086,0.1533,-0.8979,0.5327,0.91,-3.23,1.46
1665,820888087,0.1543,-0.8892,0.5317,0.73,-3.17,1.34
1666,820893087,0.1504,-0.8911,0.5352,0.61,-3.11,1.34
1667,820898087,0.1519,-0.8916,0.5249,0.67,-3.05,1.34
1668,820903086,0.1489,-0.8955,0.5273,0.79,-3.05,1.40
1669,820908087,0.1548,-0.8931,0.5308,0.91,-2.93,1.40
1670,820913087,0.1489,-0.8916,0.5327,0.98,-2.87,1.46
1671,820918087,0.1519,-0.8896,0.5322,1.10,-2.74,1.52
1672,820923086,0.1504,-0.8931,0.5352,1.16,-2.62,1.46
1673,820928087,0.1567,-0.8984,0.5361,1.16,-2.74,1.59
1674,820933087,0.1616,-0.8950,0.5400,1.28,-2.68,1.77
1675,820938087,0.1631,-0.8989,0.5356,1.40,-2.74,1.83
1676,820943086,0.1616,-0.8994,0.5376,1.52,-2.62,1.95
1677,820948087,0.1626,-0.8975,0.5425,1.71,-2.56,1.95
1678,820953087,0.1650,-0.8950,0.5371,1.77,-2.80,2.20
1679,820958087,0.1636,-0.8960,0.5386,2.07,-2.62,2.32
1680,820963554,0.1611,-0.8940,0.5415,2.20,-2.68,2.50
1681,820968089,0.1631,-0.8901,0.5356,2.38,-2.62,2.56
1682,820973087,0.1606,-0.8926,0.5312,2.74,-2.62,2.80
1683,820978160,0.1636,-0.8906,0.5327,2.93,-2.74,2.93
1684,820983087,0.1719,-0.8882,0.5400,3.05,-2.87,2.93
1685,820988087,0.1646,-0.8872,0.5273,3.35,-2.80,3.11
1686,820993085,0.1631,-0.8838,0.5366,3.54,-2.74,3.35
1687,820998087,0.1606,-0.8823,0.5371,3.66,-2.80,3.41
1688,821003087,0.1592,-0.8882,0.5381,3.66,-2.74,3.48
1689,821008087,0.1582,-0.8823,0.5342,3.72,-2.74,3.60
1690,821013086,0.1587,-0.8813,0.5298,3.60,-2.87,3.54
1691,821018087,0.1592,-0.8857,0.5391,3.35,-2.68,3.66
1692,821023087,0.1519,-0.8862,0.5371,3.17,-2.80,3.78
1693,821028088,0.1528,-0.8838,0.5430,2.99,-2.68,3.84
1694,821033086,0.1582,-0.8828,0.5366,2.68,-2.68,3.78
1695,821038088,0.1567,-0.8892,0.5425,2.38,-2.68,3.72
1696,821043087,0.1621,-0.8892,0.5469,2.13,-2.74,3.66
1697,821048087,0.1631,-0.8892,0.5420,2.13,-2.68,3.72
1698,821053087,0.1567,-0.8843,0.5332,2.13,-2.80,3.72
1699,821058086,0.1626,-0.8809,0.5312,2.07,-2.68,3.84
1700,821063087,0.1592,-0.8828,0.5381,2.20,-2.62,3.66
1701,821068086,0.1626,-0.8838,0.5327,2.07,-2.68,3.60
1702,821073087,0.1582,-0.8877,0.5322,2.26,-2.74,3.66
1703,821078086,0.1567,-0.8926,0.5337,2.26,-2.93,3.54
1704,821083087,0.1572,-0.8906,0.5273,2.32,-2.87,3.48
1705,821088086,0.1577,-0.8911,0.5352,2.56,-2.80,3.54
1706,821093087,0.1533,-0.8872,0.5347,2.68,-2.87,3.35
1707,821098086,0.1567,-0.8857,0.5244,2.99,-2.87,3.41
1708,821103087,0.1606,-0.8877,0.5332,3.23,-2.93,3.35
1709,821108086,0.1606,-0.8853,0.5356,3.48,-2.87,3.23
1710,821113087,0.1592,-0.8857,0.5322,3.60,-2.93,3.17
1711,821118089,0.1597,-0.8867,0.5322,3.78,-2.93,3.05
1712,821123087,0.1602,-0.8921,0.5317,3.72,-2.93,3.11
1713,821128087,0.1606,-0.8916,0.5259,3.66,-2.87,2.87
1714,821133087,0.1597,-0.8926,0.5293,3.48,-2.87,2.87
1715,821138086,0.1602,-0.8867,0.5317,3.41,-2.80,2.74
1716,821143087,0.1567,-0.8926,0.5312,3.23,-2.74,2.62
1717,821148086,0.1572,-0.8960,0.5327,2.80,-2.87,2.50
1718,821153087,0.1553,-0.8994,0.5293,2.50,-2.74,2.38
1719,821158086,0.1611,-0.8965,0.5269,2.20,-2.62,2.26
1720,821163087,0.1616,-0.8960,0.5317,1.83,-2.56,2.20
1721,821168086,0.1646,-0.9023,0.5273,1.46,-2.56,2.20
1722,821173087,0.1626,-0.8999,0.5254,1.34,-2.38,2.13
1723,821178086,0.1616,-0.9009,0.5215,1.22,-2.26,1.95
1724,821183087,0.1650,-0.8989,0.5229,1.10,-2.26,2.01
1725,821188088,0.1597,-0.8960,0.5293,1.04,-2.07,1.95
1726,821193085,0.1602,-0.8960,0.5303,1.04,-2.01,1.77
1727,821198089,0.1606,-0.8945,0.5312,1.22,-1.95,1.77
1728,821203087,0.1587,-0.8921,0.5259,1.46,-1.83,1.77
1729,821208086,0.1582,-0.8906,0.5303,1.59,-1.71,1.71
1730,821213087,0.1558,-0.8906,0.5303,1.77,-1.59,1.52
1731,821218087,0.1611,-0.8906,0.5322,2.13,-1.59,1.46
1732,821223087,0.1587,-0.8887,0.5352,2.20,-1.34,1.40
1733,821228086,0.1543,-0.8877,0.5337,2.26,-1.40,1.34
1734,821233089,0.1533,-0.8901,0.5322,2.44,-1.34,1.34
1735,821238086,0.1558,-0.8867,0.5293,2.50,-1.28,1.40
1736,821243089,0.1577,-0.8877,0.5259,2.32,-1.22,1.34
1737,821248086,0.1562,-0.8882,0.5303,2.20,-1.10,1.28
1738,821253087,0.1587,-0.8887,0.5371,2.07,-1.16,1.28
1739,821258186,0.1562,-0.8896,0.5386,1.83,-1.22,1.22
1740,821263087,0.1553,-0.8901,0.5361,1.59,-1.16,1.16
1741,821268086,0.1606,-0.8931,0.5376,1.34,-1.16,1.28
1742,821273087,0.1572,-0.8921,0.5366,1.10,-1.16,1.34
1743,821278087,0.1621,-0.8940,0.5332,0.85,-1.10,1.28
1744,821283087,0.1631,-0.8911,0.5366,0.79,-1.16,1.34
1745,821288086,0.1636,-0.8950,0.5342,0.67,-1.16,1.40
1746,821293086,0.1646,-0.8970,0.5298,0.67,-1.16,1.52
1747,821298087,0.1616,-0.8945,0.5361,0.67,-1.16,1.46
1748,821303193,0.1650,-0.8916,0.5337,0.79,-1.28,1.52
1749,821308086,0.1670,-0.8926,0.5361,0.91,-1.34,1.65
1750,821313087,0.1621,-0.8911,0.5356,1.22,-1.40,1.71
1751,821318086,0.1636,-0.8926,0.5415,1.46,-1.40,1.83
1752,821323087,0.1602,-0.8945,0.5322,1.89,-1.46,1.95
1753,821328086,0.1616,-0.8872,0.5352,2.20,-1.52,2.01
1754,821333087,0.1660,-0.8892,0.5332,2.50,-1.59,2.01
1755,821338087,0.1631,-0.8921,0.5376,2.80,-1.71,2.13
1756,821343087,0.1636,-0.8896,0.5327,3.17,-1.83,2.20
1757,821348086,0.1606,-0.8882,0.5396,3.23,-1.71,2.13
1758,821353089,0.1626,-0.8940,0.5376,3.48,-1.77,2.26
1759,821358086,0.1582,-0.8916,0.5342,3.54,-1.89,2.26
1760,821363087,0.1592,-0.8887,0.5327,3.60,-1.89,2.26
1761,821368086,0.1587,-0.8892,0.5312,3.48,-1.83,2.26
1762,821373087,0.1577,-0.8853,0.5312,3.29,-1.77,2.32
1763,821378086,0.1533,-0.8911,0.5410,3.11,-1.77,2.26
1764,821383089,0.1533,-0.8882,0.5347,2.93,-1.83,2.20
1765,821388086,0.1558,-0.8892,0.5264,2.68,-1.71,2.13
1766,821393088,0.1553,-0.8911,0.5288,2.44,-1.83,2.13
1767,821398086,0.1543,-0.8916,0.5342,2.38,-1.89,2.13
1768,821403087,0.1616,-0.8892,0.5371,2.20,-1.65,2.13
1769,821408086,0.1636,-0.8931,0.5283,2.01,-1.71,2.07
1770,821413087,0.1567,-0.8857,0.5264,1.95,-1.65,2.20
1771,821418086,0.1592,-0.8901,0.5249,2.01,-1.65,2.07
1772,821423087,0.1616,-0.8896,0.5293,2.32,-1.65,2.20
1773,821428086,0.1621,-0.8906,0.5269,2.38,-1.65,2.32
1774,821433087,0.1665,-0.8960,0.5288,2.62,-1.59,2.26
1775,821438086,0.1689,-0.8926,0.5288,2.68,-1.59,2.44
1776,821443087,0.1655,-0.8960,0.5356,2.74,-1.40,2.38
1777,821448086,0.1685,-0.8945,0.5322,3.05,-1.59,2.38
1778,821453087,0.1646,-0.8979,0.5327,2.99,-1.52,2.38
1779,821458086,0.1626,-0.8965,0.5327,3.11,-1.40,2.50
1780,821463087,0.1616,-0.8945,0.5327,3.11,-1.40,2.44
1781,821468086,0.1592,-0.8950,0.5425,3.05,-1.46,2.50
1782,821473353,0.1592,-0.8921,0.5322,3.11,-1.46,2.38
1783,821478087,0.1577,-0.8940,0.5303,2.99,-1.46,2.44
1784,821483087,0.1597,-0.8916,0.5278,2.99,-1.22,2.38
1785,821488089,0.1582,-0.8911,0.5288,2.74,-1.40,2.32
1786,821493087,0.1616,-0.8901,0.5225,2.68,-1.28,2.32
1787,821498088,0.1606,-0.8926,0.5283,2.56,-1.28,2.20
1788,821503086,0.1626,-0.8877,0.5254,2.50,-1.34,2.26
1789,821508088,0.1606,-0.8853,0.5288,2.56,-1.22,2.32
1790,821513087,0.1621,-0.8887,0.5312,2.56,-1.04,2.20
1791,821518087,0.1602,-0.8823,0.5215,2.38,-0.98,2.20
1792,821523086,0.1587,-0.8848,0.5239,2.32,-1.16,2.20
1793,821528087,0.1597,-0.8813,0.5293,2.38,-1.16,2.26
1794,821533087,0.1582,-0.8774,0.5298,2.38,-1.10,2.20
1795,821538087,0.1582,-0.8794,0.5220,2.20,-1.04,2.32
1796,821543086,0.1562,-0.8813,0.5254,2.07,-1.04,2.26
1797,821548087,0.1528,-0.8818,0.5269,2.01,-1.04,2.38
1798,821553087,0.1528,-0.8823,0.5298,1.77,-0.91,2.44
1799,821558087,0.1523,-0.8833,0.5288,1.71,-1.04,2.50
1800,821563085,0.1523,-0.8877,0.5317,1.46,-0.91,2.50
1801,821568089,0.1558,-0.8867,0.5312,1.10,-0.85,2.50
1802,821573086,0.1592,-0.8882,0.5337,0.85,-0.91,2.56
1803,821578089,0.1562,-0.8887,0.5269,0.61,-0.98,2.74
1804,821583087,0.1611,-0.8936,0.5347,0.43,-0.85,2.80
1805,821588086,0.1611,-0.8936,0.5259,0.30,-0.91,2.87
1806,821593087,0.1660,-0.8936,0.5264,0.00,-0.98,2.93
1807,821598086,0.1631,-0.8979,0.5190,-0.24,-0.91,2.99
1808,821603087,0.1655,-0.8989,0.5229,-0.30,-0.91,2.99
1809,821608086,0.1670,-0.8975,0.5264,-0.49,-0.85,3.17
1810,821613087,0.1616,-0.8989,0.5283,-0.55,-0.98,3.17
1811,821618086,0.1602,-0.8989,0.5381,-0.55,-0.91,3.29
1812,821623087,0.1606,-0.8975,0.5366,-0.37,-1.04,3.29
1813,821628086,0.1582,-0.8994,0.5342,-0.30,-0.98,3.29
1814,821633416,0.1641,-0.8945,0.5356,-0.06,-0.91,3.41
1815,821638087,0.1641,-0.8960,0.5410,0.12,-1.10,3.48
1816,821643086,0.1616,-0.8975,0.5342,0.24,-1.16,3.41
1817,821648085,0.1646,-0.8994,0.5337,0.49,-1.16,3.41
1818,821653086,0.1626,-0.8960,0.5303,0.79,-1.16,3.41
1819,821658087,0.1626,-0.8965,0.5327,1.16,-1.16,3.41
1820,821663087,0.1621,-0.8975,0.5381,1.59,-1.16,3.41
1821,821668087,0.1626,-0.8950,0.5342,2.07,-1.22,3.41
1822,821673086,0.1616,-0.8979,0.5308,2.44,-1.16,3.41
1823,821678088,0.1650,-0.8975,0.5347,2.74,-1.16,3.35
1824,821683087,0.1641,-0.9004,0.5288,3.05,-1.22,3.29
1825,821688087,0.1675,-0.8989,0.5264,3.35,-1.16,3.23
1826,821693090,0.1641,-0.8999,0.5273,3.41,-1.04,3.17
1827,821698086,0.1616,-0.8970,0.5317,3.48,-1.10,3.17
1828,821703086,0.1592,-0.9009,0.5317,3.54,-1.04,3.05
1829,821708087,0.1597,-0.8984,0.5342,3.54,-0.91,2.93
1830,821713087,0.1543,-0.9009,0.5317,3.41,-0.98,2.80
1831,821718087,0.1567,-0.8979,0.5327,3.48,-0.73,2.68
1832,821723254,0.1567,-0.8936,0.5327,3.54,-0.61,2.68
1833,821728087,0.1533,-0.8979,0.5327,3.60,-0.61,2.50
1834,821733087,0.1523,-0.8989,0.5303,3.66,-0.55,2.38
1835,821738087,0.1548,-0.8975,0.5298,3.72,-0.49,2.26
1836,821743086,0.1592,-0.8955,0.5312,3.90,-0.30,2.13
1837,821748087,0.1533,-0.8970,0.5376,4.09,-0.12,2.07
1838,821753087,0.1621,-0.9019,0.5317,4.15,-0.06,2.01
1839,821758087,0.1558,-0.9028,0.5269,4.27,-0.06,1.83
1840,821763086,0.1606,-0.8950,0.5200,4.39,0.18,1.83
1841,821768088,0.1597,-0.8950,0.5278,4.51,0.24,1.71
1842,821773087,0.1567,-0.8999,0.5190,4.70,0.43,1.59
1843,821778087,0.1562,-0.8979,0.5181,4.63,0.49,1.46
1844,821783086,0.1538,-0.8950,0.5195,4.63,0.79,1.40
1845,821788087,0.1519,-0.8892,0.5156,4.63,0.79,1.34
1846,821793087,0.1499,-0.8862,0.5210,4.51,0.79,1.28
1847,821798088,0.1460,-0.8838,0.5181,4.33,0.79,1.10
1848,821803086,0.1455,-0.8867,0.5181,4.09,1.04,1.04
1849,821808087,0.1436,-0.8867,0.5244,3.84,1.10,0.98
1850,821813087,0.1455,-0.8872,0.5239,3.60,1.22,0.91
1851,821818086,0.1460,-0.8887,0.5288,3.35,1.40,0.85
1852,821823087,0.1475,-0.8882,0.5249,2.99,1.34,0.73
1853,821828086,0.1499,-0.8867,0.5259,2.68,1.40,0.67
1854,821833087,0.1494,-0.8823,0.5293,2.32,1.40,0.61
1855,821838086,0.1484,-0.8892,0.5352,1.89,1.40,0.67
1856,821843087,0.1479,-0.8882,0.5288,1.52,1.40,0.49
1857,821848087,0.1509,-0.8877,0.5269,1.28,1.40,0.37
1858,821853087,0.1504,-0.8833,0.5269,0.98,1.52,0.37
1859,821858086,0.1460,-0.8853,0.5278,0.73,1.34,0.43
1860,821863087,0.1436,-0.8872,0.5278,0.61,1.40,0.49
1861,821868086,0.1421,-0.8857,0.5269,0.55,1.40,0.55
1862,821873087,0.1436,-0.8833,0.5244,0.55,1.46,0.55
1863,821878087,0.1460,-0.8843,0.5249,0.61,1.40,0.67
1864,821883087,0.1431,-0.8843,0.5283,0.73,1.28,0.67
1865,821888086,0.1416,-0.8867,0.5229,0.85,1.16,0.67
1866,821893087,0.1440,-0.8867,0.5293,0.98,1.04,0.85
1867,821898087,0.1411,-0.8882,0.5273,1.16,1.04,0.79
1868,821903089,0.1436,-0.8872,0.5366,1.16,0.91,0.85
1869,821908086,0.1431,-0.8901,0.5337,1.16,0.73,1.04
1870,821913085,0.1431,-0.8940,0.5332,1.04,0.55,0.98
1871,821918087,0.1445,-0.8936,0.5391,0.98,0.43,1.10
1872,821923087,0.1450,-0.8970,0.5415,0.79,0.18,1.10
1873,821928087,0.1450,-0.8955,0.5410,0.61,0.12,1.10
1874,821933086,0.1475,-0.8926,0.5342,0.61,-0.12,1.04
1875,821938087,0.1475,-0.8945,0.5347,0.55,-0.24,1.22
1876,821943474,0.1455,-0.8945,0.5391,0.55,-0.24,1.22
1877,821948087,0.1465,-0.8940,0.5386,0.61,-0.55,1.22
1878,821953087,0.1479,-0.8945,0.5361,0.67,-0.79,1.40
1879,821958087,0.1475,-0.8936,0.5425,0.79,-0.91,1.34
1880,821963233,0.1445,-0.8906,0.5342,1.16,-1.10,1.52
1881,821968087,0.1406,-0.8921,0.5396,1.34,-1.22,1.46
1882,821973087,0.1401,-0.8906,0.5342,1.52,-1.34,1.65
1883,821978161,0.1382,-0.8872,0.5356,1.77,-1.40,1.65
1884,821983086,0.1416,-0.8921,0.5337,1.95,-1.77,1.71
1885,821988087,0.1406,-0.8911,0.5381,1.95,-1.83,1.89
1886,821993308,0.1440,-0.8887,0.5361,1.95,-2.01,1.77
1887,821998087,0.1426,-0.8931,0.5420,1.95,-2.13,1.77
1888,822003085,0.1465,-0.8945,0.5400,2.01,-2.26,1.95
1889,822008087,0.1460,-0.8984,0.5356,1.89,-2.44,1.95
1890,822013086,0.1465,-0.8970,0.5312,1.83,-2.50,2.01
1891,822018087,0.1489,-0.8950,0.5352,1.83,-2.62,1.95
1892,822023087,0.1479,-0.8979,0.5444,1.77,-2.80,1.89
1893,822028087,0.1484,-0.8945,0.5337,1.65,-3.05,1.95
1894,822033086,0.1484,-0.8994,0.5361,1.65,-3.23,2.01
1895,822038133,0.1494,-0.8975,0.5317,1.71,-3.23,2.01
1896,822043087,0.1533,-0.8979,0.5254,1.95,-3.29,2.07
1897,822048087,0.1533,-0.8911,0.5308,2.01,-3.48,2.01
1898,822053086,0.1509,-0.8906,0.5312,2.13,-3.48,2.20
1899,822058088,0.1538,-0.8940,0.5332,2.38,-3.60,2.07
1900,822063087,0.1538,-0.8892,0.5332,2.62,-3.66,2.13
1901,822068087,0.1509,-0.8896,0.5312,2.74,-3.66,2.13
1902,822073086,0.1484,-0.8892,0.5298,2.87,-3.78,2.13
1903,822078087,0.1484,-0.8945,0.5312,3.11,-3.66,2.13
1904,822083087,0.1489,-0.8960,0.5322,3.17,-3.78,2.01
1905,822088087,0.1514,-0.8916,0.5298,3.17,-3.78,2.07
1906,822093087,0.1558,-0.8955,0.5303,3.23,-3.72,2.07
1907,822098088,0.1499,-0.8984,0.5303,3.05,-3.84,2.01
1908,822103086,0.1523,-0.8936,0.5332,2.99,-3.60,1.83
1909,822108087,0.1548,-0.8975,0.5312,2.68,-3.72,1.89
1910,822113450,0.1528,-0.8994,0.5205,2.56,-3.66,1.77
1911,822118088,0.1514,-0.8931,0.5298,2.26,-3.48,1.65
1912,822123087,0.1548,-0.8970,0.5249,1.95,-3.48,1.52
1913,822128085,0.1514,-0.8965,0.5254,1.83,-3.35,1.59
1914,822133087,0.1553,-0.8965,0.5298,1.71,-3.41,1.65
1915,822138087,0.1533,-0.8965,0.5269,1.77,-3.35,1.59
1916,822143086,0.1523,-0.8984,0.5278,1.65,-3.23,1.52
1917,822148087,0.1543,-0.8945,0.5225,1.77,-3.11,1.40
1918,822153087,0.1519,-0.8940,0.5264,1.89,-2.93,1.52
1919,822158087,0.1504,-0.8940,0.5249,2.13,-2.74,1.46
1920,822163086,0.1543,-0.8960,0.5215,2.32,-2.80,1.52
1921,822168087,0.1572,-0.8955,0.5259,2.50,-2.62,1.52
1922,822173085,0.1567,-0.8965,0.5278,2.56,-2.50,1.52
1923,822178087,0.1611,-0.8940,0.5273,2.68,-2.44,1.59
1924,822183087,0.1626,-0.9009,0.5283,2.74,-2.44,1.71
1925,822188088,0.1621,-0.9004,0.5278,2.56,-2.26,1.71
1926,822193085,0.1665,-0.9033,0.5327,2.50,-2.13,1.71
1927,822198088,0.1641,-0.9004,0.5308,2.50,-2.07,1.89
1928,822203088,0.1670,-0.8989,0.5249,2.56,-1.89,1.83
1929,822208088,0.1655,-0.9019,0.5215,2.50,-1.89,1.95
1930,822213086,0.1636,-0.8936,0.5186,2.44,-1.83,1.95
1931,822218086,0.1602,-0.8892,0.5229,2.56,-1.71,2.01
1932,822223451,0.1567,-0.8872,0.5298,2.62,-1.65,2.07
1933,822228087,0.1592,-0.8862,0.5215,2.62,-1.46,2.20
1934,822233088,0.1558,-0.8921,0.5234,2.93,-1.28,2.20
1935,822238087,0.1592,-0.8906,0.5244,2.93,-1.34,2.32
1936,822243086,0.1567,-0.8950,0.5278,2.93,-1.34,2.38
1937,822248087,0.1597,-0.8955,0.5259,2.80,-1.28,2.38
1938,822253087,0.1602,-0.8999,0.5288,2.80,-1.22,2.44
1939,822258087,0.1592,-0.9004,0.5298,2.62,-1.22,2.50
1940,822263088,0.1636,-0.9058,0.5288,2.50,-1.04,2.44
1941,822268087,0.1606,-0.9033,0.5288,2.32,-1.16,2.50
1942,822273087,0.1646,-0.9053,0.5278,2.26,-1.16,2.44
1943,822278087,0.1621,-0.9043,0.5322,2.01,-1.16,2.44
1944,822283086,0.1626,-0.9023,0.5244,1.89,-1.10,2.38
1945,822288088,0.1548,-0.9023,0.5308,1.95,-1.28,2.38
1946,822293085,0.1587,-0.8989,0.5239,2.01,-1.04,2.38
1947,822298087,0.1597,-0.8960,0.5293,1.89,-1.16,2.38
1948,822303087,0.1572,-0.8950,0.5264,2.26,-1.22,2.38
1949,822308086,0.1572,-0.8965,0.5293,2.32,-1.28,2.44
1950,822313087,0.1558,-0.8926,0.5308,2.56,-1.28,2.38
1951,822318086,0.1597,-0.8901,0.5210,2.80,-1.28,2.44
1952,822323086,0.1572,-0.8950,0.5254,3.17,-1.22,2.38
1953,822328087,0.1558,-0.8892,0.5234,3.41,-1.34,2.44
1954,822333087,0.1562,-0.8921,0.5283,3.66,-1.28,2.44
1955,822338087,0.1592,-0.8945,0.5327,3.90,-1.34,2.44
1956,822343086,0.1572,-0.8955,0.5317,4.09,-1.40,2.44
1957,822348087,0.1597,-0.8916,0.5288,4.15,-1.46,2.38
1958,822353087,0.1616,-0.8926,0.5273,4.15,-1.59,2.38
1959,822358087,0.1636,-0.8950,0.5293,4.09,-1.59,2.32
1960,822363086,0.1636,-0.8921,0.5239,4.02,-1.65,2.26
1961,822368087,0.1646,-0.8906,0.5220,3.84,-1.65,2.26
1962,822373087,0.1660,-0.8931,0.5210,3.60,-1.77,2.13
1963,822378138,0.1592,-0.8931,0.5288,3.54,-1.71,2.13
1964,822383581,0.1572,-0.8916,0.5254,3.29,-1.89,2.07
1965,822388088,0.1602,-0.8916,0.5234,3.05,-1.95,1.95
1966,822393087,0.1592,-0.8916,0.5249,2.87,-1.89,1.89
1967,822398087,0.1606,-0.8872,0.5249,2.62,-1.89,1.83
1968,822403087,0.1577,-0.8926,0.5239,2.50,-1.89,1.83
1969,822408085,0.1582,-0.8901,0.5229,2.44,-1.89,1.71
1970,822413088,0.1562,-0.8901,0.5342,2.38,-1.89,1.65
1971,822418086,0.1538,-0.8877,0.5195,2.26,-2.13,1.71
1972,822423087,0.1543,-0.8916,0.5293,2.26,-1.89,1.59
1973,822428087,0.1567,-0.8916,0.5278,2.20,-1.95,1.40
1974,822433087,0.1582,-0.8926,0.5273,2.20,-1.95,1.34
1975,822438087,0.1616,-0.8970,0.5298,2.13,-1.95,1.34
1976,822443395,0.1597,-0.8970,0.5366,2.07,-2.01,1.22
1977,822448087,0.1621,-0.8921,0.5288,2.01,-2.07,1.34
1978,822453087,0.1641,-0.8945,0.5298,2.07,-2.07,1.16
1979,822458087,0.1611,-0.8921,0.5254,2.13,-1.95,1.10
1980,822463086,0.1587,-0.8921,0.5225,2.20,-2.20,1.22
1981,822468087,0.1587,-0.8906,0.5288,2.44,-2.07,1.10
1982,822473087,0.1533,-0.8838,0.5293,2.56,-2.13,1.22
1983,822478088,0.1509,-0.8911,0.5239,2.87,-2.13,1.22
1984,822483085,0.1587,-0.8857,0.5215,3.11,-2.26,1.28
1985,822488088,0.1602,-0.8882,0.5225,3.35,-2.26,1.28
1986,822493087,0.1577,-0.8882,0.5229,3.35,-2.26,1.34
1987,822498087,0.1592,-0.8906,0.5293,3.48,-2.32,1.28
1988,822503086,0.1582,-0.8877,0.5244,3.60,-2.26,1.40
1989,822508088,0.1641,-0.8887,0.5293,3.54,-2.26,1.40
1990,822513087,0.1655,-0.8887,0.5283,3.41,-2.44,1.40
1991,822518087,0.1646,-0.8931,0.5303,3.11,-2.38,1.40
1992,822523316,0.1636,-0.8960,0.5288,2.93,-2.62,1.52
1993,822528087,0.1650,-0.8994,0.5254,2.74,-2.38,1.52
1994,822533087,0.1694,-0.9004,0.5356,2.56,-2.44,1.52
1995,822538087,0.1675,-0.9038,0.5244,2.32,-2.44,1.52
1996,822543086,0.1685,-0.8989,0.5278,2.20,-2.50,1.59
1997,822548087,0.1685,-0.8970,0.5259,2.01,-2.32,1.59
1998,822553087,0.1685,-0.8975,0.5278,1.95,-2.32,1.65
1999,822558087,0.1704,-0.9004,0.5269,2.20,-2.26,1.77
2000,822563086,0.1655,-0.8984,0.5215,2.20,-2.26,1.83
2001,822568087,0.1675,-0.8970,0.5190,2.38,-2.26,1.95
2002,822573087,0.1675,-0.8940,0.5181,2.56,-2.20,1.95
2003,822578087,0.1675,-0.8936,0.5161,2.62,-2.13,2.07
2004,822583086,0.1680,-0.8931,0.5210,2.80,-2.13,2.13
2005,822588087,0.1694,-0.8965,0.5190,2.93,-1.89,2.26
2006,822593087,0.1694,-0.8940,0.5210,2.93,-1.89,2.26
2007,822598088,0.1685,-0.8965,0.5176,2.93,-1.71,2.38
2008,822603086,0.1680,-0.8975,0.5229,2.87,-1.59,2.38
2009,822608088,0.1694,-0.8931,0.5269,2.93,-1.65,2.44
2010,822613087,0.1689,-0.8960,0.5288,2.93,-1.34,2.38
2011,822618087,0.1709,-0.8955,0.5298,2.87,-1.46,2.50
2012,822623086,0.1699,-0.8926,0.5220,2.87,-1.22,2.50
2013,822628087,0.1694,-0.8926,0.5273,2.87,-1.22,2.56
2014,822633087,0.1680,-0.8921,0.5312,2.87,-0.98,2.56
2015,822638087,0.1641,-0.8921,0.5200,2.87,-0.91,2.62
2016,822643087,0.1670,-0.8940,0.5210,2.80,-0.85,2.56
2017,822648086,0.1636,-0.8940,0.5259,2.74,-0.67,2.50
2018,822653137,0.1650,-0.8945,0.5244,2.93,-0.61,2.50
2019,822658086,0.1655,-0.8965,0.5234,2.74,-0.43,2.56
2020,822663087,0.1660,-0.8945,0.5264,2.74,-0.30,2.44
2021,822668085,0.1646,-0.8931,0.5254,2.68,-0.18,2.44
2022,822673087,0.1680,-0.8955,0.5225,2.50,-0.12,2.26
2023,822678087,0.1646,-0.8970,0.5244,2.44,0.06,2.20
2024,822683087,0.1680,-0.8970,0.5269,2.32,0.00,2.20
2025,822688086,0.1704,-0.8936,0.5288,2.26,0.18,2.07
2026,822693085,0.1665,-0.8950,0.5244,1.95,0.24,1.89
2027,822698087,0.1689,-0.8975,0.5337,1.95,0.43,1.77
2028,822703087,0.1733,-0.8960,0.5249,2.01,0.43,1.71
2029,822708086,0.1660,-0.8936,0.5229,1.95,0.43,1.65
2030,822713085,0.1694,-0.8911,0.5259,2.01,0.43,1.59
2031,822718089,0.1680,-0.8960,0.5283,2.13,0.49,1.52
2032,822723087,0.1660,-0.8892,0.5322,2.20,0.37,1.46
2033,822728087,0.1650,-0.8945,0.5317,2.32,0.43,1.28
2034,822733086,0.1670,-0.8911,0.5283,2.50,0.49,1.28
2035,822738087,0.1646,-0.8931,0.5312,2.50,0.37,1.22
2036,822743087,0.1689,-0.8892,0.5283,2.68,0.43,1.22
2037,822748087,0.1675,-0.8931,0.5269,2.80,0.37,1.10
2038,822753086,0.1655,-0.8950,0.5264,2.80,0.37,1.10
2039,822758087,0.1650,-0.8892,0.5322,2.87,0.30,0.91
2040,822763087,0.1680,-0.8921,0.5283,2.80,0.06,0.85
2041,822768088,0.1670,-0.8940,0.5259,2.87,0.18,0.73
2042,822773086,0.1660,-0.8936,0.5298,2.68,0.06,0.67
2043,822778087,0.1665,-0.8916,0.5293,2.68,0.00,0.55
2044,822783087,0.1626,-0.8911,0.5254,2.74,0.00,0.43
2045,822788087,0.1631,-0.8916,0.5288,2.74,-0.06,0.30
2046,822793195,0.1616,-0.8916,0.5308,2.74,-0.18,0.24
2047,822798087,0.1646,-0.8936,0.5269,2.87,-0.18,0.18
2048,822803085,0.1650,-0.8901,0.5269,2.87,-0.37,0.06
2049,822808087,0.1646,-0.8931,0.5308,2.93,-0.30,0.12
2050,822813087,0.1636,-0.8896,0.5288,2.99,-0.43,-0.06
2051,822818087,0.1611,-0.8877,0.5308,3.05,-0.55,-0.12
2052,822823087,0.1587,-0.8853,0.5249,3.11,-0.49,-0.30
2053,822828086,0.1582,-0.8926,0.5200,3.23,-0.61,-0.18
2054,822833085,0.1660,-0.8833,0.5195,3.35,-0.55,-0.24
2055,822838089,0.1650,-0.8838,0.5234,3.54,-0.73,-0.30
2056,822843085,0.1665,-0.8867,0.5337,3.41,-0.79,-0.30
2057,822848087,0.1694,-0.8857,0.5347,3.54,-0.85,-0.43
2058,822853087,0.1660,-0.8867,0.5386,3.41,-0.85,-0.37
2059,822858087,0.1665,-0.8877,0.5288,3.35,-0.98,-0.37
2060,822863538,0.1636,-0.8877,0.5425,3.29,-0.98,-0.43
2061,822868087,0.1636,-0.8862,0.5288,3.41,-1.16,-0.49
2062,822873087,0.1611,-0.8853,0.5342,3.29,-1.28,-0.61
2063,822878088,0.1670,-0.8857,0.5337,3.41,-1.40,-0.73
2064,822883086,0.1646,-0.8877,0.5332,3.54,-1.34,-0.73
2065,822888087,0.1655,-0.8833,0.5361,3.66,-1.40,-0.79
2066,822893087,0.1597,-0.8779,0.5356,3.78,-1.59,-0.79
2067,822898087,0.1616,-0.8809,0.5259,3.90,-1.59,-0.85
2068,822903086,0.1660,-0.8833,0.5391,4.02,-1.71,-0.91
2069,822908087,0.1577,-0.8838,0.5298,4.21,-1.77,-0.98
2070,822913087,0.1553,-0.8804,0.5244,4.33,-1.89,-0.98
2071,822918088,0.1562,-0.8745,0.5298,4.63,-2.07,-0.98
2072,822923086,0.1602,-0.8784,0.5283,5.06,-2.26,-0.98
2073,822928087,0.1646,-0.8823,0.5254,5.61,-2.50,-0.98
2074,822933085,0.1675,-0.8760,0.5361,6.04,-2.68,-0.98
2075,822938087,0.1694,-0.8794,0.5347,6.77,-2.87,-1.04
2076,822943087,0.1704,-0.8818,0.5396,7.13,-2.99,-1.22
2077,822948085,0.1743,-0.8843,0.5356,7.80,-3.17,-1.22
2078,822953087,0.1709,-0.8804,0.5391,8.29,-3.66,-1.28
2079,822958086,0.1680,-0.8896,0.5396,8.90,-3.90,-1.40
2080,822963621,0.1704,-0.8901,0.5405,9.51,-4.33,-1.52
2081,822968087,0.1719,-0.8906,0.5449,9.88,-4.45,-1.71
2082,822973401,0.1753,-0.8940,0.5522,10.49,-4.94,-1.89
2083,822978087,0.1729,-0.8955,0.5493,11.04,-4.94,-1.95
2084,822983087,0.1758,-0.8896,0.5454,11.34,-5.24,-2.07
2085,822988087,0.1777,-0.8970,0.5439,11.46,-5.37,-2.20
2086,822993086,0.1782,-0.8955,0.5410,11.34,-5.37,-2.38
2087,822998088,0.1812,-0.9009,0.5405,11.04,-5.67,-2.44
2088,823003389,0.1841,-0.8979,0.5376,10.30,-5.98,-2.68
2089,823008087,0.1846,-0.8979,0.5415,9.70,-6.16,-2.74
2090,823013087,0.1846,-0.8970,0.5381,8.78,-6.22,-2.93
2091,823018088,0.1904,-0.9014,0.5342,7.80,-6.28,-3.05
2092,823023086,0.1919,-0.9004,0.5366,6.83,-6.28,-3.17
2093,823028087,0.1924,-0.8979,0.5342,5.79,-6.34,-3.17
2094,823033086,0.1953,-0.8945,0.5371,5.00,-6.28,-3.29
2095,823038087,0.1934,-0.8994,0.5381,4.15,-6.22,-3.41
2096,823043087,0.1895,-0.8950,0.5405,3.48,-6.22,-3.48
2097,823048087,0.1943,-0.8940,0.5405,2.93,-6.22,-3.48
2098,823053086,0.1914,-0.8945,0.5430,2.56,-6.10,-3.48
2099,823058087,0.1895,-0.8896,0.5493,2.38,-5.98,-3.41
2100,823063085,0.1929,-0.8911,0.5449,2.26,-5.91,-3.35
2101,823068087,0.1895,-0.8862,0.5396,2.50,-5.61,-3.29
2102,823073089,0.1890,-0.8818,0.5405,2.74,-5.43,-3.23
2103,823078086,0.1953,-0.8853,0.5425,2.99,-5.30,-3.11
2104,823083087,0.1948,-0.8799,0.5322,3.48,-5.00,-2.93
2105,823088087,0.1973,-0.8809,0.5371,3.66,-4.76,-2.87
2106,823093087,0.1934,-0.8833,0.5356,3.90,-4.39,-2.68
2107,823098086,0.1943,-0.8799,0.5332,3.90,-4.15,-2.56
2108,823103087,0.1973,-0.8809,0.5342,3.96,-3.78,-2.32
2109,823108087,0.1968,-0.8784,0.5376,3.90,-3.35,-2.26
2110,823113087,0.1948,-0.8779,0.5332,3.78,-2.87,-2.01
2111,823118087,0.1973,-0.8809,0.5342,3.60,-2.50,-1.77
2112,823123459,0.1963,-0.8804,0.5288,3.17,-1.95,-1.52
2113,823128087,0.1958,-0.8774,0.5317,2.93,-1.65,-1.52
2114,823133087,0.1929,-0.8794,0.5264,2.44,-1.22,-1.28
2115,823138087,0.1968,-0.8755,0.5303,2.07,-0.67,-1.10
2116,823143086,0.1948,-0.8765,0.5298,1.65,-0.06,-0.79
2117,823148087,0.1953,-0.8760,0.5312,1.16,0.43,-0.55
2118,823153087,0.1934,-0.8779,0.5312,0.79,1.04,-0.37
2119,823158087,0.1899,-0.8765,0.5332,0.37,1.52,-0.30
2120,823163085,0.1938,-0.8770,0.5278,0.12,1.95,0.06
2121,823168085,0.1875,-0.8809,0.5259,-0.30,2.56,0.30
2122,823173086,0.1875,-0.8813,0.5322,-0.61,3.11,0.37
2123,823178087,0.1782,-0.8794,0.5254,-0.85,3.66,0.73
2124,823183087,0.1821,-0.8828,0.5269,-1.10,4.15,0.79
2125,823188087,0.1816,-0.8843,0.5264,-1.22,4.76,0.98
2126,823193086,0.1792,-0.8804,0.5244,-1.46,5.24,1.22
2127,823198088,0.1738,-0.8818,0.5225,-1.46,5.85,1.40
2128,823203089,0.1709,-0.8823,0.5229,-1.59,6.16,1.59
2129,823208087,0.1670,-0.8789,0.5205,-1.40,6.77,1.59
2130,823213086,0.1646,-0.8843,0.5273,-1.46,7.13,1.77
2131,823218087,0.1655,-0.8848,0.5239,-1.34,7.56,1.83
2132,823223087,0.1626,-0.8828,0.5200,-1.28,7.93,1.95
2133,823228087,0.1636,-0.8838,0.5244,-1.22,8.23,2.13
2134,823233182,0.1592,-0.8887,0.5225,-1.16,8.60,2.20
2135,823238087,0.1636,-0.8906,0.5190,-1.16,8.90,2.32
2136,823243085,0.1646,-0.8950,0.5254,-1.22,9.09,2.44
2137,823248087,0.1631,-0.8936,0.5220,-1.28,9.15,2.44
2138,823253087,0.1641,-0.8926,0.5303,-1.34,9.27,2.50
2139,823258087,0.1626,-0.8950,0.5278,-1.52,9.39,2.44
2140,823263086,0.1631,-0.8887,0.5288,-1.77,9.51,2.50
2141,823268087,0.1597,-0.8916,0.5361,-1.89,9.33,2.56
2142,823273085,0.1597,-0.8911,0.5410,-2.20,9.33,2.56
2143,823278089,0.1606,-0.8872,0.5396,-2.50,9.27,2.50
2144,823283087,0.1592,-0.8877,0.5444,-2.74,9.09,2.62
2145,823288111,0.1558,-0.8843,0.5391,-2.80,8.84,2.56
2146,823293086,0.1572,-0.8838,0.5488,-2.93,8.60,2.56
2147,823298087,0.1572,-0.8862,0.5449,-2.99,8.41,2.62
2148,823303087,0.1562,-0.8853,0.5449,-3.05,8.23,2.50
2149,823308087,0.1533,-0.8882,0.5483,-2.93,7.87,2.56
2150,823313086,0.1592,-0.8833,0.5464,-2.74,7.56,2.56
2151,823318087,0.1597,-0.8833,0.5469,-2.56,7.13,2.56
2152,823323087,0.1577,-0.8843,0.5474,-2.20,6.77,2.62
2153,823328088,0.1577,-0.8784,0.5469,-1.89,6.40,2.62
2154,823333416,0.1587,-0.8823,0.5527,-1.40,5.79,2.56
2155,823338087,0.1602,-0.8843,0.5522,-1.04,5.37,2.62
2156,823343085,0.1567,-0.8877,0.5439,-0.73,5.00,2.56
2157,823348087,0.1592,-0.8804,0.5459,-0.30,4.57,2.56
2158,823353087,0.1597,-0.8882,0.5454,-0.06,3.96,2.56
2159,823358085,0.1562,-0.8887,0.5474,0.24,3.66,2.44
2160,823363089,0.1587,-0.8911,0.5435,0.61,3.05,2.38
2161,823368086,0.1558,-0.8887,0.5420,0.73,2.62,2.38
2162,823373085,0.1582,-0.8950,0.5415,0.98,2.32,2.32
2163,823378087,0.1562,-0.8931,0.5435,0.98,1.71,2.13
2164,823383087,0.1528,-0.8955,0.5405,1.04,1.16,2.13
2165,823388087,0.1528,-0.8945,0.5444,0.98,0.67,2.01
2166,823393086,0.1553,-0.8970,0.5396,1.04,0.12,1.89
2167,823398087,0.1548,-0.8970,0.5391,1.04,-0.18,1.89
2168,823403087,0.1528,-0.8975,0.5347,1.04,-0.67,1.71
2169,823408088,0.1543,-0.8970,0.5371,1.28,-1.16,1.59
2170,823413086,0.1533,-0.8999,0.5386,1.28,-1.71,1.46
2171,823418087,0.1553,-0.8970,0.5356,1.40,-1.95,1.40
2172,823423087,0.1562,-0.8970,0.5366,1.65,-2.38,1.22
2173,823428088,0.1587,-0.9014,0.5371,1.77,-2.87,1.16
2174,823433086,0.1587,-0.8999,0.5312,1.95,-3.05,0.91
2175,823438087,0.1611,-0.9019,0.5264,2.20,-3.41,0.91
2176,823443086,0.1641,-0.8994,0.5342,2.50,-3.78,0.79
2177,823448225,0.1606,-0.8950,0.5327,2.68,-4.02,0.73
2178,823453225,0.1636,-0.8940,0.5312,2.74,-4.33,0.61
2179,823458087,0.1577,-0.8945,0.5273,2.87,-4.45,0.55
2180,823463085,0.1577,-0.8955,0.5337,3.17,-4.63,0.55
2181,823468089,0.1572,-0.8931,0.5278,3.23,-4.82,0.49
2182,823473086,0.1606,-0.8877,0.5269,3.23,-4.94,0.43
2183,823478085,0.1626,-0.8906,0.5303,3.23,-5.12,0.49
2184,823483087,0.1606,-0.8901,0.5264,3.29,-5.18,0.37
2185,823488086,0.1650,-0.8887,0.5269,3.35,-5.18,0.43
2186,823493087,0.1719,-0.8882,0.5273,3.29,-5.43,0.43
2187,823498085,0.1699,-0.8901,0.5195,3.35,-5.30,0.43
2188,823503087,0.1699,-0.8867,0.5293,3.35,-5.30,0.43
2189,823508087,0.1709,-0.8906,0.5234,3.29,-5.30,0.49
2190,823513085,0.1685,-0.8901,0.5195,3.05,-5.37,0.55
2191,823518085,0.1709,-0.8862,0.5298,2.93,-5.30,0.61
2192,823523085,0.1689,-0.8882,0.5278,2.74,-5.18,0.67
2193,823528085,0.1689,-0.8862,0.5244,2.62,-5.06,0.73
2194,823533085,0.1704,-0.8877,0.5239,2.44,-5.06,0.79
2195,823538087,0.1729,-0.8853,0.5225,2.26,-4.82,0.91
2196,823543088,0.1685,-0.8838,0.5229,1.89,-4.51,0.91
2197,823548086,0.1685,-0.8843,0.5220,1.71,-4.51,0.91
2198,823553085,0.1699,-0.8867,0.5186,1.46,-4.33,1.04
2199,823558107,0.1743,-0.8892,0.5161,1.34,-4.21,1.22
2200,823563087,0.1724,-0.8896,0.5249,1.10,-3.90,1.22
2201,823568086,0.1782,-0.8867,0.5161,0.91,-3.78,1.28
2202,823573085,0.1743,-0.8857,0.5156,0.79,-3.60,1.40
2203,823578085,0.1777,-0.8867,0.5229,0.55,-3.41,1.46
2204,823583352,0.1797,-0.8892,0.5225,0.43,-2.99,1.59
2205,823588088,0.1768,-0.8867,0.5215,0.30,-2.87,1.65
2206,823593087,0.1792,-0.8896,0.5215,0.30,-2.80,1.71
2207,823598085,0.1777,-0.8872,0.5254,0.24,-2.80,1.89
2208,823603300,0.1792,-0.8892,0.5239,0.24,-2.62,1.95
2209,823608087,0.1763,-0.8931,0.5234,0.43,-2.38,2.01
2210,823613085,0.1768,-0.8877,0.5215,0.43,-2.20,2.13
2211,823618085,0.1758,-0.8882,0.5264,0.61,-2.13,2.13
2212,823623089,0.1782,-0.8882,0.5269,0.73,-2.01,2.20
2213,823628086,0.1743,-0.8867,0.5220,0.79,-1.71,2.20
2214,823633085,0.1748,-0.8877,0.5239,0.79,-1.65,2.32
2215,823638208,0.1738,-0.8877,0.5283,0.91,-1.52,2.32
2216,823643088,0.1753,-0.8892,0.5298,0.91,-1.34,2.32
2217,823648087,0.1724,-0.8887,0.5288,0.91,-1.16,2.32
2218,823653086,0.1738,-0.8862,0.5220,0.85,-1.28,2.38
2219,823658087,0.1768,-0.8877,0.5244,0.85,-1.04,2.44
2220,823663085,0.1802,-0.8921,0.5327,0.79,-0.98,2.38
2221,823668087,0.1836,-0.8896,0.5254,0.79,-0.79,2.38
2222,823673086,0.1807,-0.8906,0.5347,0.67,-0.79,2.44
2223,823678087,0.1807,-0.8911,0.5283,0.37,-0.98,2.38
2224,823683610,0.1807,-0.8931,0.5239,0.24,-0.98,2.44
2225,823688087,0.1807,-0.8892,0.5190,0.18,-0.91,2.38
2226,823693086,0.1733,-0.8887,0.5269,0.06,-1.04,2.38
2227,823698090,0.1763,-0.8857,0.5303,-0.12,-1.04,2.32
2228,823703087,0.1782,-0.8853,0.5322,-0.12,-1.28,2.26
2229,823708085,0.1738,-0.8906,0.5327,-0.06,-1.28,2.26
2230,823713088,0.1753,-0.8892,0.5352,0.00,-1.40,2.20
2231,823718161,0.1743,-0.8896,0.5347,0.06,-1.34,2.20
2232,823723232,0.1729,-0.8882,0.5312,0.24,-1.65,2.01
2233,823728086,0.1694,-0.8921,0.5352,0.43,-1.77,2.01
2234,823733086,0.1699,-0.8833,0.5361,0.67,-1.83,1.83
2235,823738087,0.1738,-0.8872,0.5298,0.85,-2.01,1.77
2236,823743172,0.1748,-0.8960,0.5366,1.16,-2.20,1.77
2237,823748088,0.1772,-0.8955,0.5293,1.46,-2.44,1.71
2238,823753085,0.1826,-0.9004,0.5352,1.77,-2.50,1.65
2239,823758086,0.1763,-0.8979,0.5273,2.07,-2.68,1.46
2240,823763087,0.1758,-0.8989,0.5298,2.20,-2.74,1.59
2241,823768086,0.1807,-0.8994,0.5283,2.44,-3.05,1.46
2242,823773085,0.1821,-0.8999,0.5269,2.68,-3.11,1.59
2243,823778087,0.1812,-0.9038,0.5288,2.68,-3.23,1.52
2244,823783406,0.1816,-0.8975,0.5293,2.80,-3.60,1.40
2245,823788087,0.1851,-0.9033,0.5288,2.80,-3.60,1.40
2246,823793087,0.1895,-0.9058,0.5327,2.80,-3.72,1.46
2247,823798087,0.1895,-0.9048,0.5278,2.80,-3.84,1.40
2248,823803086,0.1885,-0.9043,0.5259,2.93,-3.90,1.46
2249,823808087,0.1826,-0.9023,0.5312,2.93,-4.09,1.34
2250,823813091,0.1855,-0.9004,0.5322,3.05,-4.21,1.40
2251,823818118,0.1860,-0.8999,0.5347,3.17,-4.27,1.34
2252,823823349,0.1860,-0.8979,0.5273,3.41,-4.39,1.34
2253,823828087,0.1875,-0.8970,0.5308,3.60,-4.57,1.28
2254,823833088,0.1826,-0.8979,0.5288,3.90,-4.63,1.22
2255,823838087,0.1846,-0.8911,0.5288,4.15,-4.63,1.28
2256,823843086,0.1855,-0.8950,0.5288,4.51,-4.70,1.28
2257,823848087,0.1846,-0.8887,0.5200,4.76,-4.70,1.34
2258,823853087,0.1885,-0.8887,0.5225,5.06,-4.76,1.28
2259,823858087,0.1865,-0.8887,0.5220,5.18,-4.70,1.28
2260,823863086,0.1846,-0.8887,0.5220,5.24,-4.76,1.16
2261,823868087,0.1826,-0.8848,0.5205,5.43,-4.88,1.28
2262,823873087,0.1841,-0.8818,0.5137,5.30,-4.76,1.22
2263,823878087,0.1860,-0.8828,0.5156,5.24,-4.63,1.22
2264,823883086,0.1885,-0.8799,0.5229,5.18,-4.63,1.22
2265,823888085,0.1880,-0.8818,0.5215,5.00,-4.63,1.22
2266,823893086,0.1904,-0.8813,0.5259,5.00,-4.57,1.10
2267,823898087,0.1909,-0.8823,0.5259,4.94,-4.51,1.10
2268,823903087,0.1924,-0.8862,0.5327,4.82,-4.45,0.98
2269,823908241,0.1924,-0.8828,0.5249,4.63,-4.27,0.98
2270,823913086,0.1929,-0.8848,0.5308,4.57,-4.15,0.85
2271,823918087,0.1919,-0.8848,0.5264,4.39,-3.96,0.79
2272,823923087,0.1943,-0.8843,0.5264,4.33,-3.96,0.73
2273,823928087,0.1987,-0.8848,0.5234,4.27,-3.90,0.61
2274,823933088,0.1953,-0.8823,0.5283,4.21,-3.84,0.55
2275,823938087,0.1938,-0.8877,0.5259,4.27,-3.78,0.43
2276,823943087,0.1982,-0.8853,0.5264,4.45,-3.60,0.30
2277,823948087,0.1929,-0.8862,0.5308,4.63,-3.48,0.24
2278,823953086,0.1938,-0.8828,0.5283,4.82,-3.48,0.12
