# skilleye imu stream v1
# device=xiao_esp32c6 imu=mpu6050 addr=0x68
# rate_hz=200 accel_range_g=16 gyro_range_dps=2000 dlpf_hz=94
# units: accel in g, gyro in deg/s, t_us in microseconds since boot (monotonic)
# no shared clock with the camera -- tap the racket once before each take
# so both recordings share a spike to align on
seq,t_us,ax,ay,az,gx,gy,gz
0,156605442,0.1143,1.0293,0.0703,13.11,4.94,29.57
1,156610448,0.1157,1.0215,0.0688,13.66,3.78,29.88
2,156615441,0.1162,1.0181,0.0620,14.09,2.80,30.30
3,156620444,0.1162,1.0107,0.0571,14.70,1.89,30.61
4,156625441,0.1187,1.0049,0.0547,15.06,0.73,30.98
5,156630442,0.1235,0.9995,0.0508,15.61,-0.18,31.10
6,156635442,0.1265,0.9951,0.0498,16.16,-1.22,31.46
7,156640444,0.1284,0.9917,0.0415,16.71,-2.20,31.59
8,156645441,0.1309,0.9863,0.0347,17.26,-2.93,31.77
9,156650442,0.1309,0.9912,0.0259,17.68,-3.78,31.89
10,156655441,0.1338,0.9819,0.0200,18.35,-4.57,31.95
11,156660470,0.1416,0.9805,0.0190,18.90,-5.18,32.07
12,156665442,0.1426,0.9785,0.0156,19.63,-6.04,31.95
13,156670444,0.1445,0.9746,0.0122,20.30,-6.59,31.89
14,156675440,0.1499,0.9751,0.0117,21.16,-7.20,31.83
15,156680442,0.1533,0.9692,-0.0005,21.83,-7.68,31.65
16,156685441,0.1523,0.9688,0.0029,22.87,-8.29,31.52
17,156690442,0.1577,0.9629,0.0015,23.78,-9.09,31.16
18,156695441,0.1641,0.9585,-0.0156,24.76,-9.51,30.91
19,156700440,0.1660,0.9526,-0.0117,25.61,-10.00,30.67
20,156705442,0.1699,0.9448,-0.0176,26.34,-10.49,30.30
21,156710443,0.1768,0.9409,-0.0220,26.95,-10.91,30.00
22,156715584,0.1821,0.9336,-0.0229,27.32,-11.40,29.70
23,156720442,0.1890,0.9268,-0.0269,27.80,-11.71,29.27
24,156725484,0.1953,0.9199,-0.0303,27.99,-12.13,29.15
25,156730444,0.1992,0.9165,-0.0317,27.99,-12.44,28.78
26,156735485,0.1963,0.9043,-0.0381,27.87,-12.80,28.48
27,156740440,0.2061,0.9014,-0.0356,27.74,-13.05,28.23
28,156745442,0.2114,0.8950,-0.0381,27.26,-13.29,27.99
29,156750441,0.2124,0.8896,-0.0435,26.83,-13.78,27.74
30,156755442,0.2192,0.8853,-0.0508,26.16,-13.96,27.50
31,156760442,0.2192,0.8828,-0.0474,25.24,-14.27,27.26
32,156765441,0.2212,0.8779,-0.0488,24.57,-14.45,27.13
33,156770442,0.2280,0.8740,-0.0518,23.60,-14.94,26.77
34,156775442,0.2236,0.8740,-0.0581,22.56,-15.24,26.52
35,156780452,0.2329,0.8755,-0.0669,21.46,-15.43,26.34
36,156785442,0.2310,0.8706,-0.0703,20.49,-15.67,26.10
37,156790442,0.2310,0.8726,-0.0713,19.57,-16.16,25.98
38,156795441,0.2324,0.8730,-0.0845,18.78,-16.28,25.61
39,156800442,0.2314,0.8687,-0.0791,18.11,-16.77,25.37
40,156805441,0.2285,0.8750,-0.0840,17.56,-16.89,25.18
41,156810442,0.2280,0.8706,-0.0854,17.20,-17.07,25.00
42,156815441,0.2319,0.8687,-0.0864,16.71,-17.26,24.82
43,156820440,0.2280,0.8794,-0.0947,16.40,-17.62,24.51
44,156825443,0.2241,0.8818,-0.1025,16.10,-17.80,24.33
45,156830442,0.2305,0.8799,-0.1074,15.79,-18.23,23.96
46,156835442,0.2261,0.8848,-0.1094,15.61,-18.29,23.90
47,156840442,0.2261,0.8857,-0.1182,15.30,-18.54,23.60
48,156845442,0.2163,0.8940,-0.1138,15.12,-18.78,23.35
49,156850442,0.2163,0.8945,-0.1226,15.00,-18.84,23.11
50,156855442,0.2183,0.8970,-0.1338,14.57,-19.02,22.74
51,156860442,0.2114,0.9048,-0.1431,14.15,-19.21,22.32
52,156865442,0.2134,0.9102,-0.1489,13.48,-19.45,22.01
53,156870442,0.2109,0.9194,-0.1577,12.74,-19.76,21.52
54,156875442,0.2095,0.9272,-0.1631,12.01,-20.12,20.98
55,156880442,0.2090,0.9331,-0.1733,11.52,-20.37,20.43
56,156885442,0.2070,0.9370,-0.1777,11.04,-20.30,19.82
57,156890442,0.2070,0.9399,-0.1841,10.30,-20.43,19.15
58,156895442,0.2090,0.9463,-0.1919,9.82,-20.79,18.48
59,156900442,0.2114,0.9478,-0.1982,9.15,-20.91,17.80
60,156905442,0.2104,0.9453,-0.1958,8.54,-20.79,17.38
61,156910442,0.2119,0.9438,-0.2002,7.93,-20.79,16.71
62,156915442,0.2095,0.9458,-0.2036,7.44,-20.61,16.22
63,156920477,0.2080,0.9375,-0.2158,6.83,-20.43,15.85
64,156925444,0.2021,0.9365,-0.2188,6.22,-20.18,15.55
65,156930442,0.2051,0.9355,-0.2231,5.98,-19.76,15.30
66,156935443,0.2041,0.9336,-0.2261,5.79,-18.96,15.12
67,156940443,0.2026,0.9297,-0.2231,6.04,-18.41,15.12
68,156945442,0.1997,0.9380,-0.2319,6.40,-17.74,15.12
69,156950442,0.1865,0.9336,-0.2427,7.20,-16.83,15.18
70,156955442,0.1836,0.9326,-0.2466,8.23,-15.98,15.37
71,156960442,0.1841,0.9331,-0.2446,9.21,-14.82,15.61
72,156965442,0.2104,0.9438,-0.2441,10.43,-13.48,16.04
73,156970440,0.1885,0.9316,-0.2666,11.71,-12.20,16.52
74,156975443,0.1841,0.9297,-0.2651,12.80,-10.73,16.89
75,156980442,0.1821,0.9268,-0.2871,14.09,-9.27,17.56
76,156985442,0.1831,0.9287,-0.2827,15.24,-7.62,18.17
77,156990443,0.1870,0.9292,-0.2783,16.28,-5.98,18.96
78,156995442,0.1929,0.9307,-0.2842,17.32,-4.21,19.70
79,157000442,0.2036,0.9292,-0.2935,18.48,-2.44,20.43
80,157005442,0.2114,0.9287,-0.3003,19.45,-0.67,21.46
81,157010442,0.2163,0.9292,-0.2979,20.24,1.28,22.32
82,157015442,0.2173,0.9312,-0.3159,21.22,2.93,23.17
83,157020441,0.2251,0.9307,-0.3237,22.01,4.57,24.09
84,157025442,0.2314,0.9307,-0.3276,22.74,6.10,25.00
85,157030443,0.2412,0.9272,-0.3281,23.41,7.74,25.91
86,157035442,0.2573,0.9253,-0.3398,24.21,9.15,26.77
87,157040442,0.2705,0.9268,-0.3413,24.76,10.73,27.62
88,157045442,0.2817,0.9224,-0.3481,25.06,12.26,28.48
89,157050442,0.2930,0.9229,-0.3530,25.43,13.66,29.39
90,157055442,0.3008,0.9224,-0.3569,25.55,14.88,30.24
91,157060442,0.2993,0.9131,-0.3735,25.67,16.34,31.16
92,157065442,0.2974,0.9058,-0.3799,25.98,17.38,32.26
93,157070442,0.3032,0.8955,-0.3823,26.22,18.66,33.35
94,157075442,0.3140,0.8921,-0.3857,26.52,19.88,34.39
95,157080442,0.3252,0.8911,-0.3965,26.77,21.04,35.55
96,157085442,0.3330,0.8892,-0.3979,27.26,22.32,36.71
97,157090442,0.3442,0.8784,-0.3975,27.99,23.48,37.93
98,157095442,0.3550,0.8750,-0.4087,28.60,24.63,39.21
99,157100440,0.3628,0.8682,-0.4185,29.51,25.67,40.55
100,157105442,0.3682,0.8604,-0.4229,30.98,26.71,41.83
101,157110442,0.3755,0.8628,-0.4243,32.62,27.80,43.11
102,157115441,0.3804,0.8618,-0.4326,34.51,28.78,44.39
103,157120442,0.3833,0.8691,-0.4419,36.89,29.94,45.43
104,157125616,0.3911,0.8726,-0.4561,39.51,30.98,46.52
105,157130442,0.3950,0.8691,-0.4614,42.13,32.01,47.56
106,157135440,0.3979,0.8696,-0.4683,44.63,33.35,48.54
107,157140440,0.4092,0.8623,-0.4780,47.20,34.51,49.57
108,157145442,0.4136,0.8608,-0.4858,49.45,35.85,50.43
109,157150442,0.4204,0.8555,-0.4897,51.40,37.01,51.40
110,157155442,0.4248,0.8535,-0.4995,53.11,38.23,52.26
111,157160442,0.4297,0.8555,-0.5083,54.57,39.51,53.05
112,157165442,0.4380,0.8540,-0.5137,55.79,40.73,53.90
113,157170443,0.4468,0.8525,-0.5264,56.77,41.77,54.70
114,157175442,0.4604,0.8525,-0.5352,57.56,42.93,55.30
115,157180442,0.4668,0.8462,-0.5479,58.11,44.02,55.91
116,157185442,0.4731,0.8350,-0.5503,58.41,44.76,56.34
117,157190441,0.4785,0.8330,-0.5615,58.96,46.10,57.26
118,157196591,0.4702,0.8721,-0.6094,60.37,47.07,57.80
119,157200502,0.4731,0.8569,-0.5898,62.26,47.38,57.93
120,157205440,0.4976,0.7656,-0.5376,64.45,48.29,58.29
121,157210442,0.5352,0.7383,-0.5210,66.59,49.94,59.33
122,157215440,0.5166,0.7690,-0.5405,67.93,51.59,60.61
123,157220440,0.4951,0.7725,-0.5625,68.72,52.99,61.65
124,157225441,0.4956,0.7744,-0.5737,68.90,54.27,62.50
125,157230440,0.5010,0.7656,-0.5640,68.84,55.55,63.35
126,157235442,0.5112,0.7632,-0.5576,68.48,57.20,64.02
127,157240442,0.5215,0.7578,-0.5532,68.23,58.54,64.82
128,157245442,0.5249,0.7510,-0.5557,67.50,59.82,65.37
129,157250442,0.5254,0.7495,-0.5435,66.83,61.10,66.04
130,157255441,0.5264,0.7832,-0.5571,66.52,62.20,66.40
131,157260442,0.5225,0.7925,-0.5645,66.89,62.87,66.28
132,157265441,0.5581,0.7095,-0.4961,68.41,63.54,66.22
133,157270442,0.5859,0.6753,-0.4517,69.15,64.76,67.01
134,157275441,0.5698,0.6934,-0.4370,69.21,66.34,67.68
135,157280442,0.5454,0.7051,-0.4517,69.02,67.74,68.23
136,157285441,0.5459,0.7041,-0.4707,68.72,68.66,68.60
137,157290444,0.5586,0.6982,-0.4629,68.05,69.70,68.78
138,157295441,0.5640,0.6987,-0.4346,67.62,70.73,69.02
139,157300442,0.6519,0.6646,-0.8677,68.11,68.29,69.21
140,157305441,0.6821,0.6299,-0.2441,69.70,64.82,69.76
141,157310442,0.8296,0.5391,-0.3096,73.05,62.32,70.85
142,157315441,0.7803,0.6968,-0.7803,77.87,58.84,71.71
143,157320440,0.6279,0.7886,-0.3755,81.89,57.20,71.40
144,157325502,0.5864,0.8589,-0.0757,84.57,58.29,70.55
145,157330440,0.6206,0.8657,-0.4614,86.04,58.05,68.41
146,157335442,0.6470,0.8149,-0.6421,86.04,56.04,65.67
147,157340442,0.5864,0.7393,-0.2515,84.45,56.46,62.62
148,157345441,0.5005,0.7324,-0.1162,82.32,58.90,60.00
149,157350444,0.4570,0.7661,-0.4448,80.91,60.18,57.38
150,157355441,0.4419,0.8057,-0.5078,80.24,60.73,54.45
151,157360442,0.4385,0.8223,-0.1699,79.09,63.11,51.46
152,157365441,0.4517,0.8120,-0.1123,77.80,66.59,48.78
153,157370442,0.4824,0.7764,-0.3926,76.46,68.54,46.83
154,157375441,0.4692,0.7441,-0.4019,75.18,69.76,44.88
155,157380442,0.4482,0.7334,-0.1450,74.09,72.13,43.29
156,157385441,0.4385,0.6968,-0.1196,73.23,75.00,41.95
157,157390442,0.4722,0.7261,-0.3379,73.29,76.95,41.40
158,157395441,0.4800,0.7314,-0.2593,73.90,78.54,40.43
159,157400442,0.4956,0.7476,-0.0645,74.51,80.98,39.33
160,157405441,0.5015,0.7886,-0.1548,75.49,83.66,38.05
161,157410442,0.5488,0.7808,-0.2695,76.71,84.27,36.52
162,157415441,0.5874,0.7856,-0.1655,77.56,85.18,34.88
163,157420442,0.6108,0.7715,-0.0654,77.74,85.98,32.99
164,157425442,0.6455,0.7627,-0.1670,77.20,85.85,30.91
165,157430440,0.6787,0.7515,-0.2402,76.59,83.29,28.90
166,157435442,0.6987,0.7681,-0.1235,75.12,83.29,26.83
167,157440443,0.7231,0.7656,-0.0811,72.93,82.01,24.33
168,157445443,0.7427,0.7861,-0.1670,71.10,81.40,22.74
169,157450441,0.7612,0.7822,-0.2100,68.90,79.76,20.73
170,157455441,0.7700,0.7676,-0.0947,66.22,78.35,19.09
171,157460442,0.7754,0.7568,-0.0498,63.29,77.26,17.50
172,157465441,0.7852,0.7471,-0.1533,60.30,75.73,16.22
173,157470444,0.8032,0.7432,-0.1763,57.74,73.84,14.94
174,157475441,0.7979,0.7427,-0.0728,54.94,71.95,14.02
175,157480442,0.8125,0.7437,-0.0376,52.74,70.12,13.29
176,157485441,0.8149,0.7441,-0.0771,50.91,67.93,12.87
177,157490444,0.7998,0.7480,-0.0474,49.27,66.28,12.62
178,157495441,0.7803,0.7466,0.0195,47.56,65.37,12.62
179,157500442,0.7881,0.7373,-0.0054,46.04,64.39,12.74
180,157505441,0.8057,0.7227,-0.0645,44.70,63.11,13.23
181,157510444,0.8164,0.7124,-0.0552,43.72,61.83,13.84
182,157515441,0.8115,0.7153,-0.0225,43.11,60.79,14.63
183,157520442,0.8115,0.7178,-0.0405,43.35,59.76,15.79
184,157525440,0.8154,0.7197,-0.0884,43.84,58.60,17.13
185,157530440,0.8164,0.7202,-0.0767,45.43,57.32,18.54
186,157535441,0.8306,0.7134,-0.0522,47.99,56.34,20.30
187,157540444,0.8472,0.6997,-0.0859,51.28,54.94,22.44
188,157545441,0.8594,0.6953,-0.1030,55.61,53.66,24.94
189,157550442,0.8677,0.6909,-0.0884,60.67,52.80,27.62
190,157555441,0.8794,0.6973,-0.0952,66.52,52.13,30.43
191,157560442,0.8882,0.7056,-0.1357,72.56,51.59,33.48
192,157565441,0.8989,0.7041,-0.1636,79.21,51.34,36.59
193,157570442,0.9214,0.7227,-0.1743,85.73,51.34,39.39
194,157575441,0.9248,0.7329,-0.2070,92.01,51.46,41.95
195,157580442,0.9209,0.7549,-0.2471,97.87,52.07,44.21
196,157585441,0.9307,0.7627,-0.2754,102.99,52.50,46.04
197,157590718,0.9409,0.7744,-0.3159,107.56,53.23,47.44
198,157595443,0.9463,0.7832,-0.3550,111.40,53.96,48.29
199,157600441,0.9575,0.7847,-0.3955,114.76,54.88,48.96
200,157605445,0.9580,0.7881,-0.4336,117.80,55.79,49.70
201,157610442,0.9561,0.7837,-0.4712,120.55,56.89,50.18
202,157615441,0.9595,0.7812,-0.5132,123.23,58.23,50.73
203,157620990,0.9590,0.7754,-0.5591,126.34,59.82,51.10
204,157625444,0.9580,0.7681,-0.5786,127.38,60.98,51.34
205,157630440,0.9556,0.7578,-0.5977,129.39,62.26,51.65
206,157635996,0.9507,0.7495,-0.6235,129.70,63.90,51.89
207,157640732,0.9424,0.7388,-0.6387,132.13,65.61,52.01
208,157645885,0.9370,0.7261,-0.6636,132.93,67.32,52.01
209,157650817,0.9219,0.7256,-0.6797,133.66,68.90,51.83
210,157655443,0.9014,0.7124,-0.6816,133.96,70.73,51.46
211,157660442,0.8765,0.6997,-0.6948,134.27,72.26,50.73
212,157665442,0.8340,0.6924,-0.7129,133.90,73.78,49.70
213,157670441,0.7881,0.6855,-0.7046,133.23,75.37,48.23
214,157675442,0.7847,0.6675,-0.6924,131.28,76.71,46.40
215,157680442,0.7788,0.6606,-0.7031,131.04,78.35,44.51
216,157685442,0.7681,0.6494,-0.6904,128.72,79.88,42.38
217,157690441,0.7529,0.6338,-0.6533,125.43,81.59,40.30
218,157695442,0.7319,0.6099,-0.6729,121.95,83.72,38.35
219,157700442,0.6621,0.5991,-0.6641,118.66,85.98,36.52
220,157705442,0.7012,0.5742,-0.6172,115.61,85.98,34.76
221,157710441,0.7300,0.5151,-0.6318,113.17,89.09,33.60
222,157715494,0.6792,0.4453,-0.6538,111.59,91.34,33.23
223,157720444,0.6309,0.4741,-0.6187,110.43,93.72,33.05
224,157725442,0.5942,0.4648,-0.6274,109.88,96.04,32.68
225,157730442,0.5459,0.4429,-0.6567,109.27,98.23,32.01
226,157735442,0.5205,0.4473,-0.6030,109.27,100.30,31.34
227,157740440,0.4966,0.4517,-0.5786,109.76,102.93,30.49
228,157745443,0.4800,0.4487,-0.5874,110.43,104.88,29.45
229,157750442,0.4819,0.4463,-0.5396,111.28,107.01,28.41
230,157755441,0.4980,0.4517,-0.5142,112.38,109.15,27.07
231,157760442,0.5073,0.4648,-0.4971,113.72,111.04,25.43
232,157765442,0.5088,0.4561,-0.4692,115.12,112.87,23.84
233,157770442,0.5020,0.4502,-0.4458,116.83,114.63,22.07
234,157775442,0.4893,0.4468,-0.4282,118.48,116.22,20.43
235,157780442,0.4727,0.4385,-0.4146,120.43,117.56,18.41
236,157785442,0.4624,0.4297,-0.3818,122.13,118.90,16.65
237,157790442,0.4521,0.4219,-0.3574,123.78,120.30,14.63
238,157795442,0.4565,0.4072,-0.3354,125.67,121.40,12.62
239,157800442,0.4526,0.4038,-0.3276,127.87,122.38,10.55
240,157805443,0.4443,0.3823,-0.3091,130.06,123.29,8.66
241,157810442,0.4351,0.3677,-0.2979,130.24,124.27,6.89
242,157815442,0.4243,0.3574,-0.2871,133.54,124.88,5.24
243,157820512,0.3804,0.3589,-0.2666,136.46,125.55,3.48
244,157825442,0.3687,0.3579,-0.2422,139.45,126.22,1.65
245,157830442,0.3755,0.3599,-0.2178,142.20,126.95,-0.43
246,157835442,0.3789,0.3652,-0.2046,144.57,127.50,-2.74
247,157840574,0.3745,0.3672,-0.1914,146.65,127.93,-5.12
248,157845440,0.3623,0.3574,-0.1792,148.29,128.05,-7.80
249,157850442,0.3389,0.3491,-0.1660,149.45,128.11,-10.37
250,157855441,0.3086,0.3477,-0.1328,150.18,128.05,-13.11
251,157860442,0.3237,0.3491,-0.1309,150.43,127.93,-15.98
252,157865441,0.3384,0.3452,-0.1104,150.18,127.62,-18.90
253,157870442,0.3369,0.3379,-0.0977,149.70,127.07,-21.77
254,157875441,0.3335,0.3311,-0.0771,148.60,126.10,-24.63
255,157880442,0.3237,0.3237,-0.0786,147.44,124.82,-27.44
256,157885441,0.2998,0.3237,-0.0562,146.22,123.29,-29.88
257,157890442,0.2847,0.3223,-0.0156,144.88,121.52,-32.44
258,157895441,0.2793,0.3237,0.0181,143.48,120.30,-34.88
259,157900442,0.2871,0.3423,-0.0039,141.83,119.02,-37.44
260,157905441,0.2979,0.3359,0.0430,140.43,117.38,-39.94
261,157910444,0.3032,0.3301,0.0503,139.51,116.10,-42.38
262,157915441,0.2896,0.3311,0.0444,138.41,114.45,-44.94
263,157920442,0.2939,0.3110,0.0620,137.38,112.87,-47.80
264,157925441,0.3105,0.3130,0.0449,136.59,110.73,-50.67
265,157930444,0.2910,0.3115,0.0845,135.91,108.72,-53.66
266,157935441,0.2817,0.3403,0.0776,135.18,106.89,-56.34
267,157940443,0.2900,0.3350,0.1216,133.84,104.39,-60.73
268,157945441,0.2988,0.3169,0.1118,133.60,102.62,-63.90
269,157950444,0.3096,0.3125,0.1260,132.80,100.30,-68.05
270,157955441,0.3188,0.3120,0.1470,133.05,97.93,-72.20
271,157960442,0.3296,0.3154,0.1514,133.60,95.73,-76.59
272,157965441,0.3340,0.3179,0.1553,135.00,93.54,-80.79
273,157970442,0.3320,0.3115,0.1548,137.13,91.52,-85.24
274,157975441,0.3374,0.3091,0.1572,140.00,89.51,-89.45
275,157980442,0.3223,0.3115,0.1704,143.35,85.98,-93.84
276,157985441,0.3125,0.3154,0.1665,146.89,85.06,-98.23
277,157990442,0.3057,0.3208,0.1670,150.12,84.57,-102.80
278,157995442,0.3027,0.3247,0.1704,153.23,81.52,-107.44
279,158000442,0.3008,0.3354,0.1772,155.91,79.21,-112.26
280,158005441,0.2861,0.3423,0.1772,158.11,76.95,-117.13
281,158010444,0.2744,0.3521,0.1846,159.51,74.63,-122.13
282,158015441,0.2769,0.3608,0.1982,160.30,72.44,-127.13
283,158020442,0.2705,0.3643,0.1973,160.43,70.30,-132.56
284,158025441,0.2554,0.3755,0.2065,160.00,68.11,-137.74
285,158030442,0.2378,0.3867,0.2192,159.45,66.28,-143.11
286,158035441,0.2251,0.3867,0.2217,158.48,64.63,-148.60
287,158040442,0.1826,0.3794,0.2021,157.38,62.93,-153.78
288,158045441,0.1587,0.4121,0.2266,156.83,61.59,-158.96
289,158050440,0.1655,0.4233,0.2314,156.28,60.43,-163.96
290,158055442,0.1353,0.4277,0.2104,155.67,59.39,-168.84
291,158060442,0.0996,0.4272,0.1992,154.88,58.35,-173.66
292,158065441,0.0781,0.4316,0.2021,153.90,57.26,-178.17
293,158070441,0.0562,0.4429,0.1885,152.87,56.10,-182.56
294,158075446,0.0352,0.4561,0.1709,151.34,54.94,-186.59
295,158080442,0.0122,0.4756,0.1680,149.82,53.72,-190.61
296,158085441,-0.0146,0.4946,0.1694,148.05,52.38,-194.33
297,158090444,-0.0322,0.5186,0.1519,146.22,51.04,-197.87
298,158095441,-0.0547,0.5449,0.1470,144.39,49.63,-201.28
299,158100442,-0.0811,0.5708,0.1436,142.68,47.99,-204.51
300,158105441,-0.1216,0.6001,0.1357,141.52,46.52,-207.56
301,158110442,-0.1528,0.6289,0.1372,140.67,45.00,-210.30
302,158115441,-0.1982,0.6587,0.1343,140.43,43.41,-213.11
303,158120442,-0.2427,0.7002,0.1255,140.91,41.71,-215.67
304,158125442,-0.2388,0.7158,0.1147,142.50,39.94,-218.11
305,158130442,-0.2598,0.7402,0.1401,144.33,38.17,-220.24
306,158135442,-0.3018,0.7627,0.1465,146.34,36.28,-222.26
307,158140440,-0.3457,0.7793,0.1479,148.05,34.57,-224.33
308,158145440,-0.3906,0.8105,0.1572,149.33,32.68,-226.10
309,158150440,-0.4062,0.8193,0.1631,149.70,30.67,-228.11
310,158155440,-0.4482,0.8315,0.1592,149.39,28.72,-229.82
311,158160444,-0.4810,0.8657,0.1621,147.99,26.59,-231.65
312,158165441,-0.5200,0.8999,0.1646,145.67,24.39,-233.35
313,158170442,-0.5518,0.9390,0.1509,142.87,22.26,-235.18
314,158175441,-0.5752,0.9844,0.1392,139.70,19.94,-237.01
315,158180442,-0.6074,1.0288,0.1313,136.59,17.44,-238.48
316,158185441,-0.6396,1.0620,0.1309,133.41,15.00,-239.88
317,158190442,-0.6816,1.0859,0.1543,129.27,12.56,-240.67
318,158195445,-0.7173,1.1133,0.1567,126.89,10.24,-241.34
319,158200444,-0.7773,1.1279,0.1821,121.40,8.05,-241.77
320,158205442,-0.8145,1.1421,0.1982,115.06,5.73,-241.77
321,158210444,-0.8535,1.1494,0.2036,107.56,3.29,-241.65
322,158215441,-0.8901,1.1641,0.2256,98.66,0.73,-241.28
323,158220444,-0.9224,1.1650,0.2588,88.54,-2.01,-240.67
324,158225441,-0.9595,1.1709,0.2808,77.38,-4.94,-240.12
325,158230444,-0.9946,1.1650,0.3096,65.55,-8.11,-239.39
326,158235441,-1.0356,1.1631,0.3320,53.72,-11.52,-238.35
327,158240442,-1.0869,1.1670,0.3530,42.26,-15.00,-237.20
328,158245441,-1.1274,1.1841,0.3696,31.59,-18.90,-236.04
329,158250456,-1.1475,1.2036,0.3760,22.26,-23.05,-234.63
330,158255440,-1.1670,1.2231,0.3857,14.88,-27.62,-233.05
331,158260444,-1.1777,1.2559,0.3945,9.94,-32.62,-231.22
332,158265442,-1.2021,1.2891,0.3984,7.99,-38.11,-229.02
333,158270442,-1.2305,1.3110,0.4053,8.54,-44.21,-226.52
334,158275442,-1.2490,1.3389,0.4033,11.46,-50.73,-223.72
335,158280443,-1.2681,1.3335,0.4165,15.85,-58.11,-220.85
336,158285442,-1.2754,1.3413,0.4409,21.83,-66.28,-217.68
337,158290442,-1.2949,1.3452,0.4526,29.15,-74.94,-214.27
338,158295442,-1.3198,1.3374,0.4600,37.38,-84.63,-210.91
339,158300442,-1.3486,1.3281,0.4712,46.83,-94.82,-207.44
340,158305442,-1.3911,1.3306,0.4644,56.83,-106.10,-203.96
341,158310442,-1.4092,1.3516,0.4736,69.76,-120.43,-199.76
342,158315442,-1.4277,1.3687,0.4883,79.33,-130.30,-197.01
343,158320462,-1.4614,1.3901,0.4985,92.07,-143.54,-193.35
344,158325442,-1.4995,1.4067,0.4995,106.22,-157.07,-189.51
345,158330443,-1.5278,1.4307,0.5176,121.34,-171.22,-185.18
346,158335442,-1.5830,1.4375,0.5132,135.79,-185.79,-180.79
347,158340442,-1.6353,1.4336,0.4888,150.06,-201.10,-175.67
348,158345442,-1.6426,1.4434,0.5010,163.72,-216.77,-170.06
349,158350442,-1.7031,1.4346,0.4585,176.65,-232.68,-164.02
350,158355442,-1.7466,1.4341,0.4326,187.44,-248.84,-157.26
351,158360443,-1.7456,1.4668,0.3809,196.52,-265.49,-149.94
352,158365442,-1.8013,1.4663,0.3477,203.84,-282.07,-142.13
353,158370442,-1.8730,1.4561,0.2920,208.84,-298.48,-133.84
354,158375442,-1.9546,1.4497,0.2769,211.95,-314.51,-125.00
355,158380442,-2.0190,1.4546,0.2397,213.78,-329.82,-115.67
356,158385442,-2.0894,1.4702,0.1958,214.15,-344.76,-105.85
357,158390642,-2.1514,1.4883,0.1470,213.23,-359.15,-95.73
358,158395442,-2.2183,1.5107,0.1025,211.28,-372.99,-85.18
359,158400441,-2.2759,1.5259,0.0596,208.48,-386.10,-74.27
360,158405440,-2.3682,1.5278,0.0020,204.70,-398.78,-63.11
361,158410443,-2.4541,1.5303,-0.0425,200.49,-410.85,-51.34
362,158415442,-2.5249,1.5435,-0.0938,195.43,-422.13,-39.33
363,158420443,-2.5986,1.5430,-0.1426,190.00,-433.11,-27.13
364,158425442,-2.6646,1.5571,-0.1753,184.94,-443.48,-14.88
365,158430444,-2.7373,1.5664,-0.2305,180.12,-453.29,-2.50
366,158435441,-2.8145,1.5815,-0.2842,175.98,-462.80,10.06
367,158440444,-2.8965,1.5952,-0.3301,172.44,-471.65,22.62
368,158445441,-2.9766,1.6016,-0.3804,170.06,-480.06,35.30
369,158450442,-3.0571,1.6108,-0.4204,168.35,-487.93,48.11
370,158455442,-3.1387,1.6191,-0.4521,167.38,-495.37,60.98
371,158460443,-3.2075,1.6240,-0.4868,167.32,-502.26,74.09
372,158465443,-3.2871,1.6299,-0.5371,167.62,-508.84,86.89
373,158470442,-3.3789,1.6455,-0.5503,167.62,-515.00,100.37
374,158475442,-3.4741,1.6523,-0.5811,167.32,-520.91,113.54
375,158480440,-3.5508,1.6611,-0.6167,166.77,-526.71,126.77
376,158485442,-3.6294,1.6816,-0.6387,166.77,-532.07,139.94
377,158490443,-3.7134,1.7041,-0.6543,167.38,-537.38,153.48
378,158495442,-3.8081,1.7280,-0.6660,168.84,-541.89,166.71
379,158500443,-3.9214,1.7378,-0.6816,171.34,-545.91,180.00
380,158505444,-4.0303,1.7642,-0.6851,174.27,-549.21,193.29
381,158510442,-4.1172,1.7646,-0.6919,177.87,-551.77,206.71
382,158515442,-4.2036,1.7759,-0.6963,181.52,-553.23,219.88
383,158520440,-4.2861,1.7920,-0.7275,185.06,-553.90,232.87
384,158525440,-4.3545,1.8042,-0.7451,187.87,-553.72,245.43
385,158530444,-4.4067,1.8198,-0.7637,189.63,-552.62,257.62
386,158535443,-4.4478,1.8311,-0.7637,189.88,-550.85,269.45
387,158540442,-4.4868,1.8306,-0.7837,187.44,-548.11,280.67
388,158545441,-4.5146,1.8369,-0.8022,182.01,-544.45,291.40
389,158550440,-4.5371,1.8340,-0.8276,173.11,-540.49,301.46
390,158555441,-4.5513,1.8354,-0.8706,160.73,-536.22,310.73
391,158560441,-4.5459,1.8237,-0.9141,146.46,-531.52,319.33
392,158565442,-4.5391,1.8037,-0.9600,131.71,-526.71,327.26
393,158570443,-4.5342,1.8037,-1.0283,115.30,-521.83,334.51
394,158575442,-4.5278,1.7896,-1.0737,99.70,-516.59,341.16
395,158580441,-4.4917,1.7856,-1.1372,85.00,-511.40,347.26
396,158585442,-4.4546,1.7808,-1.2046,71.71,-506.40,352.56
397,158590442,-4.4150,1.7861,-1.2681,60.43,-500.79,357.26
398,158595442,-4.3652,1.8066,-1.3237,51.28,-495.18,361.52
399,158600441,-4.3286,1.8262,-1.3862,44.63,-488.96,365.67
400,158605442,-4.2695,1.8359,-1.4248,39.88,-482.32,369.21
401,158610442,-4.2266,1.8794,-1.4795,37.50,-474.94,372.93
402,158615442,-4.1680,1.9009,-1.5439,37.44,-467.20,376.71
403,158620443,-4.1035,1.9219,-1.5762,38.54,-459.09,380.67
404,158625442,-4.0488,1.9375,-1.6177,40.98,-450.12,385.12
405,158630442,-3.9917,1.9326,-1.6689,44.76,-440.49,390.30
406,158635442,-3.9282,1.9380,-1.7070,48.78,-430.30,396.40
407,158640444,-3.8740,1.9277,-1.7510,52.93,-419.39,403.35
408,158645442,-3.8184,1.9253,-1.8013,56.22,-410.30,409.51
409,158650507,-3.7559,1.8970,-1.8604,59.57,-396.10,419.63
410,158655442,-3.7139,1.8916,-1.8979,60.73,-386.22,426.95
411,158660443,-3.6562,1.8687,-1.9390,60.61,-373.72,436.46
412,158665442,-3.5908,1.8423,-1.9536,58.41,-360.73,446.22
413,158670443,-3.5376,1.8027,-1.9712,54.45,-347.62,456.28
414,158675442,-3.4980,1.7637,-1.9766,49.88,-334.15,466.71
415,158680442,-3.4482,1.7305,-1.9956,45.06,-320.43,477.26
416,158685442,-3.4214,1.6934,-2.0039,39.21,-306.59,487.68
417,158690442,-3.3921,1.6367,-2.0181,32.80,-293.48,498.05
418,158695442,-3.3750,1.5889,-2.0034,26.83,-280.30,508.41
419,158700451,-3.3486,1.5342,-1.9844,20.73,-267.50,518.29
420,158705443,-3.3149,1.4839,-1.9858,15.61,-254.88,527.99
421,158710442,-3.3071,1.4326,-1.9541,11.04,-242.50,537.01
422,158715483,-3.3047,1.3716,-1.9272,6.71,-230.18,545.49
423,158720443,-3.2769,1.3110,-1.8916,3.35,-218.11,553.54
424,158725442,-3.2266,1.2461,-1.8623,1.22,-206.46,560.55
425,158730442,-3.1680,1.1792,-1.8271,-1.16,-192.44,568.11
426,158735444,-3.1392,1.1289,-1.7993,-2.62,-183.41,572.26
427,158740443,-3.1074,1.0649,-1.7686,-4.02,-172.68,576.71
428,158745442,-3.0693,1.0078,-1.7485,-5.00,-162.13,580.24
429,158750442,-3.0283,0.9458,-1.7266,-5.98,-151.89,582.87
430,158755442,-2.9956,0.8853,-1.7085,-6.77,-142.01,584.63
431,158760442,-2.9556,0.8257,-1.6680,-7.20,-132.50,585.43
432,158765442,-2.8989,0.7632,-1.6343,-7.87,-123.54,585.61
433,158770440,-2.8296,0.7007,-1.5938,-8.23,-114.70,584.94
434,158775444,-2.7744,0.6313,-1.5669,-8.41,-106.04,583.54
435,158780442,-2.7163,0.5728,-1.5503,-8.84,-97.80,581.65
436,158785441,-2.6294,0.5200,-1.5098,-9.15,-89.76,579.15
437,158790442,-2.5498,0.4727,-1.4927,-8.35,-81.95,576.04
438,158795441,-2.5068,0.4194,-1.4561,-6.83,-74.70,572.50
439,158800442,-2.4258,0.3760,-1.4175,-3.90,-67.13,568.66
440,158805441,-2.3325,0.3379,-1.4062,0.49,-59.45,564.39
441,158810442,-2.2026,0.2817,-1.3643,5.67,-52.01,559.63
442,158815441,-2.1260,0.2188,-1.3232,11.83,-44.27,554.33
443,158820442,-2.0742,0.1650,-1.3149,17.80,-36.34,548.48
444,158825441,-2.0049,0.0967,-1.2812,23.35,-28.11,541.71
445,158830442,-1.9351,0.0303,-1.2510,27.93,-19.21,534.51
446,158835441,-1.8735,-0.0396,-1.2480,30.55,-10.24,526.77
447,158840442,-1.8237,-0.1108,-1.2358,31.16,-1.52,518.66
448,158845441,-1.7803,-0.1982,-1.1929,29.51,7.26,510.00
449,158850442,-1.7681,-0.2666,-1.1929,26.22,15.67,501.16
450,158855474,-1.7358,-0.3276,-1.1836,22.26,23.54,492.13
451,158860442,-1.6611,-0.3789,-1.1318,17.44,31.16,482.99
452,158865441,-1.6401,-0.4331,-1.1040,12.44,38.54,473.72
453,158870673,-1.6143,-0.4897,-1.1143,6.77,45.37,464.70
454,158875442,-1.5366,-0.5327,-1.0630,2.01,51.83,455.49
455,158880443,-1.5244,-0.5693,-1.0498,-1.52,58.05,446.16
456,158885442,-1.4380,-0.6035,-1.0312,-4.33,64.27,436.95
457,158890442,-1.4375,-0.6479,-0.9893,-6.77,69.39,427.99
458,158895442,-1.4102,-0.6797,-0.9502,-7.68,74.70,418.96
459,158900442,-1.3579,-0.7026,-0.9604,-6.28,79.70,410.30
460,158905442,-1.3271,-0.7129,-0.9512,-3.23,83.54,401.89
461,158910442,-1.3164,-0.7661,-0.8633,0.79,88.35,393.48
462,158915442,-1.3052,-0.7920,-0.8604,5.12,93.60,385.43
463,158920442,-1.2695,-0.7983,-0.8848,10.06,97.80,377.74
464,158925442,-1.2656,-0.8276,-0.8066,14.51,101.89,370.18
465,158931411,-1.2515,-0.8657,-0.7305,18.35,107.07,361.34
466,158935443,-1.2441,-0.8975,-0.7256,19.82,110.30,355.67
467,158940539,-1.2456,-0.9414,-0.6572,20.73,114.27,348.90
468,158945442,-1.2441,-0.9727,-0.5938,20.18,118.11,342.26
469,158950442,-1.2241,-1.0034,-0.5571,18.60,121.89,335.43
470,158955442,-1.2476,-1.0479,-0.4844,16.22,125.37,329.15
471,158960440,-1.2202,-1.0898,-0.4077,13.23,128.90,322.87
472,158965441,-1.2065,-1.1177,-0.3945,10.24,131.83,316.65
473,158970442,-1.2061,-1.1528,-0.3149,7.44,134.94,310.49
474,158975444,-1.1973,-1.1899,-0.2686,4.33,137.87,304.70
475,158980442,-1.2080,-1.2197,-0.2549,1.04,140.37,299.09
476,158985441,-1.2119,-1.2539,-0.2188,-2.44,142.56,293.60
477,158990442,-1.2158,-1.2856,-0.1729,-5.91,144.45,288.17
478,158995441,-1.2202,-1.3057,-0.1479,-8.96,145.85,282.93
479,159000442,-1.2017,-1.3369,-0.1396,-12.01,146.83,277.80
480,159005441,-1.2241,-1.3667,-0.0864,-14.76,147.38,272.87
481,159010442,-1.2368,-1.3970,-0.0581,-16.83,147.87,268.11
482,159015441,-1.2407,-1.4326,-0.0425,-18.66,147.68,263.35
483,159020442,-1.2363,-1.4771,0.0020,-20.12,147.13,258.60
484,159025441,-1.2388,-1.5127,0.0200,-21.10,146.40,254.15
485,159030440,-1.2051,-1.5278,0.0356,-21.65,145.00,249.45
486,159035442,-1.2007,-1.5776,0.0854,-22.50,143.23,244.51
487,159040443,-1.2119,-1.6338,0.1606,-22.93,141.40,239.76
488,159045442,-1.1880,-1.6528,0.1733,-22.32,139.39,234.94
489,159050442,-1.1401,-1.6626,0.1543,-20.49,136.83,230.06
490,159055442,-1.1284,-1.6587,0.2109,-17.07,133.96,224.94
491,159060442,-1.1250,-1.6655,0.2080,-12.50,130.67,219.70
492,159065442,-1.1089,-1.6890,0.2100,-6.40,126.89,214.45
493,159070441,-1.0898,-1.7017,0.2485,0.49,123.05,209.21
494,159075474,-1.0703,-1.7319,0.2778,7.07,119.27,203.60
495,159080444,-1.0117,-1.7339,0.3066,12.93,114.94,197.87
496,159085441,-0.9380,-1.7324,0.3086,18.60,110.43,191.65
497,159090442,-0.9263,-1.7583,0.3130,23.96,106.22,184.88
498,159095441,-0.8545,-1.7783,0.3325,28.66,101.46,177.56
499,159100440,-0.7827,-1.7812,0.3306,32.68,96.65,169.21
500,159105442,-0.6772,-1.7900,0.3262,36.04,91.83,160.37
501,159110442,-0.6841,-1.8062,0.3208,39.09,87.13,151.04
502,159115442,-0.6436,-1.8091,0.3081,42.68,81.95,141.59
503,159120443,-0.5991,-1.8052,0.3105,47.32,76.46,131.65
504,159125442,-0.5522,-1.8066,0.3218,53.72,71.34,121.71
505,159130442,-0.5273,-1.8096,0.3262,61.83,66.52,111.89
506,159135442,-0.4795,-1.7905,0.3237,70.73,61.34,102.01
507,159140443,-0.4331,-1.7808,0.3433,79.70,56.52,92.32
508,159145442,-0.4033,-1.7803,0.3652,87.87,51.65,82.32
509,159150442,-0.3916,-1.7651,0.3750,94.21,46.77,72.26
510,159155442,-0.3633,-1.7471,0.3779,99.27,42.26,62.32
511,159160442,-0.3535,-1.7354,0.3906,102.13,37.93,52.26
512,159165442,-0.3613,-1.7271,0.3921,103.17,33.48,42.56
513,159170441,-0.3691,-1.7007,0.3931,101.95,29.39,32.99
514,159175440,-0.3687,-1.6772,0.3975,99.39,25.24,23.35
515,159180444,-0.3633,-1.6602,0.4023,96.04,21.46,14.21
516,159185441,-0.3735,-1.6382,0.4028,92.38,17.93,5.67
517,159190442,-0.3701,-1.6138,0.4067,88.60,14.45,-2.68
518,159195444,-0.3740,-1.5884,0.4014,85.12,11.40,-10.43
519,159200442,-0.3696,-1.5654,0.4150,81.83,8.48,-17.99
520,159205441,-0.3618,-1.5327,0.4082,78.84,5.55,-25.00
521,159210442,-0.3174,-1.5112,0.4023,76.16,2.74,-31.83
522,159215441,-0.3364,-1.4863,0.3945,73.29,0.18,-38.35
523,159220442,-0.3350,-1.4575,0.3999,70.18,-2.32,-44.45
524,159225441,-0.3330,-1.4263,0.3892,67.68,-4.63,-50.24
525,159230442,-0.3140,-1.3926,0.3794,66.10,-6.83,-56.04
526,159235441,-0.1694,-1.3530,0.4473,64.70,-9.02,-61.59
527,159240442,-0.2324,-1.3374,0.4185,62.74,-11.10,-66.83
528,159245441,-0.2417,-1.3296,0.3730,60.24,-13.48,-71.52
529,159250442,-0.2808,-1.2905,0.3999,57.50,-15.85,-76.04
530,159255441,-0.2671,-1.2690,0.3960,54.82,-17.68,-80.49
531,159260442,-0.2837,-1.2603,0.3848,52.13,-19.94,-84.39
532,159265441,-0.2920,-1.2109,0.3857,48.41,-21.95,-88.05
533,159270440,-0.3579,-1.1782,0.3633,44.45,-23.90,-92.07
534,159275441,-0.3818,-1.1582,0.3389,41.34,-25.91,-95.79
535,159280444,-0.3911,-1.1504,0.2812,39.15,-27.99,-99.15
536,159285442,-0.3862,-1.0903,0.2759,36.95,-30.12,-102.20
537,159290442,-0.3501,-1.0488,0.2754,35.79,-32.32,-105.55
538,159295442,-0.3018,-1.0249,0.3018,35.24,-34.02,-108.41
539,159300442,-0.2607,-1.0044,0.2949,34.57,-35.98,-110.91
540,159305442,-0.2173,-0.9868,0.2803,33.48,-37.93,-112.93
541,159310442,-0.1909,-0.9731,0.2793,32.26,-40.12,-114.63
542,159315442,-0.1670,-0.9604,0.2827,30.85,-42.26,-116.16
543,159320442,-0.1475,-0.9502,0.2876,29.09,-44.27,-117.38
544,159325442,-0.1401,-0.9380,0.2803,27.32,-45.85,-118.35
545,159330440,-0.1279,-0.9253,0.2837,25.18,-47.68,-119.33
546,159335442,-0.1196,-0.9243,0.2783,22.87,-49.15,-119.94
547,159340443,-0.1235,-0.9268,0.2622,20.37,-50.55,-120.30
548,159345442,-0.1201,-0.9141,0.2646,17.93,-52.07,-120.55
549,159350440,-0.1084,-0.9092,0.2627,15.43,-53.29,-120.79
550,159355443,-0.0894,-0.9111,0.2754,12.74,-54.39,-120.85
551,159360442,-0.0693,-0.8965,0.2788,10.06,-55.37,-120.91
552,159365441,-0.0425,-0.8911,0.2842,7.74,-56.16,-120.98
553,159370444,-0.0049,-0.8594,0.2822,4.63,-57.20,-120.98
554,159375441,0.0269,-0.8418,0.2808,2.80,-57.74,-120.98
555,159380441,0.0547,-0.8301,0.2739,0.73,-58.54,-121.04
556,159385442,0.0728,-0.8140,0.2603,-0.61,-59.27,-120.91
557,159390443,0.0796,-0.8057,0.2368,-1.40,-59.88,-120.55
558,159395442,0.0820,-0.8057,0.2383,-1.77,-60.12,-120.00
559,159400442,0.0786,-0.8179,0.2266,-1.89,-60.67,-119.27
560,159405442,0.0703,-0.8271,0.2124,-1.89,-60.67,-118.17
561,159410442,0.0571,-0.8281,0.2158,-2.07,-60.55,-117.20
562,159415442,0.0479,-0.8267,0.1982,-2.74,-60.30,-116.10
563,159420443,0.0498,-0.8184,0.1895,-3.60,-60.24,-114.94
564,159425442,0.0659,-0.8179,0.1938,-4.33,-60.12,-113.72
565,159430442,0.0908,-0.8154,0.1831,-5.12,-59.70,-112.80
566,159435442,0.1250,-0.8340,0.1880,-5.61,-59.70,-111.77
567,159440442,0.1748,-0.8491,0.1890,-5.49,-59.27,-110.43
568,159445442,0.1714,-0.7793,0.1284,-3.48,-59.02,-108.78
569,159450442,0.1670,-0.8135,0.1929,-1.46,-58.66,-107.50
570,159455442,0.1890,-0.8350,0.1782,0.18,-58.35,-106.65
571,159460442,0.2349,-0.8374,0.1509,1.71,-57.93,-106.22
572,159465442,0.2920,-0.8174,0.1675,2.50,-57.62,-105.98
573,159470443,0.2612,-0.8159,0.1851,2.99,-57.13,-105.98
574,159475442,0.2344,-0.8135,0.1382,2.74,-57.01,-105.98
575,159480440,0.2471,-0.8110,0.1396,2.32,-56.71,-106.28
576,159485443,0.2812,-0.8076,0.1689,1.89,-55.98,-106.59
577,159490442,0.3086,-0.8105,0.1606,1.83,-55.12,-107.07
578,159495441,0.3306,-0.8140,0.1450,1.77,-54.45,-107.56
579,159500442,0.3535,-0.8101,0.1509,1.34,-53.48,-107.99
580,159505441,0.4106,-0.8486,0.1235,-0.55,-52.93,-108.11
581,159510444,0.3975,-0.8013,0.1440,-3.41,-52.62,-108.05
582,159515947,0.4072,-0.8057,0.1377,-8.11,-52.32,-108.41
583,159520444,0.4155,-0.7939,0.1313,-11.89,-52.01,-108.84
584,159525444,0.4536,-0.8145,0.1143,-17.50,-51.71,-109.09
585,159530442,0.5288,-0.8262,-0.0161,-26.95,-52.99,-109.27
586,159535441,0.4951,-0.7935,0.1265,-38.41,-53.48,-110.12
587,159540442,0.4614,-0.7583,0.2319,-49.51,-52.32,-111.83
588,159545440,0.4463,-0.7505,0.1196,-60.12,-51.34,-113.66
589,159550444,0.4751,-0.7520,-0.0298,-69.57,-51.71,-115.06
590,159555441,0.4570,-0.7622,0.1587,-77.56,-50.98,-115.67
591,159560444,0.4521,-0.7822,0.1260,-85.00,-49.39,-116.46
592,159565440,0.6089,-0.8047,-0.0229,-90.79,-49.57,-116.95
593,159570442,0.6641,-0.7231,0.0928,-91.71,-51.28,-115.79
594,159575441,0.7119,-0.8110,-0.2070,-89.21,-54.21,-113.72
595,159580441,0.6831,-0.8711,-0.0195,-83.84,-57.01,-111.04
596,159585442,0.6670,-0.8975,0.2554,-76.10,-58.17,-107.93
597,159590440,0.6841,-0.8916,0.0127,-66.46,-60.00,-105.00
598,159596030,0.7007,-0.8701,-0.1357,-53.29,-62.62,-101.83
599,159600444,0.6909,-0.7964,0.1064,-44.15,-64.70,-99.57
600,159605441,0.6870,-0.7461,0.2104,-32.87,-65.00,-96.95
601,159610442,0.6973,-0.7339,-0.0698,-21.46,-66.83,-94.27
602,159615559,0.6953,-0.7617,-0.1416,-10.06,-69.45,-91.28
603,159620445,0.6655,-0.7886,0.1133,0.73,-70.61,-88.05
604,159625441,0.6353,-0.7935,0.1455,10.18,-71.28,-84.88
605,159630442,0.6216,-0.7803,-0.0850,19.27,-72.80,-81.95
606,159635441,0.5928,-0.7393,-0.0796,27.32,-74.63,-79.21
607,159640444,0.5640,-0.6963,0.1392,33.96,-74.82,-76.46
608,159645441,0.5444,-0.6660,0.1172,39.27,-74.45,-74.27
609,159650440,0.5513,-0.6519,-0.0811,43.78,-75.30,-72.01
610,159655442,0.5444,-0.6523,-0.0063,46.95,-75.61,-70.00
611,159660445,0.5503,-0.6519,0.1758,48.66,-74.88,-68.17
612,159665441,0.5708,-0.6455,0.1177,49.45,-73.72,-66.40
613,159670692,0.5854,-0.6309,-0.0293,49.27,-73.54,-64.94
614,159675442,0.5898,-0.6050,0.0635,47.87,-72.74,-63.78
615,159680440,0.5933,-0.5820,0.1963,45.06,-71.10,-63.05
616,159685656,0.6143,-0.5679,0.1016,41.34,-69.82,-62.20
617,159690444,0.6396,-0.5625,-0.0063,36.59,-69.21,-61.83
618,159695441,0.6470,-0.5640,0.0938,31.04,-68.11,-61.40
619,159700442,0.6553,-0.5640,0.1772,24.76,-66.46,-61.34
620,159705440,0.6558,-0.5640,0.0645,17.80,-65.06,-61.40
621,159710442,0.6641,-0.5415,-0.0029,10.73,-64.39,-61.71
622,159715441,0.6416,-0.5171,0.0977,3.29,-63.29,-62.32
623,159720519,0.6235,-0.4941,0.1289,-4.45,-61.65,-63.23
624,159725442,0.6147,-0.4854,0.0088,-12.56,-60.67,-64.39
625,159730443,0.6030,-0.4805,-0.0303,-20.61,-59.82,-65.79
626,159735442,0.6035,-0.4839,0.0747,-29.02,-58.60,-67.32
627,159740441,0.6245,-0.5000,0.0752,-37.32,-57.07,-68.60
628,159745442,0.6587,-0.5112,-0.0181,-45.55,-56.22,-70.06
629,159750442,0.6812,-0.5117,-0.0195,-53.60,-55.37,-71.52
630,159755442,0.6904,-0.5107,0.0747,-61.16,-53.96,-72.93
631,159760440,0.7114,-0.5161,0.0493,-68.17,-52.56,-74.33
632,159765443,0.7393,-0.5181,-0.0288,-74.39,-51.71,-75.79
633,159770442,0.7544,-0.5151,-0.0132,-79.94,-50.85,-77.07
634,159775442,0.7603,-0.5181,0.0386,-84.76,-49.76,-78.41
635,159780441,0.7578,-0.5200,-0.0098,-88.60,-48.72,-79.70
636,159785442,0.7607,-0.5117,-0.0815,-91.65,-48.23,-81.10
637,159790442,0.7515,-0.5034,-0.0571,-93.90,-47.50,-82.56
638,159795442,0.7339,-0.5015,-0.0220,-95.61,-46.71,-83.90
639,159800443,0.7246,-0.5034,-0.0850,-96.95,-46.16,-85.49
640,159805442,0.7183,-0.5044,-0.1431,-97.87,-45.98,-86.77
641,159810443,0.7139,-0.5093,-0.1089,-98.48,-45.67,-88.17
642,159815442,0.7168,-0.5176,-0.0918,-98.66,-45.24,-89.45
643,159820443,0.7275,-0.5234,-0.1426,-98.72,-45.00,-90.49
644,159825442,0.7339,-0.5190,-0.1758,-98.17,-45.18,-91.59
645,159830442,0.7290,-0.5137,-0.1392,-97.38,-45.00,-92.62
646,159835442,0.7363,-0.5098,-0.1406,-96.22,-44.76,-93.54
647,159840441,0.7407,-0.5029,-0.1880,-94.76,-44.70,-94.39
648,159845442,0.7451,-0.4985,-0.1997,-93.11,-44.57,-95.12
649,159850442,0.7500,-0.5059,-0.1646,-91.28,-44.33,-95.67
650,159855442,0.7485,-0.5063,-0.1772,-89.27,-43.90,-95.98
651,159860441,0.7476,-0.5044,-0.2246,-87.38,-43.78,-96.16
652,159865442,0.7388,-0.5034,-0.2295,-85.30,-43.54,-96.04
653,159870442,0.7275,-0.5078,-0.2002,-83.23,-43.23,-95.67
654,159875442,0.7271,-0.5039,-0.2222,-81.22,-42.80,-95.43
655,159880440,0.7188,-0.5020,-0.2607,-79.09,-42.62,-94.70
656,159885442,0.7090,-0.4966,-0.2573,-76.77,-42.62,-93.96
657,159890442,0.6973,-0.4990,-0.2378,-74.27,-42.13,-92.93
658,159895441,0.6880,-0.4971,-0.2622,-71.83,-41.89,-91.95
659,159900444,0.6895,-0.4961,-0.2896,-69.15,-41.71,-90.73
660,159905440,0.6904,-0.4961,-0.2725,-66.10,-41.28,-89.45
661,159910442,0.6899,-0.4897,-0.2593,-62.87,-40.67,-87.99
662,159915441,0.6968,-0.4819,-0.2715,-59.63,-40.12,-86.52
663,159920442,0.7075,-0.4785,-0.2812,-56.04,-39.76,-84.94
664,159925440,0.7231,-0.4683,-0.2700,-52.07,-39.33,-83.35
665,159930442,0.7378,-0.4639,-0.2583,-48.35,-38.66,-81.77
666,159935441,0.7549,-0.4561,-0.2725,-44.45,-38.05,-80.12
667,159940442,0.7676,-0.4536,-0.2803,-40.49,-37.68,-78.54
668,159945440,0.7637,-0.4434,-0.2642,-36.46,-37.13,-76.89
669,159950442,0.7612,-0.4355,-0.2705,-32.62,-36.59,-75.12
670,159955444,0.7524,-0.4248,-0.2920,-28.66,-36.52,-73.48
671,159960442,0.7554,-0.4175,-0.2983,-25.00,-35.98,-71.77
672,159965441,0.7539,-0.4077,-0.2896,-21.59,-35.67,-70.18
673,159970444,0.7524,-0.4023,-0.2954,-18.60,-35.67,-68.54
674,159975440,0.7568,-0.3921,-0.3188,-15.79,-35.61,-66.95
675,159980442,0.7612,-0.3921,-0.3203,-13.54,-35.79,-65.43
676,159985441,0.7690,-0.3818,-0.3174,-11.52,-35.98,-63.72
677,159990441,0.7827,-0.3779,-0.3218,-9.82,-36.10,-62.20
678,159995442,0.7886,-0.3667,-0.3374,-8.11,-36.59,-60.55
679,160000443,0.8027,-0.3496,-0.3384,-6.77,-36.95,-59.15
680,160005442,0.8120,-0.3389,-0.3340,-5.18,-37.38,-57.74
681,160010442,0.8311,-0.3223,-0.3408,-3.48,-37.87,-56.28
682,160015442,0.8408,-0.3086,-0.3584,-1.77,-38.48,-55.12
683,160020443,0.8521,-0.2861,-0.3535,-0.06,-38.78,-53.96
684,160025442,0.8564,-0.2686,-0.3555,1.71,-39.15,-53.05
685,160030441,0.8633,-0.2603,-0.3716,3.48,-39.76,-52.20
686,160035442,0.8657,-0.2485,-0.3872,5.24,-40.37,-51.34
687,160040442,0.8672,-0.2354,-0.3862,6.89,-40.85,-50.67
688,160045442,0.8672,-0.2212,-0.3906,8.48,-41.04,-50.06
689,160050441,0.8677,-0.2124,-0.4048,9.82,-41.46,-49.33
690,160055442,0.8638,-0.2085,-0.4146,11.04,-41.89,-48.78
691,160060577,0.8628,-0.1992,-0.4136,12.20,-42.01,-48.23
692,160065442,0.8623,-0.1909,-0.4160,13.23,-42.26,-47.56
693,160070443,0.8672,-0.1836,-0.4268,14.39,-42.38,-46.89
694,160075442,0.8745,-0.1753,-0.4336,15.30,-42.44,-46.46
695,160080441,0.8809,-0.1660,-0.4307,16.77,-42.56,-46.04
696,160085442,0.8921,-0.1538,-0.4390,18.35,-42.56,-45.67
697,160090441,0.8984,-0.1401,-0.4468,20.43,-42.56,-45.30
698,160095440,0.9019,-0.1270,-0.4497,22.56,-42.50,-45.18
699,160100443,0.9082,-0.1206,-0.4502,24.94,-42.38,-45.12
700,160105442,0.9067,-0.1069,-0.4639,27.38,-42.32,-45.24
701,160110442,0.9014,-0.1045,-0.4717,29.57,-42.32,-45.30
702,160115442,0.9014,-0.0991,-0.4712,31.59,-42.13,-45.37
703,160120441,0.9053,-0.0986,-0.4722,33.23,-42.07,-45.43
704,160125443,0.9019,-0.1016,-0.4756,34.45,-41.89,-45.43
705,160130441,0.9048,-0.0981,-0.4761,35.30,-41.65,-45.43
706,160135442,0.9009,-0.1084,-0.4736,35.73,-41.10,-45.18
707,160140442,0.8999,-0.1079,-0.4756,35.49,-40.49,-45.00
708,160145442,0.9004,-0.1099,-0.4839,35.12,-40.12,-44.51
709,160150441,0.8916,-0.1055,-0.4854,34.21,-39.51,-44.09
710,160155442,0.8838,-0.1089,-0.4951,33.11,-38.72,-43.72
711,160160441,0.8784,-0.1055,-0.4941,31.77,-37.93,-43.17
712,160165442,0.8765,-0.1025,-0.4976,30.30,-37.26,-42.62
713,160170441,0.8770,-0.1016,-0.4976,28.48,-36.52,-42.13
714,160175442,0.8682,-0.0947,-0.5039,26.59,-35.61,-41.46
715,160180443,0.8633,-0.0947,-0.5073,24.88,-34.82,-40.91
716,160185442,0.8608,-0.0908,-0.5137,23.11,-33.78,-40.30
717,160190476,0.8560,-0.0825,-0.5137,21.46,-32.87,-39.70
718,160195444,0.8535,-0.0801,-0.5142,19.88,-31.89,-39.02
719,160200441,0.8579,-0.0781,-0.5254,18.35,-30.98,-38.41
720,160205445,0.8608,-0.0752,-0.5273,16.95,-29.82,-37.80
721,160210442,0.8569,-0.0693,-0.5298,15.43,-28.72,-37.20
722,160215441,0.8560,-0.0674,-0.5322,14.15,-27.68,-36.34
723,160220442,0.8530,-0.0625,-0.5356,12.80,-26.52,-35.67
724,160225440,0.8589,-0.0649,-0.5347,11.59,-25.55,-35.00
725,160230442,0.8545,-0.0581,-0.5356,10.30,-24.39,-34.15
726,160235441,0.8604,-0.0596,-0.5352,8.96,-23.29,-33.35
727,160240442,0.8613,-0.0630,-0.5430,7.56,-22.13,-32.50
728,160245440,0.8569,-0.0562,-0.5430,6.28,-21.10,-31.65
729,160250442,0.8599,-0.0557,-0.5410,4.76,-20.06,-30.85
730,160255441,0.8618,-0.0503,-0.5371,3.72,-18.96,-30.06
731,160260442,0.8618,-0.0439,-0.5435,2.74,-17.87,-29.09
732,160265440,0.8647,-0.0415,-0.5474,1.77,-16.89,-28.35
733,160270442,0.8643,-0.0400,-0.5405,0.98,-15.91,-27.68
734,160275441,0.8574,-0.0361,-0.5415,0.37,-14.88,-26.95
735,160280442,0.8589,-0.0347,-0.5420,-0.12,-13.84,-26.16
736,160285440,0.8555,-0.0293,-0.5513,-0.67,-12.87,-25.61
737,160290442,0.8540,-0.0254,-0.5474,-0.85,-11.83,-24.94
738,160295441,0.8550,-0.0249,-0.5381,-1.22,-10.91,-24.27
739,160300440,0.8525,-0.0244,-0.5430,-1.46,-9.94,-23.66
740,160305444,0.8501,-0.0239,-0.5493,-1.71,-9.02,-22.93
741,160310442,0.8506,-0.0225,-0.5439,-1.89,-7.99,-22.32
742,160315441,0.8486,-0.0244,-0.5483,-2.20,-7.01,-21.77
743,160320441,0.8540,-0.0234,-0.5439,-2.38,-6.28,-21.10
744,160325444,0.8521,-0.0249,-0.5347,-2.80,-5.24,-20.37
745,160330442,0.8442,-0.0312,-0.5391,-3.11,-4.27,-19.82
746,160335441,0.8452,-0.0283,-0.5327,-3.48,-3.29,-19.09
747,160340442,0.8438,-0.0312,-0.5332,-3.78,-2.38,-18.48
748,160345440,0.8408,-0.0264,-0.5288,-4.15,-1.40,-17.74
749,160350442,0.8364,-0.0264,-0.5322,-4.51,-0.67,-17.13
750,160355441,0.8354,-0.0273,-0.5347,-4.94,0.30,-16.52
751,160360442,0.8315,-0.0298,-0.5352,-5.24,1.28,-15.98
752,160365440,0.8296,-0.0303,-0.5356,-5.55,2.07,-15.30
753,160370444,0.8311,-0.0259,-0.5269,-5.67,2.87,-14.63
754,160375441,0.8296,-0.0273,-0.5278,-6.10,3.66,-14.09
755,160380444,0.8286,-0.0347,-0.5298,-6.52,4.21,-13.41
756,160385440,0.8213,-0.0312,-0.5283,-6.95,5.00,-12.68
757,160390440,0.8208,-0.0308,-0.5244,-7.38,5.49,-12.13
758,160395442,0.8218,-0.0322,-0.5288,-7.74,6.10,-11.52
759,160400836,0.8169,-0.0332,-0.5273,-7.99,6.77,-10.98
760,160405442,0.8208,-0.0356,-0.5229,-8.54,7.32,-10.49
761,160410440,0.8257,-0.0332,-0.5244,-8.96,7.62,-9.82
762,160415444,0.8198,-0.0361,-0.5205,-9.33,8.41,-9.21
763,160420442,0.8174,-0.0366,-0.5220,-9.70,8.78,-8.54
764,160425441,0.8184,-0.0386,-0.5142,-9.94,9.33,-7.93
765,160430442,0.8145,-0.0376,-0.5176,-10.30,9.82,-7.32
766,160435440,0.8164,-0.0410,-0.5073,-10.43,10.12,-6.77
767,160440444,0.8159,-0.0386,-0.5049,-10.73,10.49,-6.16
768,160445441,0.8105,-0.0410,-0.5093,-10.85,10.73,-5.61
769,160450442,0.8115,-0.0410,-0.5024,-10.91,11.04,-5.00
770,160455440,0.8174,-0.0425,-0.5088,-10.79,11.16,-4.63
771,160460442,0.8179,-0.0381,-0.4990,-10.79,11.40,-3.96
772,160465441,0.8184,-0.0430,-0.5039,-10.24,11.52,-3.41
773,160470444,0.8135,-0.0410,-0.4990,-9.94,11.71,-2.93
774,160475440,0.8184,-0.0420,-0.4941,-9.51,11.83,-2.44
775,160480442,0.8198,-0.0391,-0.4937,-8.90,11.89,-2.01
776,160485441,0.8174,-0.0444,-0.4907,-8.35,11.89,-1.65
777,160490981,0.8169,-0.0464,-0.4839,-7.32,12.01,-1.04
778,160495443,0.8179,-0.0430,-0.4819,-6.71,11.89,-0.79
779,160500443,0.8169,-0.0415,-0.4805,-5.67,11.83,-0.30
780,160505442,0.8164,-0.0503,-0.4795,-4.57,11.95,0.06
781,160510934,0.8188,-0.0449,-0.4702,-3.35,12.01,0.49
782,160515444,0.8145,-0.0498,-0.4673,-2.20,11.95,0.79
783,160520441,0.8125,-0.0518,-0.4663,-1.16,11.95,1.28
784,160525440,0.8154,-0.0532,-0.4629,-0.12,11.83,1.65
785,160530444,0.8086,-0.0547,-0.4556,0.79,11.83,2.07
786,160535441,0.8091,-0.0571,-0.4541,1.65,11.83,2.62
787,160540442,0.8027,-0.0605,-0.4521,2.62,11.71,2.99
788,160545440,0.8066,-0.0596,-0.4458,3.35,11.77,3.41
789,160550442,0.8120,-0.0620,-0.4390,4.09,11.59,3.96
790,160555441,0.8096,-0.0610,-0.4385,4.76,11.34,4.51
791,160560442,0.8169,-0.0669,-0.4390,5.43,11.40,4.76
792,160565440,0.8140,-0.0591,-0.4316,6.04,10.98,5.06
793,160570442,0.8130,-0.0625,-0.4302,6.52,10.98,5.49
794,160575441,0.8120,-0.0610,-0.4282,7.01,10.91,5.91
795,160580442,0.8154,-0.0630,-0.4209,7.44,10.73,6.22
796,160585440,0.8179,-0.0635,-0.4209,7.93,10.49,6.40
797,160590442,0.8159,-0.0605,-0.4121,8.35,10.43,6.59
798,160595441,0.8154,-0.0659,-0.4214,8.66,10.18,6.83
799,160600442,0.8169,-0.0601,-0.4185,8.90,9.82,6.89
800,160605441,0.8213,-0.0630,-0.4116,9.21,9.70,7.13
801,160610443,0.8257,-0.0601,-0.4175,9.45,9.51,7.13
802,160615441,0.8223,-0.0625,-0.4185,9.70,9.21,7.20
803,160620442,0.8203,-0.0615,-0.4102,9.82,8.90,7.38
804,160625440,0.8213,-0.0620,-0.4111,9.88,8.66,7.26
805,160630442,0.8208,-0.0635,-0.4126,10.00,8.29,7.20
806,160635441,0.8247,-0.0649,-0.4082,9.94,8.05,7.13
807,160640442,0.8228,-0.0669,-0.4131,9.82,7.74,7.13
808,160645440,0.8208,-0.0669,-0.4067,9.51,7.62,6.95
809,160650442,0.8252,-0.0708,-0.4077,9.33,7.44,6.95
810,160655441,0.8262,-0.0747,-0.3999,9.09,7.01,6.95
811,160660442,0.8320,-0.0752,-0.4058,8.54,7.01,6.71
812,160665440,0.8271,-0.0791,-0.4009,8.11,6.65,6.71
813,160670442,0.8247,-0.0757,-0.3999,7.62,6.34,6.59
814,160675441,0.8247,-0.0776,-0.3970,7.13,6.16,6.46
815,160680442,0.8252,-0.0757,-0.4004,6.83,5.85,6.34
816,160685440,0.8242,-0.0801,-0.4028,6.34,5.85,6.10
817,160690442,0.8208,-0.0767,-0.3979,5.98,5.55,5.85
818,160695441,0.8193,-0.0835,-0.3965,5.79,5.24,5.79
819,160700442,0.8184,-0.0830,-0.3950,5.24,5.24,5.55
820,160705442,0.8193,-0.0859,-0.3984,5.00,5.12,5.37
821,160710440,0.8198,-0.0815,-0.3936,4.51,4.88,5.12
822,160715442,0.8203,-0.0874,-0.3965,4.02,4.57,5.00
823,160720442,0.8223,-0.0884,-0.4014,3.54,4.27,4.82
824,160725441,0.8213,-0.0864,-0.3965,3.11,4.15,4.57
825,160730442,0.8174,-0.0894,-0.4028,2.50,3.96,4.21
826,160735440,0.8208,-0.0884,-0.3970,2.01,3.60,3.90
827,160740442,0.8203,-0.0957,-0.3960,1.52,3.35,3.78
828,160745441,0.8228,-0.0928,-0.3940,0.91,3.05,3.60
829,160750442,0.8228,-0.0962,-0.4004,0.43,2.80,3.41
830,160755440,0.8208,-0.0981,-0.4009,0.00,2.56,3.17
831,160760442,0.8208,-0.0972,-0.3960,-0.30,2.38,3.11
832,160765441,0.8164,-0.0952,-0.3950,-0.49,2.26,2.87
833,160770442,0.8198,-0.1006,-0.4019,-0.67,1.95,2.74
834,160775440,0.8188,-0.0996,-0.3940,-0.73,1.77,2.62
835,160780442,0.8193,-0.1006,-0.3960,-0.91,1.71,2.44
836,160785441,0.8193,-0.0991,-0.3960,-0.85,1.34,2.26
837,160790442,0.8179,-0.1050,-0.3960,-0.79,1.28,2.20
838,160795440,0.8232,-0.1045,-0.3979,-0.67,1.16,1.95
839,160800442,0.8218,-0.1069,-0.4043,-0.67,0.98,1.83
840,160805441,0.8203,-0.1035,-0.3975,-0.55,0.79,1.65
841,160810443,0.8198,-0.1060,-0.4053,-0.43,0.55,1.40
842,160815440,0.8203,-0.1099,-0.3960,-0.43,0.30,1.16
843,160820674,0.8237,-0.1055,-0.3965,-0.24,0.18,0.91
844,160825442,0.8223,-0.1045,-0.4033,-0.24,0.00,0.73
845,160830442,0.8267,-0.1030,-0.3965,-0.30,-0.37,0.55
846,160835442,0.8257,-0.1079,-0.4028,-0.24,-0.55,0.43
847,160840441,0.8306,-0.1074,-0.3999,-0.37,-0.91,0.24
848,160845442,0.8262,-0.1064,-0.4048,-0.18,-0.98,0.00
849,160850442,0.8237,-0.1064,-0.4058,0.00,-1.22,-0.24
850,160855441,0.8242,-0.1060,-0.4058,0.00,-1.52,-0.43
851,160860442,0.8257,-0.1040,-0.4092,0.00,-1.71,-0.61
852,160865440,0.8237,-0.1074,-0.4067,0.18,-1.95,-0.73
853,160870442,0.8286,-0.1055,-0.4053,0.12,-2.32,-1.10
854,160875441,0.8311,-0.1050,-0.4102,0.06,-2.62,-1.22
855,160880442,0.8325,-0.1055,-0.4175,0.12,-2.74,-1.34
856,160885440,0.8296,-0.1064,-0.4111,0.00,-2.93,-1.52
857,160890442,0.8311,-0.1035,-0.4116,-0.06,-3.23,-1.89
858,160895441,0.8364,-0.1064,-0.4106,-0.06,-3.29,-2.07
859,160900444,0.8335,-0.1055,-0.4136,0.00,-3.48,-2.32
860,160905440,0.8364,-0.1030,-0.4053,-0.06,-3.66,-2.44
861,160910441,0.8330,-0.1035,-0.4106,-0.18,-3.66,-2.56
862,160915442,0.8320,-0.1045,-0.4116,-0.12,-3.72,-2.74
863,160920442,0.8364,-0.1001,-0.4126,-0.18,-3.72,-2.99
864,160925442,0.8354,-0.0972,-0.4131,-0.30,-3.66,-3.11
865,160930442,0.8345,-0.1021,-0.4053,-0.37,-3.78,-3.41
866,160935442,0.8354,-0.0972,-0.4155,-0.43,-4.02,-3.48
867,160940444,0.8374,-0.0957,-0.4155,-0.43,-4.09,-3.60
868,160945441,0.8369,-0.0947,-0.4199,-0.79,-4.02,-3.72
869,160950442,0.8369,-0.0986,-0.4170,-0.91,-4.09,-3.96
870,160955441,0.8379,-0.0903,-0.4150,-1.16,-4.09,-4.15
871,160960442,0.8364,-0.0938,-0.4180,-1.34,-4.15,-4.21
872,160965441,0.8398,-0.0938,-0.4189,-1.59,-4.15,-4.33
873,160970442,0.8374,-0.0898,-0.4253,-1.77,-4.02,-4.57
874,160975441,0.8364,-0.0913,-0.4224,-1.89,-4.15,-4.70
875,160980442,0.8403,-0.0933,-0.4204,-2.07,-4.02,-4.82
876,160985441,0.8359,-0.0889,-0.4248,-2.01,-3.90,-4.88
877,160990444,0.8330,-0.0898,-0.4243,-1.95,-3.66,-5.00
878,160995441,0.8306,-0.0864,-0.4287,-2.07,-3.60,-5.12
879,161000442,0.8330,-0.0801,-0.4277,-2.13,-3.54,-5.18
880,161005441,0.8320,-0.0850,-0.4277,-2.13,-3.23,-5.30
881,161010442,0.8350,-0.0845,-0.4307,-2.01,-3.17,-5.43
882,161015442,0.8379,-0.0815,-0.4263,-2.20,-3.05,-5.49
883,161020441,0.8359,-0.0771,-0.4248,-2.32,-2.87,-5.67
884,161025444,0.8403,-0.0806,-0.4292,-2.26,-2.68,-5.67
885,161030442,0.8418,-0.0757,-0.4312,-2.38,-2.62,-5.67
886,161035441,0.8462,-0.0757,-0.4292,-2.56,-2.50,-5.79
887,161040442,0.8481,-0.0767,-0.4321,-2.56,-2.26,-5.79
888,161045441,0.8467,-0.0747,-0.4268,-2.56,-2.07,-5.91
889,161050442,0.8506,-0.0713,-0.4219,-2.74,-2.07,-5.91
890,161055441,0.8486,-0.0713,-0.4302,-2.87,-1.89,-6.10
891,161060442,0.8491,-0.0659,-0.4302,-2.93,-1.71,-6.10
892,161065441,0.8511,-0.0674,-0.4341,-2.99,-1.65,-6.10
893,161070442,0.8486,-0.0723,-0.4268,-2.93,-1.46,-6.34
894,161075441,0.8516,-0.0674,-0.4268,-2.93,-1.22,-6.28
895,161080442,0.8530,-0.0664,-0.4346,-3.05,-1.22,-6.22
896,161085441,0.8516,-0.0659,-0.4282,-3.11,-1.10,-6.22
897,161090442,0.8525,-0.0679,-0.4302,-3.11,-0.91,-6.28
898,161095444,0.8477,-0.0679,-0.4297,-3.05,-0.73,-6.28
899,161100442,0.8530,-0.0645,-0.4326,-3.17,-0.61,-6.22
900,161105442,0.8569,-0.0654,-0.4272,-3.11,-0.55,-6.28
901,161110442,0.8550,-0.0635,-0.4258,-3.29,-0.30,-6.22
902,161115441,0.8555,-0.0610,-0.4316,-3.35,-0.24,-6.22
903,161120442,0.8545,-0.0601,-0.4336,-3.41,-0.30,-6.22
904,161125442,0.8589,-0.0566,-0.4282,-3.48,-0.24,-6.10
905,161130441,0.8535,-0.0547,-0.4331,-3.29,-0.12,-6.16
906,161135442,0.8613,-0.0566,-0.4258,-3.48,0.06,-6.10
907,161140440,0.8521,-0.0547,-0.4312,-3.35,0.12,-6.16
908,161145440,0.8491,-0.0532,-0.4316,-3.35,0.18,-6.10
909,161150440,0.8550,-0.0522,-0.4253,-3.41,0.37,-6.04
910,161155442,0.8511,-0.0542,-0.4263,-3.29,0.61,-5.98
911,161160441,0.8486,-0.0571,-0.4277,-3.29,0.61,-5.85
912,161165442,0.8511,-0.0552,-0.4199,-3.29,0.73,-5.85
913,161170440,0.8501,-0.0518,-0.4185,-3.29,0.79,-5.73
914,161175444,0.8462,-0.0576,-0.4194,-3.35,1.10,-5.55
915,161180441,0.8472,-0.0596,-0.4189,-3.60,1.16,-5.43
916,161185444,0.8467,-0.0581,-0.4141,-3.66,1.34,-5.24
917,161190440,0.8501,-0.0596,-0.4116,-3.84,1.46,-5.12
918,161195446,0.8511,-0.0581,-0.4111,-3.96,1.65,-5.06
919,161200440,0.8540,-0.0605,-0.4082,-4.21,1.71,-5.00
920,161205548,0.8584,-0.0605,-0.4062,-4.33,1.89,-4.70
921,161210441,0.8491,-0.0605,-0.4092,-4.45,2.07,-4.51
922,161215440,0.8516,-0.0635,-0.4053,-4.70,2.07,-4.45
923,161220440,0.8506,-0.0664,-0.4072,-4.70,2.20,-4.15
924,161225440,0.8521,-0.0669,-0.4019,-4.94,2.38,-4.15
925,161230443,0.8452,-0.0659,-0.3970,-4.82,2.44,-3.90
926,161235442,0.8491,-0.0669,-0.3984,-4.70,2.50,-3.78
927,161240649,0.8496,-0.0679,-0.3970,-4.70,2.56,-3.66
928,161245442,0.8462,-0.0698,-0.3970,-4.70,2.74,-3.48
929,161250441,0.8462,-0.0723,-0.3940,-4.57,2.74,-3.41
930,161255444,0.8413,-0.0776,-0.3906,-4.45,2.99,-3.11
931,161260711,0.8516,-0.0757,-0.3882,-4.33,2.99,-3.05
932,161265442,0.8418,-0.0767,-0.3896,-4.15,3.11,-2.87
933,161270441,0.8442,-0.0742,-0.3843,-3.90,3.29,-2.68
934,161275442,0.8472,-0.0801,-0.3818,-3.72,3.48,-2.56
935,161280442,0.8442,-0.0801,-0.3818,-3.60,3.60,-2.44
936,161285442,0.8433,-0.0815,-0.3789,-3.23,3.72,-2.26
937,161290442,0.8472,-0.0854,-0.3750,-3.11,3.84,-2.20
938,161295490,0.8442,-0.0854,-0.3706,-2.87,3.90,-2.07
939,161300443,0.8477,-0.0884,-0.3672,-2.87,4.15,-2.01
940,161305442,0.8428,-0.0908,-0.3682,-2.80,4.15,-1.95
941,161310442,0.8472,-0.0938,-0.3716,-2.74,4.33,-1.83
942,161315442,0.8457,-0.0952,-0.3682,-2.68,4.39,-1.71
943,161320443,0.8423,-0.0952,-0.3667,-2.62,4.51,-1.77
944,161325442,0.8481,-0.0928,-0.3628,-2.74,4.63,-1.52
945,161330443,0.8472,-0.0986,-0.3589,-2.68,4.63,-1.71
946,161335442,0.8486,-0.0972,-0.3604,-2.93,4.70,-1.59
947,161340443,0.8433,-0.1001,-0.3594,-3.11,4.76,-1.65
948,161345442,0.8506,-0.0962,-0.3599,-3.23,4.94,-1.71
949,161350442,0.8462,-0.1021,-0.3579,-3.29,5.00,-1.65
950,161355442,0.8433,-0.1001,-0.3535,-3.35,4.94,-1.65
951,161360443,0.8389,-0.1035,-0.3530,-3.23,5.12,-1.83
952,161365442,0.8413,-0.1021,-0.3491,-3.17,5.06,-1.77
953,161370442,0.8374,-0.0991,-0.3545,-2.93,5.24,-1.95
954,161375442,0.8413,-0.1025,-0.3423,-2.56,5.37,-2.13
955,161380443,0.8442,-0.1069,-0.3442,-2.62,5.43,-2.26
956,161385442,0.8442,-0.1079,-0.3496,-2.26,5.37,-2.44
957,161390442,0.8423,-0.1064,-0.3408,-2.01,5.30,-2.68
958,161395442,0.8369,-0.1055,-0.3516,-1.83,5.37,-2.93
959,161400443,0.8330,-0.1035,-0.3486,-1.52,5.30,-3.11
960,161405442,0.8296,-0.1060,-0.3447,-1.28,5.30,-3.35
961,161410442,0.8257,-0.1040,-0.3394,-1.34,5.18,-3.78
962,161415442,0.8257,-0.1025,-0.3413,-1.16,5.00,-4.27
963,161420443,0.8213,-0.1035,-0.3433,-1.10,4.70,-4.63
964,161425442,0.8203,-0.1055,-0.3506,-1.16,4.57,-5.06
965,161430440,0.8154,-0.1089,-0.3389,-1.40,4.33,-5.49
966,161435440,0.8135,-0.1113,-0.3457,-1.59,4.02,-5.85
967,161440443,0.8066,-0.1172,-0.3394,-1.83,3.78,-6.28
968,161445442,0.8013,-0.1133,-0.3433,-2.01,3.54,-6.77
969,161450442,0.7954,-0.1123,-0.3359,-2.26,3.41,-7.13
970,161455442,0.7949,-0.1133,-0.3433,-2.38,3.11,-7.56
971,161460908,0.7876,-0.1177,-0.3423,-2.56,2.74,-8.17
972,161465444,0.7847,-0.1216,-0.3438,-2.50,2.74,-8.48
973,161470441,0.7856,-0.1211,-0.3394,-2.74,2.44,-8.96
974,161475442,0.7837,-0.1230,-0.3467,-2.68,2.20,-9.45
975,161480440,0.7837,-0.1294,-0.3428,-2.62,2.01,-10.00
976,161485442,0.7842,-0.1260,-0.3467,-2.44,1.89,-10.37
977,161490442,0.7827,-0.1274,-0.3433,-2.26,1.83,-10.98
978,161495442,0.7837,-0.1250,-0.3438,-1.89,1.46,-11.59
979,161500918,0.7812,-0.1255,-0.3442,-1.46,1.34,-12.38
980,161505443,0.7788,-0.1279,-0.3467,-1.16,1.22,-12.93
981,161510442,0.7764,-0.1270,-0.3442,-0.79,1.04,-13.72
982,161515442,0.7783,-0.1294,-0.3486,-0.37,0.73,-14.33
983,161520706,0.7754,-0.1265,-0.3516,0.18,0.49,-15.43
984,161525442,0.7666,-0.1274,-0.3457,0.49,0.30,-16.16
985,161530441,0.7666,-0.1265,-0.3516,0.85,0.00,-17.20
986,161535444,0.7671,-0.1260,-0.3506,1.40,-0.30,-18.17
987,161540441,0.7617,-0.1260,-0.3525,1.71,-0.55,-19.45
988,161545442,0.7588,-0.1260,-0.3491,2.13,-1.04,-20.49
989,161550683,0.7622,-0.1313,-0.3516,2.38,-1.40,-21.95
990,161555444,0.7627,-0.1323,-0.3511,2.74,-1.65,-22.80
991,161560442,0.7646,-0.1348,-0.3569,2.99,-2.13,-23.96
992,161565442,0.7612,-0.1328,-0.3589,3.35,-2.56,-25.18
993,161570441,0.7632,-0.1353,-0.3589,3.78,-3.05,-26.40
994,161575442,0.7549,-0.1284,-0.3560,4.39,-3.66,-27.74
995,161580441,0.7456,-0.1245,-0.3594,5.12,-4.21,-29.09
996,161585442,0.7295,-0.1216,-0.3667,6.10,-4.76,-30.37
997,161590440,0.6978,-0.1187,-0.3667,7.13,-5.24,-31.95
998,161595440,0.7129,-0.1021,-0.3633,8.72,-5.98,-33.41
999,161600440,0.7109,-0.1099,-0.3657,10.06,-6.59,-35.06
1000,161605444,0.7163,-0.1108,-0.3589,11.59,-7.01,-36.46
1001,161610443,0.7012,-0.1099,-0.3623,13.05,-7.68,-37.99
1002,161615442,0.6880,-0.1074,-0.3740,14.33,-8.17,-39.45
1003,161620442,0.6812,-0.1055,-0.3770,15.49,-8.90,-41.10
1004,161625442,0.6646,-0.1069,-0.3765,16.59,-9.51,-42.50
1005,161630442,0.6582,-0.1055,-0.3716,17.62,-10.06,-44.02
1006,161635442,0.6543,-0.1035,-0.3706,18.54,-10.61,-45.43
1007,161640443,0.6460,-0.1016,-0.3687,19.33,-11.04,-46.89
1008,161645442,0.6470,-0.0972,-0.3726,19.88,-11.46,-48.41
1009,161650442,0.6406,-0.0962,-0.3643,20.43,-12.01,-49.82
1010,161655442,0.6392,-0.0908,-0.3706,20.85,-12.50,-51.40
1011,161660443,0.6362,-0.0859,-0.3687,21.34,-12.93,-52.87
1012,161665442,0.6338,-0.0791,-0.3770,21.95,-13.29,-54.39
1013,161670442,0.6289,-0.0786,-0.3945,22.44,-14.02,-55.98
1014,161675442,0.6328,-0.0771,-0.4004,22.68,-14.57,-57.50
1015,161680442,0.6343,-0.0757,-0.4009,22.93,-15.12,-59.15
1016,161685442,0.6304,-0.0732,-0.4102,23.29,-15.67,-60.85
1017,161690442,0.6294,-0.0693,-0.4204,23.41,-16.28,-62.50
1018,161695442,0.6289,-0.0605,-0.4209,23.54,-17.20,-64.27
1019,161700442,0.6255,-0.0513,-0.4331,23.84,-17.93,-66.04
1020,161705442,0.6294,-0.0459,-0.4424,24.15,-18.96,-67.93
1021,161710443,0.6304,-0.0381,-0.4546,24.45,-19.94,-69.88
1022,161715442,0.6323,-0.0273,-0.4697,24.94,-20.98,-71.77
1023,161720442,0.6313,-0.0215,-0.4731,25.67,-22.50,-73.96
1024,161725442,0.6240,-0.0225,-0.4771,26.65,-23.84,-76.04
1025,161730441,0.6274,-0.0137,-0.4863,27.68,-25.12,-78.17
1026,161735442,0.6162,-0.0127,-0.5005,29.09,-26.46,-80.18
1027,161740441,0.6084,-0.0151,-0.4946,30.79,-27.93,-82.13
1028,161745442,0.6011,-0.0073,-0.4976,32.56,-29.21,-84.27
1029,161750441,0.5918,-0.0054,-0.5063,34.27,-30.49,-86.16
1030,161755442,0.5825,-0.0034,-0.5146,36.10,-31.83,-88.11
1031,161760441,0.5757,-0.0005,-0.5249,37.74,-33.11,-90.06
1032,161765442,0.5718,0.0005,-0.5327,39.51,-34.51,-92.01
1033,161770442,0.5684,0.0020,-0.5391,40.73,-35.85,-93.96
1034,161775442,0.5640,0.0059,-0.5454,42.13,-37.20,-95.73
1035,161780441,0.5591,0.0073,-0.5503,43.41,-38.60,-97.74
1036,161785442,0.5430,0.0117,-0.5562,44.76,-40.06,-99.57
1037,161790440,0.5342,0.0156,-0.5635,45.91,-41.40,-101.34
1038,161795440,0.5244,0.0308,-0.5698,46.95,-42.74,-103.35
1039,161800785,0.5181,0.0396,-0.5732,47.99,-44.02,-105.12
1040,161805444,0.5122,0.0483,-0.5718,48.72,-45.18,-107.13
1041,161810484,0.5059,0.0537,-0.5806,49.02,-46.16,-108.96
1042,161815442,0.4946,0.0537,-0.5850,48.84,-47.13,-110.61
1043,161820440,0.4893,0.0527,-0.5894,48.17,-47.80,-112.07
1044,161825442,0.4766,0.0518,-0.5889,47.07,-48.29,-113.35
1045,161830440,0.4639,0.0557,-0.5884,45.43,-48.72,-114.33
1046,161835584,0.4512,0.0557,-0.5820,43.78,-49.02,-115.30
1047,161840443,0.4429,0.0635,-0.5850,42.01,-49.02,-116.16
1048,161845442,0.4390,0.0747,-0.5938,40.37,-49.02,-116.77
1049,161850442,0.4424,0.0894,-0.6035,38.84,-48.90,-117.62
1050,161855442,0.4414,0.0991,-0.6143,37.38,-48.78,-118.29
1051,161860442,0.4482,0.1084,-0.6143,35.98,-48.90,-119.15
1052,161865442,0.4526,0.1147,-0.6230,34.88,-48.96,-120.06
1053,161870443,0.4556,0.1211,-0.6157,34.02,-48.90,-120.85
1054,161875442,0.4565,0.1333,-0.6270,33.48,-48.84,-121.59
1055,161880442,0.4614,0.1489,-0.6201,33.29,-48.84,-122.56
1056,161885442,0.4639,0.1636,-0.6450,33.48,-49.02,-123.48
1057,161890440,0.4673,0.1851,-0.6523,34.09,-49.27,-124.51
1058,161895442,0.4736,0.1929,-0.6567,34.94,-49.39,-125.73
1059,161900442,0.4736,0.2017,-0.6572,36.04,-49.63,-126.83
1060,161905442,0.4678,0.2041,-0.6602,37.26,-49.88,-127.80
1061,161910690,0.4639,0.2104,-0.6680,38.72,-50.06,-128.78
1062,161915442,0.4541,0.2197,-0.6616,40.24,-50.12,-129.82
1063,161920441,0.4429,0.2241,-0.6660,42.01,-50.12,-130.61
1064,161925442,0.4316,0.2251,-0.6558,43.66,-50.12,-131.46
1065,161930440,0.4194,0.2314,-0.6562,45.67,-50.18,-132.32
1066,161935440,0.4092,0.2407,-0.6597,47.50,-50.12,-132.93
1067,161940453,0.4038,0.2549,-0.6689,49.39,-50.12,-133.66
1068,161945444,0.3975,0.2695,-0.6699,51.40,-50.37,-134.39
1069,161950441,0.3984,0.2798,-0.6812,53.17,-50.43,-135.55
1070,161955442,0.4014,0.2988,-0.6768,55.00,-50.85,-136.65
1071,161960441,0.3994,0.3110,-0.6787,56.89,-50.91,-137.93
1072,161965442,0.3823,0.3271,-0.6816,58.84,-51.16,-139.33
1073,161970441,0.3701,0.3408,-0.6748,60.67,-51.34,-140.85
1074,161975442,0.3555,0.3530,-0.6724,62.07,-51.46,-142.38
1075,161980441,0.3540,0.3608,-0.6675,63.72,-51.40,-144.15
1076,161985442,0.3530,0.3633,-0.6626,64.82,-51.40,-145.85
1077,161990441,0.3369,0.3716,-0.6499,65.79,-51.40,-147.74
1078,161995442,0.3213,0.3770,-0.6494,66.34,-51.34,-149.63
1079,162000441,0.3008,0.3799,-0.6479,66.52,-51.16,-151.46
1080,162005442,0.2754,0.3794,-0.6406,66.28,-50.91,-153.35
1081,162010442,0.2549,0.3857,-0.6318,65.85,-50.73,-155.18
1082,162015442,0.2261,0.3809,-0.6353,65.00,-50.49,-157.07
1083,162020441,0.2036,0.3706,-0.6172,63.72,-50.12,-158.84
1084,162025442,0.1904,0.3677,-0.6035,61.95,-49.76,-160.49
1085,162030441,0.1836,0.3604,-0.5903,60.12,-49.09,-162.20
1086,162035442,0.1689,0.3647,-0.5884,57.74,-48.66,-163.78
1087,162040590,0.1509,0.3604,-0.5771,54.94,-47.99,-165.49
1088,162045442,0.1353,0.3564,-0.5601,51.89,-47.32,-167.13
1089,162050442,0.1177,0.3560,-0.5522,48.48,-46.59,-168.84
1090,162055447,0.1006,0.3462,-0.5435,44.82,-45.73,-170.43
1091,162060442,0.0815,0.3359,-0.5298,40.91,-44.82,-172.07
1092,162065442,0.0605,0.3267,-0.5171,36.83,-43.90,-173.72
1093,162070442,0.0381,0.3179,-0.5068,32.74,-43.05,-175.37
1094,162075442,0.0215,0.3218,-0.4922,28.54,-41.95,-177.13
1095,162080442,0.0044,0.3057,-0.4834,24.15,-40.98,-178.84
1096,162085443,-0.0088,0.3018,-0.4673,19.88,-39.94,-180.61
1097,162090442,-0.0249,0.3037,-0.4580,15.85,-39.09,-182.50
1098,162095443,-0.0425,0.3047,-0.4580,11.65,-38.41,-184.51
1099,162100442,-0.0464,0.3013,-0.4531,7.74,-37.99,-186.59
1100,162105443,-0.0493,0.3125,-0.4512,4.15,-37.74,-188.78
1101,162110442,-0.0527,0.3232,-0.4551,0.67,-37.99,-191.28
1102,162115443,-0.0532,0.3384,-0.4565,-2.62,-38.48,-194.15
1103,162120443,-0.0454,0.3472,-0.4536,-5.67,-39.09,-197.13
1104,162125442,-0.0410,0.3525,-0.4292,-8.96,-40.12,-200.24
1105,162130442,-0.0342,0.3550,-0.4155,-12.38,-41.22,-203.66
1106,162135442,-0.0273,0.3511,-0.4082,-15.73,-42.44,-207.13
1107,162140441,-0.0337,0.3506,-0.3911,-19.21,-43.84,-210.61
1108,162145536,-0.0337,0.3525,-0.3789,-22.87,-45.06,-214.27
1109,162150441,-0.0396,0.3521,-0.3716,-26.46,-46.65,-217.93
1110,162155442,-0.0596,0.3496,-0.3594,-30.37,-48.23,-221.71
1111,162160441,-0.0742,0.3564,-0.3555,-34.21,-49.70,-225.49
1112,162165442,-0.1025,0.3560,-0.3413,-37.99,-51.22,-229.33
1113,162170441,-0.1289,0.3550,-0.3442,-41.65,-52.99,-233.23
1114,162175442,-0.1558,0.3662,-0.3545,-45.37,-54.70,-237.26
1115,162180440,-0.2041,0.3789,-0.3438,-48.90,-56.34,-241.40
1116,162185442,-0.2476,0.3911,-0.3525,-52.07,-58.05,-245.67
1117,162190443,-0.2900,0.4160,-0.3774,-55.06,-60.06,-250.06
1118,162195443,-0.3340,0.4326,-0.3862,-57.99,-62.07,-254.88
1119,162200442,-0.3779,0.4580,-0.3789,-60.49,-64.15,-259.88
1120,162205443,-0.4155,0.4756,-0.3887,-62.80,-66.34,-265.06
1121,162210442,-0.4521,0.4927,-0.3931,-64.82,-68.35,-270.49
1122,162215442,-0.4795,0.5024,-0.3896,-66.34,-70.12,-274.94
1123,162220442,-0.5283,0.5239,-0.3916,-68.23,-72.50,-281.71
1124,162225442,-0.5601,0.5342,-0.3940,-69.21,-74.15,-286.34
1125,162230442,-0.6079,0.5430,-0.3999,-70.37,-76.28,-292.38
1126,162235441,-0.6509,0.5532,-0.3945,-71.28,-78.23,-298.48
1127,162240440,-0.6943,0.5630,-0.4087,-72.01,-80.12,-304.39
1128,162245441,-0.7344,0.5747,-0.4048,-72.62,-81.89,-310.73
1129,162250442,-0.7720,0.5786,-0.4136,-72.99,-83.84,-316.83
1130,162255442,-0.8101,0.5913,-0.4170,-73.29,-85.61,-323.11
1131,162260442,-0.8569,0.5967,-0.4365,-73.60,-87.62,-329.33
1132,162265442,-0.9072,0.6069,-0.4443,-73.54,-89.57,-335.61
1133,162270442,-0.9673,0.6147,-0.4565,-73.72,-91.52,-341.95
1134,162275442,-1.0229,0.6172,-0.4570,-73.72,-93.60,-348.35
1135,162280442,-1.0825,0.6216,-0.4688,-73.90,-95.37,-354.63
1136,162285442,-1.1421,0.6250,-0.4707,-73.96,-97.01,-360.85
1137,162290442,-1.2065,0.6260,-0.4595,-73.96,-98.60,-367.01
1138,162295442,-1.2573,0.6182,-0.4531,-73.96,-99.94,-373.23
1139,162300442,-1.3076,0.6226,-0.4272,-73.90,-100.85,-379.39
1140,162305442,-1.3467,0.6211,-0.4233,-73.78,-101.65,-385.18
1141,162310443,-1.3901,0.6235,-0.4253,-73.48,-102.32,-391.10
1142,162315442,-1.4277,0.6196,-0.4326,-73.23,-102.80,-396.83
1143,162320440,-1.4595,0.6206,-0.4404,-72.93,-103.29,-402.44
1144,162325440,-1.5049,0.6211,-0.4512,-72.74,-104.15,-407.87
1145,162330442,-1.5625,0.6177,-0.4673,-72.87,-104.82,-413.29
1146,162335442,-1.6157,0.6104,-0.4800,-73.23,-105.37,-418.54
1147,162340442,-1.6812,0.6011,-0.4917,-74.09,-105.91,-423.60
1148,162345441,-1.7549,0.5908,-0.5015,-75.55,-106.59,-428.29
1149,162350440,-1.8389,0.5791,-0.5137,-77.50,-106.89,-432.93
1150,162355444,-1.9307,0.5752,-0.5142,-80.12,-106.83,-437.26
1151,162360441,-2.0269,0.5654,-0.5229,-82.99,-106.34,-441.28
1152,162365440,-2.1353,0.5527,-0.5264,-86.46,-105.43,-445.00
1153,162370441,-2.2261,0.5430,-0.5166,-90.49,-103.96,-448.48
1154,162375444,-2.2915,0.5278,-0.5151,-94.76,-102.07,-451.46
1155,162380441,-2.3198,0.5176,-0.5029,-99.57,-99.39,-454.02
1156,162385442,-2.3247,0.5083,-0.4834,-104.88,-96.40,-456.10
1157,162390442,-2.2944,0.5044,-0.4404,-110.49,-92.44,-457.93
1158,162395443,-2.2881,0.4805,-0.4668,-115.79,-88.17,-459.33
1159,162400442,-2.3101,0.4897,-0.4395,-121.71,-83.90,-460.30
1160,162405442,-2.4038,0.4492,-0.4878,-128.05,-79.02,-460.61
1161,162410443,-2.4116,0.4517,-0.4902,-135.37,-74.21,-460.18
1162,162415440,-2.4233,0.4160,-0.5044,-143.23,-68.96,-459.21
1163,162420442,-2.3574,0.4004,-0.4907,-151.83,-63.41,-457.56
1164,162425441,-2.3262,0.3774,-0.4893,-161.04,-57.74,-455.06
1165,162430442,-2.2632,0.3691,-0.4395,-170.67,-51.40,-451.77
1166,162435441,-2.2231,0.3413,-0.4653,-180.61,-44.63,-447.56
1167,162440442,-2.1377,0.3696,-0.4463,-190.43,-37.68,-442.87
1168,162445441,-2.1182,0.4180,-0.5796,-198.35,-31.83,-438.17
1169,162450442,-2.0479,0.2427,-0.3828,-205.24,-25.37,-432.07
1170,162455441,-1.9810,0.1392,-0.3242,-213.78,-17.50,-424.15
1171,162460442,-1.9146,0.1221,-0.3755,-223.41,-9.94,-415.06
1172,162465441,-1.8784,0.1372,-0.3896,-233.78,-2.32,-405.37
1173,162470442,-1.8311,0.1636,-0.3438,-244.76,5.30,-395.37
1174,162475441,-1.7446,0.1816,-0.3589,-255.61,12.74,-384.82
1175,162480442,-1.6758,0.1826,-0.4116,-266.10,19.51,-373.60
1176,162485441,-1.6250,0.1699,-0.3770,-276.04,26.10,-361.77
1177,162490442,-1.5752,0.1489,-0.3169,-286.10,32.87,-349.51
1178,162495441,-1.5483,0.1333,-0.3252,-295.98,39.51,-336.65
1179,162500442,-1.5239,0.1362,-0.3560,-305.30,45.85,-323.54
1180,162505441,-1.4966,0.1523,-0.3213,-314.09,51.95,-310.30
1181,162510442,-1.4644,0.1724,-0.2827,-322.01,57.80,-297.20
1182,162515442,-1.4136,0.2002,-0.2954,-329.02,63.54,-283.90
1183,162520442,-1.3701,0.2051,-0.2979,-334.82,68.41,-270.73
1184,162525440,-1.3301,0.1929,-0.2637,-339.39,73.35,-257.80
1185,162530442,-1.2856,0.1792,-0.2310,-342.38,77.62,-244.70
1186,162535441,-1.2495,0.1816,-0.2500,-343.84,81.59,-231.83
1187,162540442,-1.2192,0.1880,-0.2598,-343.66,83.96,-219.51
1188,162545440,-1.1934,0.1909,-0.2163,-342.01,85.85,-207.50
1189,162550441,-1.1675,0.1938,-0.2021,-338.90,88.66,-195.98
1190,162555442,-1.1372,0.1938,-0.2222,-334.27,90.43,-184.76
1191,162560442,-1.1094,0.1919,-0.2236,-328.05,91.34,-173.72
1192,162565442,-1.0884,0.1763,-0.1924,-320.43,91.71,-163.23
1193,162570469,-1.0601,0.1636,-0.1875,-311.40,91.77,-152.99
1194,162575443,-1.0400,0.1553,-0.2192,-301.34,91.10,-143.29
1195,162580442,-1.0142,0.1504,-0.2144,-290.00,89.57,-134.02
1196,162585442,-0.9922,0.1509,-0.1865,-277.68,88.54,-125.18
1197,162590443,-0.9668,0.1553,-0.1885,-264.45,85.55,-116.83
1198,162595442,-0.9414,0.1577,-0.2158,-250.30,85.06,-108.84
1199,162600442,-0.9131,0.1577,-0.2065,-235.49,81.89,-101.34
1200,162605442,-0.8853,0.1548,-0.1870,-220.18,78.96,-94.21
1201,162610442,-0.8589,0.1475,-0.1865,-204.63,75.73,-87.44
1202,162615442,-0.8306,0.1406,-0.2017,-188.78,72.32,-81.10
1203,162620442,-0.8149,0.1382,-0.1904,-172.99,68.66,-75.18
1204,162625442,-0.7944,0.1460,-0.1660,-157.07,64.88,-69.51
1205,162630442,-0.7773,0.1421,-0.1821,-141.34,61.22,-64.21
1206,162635442,-0.7573,0.1479,-0.1875,-125.91,57.32,-59.21
1207,162640442,-0.7461,0.1514,-0.1680,-110.55,53.23,-54.57
1208,162645440,-0.7358,0.1484,-0.1528,-95.55,49.51,-50.12
1209,162650441,-0.7271,0.1455,-0.1694,-80.98,45.67,-45.98
1210,162655440,-0.7227,0.1475,-0.1670,-66.95,41.46,-42.20
1211,162660442,-0.7197,0.1509,-0.1553,-53.29,37.87,-38.48
1212,162665442,-0.7251,0.1631,-0.1494,-40.12,34.15,-35.06
1213,162670441,-0.7256,0.1665,-0.1665,-27.93,30.37,-31.83
1214,162675442,-0.7524,0.2290,-0.1729,-16.40,26.65,-29.76
1215,162680443,-0.7563,0.2705,-0.1646,-5.98,22.74,-28.66
1216,162685442,-0.7583,0.2930,-0.1855,3.35,18.90,-28.60
1217,162690443,-0.7598,0.3037,-0.1826,11.04,14.76,-29.02
1218,162695442,-0.7656,0.2871,-0.1777,17.20,10.79,-30.12
1219,162700442,-0.7812,0.2759,-0.1875,21.40,6.83,-31.89
1220,162705442,-0.7881,0.2651,-0.1875,23.96,2.99,-34.09
1221,162710442,-0.7891,0.2559,-0.1855,24.39,-1.04,-36.46
1222,162715442,-0.7749,0.2407,-0.1880,23.35,-4.70,-38.54
1223,162720442,-0.7554,0.2271,-0.1860,20.73,-8.48,-40.37
1224,162725442,-0.7368,0.2061,-0.1870,16.77,-12.13,-41.65
1225,162730443,-0.7202,0.1973,-0.1782,12.20,-15.85,-42.50
1226,162735442,-0.7041,0.1890,-0.1831,7.20,-19.02,-42.80
1227,162740442,-0.6890,0.1826,-0.1929,2.13,-22.56,-42.74
1228,162745442,-0.6914,0.1880,-0.1895,-2.44,-25.85,-42.44
1229,162750443,-0.6973,0.1997,-0.1953,-6.46,-29.09,-41.65
1230,162755441,-0.7104,0.2144,-0.2192,-9.57,-32.56,-40.73
1231,162760442,-0.7222,0.2280,-0.2227,-11.89,-36.22,-39.33
1232,162765441,-0.7295,0.2354,-0.2212,-13.78,-39.88,-37.80
1233,162770442,-0.7524,0.2476,-0.2129,-14.51,-43.54,-36.22
1234,162775442,-0.7627,0.2544,-0.2153,-15.12,-47.20,-34.51
1235,162780442,-0.7725,0.2515,-0.2280,-15.49,-50.30,-32.80
1236,162785441,-0.7832,0.2539,-0.2202,-15.85,-53.72,-30.98
1237,162790444,-0.7900,0.2510,-0.2266,-16.34,-56.83,-29.27
1238,162795524,-0.7910,0.2539,-0.2490,-16.95,-60.00,-27.26
1239,162800440,-0.7935,0.2524,-0.2598,-17.74,-63.11,-25.18
1240,162805442,-0.7866,0.2593,-0.2500,-18.60,-66.28,-23.17
1241,162810441,-0.7881,0.2573,-0.2578,-19.33,-69.63,-21.16
1242,162815442,-0.7900,0.2456,-0.2549,-20.06,-72.74,-18.96
