# skilleye imu stream v1
# device=xiao_esp32c6 imu=mpu6050 addr=0x68
# rate_hz=200 accel_range_g=16 gyro_range_dps=2000 dlpf_hz=94
# units: accel in g, gyro in deg/s, t_us in microseconds since boot (monotonic)
# no shared clock with the camera -- tap the racket once before each take
# so both recordings share a spike to align on
seq,t_us,ax,ay,az,gx,gy,gz
0,82444843,0.7861,-0.5938,-0.0566,1.22,-0.06,0.30
1,82449847,0.7832,-0.5933,-0.0586,0.91,-0.18,0.30
2,82454843,0.7837,-0.5928,-0.0591,0.73,-0.24,0.30
3,82459842,0.7817,-0.5947,-0.0566,0.61,-0.43,0.12
4,82464843,0.7856,-0.5938,-0.0605,0.61,-0.30,0.06
5,82469844,0.7852,-0.5967,-0.0581,0.49,-0.43,0.06
6,82474957,0.7866,-0.5889,-0.0552,0.43,-0.55,-0.06
7,82479844,0.7871,-0.5908,-0.0547,0.37,-0.49,-0.18
8,82484843,0.7837,-0.5928,-0.0649,0.43,-0.55,-0.24
9,82489845,0.7822,-0.5923,-0.0542,0.43,-0.49,-0.24
10,82494842,0.7837,-0.5894,-0.0596,0.43,-0.55,-0.43
11,82499843,0.7827,-0.5938,-0.0586,0.49,-0.55,-0.49
12,82504841,0.7856,-0.5894,-0.0503,0.67,-0.55,-0.49
13,82509872,0.7847,-0.5889,-0.0522,0.85,-0.37,-0.61
14,82514842,0.7803,-0.5903,-0.0503,0.91,-0.49,-0.67
15,82519841,0.7866,-0.5894,-0.0513,1.10,-0.49,-0.73
16,82524845,0.7817,-0.5884,-0.0532,1.10,-0.49,-0.85
17,82529842,0.7871,-0.5859,-0.0532,1.28,-0.37,-0.98
18,82534843,0.7832,-0.5874,-0.0571,1.40,-0.43,-0.98
19,82539843,0.7866,-0.5874,-0.0566,1.40,-0.49,-1.10
20,82544841,0.7856,-0.5791,-0.0522,1.46,-0.55,-0.98
21,82549901,0.7886,-0.5820,-0.0537,1.46,-0.55,-1.10
22,82554842,0.7827,-0.5811,-0.0518,1.59,-0.61,-0.91
23,82559843,0.7837,-0.5825,-0.0508,1.65,-0.55,-0.91
24,82564842,0.7856,-0.5796,-0.0518,1.65,-0.67,-0.85
25,82569846,0.7900,-0.5757,-0.0571,1.71,-0.67,-0.79
26,82574842,0.7866,-0.5737,-0.0518,1.83,-0.67,-0.73
27,82579841,0.7861,-0.5728,-0.0522,1.95,-0.73,-0.67
28,82584845,0.7881,-0.5723,-0.0488,1.95,-0.85,-0.61
29,82589842,0.7891,-0.5737,-0.0527,1.95,-0.85,-0.49
30,82594843,0.7881,-0.5713,-0.0483,2.13,-0.98,-0.37
31,82599844,0.7886,-0.5669,-0.0503,2.13,-1.04,-0.30
32,82604843,0.7866,-0.5688,-0.0542,2.13,-1.10,-0.30
33,82609843,0.7886,-0.5684,-0.0537,2.20,-1.28,-0.18
34,82614843,0.7905,-0.5669,-0.0513,2.07,-1.46,-0.12
35,82619841,0.7866,-0.5693,-0.0527,2.01,-1.52,0.06
36,82624843,0.7915,-0.5654,-0.0552,1.95,-1.52,0.12
37,82629843,0.7930,-0.5625,-0.0537,1.89,-1.65,0.24
38,82634843,0.7925,-0.5620,-0.0562,1.71,-1.65,0.49
39,82639842,0.7891,-0.5620,-0.0581,1.52,-1.65,0.67
40,82644843,0.7900,-0.5615,-0.0566,1.34,-1.52,0.85
41,82650000,0.7881,-0.5610,-0.0562,1.16,-1.59,1.10
42,82654843,0.7905,-0.5596,-0.0630,1.10,-1.40,1.22
43,82659842,0.7871,-0.5601,-0.0542,1.16,-1.46,1.34
44,82664843,0.7915,-0.5552,-0.0537,1.16,-1.40,1.52
45,82670410,0.7876,-0.5566,-0.0591,1.16,-1.22,1.89
46,82674843,0.7886,-0.5591,-0.0601,1.22,-1.10,1.89
47,82679842,0.7900,-0.5571,-0.0576,1.40,-1.04,2.01
48,82684843,0.7896,-0.5591,-0.0571,1.59,-0.98,2.20
49,82689841,0.7886,-0.5635,-0.0542,1.83,-0.91,2.32
50,82694841,0.7910,-0.5645,-0.0552,2.20,-1.10,2.44
51,82699845,0.7871,-0.5674,-0.0527,2.56,-1.04,2.56
52,82704842,0.7886,-0.5654,-0.0576,2.80,-1.10,2.62
53,82709841,0.7881,-0.5630,-0.0562,3.05,-1.04,2.74
54,82714845,0.7837,-0.5640,-0.0596,3.29,-1.10,2.74
55,82719843,0.7905,-0.5645,-0.0591,3.35,-1.16,2.87
56,82724842,0.7847,-0.5591,-0.0620,3.35,-1.16,3.05
57,82729845,0.7842,-0.5630,-0.0615,3.41,-1.28,3.17
58,82734842,0.7832,-0.5659,-0.0605,3.29,-1.34,3.41
59,82739841,0.7852,-0.5684,-0.0620,3.29,-1.34,3.54
60,82744844,0.7837,-0.5708,-0.0591,3.05,-1.40,3.78
61,82749845,0.7832,-0.5728,-0.0620,2.93,-1.28,3.96
62,82754842,0.7837,-0.5708,-0.0630,2.68,-1.40,4.15
63,82759843,0.7847,-0.5742,-0.0674,2.44,-1.46,4.39
64,82764842,0.7808,-0.5752,-0.0605,2.13,-1.59,4.45
65,82769845,0.7778,-0.5767,-0.0635,1.89,-1.46,4.70
66,82774842,0.7773,-0.5796,-0.0610,1.65,-1.59,4.82
67,82779845,0.7808,-0.5781,-0.0581,1.52,-1.71,4.94
68,82784842,0.7773,-0.5796,-0.0620,1.16,-1.77,5.12
69,82789845,0.7759,-0.5776,-0.0674,0.98,-1.89,5.37
70,82794842,0.7754,-0.5791,-0.0693,0.67,-2.13,5.61
71,82799841,0.7764,-0.5762,-0.0674,0.43,-2.13,5.79
72,82804845,0.7783,-0.5762,-0.0669,0.06,-2.44,6.10
73,82809842,0.7783,-0.5747,-0.0679,-0.18,-2.56,6.40
74,82814843,0.7783,-0.5728,-0.0732,-0.55,-2.68,6.77
75,82819842,0.7769,-0.5737,-0.0708,-0.85,-2.93,7.01
76,82824843,0.7749,-0.5713,-0.0688,-1.28,-2.99,7.38
77,82829843,0.7749,-0.5698,-0.0732,-1.77,-3.05,7.68
78,82834843,0.7695,-0.5708,-0.0742,-2.20,-3.29,8.05
79,82839842,0.7695,-0.5703,-0.0767,-2.50,-3.35,8.41
80,82844843,0.7666,-0.5703,-0.0708,-2.99,-3.60,8.78
81,82849842,0.7632,-0.5713,-0.0708,-3.35,-3.84,9.09
82,82854843,0.7617,-0.5728,-0.0708,-3.84,-4.02,9.39
83,82859843,0.7583,-0.5684,-0.0728,-4.09,-4.21,9.82
84,82864843,0.7554,-0.5713,-0.0742,-4.45,-4.51,10.12
85,82869842,0.7500,-0.5713,-0.0742,-4.70,-4.88,10.43
86,82874843,0.7520,-0.5693,-0.0796,-5.12,-5.12,10.61
87,82879843,0.7490,-0.5713,-0.0791,-5.55,-5.49,10.91
88,82884843,0.7461,-0.5693,-0.0698,-6.10,-5.79,11.28
89,82889844,0.7412,-0.5688,-0.0718,-6.65,-6.16,11.59
90,82894843,0.7300,-0.5703,-0.0791,-7.07,-6.40,11.83
91,82899843,0.7280,-0.5693,-0.0786,-7.62,-6.65,12.07
92,82904843,0.7178,-0.5684,-0.0791,-8.11,-7.01,12.44
93,82909842,0.7144,-0.5659,-0.0786,-8.60,-7.50,12.62
94,82914843,0.7036,-0.5649,-0.0757,-9.09,-7.87,12.93
95,82919842,0.6982,-0.5601,-0.0806,-9.45,-8.23,13.11
96,82924843,0.6987,-0.5640,-0.0815,-9.88,-8.96,13.29
97,82929844,0.6997,-0.5605,-0.0869,-10.24,-9.45,13.54
98,82934843,0.6968,-0.5596,-0.0884,-10.67,-10.12,13.66
99,82939842,0.6987,-0.5591,-0.0786,-11.34,-10.73,13.96
100,82944843,0.7002,-0.5610,-0.0840,-11.89,-11.40,14.21
101,82949843,0.7104,-0.5576,-0.0918,-12.68,-11.95,14.63
102,82954842,0.7173,-0.5649,-0.0889,-13.48,-12.44,14.88
103,82959845,0.7256,-0.5737,-0.0913,-14.27,-13.05,15.30
104,82964842,0.7393,-0.5820,-0.0854,-15.43,-13.60,15.85
105,82969843,0.7485,-0.5884,-0.0859,-16.22,-13.96,16.34
106,82974842,0.7573,-0.5947,-0.0942,-17.07,-14.33,16.89
107,82979843,0.7607,-0.5942,-0.0952,-17.87,-14.82,17.38
108,82984842,0.7681,-0.6084,-0.0981,-18.72,-15.18,17.87
109,82989841,0.7690,-0.6133,-0.1016,-19.27,-15.24,18.41
110,82994845,0.7744,-0.6221,-0.1152,-19.76,-15.55,18.78
111,82999843,0.7788,-0.6353,-0.1187,-20.00,-15.67,19.27
112,83004842,0.7822,-0.6416,-0.1191,-20.12,-15.79,19.51
113,83009851,0.7900,-0.6484,-0.1191,-20.12,-15.91,19.70
114,83014842,0.7910,-0.6572,-0.1318,-19.70,-15.98,19.76
115,83019845,0.7930,-0.6650,-0.1328,-19.21,-15.85,19.63
116,83024842,0.8018,-0.6724,-0.1396,-18.41,-15.67,19.33
117,83029843,0.8008,-0.6821,-0.1387,-17.26,-15.61,18.84
118,83034842,0.8018,-0.6963,-0.1421,-15.85,-15.55,18.17
119,83039843,0.7969,-0.7148,-0.1455,-14.27,-15.37,17.26
120,83044842,0.7988,-0.7334,-0.1411,-12.38,-15.43,16.22
121,83049845,0.7949,-0.7495,-0.1406,-10.30,-15.24,15.06
122,83054842,0.7910,-0.7666,-0.1440,-8.11,-15.24,13.78
123,83059845,0.7881,-0.7749,-0.1460,-5.85,-15.49,12.32
124,83064842,0.7793,-0.7866,-0.1538,-3.78,-15.49,10.91
125,83069845,0.7715,-0.7939,-0.1611,-1.65,-15.49,9.39
126,83074842,0.7676,-0.8052,-0.1660,0.30,-15.61,7.87
127,83079845,0.7583,-0.8086,-0.1670,2.01,-15.79,6.34
128,83084842,0.7563,-0.8066,-0.1729,3.72,-16.10,4.76
129,83089843,0.7495,-0.8027,-0.1851,5.00,-16.22,3.23
130,83094842,0.7451,-0.7988,-0.1909,6.04,-16.28,1.71
131,83099845,0.7344,-0.7935,-0.1978,6.77,-16.46,0.30
132,83104842,0.7319,-0.7876,-0.1978,7.20,-16.52,-1.10
133,83109843,0.7251,-0.7881,-0.2085,7.32,-16.40,-2.26
134,83114842,0.7163,-0.7764,-0.2070,7.20,-16.46,-3.35
135,83120068,0.7148,-0.7739,-0.2197,6.83,-16.34,-4.27
136,83124843,0.7051,-0.7720,-0.2231,6.10,-16.22,-5.06
137,83129842,0.6929,-0.7534,-0.2212,5.06,-15.98,-5.67
138,83134841,0.6875,-0.7437,-0.2275,3.78,-15.91,-6.22
139,83139844,0.6743,-0.7314,-0.2236,2.38,-15.55,-6.59
140,83144843,0.6641,-0.7212,-0.2271,0.61,-15.37,-7.01
141,83149842,0.6562,-0.7051,-0.2285,-1.22,-15.12,-7.32
142,83154844,0.6523,-0.6958,-0.2310,-3.29,-14.63,-7.62
143,83159843,0.6548,-0.6870,-0.2314,-5.43,-14.27,-7.93
144,83164843,0.6538,-0.6812,-0.2329,-7.68,-14.02,-8.11
145,83169842,0.6494,-0.6763,-0.2280,-9.76,-13.60,-8.23
146,83174844,0.6504,-0.6743,-0.2231,-11.83,-13.23,-8.35
147,83179842,0.6489,-0.6782,-0.2231,-13.78,-12.68,-8.29
148,83184844,0.6553,-0.6855,-0.2212,-15.61,-12.20,-8.29
149,83189841,0.6587,-0.6860,-0.2188,-17.26,-11.65,-8.17
150,83194843,0.6577,-0.6895,-0.2183,-18.72,-11.04,-8.11
151,83199842,0.6616,-0.6860,-0.2129,-20.00,-10.37,-7.99
152,83204845,0.6602,-0.6841,-0.2144,-21.22,-9.76,-7.87
153,83209842,0.6558,-0.6831,-0.2100,-22.01,-8.96,-7.80
154,83214841,0.6597,-0.6816,-0.2134,-22.87,-8.35,-7.74
155,83221180,0.6553,-0.6821,-0.2036,-23.78,-7.38,-7.68
156,83224845,0.6543,-0.6836,-0.2002,-24.09,-6.95,-7.74
157,83229843,0.6509,-0.6807,-0.2021,-24.57,-6.10,-7.74
158,83234842,0.6504,-0.6758,-0.2002,-24.82,-5.24,-7.74
159,83239845,0.6479,-0.6714,-0.2051,-25.00,-4.51,-7.74
160,83244842,0.6475,-0.6675,-0.1992,-24.82,-3.60,-7.93
161,83249843,0.6440,-0.6606,-0.1987,-24.63,-2.87,-8.17
162,83254842,0.6470,-0.6592,-0.2002,-24.27,-2.01,-8.35
163,83259841,0.6431,-0.6548,-0.1938,-23.60,-1.22,-8.66
164,83264845,0.6387,-0.6543,-0.1948,-22.68,-0.37,-8.96
165,83269843,0.6362,-0.6475,-0.1973,-21.52,0.37,-9.33
166,83274842,0.6338,-0.6484,-0.1953,-20.00,1.16,-9.70
167,83280047,0.6289,-0.6494,-0.1987,-18.29,1.95,-10.00
168,83284843,0.6230,-0.6445,-0.1919,-16.83,2.56,-10.37
169,83289843,0.6226,-0.6377,-0.1968,-14.15,3.23,-10.91
170,83294843,0.6182,-0.6357,-0.1987,-12.26,3.90,-11.34
171,83299845,0.6123,-0.6304,-0.2026,-9.15,4.51,-12.01
172,83304843,0.6108,-0.6270,-0.2051,-6.89,4.82,-12.38
173,83309841,0.6074,-0.6235,-0.2090,-3.96,5.30,-12.99
174,83314843,0.6050,-0.6279,-0.2041,-0.98,5.61,-13.54
175,83319845,0.5967,-0.6309,-0.2036,2.26,5.98,-14.15
176,83324842,0.5977,-0.6338,-0.2158,5.43,6.28,-14.88
177,83329843,0.6011,-0.6401,-0.2212,8.72,6.22,-15.37
178,83334842,0.6011,-0.6362,-0.2197,11.95,6.28,-16.04
179,83339841,0.6021,-0.6406,-0.2261,15.18,6.16,-16.52
180,83344845,0.5986,-0.6436,-0.2192,18.29,6.10,-17.26
181,83349842,0.6030,-0.6460,-0.2212,21.22,5.79,-17.80
182,83354843,0.6021,-0.6504,-0.2241,23.90,5.49,-18.29
183,83359841,0.6045,-0.6548,-0.2129,26.52,5.00,-18.78
184,83364845,0.6074,-0.6558,-0.2148,28.78,4.76,-19.33
185,83369843,0.6069,-0.6602,-0.2183,30.85,4.02,-19.88
186,83374842,0.6079,-0.6636,-0.2139,32.50,3.60,-20.24
187,83379841,0.6113,-0.6675,-0.2124,34.09,2.87,-20.73
188,83384844,0.6123,-0.6714,-0.2090,35.37,2.20,-21.28
189,83389843,0.6147,-0.6689,-0.2065,36.34,1.46,-21.71
190,83394843,0.6172,-0.6694,-0.2070,37.01,0.73,-22.01
191,83399841,0.6191,-0.6641,-0.2041,37.38,-0.12,-22.44
192,83404844,0.6240,-0.6660,-0.2085,37.62,-1.10,-22.93
193,83409842,0.6289,-0.6670,-0.2061,37.56,-2.07,-23.17
194,83414842,0.6353,-0.6650,-0.2002,37.26,-3.05,-23.54
195,83419844,0.6348,-0.6646,-0.1953,36.71,-4.15,-23.78
196,83424843,0.6440,-0.6631,-0.1875,36.10,-5.30,-24.09
197,83430354,0.6465,-0.6562,-0.1885,35.12,-6.46,-24.27
198,83434843,0.6509,-0.6514,-0.1865,34.15,-7.56,-24.21
199,83439844,0.6533,-0.6504,-0.1890,32.80,-8.78,-24.39
200,83444843,0.6582,-0.6382,-0.1855,31.52,-9.94,-24.39
201,83449842,0.6602,-0.6323,-0.1836,29.94,-11.04,-24.39
202,83454843,0.6631,-0.6196,-0.1831,28.35,-12.44,-24.33
203,83459842,0.6699,-0.6123,-0.1836,26.65,-13.66,-24.21
204,83464870,0.6807,-0.6055,-0.1826,24.88,-14.82,-24.02
205,83469843,0.6919,-0.6025,-0.1782,23.35,-16.22,-23.66
206,83474842,0.7031,-0.5977,-0.1782,21.71,-17.50,-23.29
207,83479843,0.7158,-0.5962,-0.1846,20.30,-18.84,-22.80
208,83484842,0.7261,-0.5972,-0.1763,18.96,-20.30,-22.13
209,83489843,0.7363,-0.5903,-0.1826,17.68,-21.52,-21.40
210,83494842,0.7485,-0.5908,-0.1758,16.65,-22.87,-20.49
211,83499843,0.7568,-0.5840,-0.1729,15.55,-24.15,-19.57
212,83504842,0.7695,-0.5786,-0.1724,14.51,-25.43,-18.48
213,83509841,0.7783,-0.5742,-0.1592,13.48,-26.77,-17.32
214,83514841,0.7852,-0.5679,-0.1577,12.56,-27.87,-16.16
215,83520355,0.7935,-0.5557,-0.1597,11.46,-29.27,-14.70
216,83524843,0.8008,-0.5513,-0.1567,10.73,-30.12,-13.54
217,83529916,0.8037,-0.5396,-0.1523,9.70,-31.10,-12.13
218,83534843,0.8110,-0.5410,-0.1528,8.72,-32.07,-10.67
219,83539842,0.8208,-0.5454,-0.1255,7.87,-32.80,-8.90
220,83544843,0.8325,-0.5342,-0.1167,7.44,-33.17,-7.07
221,83549844,0.8452,-0.5273,-0.1172,7.07,-33.41,-5.24
222,83554843,0.8579,-0.5132,-0.1123,6.59,-33.41,-3.29
223,83559841,0.8682,-0.5005,-0.1201,6.16,-33.23,-1.28
224,83564841,0.8721,-0.4561,-0.0869,5.73,-32.74,0.61
225,83569842,0.8853,-0.4233,-0.0527,5.37,-30.91,2.50
226,83574843,0.9014,-0.4146,-0.0342,4.88,-28.41,4.33
227,83579843,0.9155,-0.4141,-0.0112,4.82,-25.12,5.85
228,83584843,0.9258,-0.3994,0.0044,5.06,-21.16,7.32
229,83589843,0.9404,-0.3682,0.0220,5.67,-16.40,8.60
230,83594842,0.9634,-0.3491,-0.0430,6.34,-11.95,9.27
231,83599845,0.9624,-0.3384,-0.0786,6.83,-8.17,9.82
232,83604842,0.9536,-0.3550,-0.0889,7.26,-5.18,10.18
233,83609841,0.9360,-0.3706,-0.0962,7.32,-2.62,10.79
234,83614841,0.9292,-0.3955,-0.1040,7.20,-0.67,11.65
235,83619841,0.9258,-0.4224,-0.1094,6.89,1.10,12.62
236,83624844,0.9355,-0.4424,-0.1108,6.22,2.68,14.09
237,83629843,0.9526,-0.4614,-0.1079,5.24,4.02,15.85
238,83634843,0.9653,-0.4731,-0.1177,3.78,5.00,17.99
239,83639844,0.9707,-0.4805,-0.1260,1.89,5.79,20.37
240,83644843,0.9702,-0.4883,-0.1250,-0.30,6.40,23.05
241,83649845,0.9600,-0.4810,-0.1235,-3.17,6.77,25.85
242,83654842,0.9521,-0.3325,-0.2383,-6.28,6.22,27.93
243,83659843,0.9419,-0.4556,-0.0659,-9.57,5.55,28.72
244,83664842,0.9126,-0.4751,-0.0986,-13.60,5.67,30.43
245,83669841,0.9033,-0.4351,-0.1470,-17.74,5.61,31.89
246,83674845,0.8911,-0.4531,-0.0898,-22.01,5.55,33.35
247,83679843,0.8789,-0.4551,-0.0977,-26.40,5.49,34.63
248,83684842,0.8784,-0.4517,-0.1265,-30.91,5.30,36.04
249,83689841,0.8774,-0.4360,-0.1323,-35.61,5.00,37.50
250,83694845,0.8779,-0.4150,-0.1250,-40.24,4.70,38.72
251,83700280,0.8647,-0.3940,-0.1416,-44.76,4.27,39.82
252,83704843,0.8491,-0.3779,-0.1675,-49.33,3.54,40.91
253,83709844,0.8364,-0.3804,-0.1538,-53.66,2.74,41.77
254,83714843,0.8232,-0.3662,-0.1509,-57.68,1.95,42.87
255,83719841,0.8110,-0.3525,-0.1504,-61.52,1.28,43.66
256,83725232,0.8032,-0.3315,-0.1646,-65.24,0.67,44.63
257,83729844,0.7974,-0.3159,-0.1899,-68.84,0.06,45.24
258,83734842,0.7896,-0.3120,-0.1655,-72.26,-0.49,45.85
259,83739843,0.7764,-0.3174,-0.1509,-74.88,-0.49,46.16
260,83744841,0.7671,-0.3218,-0.1777,-77.01,-0.85,46.52
261,83749842,0.7520,-0.3203,-0.1792,-78.60,-1.22,46.95
262,83754845,0.7363,-0.3252,-0.2041,-79.76,-1.46,47.26
263,83759842,0.7275,-0.3315,-0.1846,-80.37,-1.71,47.44
264,83764841,0.7222,-0.3359,-0.1636,-80.43,-1.59,47.74
265,83769845,0.7231,-0.3540,-0.1899,-79.57,-1.28,47.74
266,83775090,0.7246,-0.3735,-0.2075,-78.05,-0.85,47.93
267,83779842,0.7368,-0.3726,-0.2427,-77.13,-0.49,47.99
268,83784845,0.6738,-0.3286,-0.2744,-76.89,-0.12,47.74
269,83789842,0.6240,-0.3149,-0.2803,-76.34,0.79,47.13
270,83794918,0.6147,-0.3384,-0.2207,-75.24,2.13,46.22
271,83799843,0.6338,-0.3589,-0.1992,-73.17,3.84,45.43
272,83804843,0.6494,-0.3809,-0.2139,-70.55,5.55,44.39
273,83809982,0.6650,-0.4146,-0.2285,-67.68,6.95,43.48
274,83814843,0.6836,-0.4287,-0.2524,-64.82,8.29,42.93
275,83819842,0.6392,-0.4126,-0.2593,-62.50,9.51,42.07
276,83824844,0.6323,-0.4429,-0.2554,-60.06,10.79,41.52
277,83829842,0.6030,-0.4727,-0.2563,-57.56,12.32,40.98
278,83834843,0.6470,-0.4961,-0.2529,-55.12,13.66,40.30
279,83839844,0.6895,-0.5156,-0.2480,-52.56,15.18,39.70
280,83844842,0.6787,-0.5586,-0.2178,-50.61,16.59,38.84
281,83849841,0.7363,-0.5923,-0.2319,-48.72,18.11,38.29
282,83854845,0.7505,-0.5811,-0.2583,-46.46,19.51,37.50
283,83859843,0.7285,-0.5874,-0.2061,-44.82,20.85,36.46
284,83864842,0.7461,-0.6138,-0.1948,-42.99,22.62,35.61
285,83869841,0.7422,-0.6206,-0.2388,-41.16,24.09,34.63
286,83874892,0.7563,-0.6343,-0.2090,-39.70,25.43,33.78
287,83879843,0.7739,-0.6504,-0.1826,-37.99,26.89,32.99
288,83884843,0.7788,-0.6787,-0.1763,-36.71,28.17,32.07
289,83889843,0.8135,-0.6934,-0.1909,-35.55,29.45,31.40
290,83894843,0.8320,-0.6997,-0.1880,-34.21,30.61,30.55
291,83899843,0.8271,-0.7114,-0.1450,-33.66,31.52,30.00
292,83904843,0.8394,-0.7168,-0.1406,-32.93,32.38,29.45
293,83909841,0.8286,-0.7485,-0.1587,-32.26,33.29,28.72
294,83914843,0.8955,-0.7661,-0.1514,-31.46,33.72,28.29
295,83919842,0.9092,-0.7573,-0.1099,-30.79,34.57,27.68
296,83924841,0.9243,-0.7490,-0.1421,-30.18,35.06,27.01
297,83929971,0.9429,-0.7500,-0.1606,-29.63,35.37,26.59
298,83934842,0.9370,-0.7393,-0.1245,-29.09,35.91,26.04
299,83939845,0.9214,-0.7427,-0.1084,-28.72,36.22,25.61
300,83944842,0.9365,-0.7432,-0.1226,-28.41,36.65,25.24
301,83950190,0.9458,-0.7324,-0.1133,-28.35,37.07,24.88
302,83954844,0.9473,-0.7192,-0.0981,-28.48,37.56,24.45
303,83959843,0.9185,-0.7163,-0.0894,-28.96,38.11,23.96
304,83964843,0.9053,-0.7100,-0.0874,-29.33,38.60,23.48
305,83969841,0.9072,-0.6958,-0.0913,-29.82,38.90,22.99
306,83974841,0.8989,-0.6807,-0.1001,-30.55,39.21,22.68
307,83979845,0.8848,-0.6621,-0.0996,-31.34,39.39,22.32
308,83984842,0.8228,-0.6143,-0.1416,-32.68,39.70,21.89
309,83989843,0.8423,-0.6118,-0.1011,-34.45,39.88,21.46
310,83994842,0.8242,-0.6094,-0.0483,-35.98,40.18,20.79
311,83999843,0.8345,-0.6128,-0.0601,-37.44,40.61,20.18
312,84004842,0.8384,-0.6099,-0.1079,-38.84,40.67,19.57
313,84009844,0.8306,-0.5957,-0.0952,-40.49,40.55,18.78
314,84014842,0.8027,-0.5815,-0.0664,-41.59,40.98,18.23
315,84019841,0.7925,-0.5781,-0.0688,-42.99,41.16,17.62
316,84024841,0.7524,-0.5493,-0.1060,-44.15,41.40,17.01
317,84029930,0.7539,-0.5557,-0.0576,-45.91,41.52,15.98
318,84034842,0.7598,-0.5845,-0.0117,-46.71,41.89,15.43
319,84039843,0.7915,-0.5933,-0.0435,-47.62,41.95,14.82
320,84044842,0.7993,-0.5913,-0.0693,-48.23,41.95,14.15
321,84049843,0.7881,-0.5713,-0.0615,-49.15,41.83,13.54
322,84054842,0.7764,-0.5547,-0.0552,-50.18,42.13,12.87
323,84059983,0.7231,-0.5601,-0.0400,-51.77,42.20,11.83
324,84064843,0.7612,-0.5449,-0.0483,-52.93,41.77,11.28
325,84069843,0.7856,-0.5405,-0.0103,-54.15,41.89,10.37
326,84074843,0.7827,-0.5913,-0.0376,-55.67,41.71,9.82
327,84079841,0.7251,-0.5708,-0.0347,-57.44,41.16,9.09
328,84084841,0.7295,-0.5654,-0.0200,-59.09,40.85,8.35
329,84089844,0.7383,-0.5376,-0.0444,-60.79,40.37,7.50
330,84094843,0.7183,-0.5352,-0.0503,-63.05,39.76,6.52
331,84099843,0.7627,-0.5557,-0.0479,-65.06,39.27,5.67
332,84104984,0.7686,-0.5723,-0.0718,-66.83,38.54,5.06
333,84109844,0.7505,-0.6128,-0.0674,-67.56,38.23,5.00
334,84114842,0.6953,-0.5562,-0.1030,-68.48,37.93,5.43
335,84119845,0.7109,-0.5732,-0.0684,-69.88,37.68,5.49
336,84124844,0.7256,-0.5264,-0.0542,-70.49,37.38,5.55
337,84129843,0.7319,-0.5220,-0.0562,-71.34,37.56,5.43
338,84134843,0.7388,-0.5303,-0.1025,-71.89,37.44,5.49
339,84139843,0.6875,-0.5273,-0.1479,-73.05,37.13,5.37
340,84144843,0.7183,-0.5430,-0.1299,-74.33,36.77,5.37
341,84149843,0.7271,-0.5415,-0.1191,-74.82,36.46,5.98
342,84154843,0.7246,-0.5522,-0.1128,-75.37,36.40,6.83
343,84160373,0.6831,-0.4995,-0.1704,-75.85,36.10,7.93
344,84164844,0.6973,-0.4946,-0.1860,-76.71,35.18,8.48
345,84169843,0.7192,-0.5083,-0.1201,-77.50,34.63,9.15
346,84174843,0.6997,-0.4707,-0.1646,-78.29,34.27,9.70
347,84179841,0.6860,-0.4814,-0.1772,-79.39,33.41,10.00
348,84184841,0.7056,-0.5083,-0.1431,-80.49,32.62,10.55
349,84189843,0.6948,-0.5151,-0.1401,-81.46,32.01,11.10
350,84194846,0.7114,-0.5288,-0.1699,-82.62,31.10,11.77
351,84199844,0.7261,-0.5454,-0.1694,-83.60,30.06,12.50
352,84204843,0.7388,-0.5615,-0.1479,-84.63,29.57,13.48
353,84209844,0.7393,-0.5698,-0.1592,-85.67,28.90,14.57
354,84214843,0.7539,-0.5737,-0.1772,-86.77,27.99,15.85
355,84219845,0.7598,-0.5737,-0.1821,-87.74,27.26,17.20
356,84224842,0.7627,-0.5635,-0.1812,-88.78,26.65,18.72
357,84229841,0.7578,-0.5488,-0.2002,-89.70,25.79,20.00
358,84234844,0.7544,-0.5298,-0.2207,-90.73,25.12,21.40
359,84239845,0.7461,-0.5186,-0.2251,-91.83,24.27,22.80
360,84244842,0.7573,-0.5068,-0.2290,-92.87,23.60,24.09
361,84249852,0.7681,-0.5015,-0.2534,-93.96,22.80,25.49
362,84254845,0.7759,-0.5156,-0.2812,-95.06,21.89,26.89
363,84259843,0.7939,-0.5342,-0.2866,-96.16,21.04,28.60
364,84264842,0.7979,-0.5381,-0.2852,-97.01,20.12,30.43
365,84269843,0.8037,-0.5396,-0.3120,-97.38,19.21,32.26
366,84274842,0.7974,-0.5425,-0.3511,-97.44,18.23,34.33
367,84279841,0.8188,-0.5571,-0.3403,-97.26,17.44,36.16
368,84284841,0.8320,-0.5635,-0.3350,-96.71,16.83,37.87
369,84290222,0.8447,-0.5552,-0.3701,-95.67,15.79,39.63
370,84294843,0.8696,-0.5479,-0.3638,-94.82,15.24,40.49
371,84299843,0.8687,-0.5396,-0.3496,-93.90,14.82,41.28
372,84304843,0.8623,-0.5298,-0.3975,-92.99,14.33,41.52
373,84309844,0.8936,-0.5771,-0.4419,-92.87,13.54,41.83
374,84314843,0.8999,-0.5908,-0.3931,-92.93,12.93,41.89
375,84319842,0.9043,-0.5708,-0.3838,-93.11,12.44,41.89
376,84324845,0.9028,-0.5405,-0.4404,-93.48,11.52,41.59
377,84329842,0.8979,-0.5078,-0.4453,-93.90,10.37,41.16
378,84335034,0.9009,-0.5103,-0.4243,-94.70,9.33,40.43
379,84339843,0.8950,-0.5156,-0.4336,-95.24,8.48,39.76
380,84344842,0.8901,-0.5024,-0.4629,-95.73,7.74,38.72
381,84349845,0.8877,-0.4834,-0.4585,-95.91,6.89,37.74
382,84354842,0.8818,-0.4644,-0.4492,-95.98,6.34,36.40
383,84359843,0.8799,-0.4517,-0.4614,-95.61,5.73,35.30
384,84364842,0.8794,-0.4458,-0.4717,-94.76,5.12,34.51
385,84369843,0.8740,-0.4272,-0.4888,-93.41,4.57,33.78
386,84374842,0.8711,-0.4062,-0.4819,-91.59,4.09,33.17
387,84379841,0.8867,-0.3901,-0.4961,-89.21,3.84,32.50
388,84384843,0.8965,-0.3638,-0.5117,-86.16,3.54,31.83
389,84389844,0.8950,-0.3599,-0.5161,-82.56,3.35,31.16
390,84394843,0.9038,-0.3506,-0.5215,-78.66,2.99,30.61
391,84399842,0.9019,-0.3506,-0.5415,-74.39,2.44,30.43
392,84404843,0.9092,-0.3398,-0.5337,-69.76,1.83,30.30
393,84409843,0.9033,-0.3320,-0.5283,-64.88,1.46,30.24
394,84414843,0.9087,-0.3164,-0.5283,-59.94,1.04,30.24
395,84419842,0.9033,-0.3184,-0.5239,-55.00,0.55,29.88
396,84425023,0.9072,-0.3198,-0.5176,-49.94,-0.06,29.63
397,84429843,0.9043,-0.3325,-0.5229,-44.63,-0.55,29.39
398,84434842,0.8926,-0.3369,-0.5254,-39.15,-1.28,29.15
399,84439845,0.8760,-0.3413,-0.5215,-33.41,-1.89,28.90
400,84444842,0.8521,-0.3369,-0.5200,-27.74,-2.50,28.66
401,84449843,0.8330,-0.3306,-0.5181,-22.01,-3.29,28.35
402,84454842,0.8130,-0.3228,-0.5083,-16.28,-3.96,27.68
403,84459843,0.7920,-0.2998,-0.5063,-10.55,-4.57,26.95
404,84464842,0.7754,-0.2783,-0.4980,-5.55,-5.12,26.16
405,84469843,0.7495,-0.2539,-0.5073,-1.16,-5.79,25.12
406,84474842,0.7295,-0.2539,-0.5044,2.32,-6.40,24.09
407,84479841,0.7119,-0.2275,-0.4966,4.70,-6.95,23.17
408,84485408,0.7046,-0.1841,-0.4619,6.04,-7.44,22.20
409,84489845,0.6816,-0.1660,-0.4619,6.65,-7.62,20.98
410,84494842,0.6699,-0.1724,-0.4888,6.59,-8.41,19.88
411,84499843,0.6650,-0.1870,-0.4712,6.04,-8.90,18.78
412,84504842,0.6602,-0.1797,-0.4478,4.88,-9.33,17.87
413,84509843,0.6572,-0.1709,-0.4663,3.60,-9.94,16.89
414,84514842,0.6548,-0.1719,-0.4795,2.07,-10.67,15.91
415,84519845,0.6582,-0.1821,-0.4731,0.67,-11.22,15.00
416,84524842,0.6626,-0.2051,-0.4702,-0.73,-11.89,14.02
417,84529893,0.6689,-0.2217,-0.4673,-1.95,-12.74,13.17
418,84534845,0.6714,-0.2363,-0.4717,-3.17,-13.35,12.20
419,84539842,0.6685,-0.2480,-0.4629,-4.57,-14.02,11.34
420,84544843,0.6709,-0.2490,-0.4702,-6.16,-14.39,10.55
421,84549844,0.6582,-0.2427,-0.4756,-7.74,-14.88,9.82
422,84554843,0.6426,-0.2104,-0.4902,-10.12,-15.43,8.90
423,84559842,0.6440,-0.2153,-0.4629,-13.41,-15.67,8.23
424,84564843,0.6611,-0.2222,-0.4746,-17.32,-16.10,7.56
425,84570359,0.6787,-0.2749,-0.4824,-21.77,-16.34,6.83
426,84574843,0.6733,-0.3164,-0.4819,-26.65,-16.71,6.65
427,84579844,0.6782,-0.3354,-0.4912,-31.77,-16.89,6.65
428,84584843,0.6758,-0.3442,-0.5000,-36.59,-16.59,6.71
429,84589841,0.6865,-0.3506,-0.5112,-41.10,-16.40,6.71
430,84594841,0.6841,-0.3525,-0.5195,-44.82,-15.73,6.65
431,84599845,0.6982,-0.3423,-0.5469,-48.11,-15.30,6.40
432,84604842,0.6841,-0.3662,-0.5537,-51.34,-15.18,5.85
433,84609979,0.6426,-0.3491,-0.5532,-53.90,-15.12,5.43
434,84614843,0.6484,-0.3501,-0.5781,-55.91,-14.94,5.24
435,84619843,0.6543,-0.3560,-0.5581,-58.48,-15.00,4.88
436,84624843,0.6650,-0.3770,-0.5142,-61.71,-14.88,4.45
437,84629842,0.6719,-0.3955,-0.5083,-65.37,-14.82,3.84
438,84634843,0.6768,-0.4077,-0.5215,-69.15,-14.88,3.11
439,84639844,0.6660,-0.4160,-0.5151,-72.93,-15.00,2.26
440,84644843,0.6680,-0.4150,-0.5122,-76.40,-14.94,1.22
441,84649847,0.6621,-0.4204,-0.5278,-79.39,-14.82,0.24
442,84654845,0.6592,-0.4150,-0.5464,-81.95,-14.63,-0.61
443,84659866,0.6543,-0.4131,-0.5479,-83.90,-14.45,-1.71
444,84664843,0.6494,-0.4053,-0.5532,-85.37,-14.33,-2.68
445,84669841,0.6411,-0.3984,-0.5684,-86.34,-13.90,-3.84
446,84674843,0.6489,-0.3784,-0.5771,-86.65,-13.66,-4.94
447,84679844,0.6470,-0.3682,-0.5449,-86.65,-13.11,-6.10
448,84684843,0.6255,-0.3604,-0.5791,-86.65,-12.74,-7.01
449,84690238,0.6167,-0.3462,-0.5737,-86.46,-12.38,-7.93
450,84694843,0.6152,-0.3271,-0.5698,-86.40,-12.01,-8.72
451,84699844,0.6245,-0.3130,-0.5664,-86.22,-11.59,-9.45
452,84704843,0.6304,-0.3076,-0.5884,-85.79,-11.28,-10.18
453,84709842,0.6318,-0.3027,-0.5977,-84.94,-10.79,-10.79
454,84714843,0.6279,-0.3013,-0.6123,-83.41,-10.30,-11.40
455,84719843,0.6187,-0.2954,-0.6182,-81.65,-9.70,-12.07
456,84724843,0.6074,-0.2847,-0.6240,-79.94,-9.15,-12.62
457,84729841,0.5957,-0.2646,-0.6201,-77.68,-8.11,-13.48
458,84734845,0.5859,-0.2593,-0.6167,-75.85,-7.62,-14.27
459,84739842,0.5825,-0.2559,-0.6177,-74.63,-7.07,-14.88
460,84744841,0.5718,-0.2422,-0.6230,-73.17,-6.28,-15.55
461,84749843,0.5713,-0.2368,-0.6162,-71.65,-5.49,-16.04
462,84754844,0.5869,-0.2363,-0.6108,-70.24,-4.76,-16.65
463,84759843,0.6138,-0.2314,-0.6050,-68.90,-4.09,-17.07
464,84764843,0.6421,-0.2202,-0.5981,-67.87,-3.60,-17.44
465,84769842,0.6553,-0.1987,-0.5928,-66.89,-2.87,-17.80
466,84774843,0.6538,-0.1680,-0.6055,-66.28,-2.26,-17.87
467,84779844,0.6533,-0.1421,-0.6152,-65.73,-1.83,-17.80
468,84784843,0.6528,-0.1094,-0.6270,-65.67,-1.34,-17.56
469,84789841,0.6445,-0.0562,-0.5991,-66.10,-0.91,-16.95
470,84794843,0.6577,-0.0249,-0.6060,-67.01,-0.61,-16.40
471,84799845,0.6582,-0.0073,-0.6108,-68.23,-0.49,-15.43
472,84804842,0.6616,0.0137,-0.5972,-69.88,-0.30,-14.39
473,84809843,0.6626,0.0391,-0.6001,-71.59,-0.30,-13.05
474,84814842,0.6572,0.0591,-0.6089,-73.54,-0.37,-11.65
475,84819843,0.6431,0.0757,-0.6094,-75.67,-0.55,-10.18
476,84824842,0.6328,0.0840,-0.6147,-77.68,-0.79,-8.66
477,84829844,0.6240,0.0889,-0.6177,-79.33,-1.04,-7.20
478,84834842,0.6240,0.0869,-0.6289,-80.85,-1.59,-5.67
479,84839842,0.6284,0.0806,-0.6377,-81.89,-2.32,-4.02
480,84844841,0.6372,0.0669,-0.6470,-82.50,-2.93,-2.20
481,84850251,0.6479,0.0430,-0.6616,-82.44,-3.96,0.37
482,84854843,0.6470,0.0845,-0.6577,-81.83,-4.76,2.13
483,84859845,0.6431,0.0952,-0.6582,-80.67,-5.67,4.21
484,84864842,0.6357,0.0381,-0.6479,-79.15,-6.52,6.65
485,84869843,0.6338,0.0142,-0.6802,-76.52,-7.38,9.76
486,84874842,0.6250,0.0542,-0.6729,-73.60,-8.41,13.11
487,84879843,0.6475,0.1016,-0.6416,-70.37,-9.15,15.91
488,84884842,0.6655,0.1470,-0.6289,-67.20,-9.63,18.48
489,84889841,0.6724,0.1812,-0.6260,-64.15,-9.82,20.49
490,84895014,0.6826,0.2080,-0.6245,-61.46,-9.82,21.77
491,84900308,0.6826,0.2012,-0.6230,-58.48,-9.39,22.50
492,84904843,0.6826,0.1982,-0.6289,-56.89,-9.51,22.56
493,84909842,0.6904,0.1802,-0.6426,-55.18,-9.15,22.32
494,84914843,0.6963,0.1577,-0.6616,-53.78,-8.90,22.13
495,84919844,0.7056,0.1470,-0.6812,-52.62,-8.66,21.83
496,84924843,0.7124,0.1489,-0.6992,-51.22,-8.60,21.71
497,84929842,0.7148,0.1504,-0.7256,-50.00,-8.66,21.65
498,84934843,0.7002,0.1426,-0.7598,-48.90,-8.66,21.59
499,84939844,0.6558,0.1343,-0.7852,-48.17,-8.66,21.83
500,84944843,0.6479,0.1216,-0.7920,-48.29,-8.72,22.13
501,84949841,0.6582,0.1177,-0.8047,-49.63,-8.35,22.87
502,84954843,0.6548,0.1289,-0.8110,-51.52,-7.93,23.35
503,84959844,0.6470,0.1421,-0.8232,-55.12,-7.07,24.21
504,84964843,0.6353,0.1572,-0.8296,-60.12,-5.85,25.18
505,84969843,0.6250,0.1821,-0.8398,-66.77,-4.27,26.22
506,84974842,0.6235,0.2100,-0.8511,-74.70,-2.32,27.56
507,84980039,0.6226,0.2329,-0.8745,-83.72,0.12,29.21
508,84984844,0.6250,0.2539,-0.8940,-93.35,2.80,31.10
509,84989843,0.6382,0.2632,-0.9326,-102.68,5.79,33.11
510,84994843,0.6323,0.2427,-0.9668,-111.22,9.09,35.49
511,84999843,0.6191,0.2183,-1.0161,-118.66,12.20,37.80
512,85004842,0.6123,0.1846,-1.0532,-124.51,15.24,40.24
513,85009843,0.6108,0.1768,-1.0884,-128.84,18.41,42.62
514,85014842,0.6250,0.1753,-1.1138,-131.89,21.83,44.88
515,85019843,0.6411,0.1538,-1.1401,-133.84,25.55,47.01
516,85024842,0.6572,0.1152,-1.1763,-134.88,29.33,49.63
517,85029844,0.6748,0.0903,-1.2021,-135.06,32.99,52.44
518,85034950,0.6846,0.0913,-1.2183,-134.33,36.83,55.49
519,85039845,0.7065,0.1196,-1.2188,-132.74,40.73,58.35
520,85044842,0.7188,0.1284,-1.2241,-130.43,44.70,60.67
521,85050217,0.7217,0.1172,-1.2393,-127.80,48.72,62.80
522,85054843,0.7227,0.0962,-1.2549,-124.57,52.68,64.88
523,85059844,0.7280,0.0703,-1.2651,-120.85,56.28,66.89
524,85064843,0.7212,0.0474,-1.2725,-116.89,60.12,68.78
525,85070321,0.7236,0.0195,-1.2837,-111.65,64.82,70.91
526,85074843,0.7231,0.0059,-1.2871,-108.35,67.99,72.20
527,85079843,0.7212,-0.0073,-1.2837,-104.21,72.20,73.48
528,85084843,0.7222,-0.0254,-1.2856,-101.04,76.59,74.39
529,85089977,0.7305,-0.0454,-1.2759,-99.02,80.67,75.12
530,85094844,0.7280,-0.0581,-1.2695,-98.23,85.55,75.49
531,85099842,0.7271,-0.0752,-1.2612,-98.90,87.99,75.43
532,85104843,0.7603,-0.0894,-1.2251,-101.04,91.59,75.37
533,85109843,0.7646,-0.1011,-1.2085,-104.09,94.88,75.06
534,85114842,0.7529,-0.1196,-1.1851,-107.74,98.17,74.57
535,85120261,0.7446,-0.1406,-1.1504,-112.26,101.28,73.96
536,85124843,0.7441,-0.1611,-1.1279,-117.32,104.45,73.05
537,85129844,0.7417,-0.1802,-1.1055,-122.44,107.13,72.07
538,85134843,0.7744,-0.1821,-1.0508,-127.62,109.76,70.85
539,85139841,0.7573,-0.1846,-1.0356,-133.23,112.32,69.51
540,85144843,0.7544,-0.1890,-1.0312,-138.41,114.57,68.11
541,85149843,0.7515,-0.1924,-0.9927,-143.54,116.52,66.59
542,85154841,0.7534,-0.2085,-0.9541,-148.35,118.48,65.06
543,85159843,0.7588,-0.2280,-0.9341,-152.93,119.82,63.60
544,85164842,0.7568,-0.2446,-0.8950,-156.83,121.28,61.95
545,85169843,0.7515,-0.2651,-0.8696,-160.37,122.26,60.43
546,85174842,0.7563,-0.2695,-0.8384,-163.48,123.23,58.96
547,85179843,0.7573,-0.2739,-0.8110,-166.28,123.60,57.62
548,85184846,0.7568,-0.2915,-0.7881,-168.66,123.78,56.22
549,85189843,0.7520,-0.2759,-0.7539,-170.79,123.78,54.70
550,85194844,0.7466,-0.2646,-0.7153,-172.68,123.60,53.41
551,85199843,0.7368,-0.2666,-0.6890,-174.02,123.60,51.89
552,85204845,0.7241,-0.2808,-0.6548,-174.88,123.35,50.61
553,85209843,0.7124,-0.2861,-0.6138,-175.37,123.35,49.33
554,85214843,0.7002,-0.2925,-0.5903,-175.24,123.05,47.99
555,85219842,0.6904,-0.2974,-0.5649,-174.82,122.99,46.71
556,85224843,0.6899,-0.2998,-0.5361,-174.09,122.68,45.49
557,85229843,0.6875,-0.3018,-0.5127,-172.80,122.32,44.15
558,85234843,0.6885,-0.3042,-0.4834,-171.34,121.89,42.87
559,85239844,0.6885,-0.3076,-0.4600,-169.70,121.28,41.65
560,85244843,0.6895,-0.3062,-0.4272,-168.05,120.49,40.30
561,85249842,0.6953,-0.3032,-0.4062,-166.59,119.51,39.02
562,85254843,0.6968,-0.2959,-0.3760,-165.49,118.54,37.74
563,85259843,0.7017,-0.2793,-0.3511,-164.94,117.26,36.46
564,85264843,0.6973,-0.2422,-0.3188,-165.00,116.04,35.06
565,85269842,0.7046,-0.2192,-0.2939,-166.04,114.45,33.90
566,85274843,0.7065,-0.2109,-0.2710,-168.05,112.93,32.68
567,85279842,0.7148,-0.1753,-0.2554,-170.79,111.22,31.65
568,85284844,0.7168,-0.1572,-0.2324,-174.45,109.51,30.79
569,85289843,0.7261,-0.1294,-0.2202,-178.60,107.74,30.06
570,85294843,0.7266,-0.0962,-0.1997,-183.17,105.61,29.33
571,85299841,0.7285,-0.0664,-0.1777,-187.80,103.66,28.96
572,85304842,0.7329,-0.0518,-0.1636,-192.62,101.52,28.66
573,85309845,0.7319,-0.0444,-0.1553,-197.01,99.09,28.60
574,85314842,0.7397,-0.0371,-0.1304,-201.22,96.52,28.54
575,85319843,0.7490,-0.0322,-0.1138,-204.70,94.09,28.84
576,85324842,0.7607,-0.0249,-0.0977,-207.62,91.34,29.02
577,85329843,0.7632,-0.0400,-0.1128,-209.88,88.90,29.27
578,85334843,0.7690,-0.0381,-0.1055,-211.04,85.30,29.70
579,85339844,0.7959,-0.0122,-0.0791,-211.46,84.39,29.94
580,85344842,0.7979,0.0015,-0.0630,-212.20,81.16,30.18
581,85349845,0.7891,0.0034,-0.0474,-212.99,78.23,30.61
582,85354842,0.7944,0.0063,-0.0425,-213.60,75.37,31.04
583,85359841,0.7993,0.0034,-0.0449,-213.96,72.56,31.59
584,85364841,0.8027,0.0122,-0.0298,-214.02,69.82,31.95
585,85369843,0.7988,0.0195,-0.0259,-213.66,67.26,32.56
586,85374842,0.7969,0.0293,-0.0142,-213.29,64.51,33.17
587,85379843,0.7920,0.0322,-0.0054,-212.68,62.01,33.78
588,85384842,0.7876,0.0327,-0.0127,-212.13,59.45,34.45
589,85389845,0.7803,0.0181,-0.0396,-211.16,56.83,35.30
590,85394842,0.8003,0.0176,-0.0200,-209.88,54.15,36.16
591,85399843,0.8057,0.0283,-0.0034,-208.90,51.71,36.95
592,85404842,0.7905,0.0259,-0.0186,-207.87,49.21,37.74
593,85409841,0.7808,0.0259,-0.0142,-207.07,46.83,38.60
594,85414845,0.7803,0.0229,-0.0093,-206.34,44.76,39.45
595,85419843,0.7783,0.0293,-0.0039,-205.49,42.62,40.24
596,85424842,0.7686,0.0288,-0.0010,-204.63,40.79,40.91
597,85429843,0.7559,0.0283,-0.0044,-203.78,39.09,41.59
598,85434865,0.7446,0.0317,-0.0107,-202.99,37.32,42.20
599,85439845,0.7378,0.0264,-0.0078,-202.07,35.79,42.68
600,85444842,0.7227,0.0273,-0.0078,-201.46,34.39,43.17
601,85449843,0.7148,0.0298,-0.0068,-200.79,32.80,43.66
602,85454841,0.7046,0.0234,0.0020,-200.55,31.77,44.21
603,85459841,0.6929,0.0195,-0.0059,-200.49,30.49,44.82
604,85465082,0.6812,0.0151,-0.0063,-200.43,29.21,45.79
605,85470104,0.6763,0.0142,-0.0024,-200.55,28.35,46.52
606,85474843,0.6729,0.0146,0.0049,-200.67,27.38,47.26
607,85479843,0.6670,0.0146,0.0000,-200.61,26.52,48.11
608,85484843,0.6631,0.0195,0.0044,-200.43,25.79,48.90
609,85489843,0.6572,0.0171,0.0073,-200.00,24.82,50.00
610,85494843,0.6533,0.0176,0.0088,-199.27,24.15,50.61
611,85499843,0.6489,0.0176,0.0146,-198.66,23.17,51.52
612,85504843,0.6367,0.0132,0.0176,-197.87,22.50,52.44
613,85509843,0.6274,0.0098,0.0205,-197.13,21.65,53.48
614,85514843,0.6147,0.0073,0.0317,-196.40,20.91,54.63
615,85519966,0.6011,-0.0024,0.0308,-195.61,20.12,56.16
616,85524843,0.5894,-0.0117,0.0356,-195.18,19.57,57.38
617,85529843,0.5747,-0.0220,0.0425,-194.76,18.90,59.02
618,85534842,0.5698,-0.0254,0.0469,-194.33,18.17,60.73
619,85539843,0.5645,-0.0332,0.0625,-194.02,17.50,62.38
620,85544842,0.5586,-0.0469,0.0728,-193.78,16.89,64.45
621,85549843,0.5566,-0.0493,0.0811,-193.54,16.28,66.46
622,85554936,0.5542,-0.0620,0.0864,-193.17,15.43,68.66
623,85560271,0.5571,-0.0732,0.0977,-192.74,14.63,71.34
624,85564843,0.5659,-0.0835,0.1084,-192.44,13.84,73.23
625,85569843,0.5771,-0.0942,0.1094,-191.89,12.87,75.73
626,85574843,0.5918,-0.1089,0.1147,-191.04,11.65,78.23
627,85579842,0.6167,-0.1255,0.1030,-189.94,10.18,80.85
628,85584843,0.6338,-0.1411,0.0981,-188.60,8.48,83.66
629,85589843,0.6494,-0.1572,0.1030,-186.89,6.40,85.91
630,85594843,0.6655,-0.1709,0.1001,-184.82,4.39,89.33
631,85599842,0.6743,-0.1855,0.0996,-182.26,2.07,92.07
632,85604843,0.6787,-0.2041,0.0962,-179.39,-0.24,95.12
633,85609842,0.6821,-0.2246,0.1040,-176.16,-2.50,98.05
634,85614843,0.6792,-0.2388,0.1108,-172.68,-4.82,101.10
635,85619842,0.6836,-0.2490,0.1113,-168.72,-7.20,104.02
636,85624843,0.6792,-0.2690,0.1162,-164.45,-9.39,106.95
637,85629843,0.6797,-0.2773,0.1162,-160.00,-11.52,109.88
638,85634844,0.6821,-0.2939,0.1104,-155.12,-13.72,112.74
639,85639842,0.6743,-0.3027,0.1216,-150.18,-15.67,115.67
640,85644904,0.6719,-0.3066,0.1196,-145.00,-17.80,118.29
641,85649842,0.6670,-0.3203,0.1172,-139.76,-19.76,120.91
642,85654843,0.6538,-0.3257,0.1182,-134.57,-21.65,123.48
643,85659841,0.6416,-0.3384,0.1147,-129.45,-23.48,125.85
644,85664842,0.6221,-0.3511,0.1172,-124.45,-25.18,128.23
645,85669843,0.6079,-0.3574,0.1191,-119.70,-26.77,130.55
646,85674843,0.5981,-0.3657,0.1191,-114.88,-28.11,132.68
647,85679843,0.5942,-0.3740,0.1177,-110.43,-29.33,134.82
648,85684843,0.5894,-0.3784,0.1035,-106.10,-30.37,136.89
649,85690335,0.5845,-0.3921,0.0884,-101.16,-31.83,139.51
650,85694843,0.5796,-0.3989,0.0752,-98.11,-32.87,141.28
651,85699843,0.5718,-0.4038,0.0688,-94.51,-34.09,143.35
652,85704843,0.5688,-0.4097,0.0498,-91.22,-35.06,145.67
653,85709841,0.5654,-0.4219,0.0391,-88.17,-35.85,148.23
654,85714843,0.5674,-0.4502,0.0215,-85.61,-36.65,150.91
655,85719843,0.5679,-0.4702,-0.0015,-83.54,-37.44,154.02
656,85724843,0.5718,-0.4790,-0.0059,-81.40,-37.87,157.13
657,85729844,0.5474,-0.4849,-0.0010,-79.57,-37.99,160.18
658,85734843,0.5220,-0.4883,-0.0142,-77.38,-37.62,163.29
659,85739842,0.4966,-0.4897,-0.0234,-74.76,-37.01,166.28
660,85744843,0.4824,-0.5039,-0.0454,-72.20,-36.10,169.21
661,85749842,0.4790,-0.5200,-0.0659,-69.51,-35.30,172.20
662,85754841,0.4839,-0.5352,-0.0791,-66.77,-34.45,175.24
663,85759843,0.4717,-0.5488,-0.0830,-64.21,-33.48,178.35
664,85764842,0.4624,-0.5679,-0.0962,-61.71,-32.44,181.46
665,85769856,0.4463,-0.5908,-0.1006,-59.45,-31.22,184.70
666,85774845,0.4316,-0.6099,-0.1172,-57.38,-29.88,187.99
667,85779843,0.4287,-0.6240,-0.1196,-55.67,-28.54,191.28
668,85784842,0.4224,-0.6372,-0.1221,-54.21,-27.13,194.39
669,85789843,0.4180,-0.6489,-0.1279,-52.93,-25.73,197.50
670,85794842,0.4160,-0.6631,-0.1406,-51.83,-24.21,200.37
671,85799843,0.4175,-0.6709,-0.1411,-51.04,-22.56,203.05
672,85804842,0.4072,-0.6758,-0.1392,-50.24,-20.91,205.49
673,85809841,0.3936,-0.6831,-0.1426,-49.39,-19.15,207.62
674,85814843,0.3838,-0.6865,-0.1455,-48.90,-17.44,209.39
675,85819842,0.3740,-0.7002,-0.1499,-48.60,-15.73,211.22
676,85824844,0.3599,-0.7158,-0.1494,-48.48,-14.15,212.87
677,85829844,0.3486,-0.7363,-0.1582,-48.96,-12.62,214.45
678,85834841,0.3315,-0.7524,-0.1626,-50.00,-10.98,215.79
679,85839843,0.3110,-0.7720,-0.1606,-51.22,-9.51,217.13
680,85844842,0.3003,-0.7935,-0.1680,-53.17,-8.11,218.35
681,85849844,0.2842,-0.8193,-0.1655,-55.43,-6.89,219.51
682,85854842,0.2739,-0.8384,-0.1650,-58.11,-5.55,220.55
683,85859845,0.2554,-0.8560,-0.1626,-61.10,-4.33,221.52
684,85864841,0.2305,-0.8740,-0.1606,-64.27,-3.05,222.62
685,85869841,0.2080,-0.8887,-0.1606,-67.32,-2.01,223.48
686,85874843,0.1743,-0.9106,-0.1597,-70.30,-1.22,224.51
687,85879844,0.1460,-0.9355,-0.1641,-72.99,-0.18,225.49
688,85884843,0.1196,-0.9707,-0.1709,-75.18,0.61,226.77
689,85889842,0.0884,-0.9976,-0.1606,-76.89,1.40,228.23
690,85894843,0.0483,-1.0181,-0.1523,-77.68,2.26,229.70
691,85900070,0.0142,-1.0420,-0.1523,-77.26,3.35,231.04
692,85904843,-0.0171,-1.0571,-0.1548,-75.73,4.21,232.26
693,85909843,-0.0405,-1.0752,-0.1587,-73.05,4.82,233.23
694,85914850,-0.0698,-1.0967,-0.1460,-69.27,5.30,234.09
695,85919997,-0.0991,-1.1255,-0.1348,-64.57,5.37,234.94
696,85924843,-0.1240,-1.1475,-0.1357,-59.15,6.34,235.49
697,85929843,-0.1445,-1.1592,-0.1216,-53.41,6.59,235.73
698,85934842,-0.1582,-1.1689,-0.0972,-47.50,6.95,235.73
699,85939843,-0.1855,-1.1865,-0.0962,-41.40,7.20,235.30
700,85944842,-0.2080,-1.1968,-0.0825,-35.67,7.20,234.63
701,85949843,-0.2173,-1.2236,-0.0771,-30.49,7.07,233.90
702,85954842,-0.2236,-1.2222,-0.0479,-26.52,5.98,233.17
703,85959843,-0.2471,-1.2705,-0.0581,-23.17,5.43,232.13
704,85964843,-0.2900,-1.3003,-0.0371,-20.30,4.76,230.98
705,85969841,-0.3149,-1.3262,-0.0347,-18.17,3.84,229.82
706,85974843,-0.3262,-1.3511,-0.0498,-16.28,2.38,228.29
707,85979843,-0.3379,-1.3647,-0.0308,-15.18,0.85,226.89
708,85984842,-0.3691,-1.3882,-0.0298,-14.45,-0.98,225.24
709,85989843,-0.3906,-1.3916,-0.0278,-13.96,-2.87,223.29
710,85994842,-0.4141,-1.4165,-0.0332,-13.35,-5.06,220.91
711,85999843,-0.4326,-1.4072,0.0103,-12.87,-7.50,217.93
712,86004842,-0.4429,-1.4111,-0.0005,-12.07,-9.88,214.76
713,86009845,-0.4629,-1.4077,0.0020,-11.04,-12.62,211.59
714,86014842,-0.4795,-1.4126,0.0259,-9.82,-15.43,207.99
715,86019841,-0.4941,-1.4106,0.0483,-8.60,-18.29,204.39
716,86024841,-0.5000,-1.4175,0.0449,-7.32,-21.28,200.61
717,86029843,-0.5132,-1.4150,0.0527,-5.85,-24.63,196.65
718,86034845,-0.5283,-1.4180,0.0674,-4.21,-28.05,192.50
719,86039843,-0.5435,-1.4199,0.0874,-2.80,-31.46,188.48
720,86044842,-0.5615,-1.4175,0.0874,-1.46,-34.70,184.27
721,86049843,-0.5698,-1.4224,0.0972,-0.37,-38.23,179.82
722,86054843,-0.5767,-1.4214,0.1050,0.43,-41.83,175.12
723,86059843,-0.5903,-1.4209,0.1064,0.85,-45.67,170.30
724,86064843,-0.6040,-1.4150,0.1191,0.98,-49.33,165.30
725,86069841,-0.6157,-1.4146,0.1323,0.61,-52.93,160.18
726,86074841,-0.6211,-1.4360,0.1626,-0.06,-56.59,154.94
727,86079843,-0.6494,-1.3296,0.0879,-1.52,-60.06,149.51
728,86084845,-0.6533,-1.3452,0.1660,-3.35,-64.45,143.78
729,86089843,-0.6455,-1.3916,0.1523,-5.18,-68.54,137.87
730,86094843,-0.6621,-1.4136,0.1274,-7.13,-72.74,131.95
731,86099842,-0.6826,-1.3848,0.1582,-9.27,-77.32,125.85
732,86104843,-0.6948,-1.3491,0.1636,-11.46,-81.83,119.88
733,86109843,-0.7065,-1.3486,0.1348,-13.66,-86.65,113.84
734,86114844,-0.7217,-1.3643,0.1411,-15.91,-91.65,107.80
735,86119843,-0.7368,-1.3706,0.1528,-18.23,-96.77,102.01
736,86124843,-0.7515,-1.3628,0.1353,-20.79,-102.13,95.91
737,86130281,-0.7671,-1.3481,0.1206,-23.29,-107.87,90.18
738,86134845,-0.7881,-1.3369,0.1230,-25.91,-113.54,84.15
739,86139842,-0.8066,-1.3350,0.1133,-28.60,-119.57,78.05
740,86144843,-0.8213,-1.3374,0.0952,-31.46,-125.61,72.01
741,86149843,-0.8359,-1.3369,0.0835,-34.33,-131.89,66.10
742,86154841,-0.8516,-1.3345,0.0786,-37.32,-138.41,60.18
743,86160080,-0.8755,-1.3311,0.0464,-40.24,-145.00,54.51
744,86164843,-0.8901,-1.3330,0.0312,-43.17,-151.71,48.84
745,86169841,-0.9048,-1.3364,0.0244,-45.37,-157.38,44.45
746,86174841,-0.9312,-1.3267,0.0083,-47.87,-164.21,39.15
747,86179843,-0.9580,-1.3252,-0.0181,-50.12,-172.68,32.68
748,86184843,-0.9736,-1.3179,-0.0273,-51.28,-178.17,28.41
749,86189842,-1.0034,-1.3135,-0.0415,-52.38,-185.30,23.17
750,86194844,-1.0361,-1.2974,-0.0615,-53.17,-192.32,17.68
751,86199844,-1.0688,-1.2896,-0.0791,-53.78,-199.57,12.38
752,86204843,-1.1030,-1.2822,-0.1001,-54.57,-206.59,6.95
753,86209841,-1.1431,-1.2729,-0.1221,-55.37,-213.66,1.46
754,86214843,-1.1860,-1.2671,-0.1406,-56.52,-220.79,-3.96
755,86219842,-1.2295,-1.2651,-0.1646,-58.05,-229.27,-10.24
756,86224846,-1.2637,-1.2603,-0.1865,-59.39,-235.24,-14.57
757,86229841,-1.2935,-1.2612,-0.2100,-61.04,-242.38,-19.63
758,86234841,-1.3281,-1.2627,-0.2256,-62.87,-249.82,-24.51
759,86239843,-1.3584,-1.2632,-0.2388,-64.63,-257.32,-29.33
760,86244842,-1.3887,-1.2637,-0.2642,-65.98,-264.70,-34.15
761,86249841,-1.4233,-1.2568,-0.2925,-66.95,-272.44,-38.66
762,86254843,-1.4688,-1.2471,-0.3130,-67.20,-280.24,-43.23
763,86259843,-1.5234,-1.2432,-0.3340,-67.07,-288.05,-47.80
764,86264842,-1.5894,-1.2271,-0.3608,-66.28,-295.98,-52.44
765,86269844,-1.6626,-1.2173,-0.3726,-65.12,-303.84,-57.07
766,86274841,-1.7222,-1.2051,-0.3867,-63.54,-311.59,-61.52
767,86279841,-1.7798,-1.1973,-0.4102,-61.71,-319.33,-66.04
768,86284843,-1.8301,-1.2017,-0.4194,-60.00,-326.95,-70.43
769,86289844,-1.8682,-1.1958,-0.4414,-58.29,-334.51,-74.70
770,86294843,-1.8965,-1.1929,-0.4609,-56.95,-342.13,-78.84
771,86299843,-1.9209,-1.2021,-0.4790,-55.85,-349.70,-82.87
772,86304843,-1.9404,-1.2100,-0.4980,-55.12,-357.32,-86.71
773,86309844,-1.9663,-1.2148,-0.5044,-54.51,-364.82,-90.37
774,86314843,-1.9863,-1.2188,-0.5210,-53.96,-372.38,-94.02
775,86319843,-2.0088,-1.2285,-0.5400,-53.29,-379.70,-97.44
776,86324843,-2.0342,-1.2241,-0.5522,-52.32,-387.20,-100.91
777,86329843,-2.0630,-1.2222,-0.5771,-51.04,-394.39,-104.33
778,86334841,-2.0952,-1.2178,-0.5952,-49.21,-401.65,-107.74
779,86339897,-2.1401,-1.2197,-0.6069,-47.26,-408.72,-111.04
780,86344843,-2.1958,-1.2158,-0.6240,-45.00,-415.43,-114.27
781,86349842,-2.2515,-1.2168,-0.6426,-42.44,-422.01,-117.44
782,86354843,-2.3013,-1.2202,-0.6611,-39.70,-428.35,-120.55
783,86359841,-2.3457,-1.2275,-0.6807,-36.28,-435.67,-124.15
784,86364845,-2.3647,-1.2310,-0.7012,-33.78,-440.55,-126.34
785,86369842,-2.3779,-1.2451,-0.7280,-30.61,-446.77,-129.02
786,86374843,-2.3862,-1.2627,-0.7466,-27.44,-452.80,-131.59
787,86379841,-2.4028,-1.2759,-0.7705,-23.84,-458.84,-133.84
788,86384843,-2.4380,-1.2817,-0.8018,-20.30,-464.70,-135.91
789,86389842,-2.4639,-1.2891,-0.8242,-16.52,-470.18,-138.17
790,86394845,-2.4824,-1.2915,-0.8511,-12.99,-475.43,-140.37
791,86399841,-2.5117,-1.2983,-0.8896,-9.21,-480.55,-142.56
792,86404843,-2.5571,-1.3140,-0.9268,-5.98,-485.61,-144.76
793,86409843,-2.6025,-1.3262,-0.9609,-2.99,-490.24,-146.77
794,86414843,-2.6372,-1.3423,-0.9824,-0.55,-494.51,-149.02
795,86419841,-2.6875,-1.3555,-1.0171,1.52,-498.11,-151.10
796,86424843,-2.7485,-1.3618,-1.0415,3.29,-501.28,-153.29
797,86429842,-2.8022,-1.3750,-1.0586,4.76,-503.72,-155.30
798,86434843,-2.8765,-1.3877,-1.0933,6.16,-505.49,-157.56
799,86439841,-2.9355,-1.3994,-1.1113,7.74,-506.65,-159.82
800,86444845,-2.9639,-1.4043,-1.1357,9.82,-507.44,-162.32
801,86449842,-2.9536,-1.4092,-1.1719,12.56,-508.35,-165.18
802,86454843,-2.9268,-1.4106,-1.2217,16.04,-509.27,-168.29
803,86459841,-2.9126,-1.4229,-1.2524,20.00,-510.18,-171.77
804,86464844,-2.8979,-1.4185,-1.2847,24.21,-511.16,-175.43
805,86469842,-2.8896,-1.4541,-1.3037,28.35,-511.77,-179.21
806,86474843,-2.8799,-1.4814,-1.3423,32.13,-512.20,-182.99
807,86479843,-2.8813,-1.5068,-1.3779,35.12,-512.44,-186.83
808,86484841,-2.9087,-1.5317,-1.4136,37.50,-512.07,-190.55
809,86490150,-2.9399,-1.5396,-1.4365,39.27,-511.28,-194.27
810,86494843,-2.9722,-1.5664,-1.4653,41.10,-509.94,-198.05
811,86499843,-3.0112,-1.5684,-1.5103,43.23,-508.17,-201.95
812,86504843,-3.0708,-1.5850,-1.5244,45.91,-505.98,-206.16
813,86509841,-3.1230,-1.6021,-1.5430,49.33,-502.99,-210.55
814,86514843,-3.1372,-1.6055,-1.5615,52.80,-499.82,-215.12
815,86519843,-3.1284,-1.6099,-1.5767,56.10,-496.28,-220.12
816,86524843,-3.1074,-1.6230,-1.6060,58.66,-492.74,-225.43
817,86529841,-3.0811,-1.6338,-1.6367,60.43,-489.57,-230.91
818,86534841,-3.0513,-1.6489,-1.6675,61.77,-486.65,-236.71
819,86539843,-3.0376,-1.6655,-1.6914,62.38,-483.29,-242.80
820,86544845,-3.0327,-1.6694,-1.7349,62.44,-479.45,-249.21
821,86550372,-3.0283,-1.6680,-1.7749,62.62,-475.37,-255.55
822,86554843,-3.0259,-1.6753,-1.8208,63.11,-470.67,-262.20
823,86559842,-3.0420,-1.6865,-1.8530,63.90,-465.61,-268.84
824,86564843,-3.0474,-1.6792,-1.8721,65.06,-460.00,-275.73
825,86569842,-3.0293,-1.6699,-1.8970,66.28,-453.66,-282.68
826,86574845,-3.0073,-1.6572,-1.9097,67.99,-446.95,-290.00
827,86579843,-2.9722,-1.6450,-1.9155,69.45,-439.82,-297.44
828,86584843,-2.9243,-1.6284,-1.9136,70.49,-432.68,-305.00
829,86589841,-2.8706,-1.6055,-1.9282,71.16,-425.37,-312.74
830,86594842,-2.8120,-1.5879,-1.9336,71.16,-417.93,-320.37
831,86599843,-2.7607,-1.5679,-1.9370,70.61,-410.30,-328.29
832,86604844,-2.7178,-1.5376,-1.9414,69.51,-402.74,-336.40
833,86609843,-2.6855,-1.5054,-1.9512,68.05,-394.76,-344.33
834,86614843,-2.6587,-1.4810,-1.9570,65.98,-386.46,-352.38
835,86619843,-2.6387,-1.4521,-1.9688,63.54,-377.68,-360.37
836,86624844,-2.6021,-1.4097,-1.9751,60.18,-368.78,-368.48
837,86629843,-2.5542,-1.3652,-1.9795,56.34,-359.45,-376.40
838,86634843,-2.4951,-1.3267,-1.9834,52.74,-350.18,-384.45
839,86639841,-2.4238,-1.2812,-1.9854,49.15,-340.73,-392.44
840,86644844,-2.3584,-1.2339,-1.9785,45.67,-331.59,-400.43
841,86649843,-2.2925,-1.1826,-1.9741,42.01,-322.56,-408.05
842,86654842,-2.2217,-1.1323,-1.9868,39.33,-313.84,-415.73
843,86659884,-2.1631,-1.0625,-1.9614,36.95,-305.24,-423.17
844,86664844,-2.1050,-0.9932,-1.9619,34.09,-297.01,-430.55
845,86669843,-2.0586,-0.9346,-1.9663,30.73,-288.41,-437.87
846,86674843,-2.0317,-0.8735,-1.9512,26.77,-279.63,-445.12
847,86679844,-2.0132,-0.8120,-1.9478,22.01,-270.73,-452.01
848,86684842,-2.0015,-0.7378,-1.9429,15.55,-261.65,-458.66
849,86689841,-1.9849,-0.6665,-1.9448,7.99,-252.07,-465.00
850,86694843,-1.9639,-0.5977,-1.9580,-0.43,-242.26,-471.28
851,86699843,-1.9443,-0.5317,-1.9595,-9.57,-231.89,-477.38
852,86704843,-1.9233,-0.4541,-1.9502,-19.21,-221.40,-483.48
853,86709842,-1.9131,-0.3755,-1.9277,-29.39,-210.67,-489.51
854,86714843,-1.9023,-0.3037,-1.9199,-39.45,-199.39,-495.18
855,86719842,-1.8975,-0.2402,-1.8926,-49.39,-187.74,-500.85
856,86724843,-1.8906,-0.1772,-1.8643,-59.09,-175.98,-506.59
857,86729842,-1.8804,-0.1035,-1.8350,-68.84,-163.84,-512.13
858,86734843,-1.8931,-0.0405,-1.8052,-78.66,-151.10,-517.74
859,86739843,-1.9092,0.0269,-1.7729,-89.02,-138.23,-523.41
860,86744843,-1.9268,0.0801,-1.7212,-100.55,-124.82,-529.33
861,86750096,-1.9277,0.1250,-1.6641,-113.17,-111.10,-535.24
862,86754843,-1.9419,0.1787,-1.6118,-126.77,-97.07,-541.22
863,86759842,-1.9248,0.1436,-1.8037,-141.59,-83.11,-547.44
864,86764843,-1.9048,0.1953,-1.7686,-157.99,-68.48,-553.41
865,86769842,-1.8213,0.3428,-2.1255,-175.91,-53.48,-559.70
866,86774844,-1.3525,0.8984,-2.6631,-197.20,-36.46,-566.46
867,86779841,-1.3315,1.1294,-3.0068,-220.73,-17.26,-573.41
868,86784842,-1.7944,0.7642,-1.8076,-244.39,3.96,-578.78
869,86789842,-2.0293,0.5244,-1.8828,-265.30,25.24,-581.65
870,86794842,-1.9761,0.5952,-1.5381,-282.87,44.82,-583.41
871,86799844,-1.7764,1.0464,-1.1846,-297.87,65.24,-585.43
872,86804843,-1.7261,1.5142,-1.1997,-312.93,85.61,-587.74
873,86809843,-1.8564,1.7559,-1.3755,-330.73,104.57,-588.23
874,86814843,-2.1099,1.6431,-1.3467,-351.34,123.72,-585.12
875,86819843,-2.2363,1.4331,-1.4102,-372.20,143.72,-577.62
876,86824843,-2.0791,1.3003,-1.0488,-389.88,164.21,-566.83
877,86829841,-1.9775,1.2388,-0.9336,-402.01,185.49,-553.72
878,86834845,-1.9370,1.1797,-0.8154,-408.78,205.49,-538.29
879,86839842,-1.8735,1.1704,-0.7607,-409.45,224.70,-520.43
880,86844843,-1.7349,1.1699,-0.6694,-402.62,242.56,-500.00
881,86849966,-1.5996,1.1807,-0.6411,-387.44,259.09,-477.74
882,86854843,-1.5371,1.1953,-0.5864,-369.02,271.04,-458.60
883,86859842,-1.4395,1.2231,-0.5161,-338.72,284.33,-433.41
884,86864843,-1.3618,1.3335,-0.3955,-293.35,297.68,-402.50
885,86869843,-1.3442,1.4102,-0.3091,-258.96,304.70,-381.95
886,86874843,-1.3335,1.5000,-0.2207,-213.29,311.52,-356.59
887,86879843,-1.3315,1.6001,-0.1021,-167.44,315.91,-332.20
888,86884844,-1.3379,1.7139,0.0093,-125.00,318.48,-309.09
889,86889841,-1.3296,1.8013,0.1167,-89.51,319.39,-287.50
890,86894841,-1.3218,1.8564,0.2026,-62.87,318.72,-266.95
891,86899888,-1.3281,1.8701,0.2661,-45.43,316.83,-247.20
892,86904843,-1.3486,1.8726,0.3442,-37.13,313.96,-228.23
893,86909843,-1.3706,1.8486,0.4609,-36.89,311.10,-210.24
894,86914843,-1.4238,1.8330,0.5732,-43.05,308.11,-192.74
895,86919843,-1.4849,1.8184,0.6714,-53.72,304.82,-175.98
896,86924843,-1.5830,1.8345,0.8052,-67.26,301.34,-159.82
897,86929843,-1.6704,1.8657,0.9448,-82.07,297.56,-144.33
898,86934843,-1.7671,1.9023,1.0693,-96.71,293.41,-129.39
899,86939841,-1.8999,1.9780,1.2129,-109.88,288.29,-114.88
900,86944841,-2.0347,2.0654,1.3379,-120.79,282.38,-100.91
901,86949843,-2.1724,2.1606,1.4639,-129.33,275.37,-87.20
902,86954842,-2.2852,2.2793,1.5747,-135.73,267.13,-73.90
903,86959843,-2.3584,2.3584,1.6855,-140.18,257.93,-61.22
904,86964843,-2.3428,2.4888,1.7339,-142.20,247.80,-49.02
905,86969843,-2.2812,2.4775,1.7656,-141.65,236.28,-37.26
906,86974843,-2.1523,2.3213,1.6909,-138.23,222.93,-25.00
907,86979843,-1.9771,2.4189,1.9331,-131.65,209.63,-13.60
908,86984843,-1.7939,2.2832,1.7271,-120.55,195.73,-2.32
909,86989842,-1.6396,2.1729,1.6626,-106.04,180.37,9.15
910,86994841,-1.4893,2.0225,1.7114,-89.15,165.12,20.12
911,86999841,-1.3618,1.9385,1.6011,-70.67,149.76,31.10
912,87004843,-1.1133,1.8545,1.5605,-52.50,134.57,41.28
913,87009842,-0.9048,1.7261,1.4712,-34.15,119.63,51.04
914,87014843,-0.7256,1.5713,1.3896,-16.52,104.82,60.49
915,87019841,-0.5703,1.4277,1.3086,-0.67,90.24,69.70
916,87024842,-0.4229,1.3267,1.2188,13.60,75.55,78.66
917,87029843,-0.2925,1.2095,1.1582,25.00,61.59,87.20
918,87034843,-0.1899,1.1196,1.1050,33.60,48.66,95.37
919,87039842,-0.1221,1.0308,1.0254,39.33,36.28,102.99
920,87045422,-0.0649,0.9585,0.9619,42.56,22.44,111.65
921,87049843,-0.0435,0.9170,0.9233,42.44,13.66,117.07
922,87054845,-0.0264,0.8867,0.8711,39.88,3.17,123.54
923,87059842,-0.0127,0.8667,0.8267,35.00,-6.52,129.45
924,87064843,-0.0166,0.8555,0.7856,28.41,-15.49,134.82
925,87069843,-0.0283,0.8442,0.7427,20.55,-23.78,139.70
926,87074842,-0.0469,0.8364,0.6987,12.80,-31.46,143.96
927,87079843,-0.0605,0.8315,0.6587,5.49,-38.60,147.80
928,87084843,-0.0757,0.8257,0.6138,-0.61,-45.30,151.10
929,87089844,-0.0815,0.8179,0.5825,-5.00,-51.52,154.02
930,87094842,-0.0913,0.8125,0.5566,-7.32,-57.20,156.65
931,87099889,-0.0991,0.7988,0.5249,-7.99,-62.50,158.78
932,87104843,-0.1060,0.7896,0.5029,-6.89,-67.32,160.67
933,87109843,-0.1108,0.7783,0.4795,-3.96,-71.40,162.38
934,87114843,-0.1187,0.7700,0.4688,0.24,-75.06,163.72
935,87119843,-0.1221,0.7646,0.4619,5.79,-78.29,164.88
936,87124843,-0.1265,0.7656,0.4380,12.20,-81.16,165.73
937,87129876,-0.1279,0.7661,0.4326,19.33,-83.41,166.34
938,87134844,-0.1284,0.7666,0.4272,26.83,-85.24,166.65
939,87139843,-0.1211,0.7715,0.4160,34.33,-86.52,166.71
940,87144842,-0.1118,0.7803,0.4160,41.71,-87.38,166.71
941,87149843,-0.0967,0.7925,0.3950,48.84,-87.68,166.28
942,87154843,-0.0845,0.8018,0.3853,55.61,-87.74,165.79
943,87159843,-0.0605,0.8076,0.3745,61.65,-87.50,165.12
944,87164842,-0.0439,0.7866,0.3545,67.50,-86.89,164.33
945,87169843,-0.0298,0.8223,0.3535,72.80,-86.16,163.60
946,87174843,-0.0063,0.8428,0.3398,77.44,-85.24,162.50
947,87179843,0.0190,0.8545,0.3301,81.22,-84.15,161.22
948,87184843,0.0405,0.8521,0.2983,84.02,-83.11,160.06
949,87189842,0.0674,0.8667,0.2983,86.04,-82.07,158.78
950,87194846,0.0776,0.8618,0.2778,87.26,-80.98,157.50
951,87199912,0.0859,0.8569,0.2524,87.68,-79.82,156.16
952,87204843,0.1055,0.8530,0.2490,87.50,-78.78,154.88
953,87209844,0.1235,0.8516,0.2373,86.95,-77.62,153.41
954,87214843,0.1470,0.8516,0.2168,86.04,-76.65,152.26
955,87219841,0.1714,0.8472,0.2109,84.82,-75.49,150.91
956,87224843,0.1851,0.8442,0.1919,83.29,-74.63,149.76
957,87229843,0.2075,0.8364,0.1782,81.46,-73.66,148.66
958,87234842,0.2314,0.8276,0.1685,79.39,-72.80,147.50
959,87239843,0.2505,0.8188,0.1606,77.07,-71.83,146.40
960,87244843,0.2671,0.8105,0.1509,74.63,-71.16,145.24
961,87249843,0.2822,0.8027,0.1406,71.77,-70.55,144.09
962,87254842,0.2939,0.7905,0.1338,68.66,-69.94,143.05
963,87259843,0.3101,0.7783,0.1250,65.55,-69.45,142.07
964,87264843,0.3252,0.7676,0.1172,62.07,-69.09,141.10
965,87269842,0.3413,0.7559,0.1162,58.72,-68.84,140.18
966,87274845,0.3667,0.7456,0.1133,55.12,-68.90,139.39
967,87279842,0.3770,0.7358,0.1016,51.59,-68.90,138.72
968,87284843,0.3960,0.7217,0.0918,48.11,-69.15,138.11
969,87289863,0.4185,0.7217,0.0879,44.57,-69.51,137.62
970,87294845,0.4312,0.7139,0.0835,41.10,-70.00,137.13
971,87299841,0.4482,0.7056,0.0742,37.74,-70.55,136.89
972,87304845,0.4580,0.6968,0.0728,34.27,-71.04,136.59
973,87309843,0.4731,0.6851,0.0684,31.16,-71.46,136.52
974,87314843,0.4873,0.6802,0.0669,28.23,-72.01,136.34
975,87320366,0.4912,0.6699,0.0508,25.67,-72.62,136.46
976,87324922,0.5044,0.6689,0.0371,23.48,-72.93,136.59
977,87329845,0.5166,0.6680,0.0293,21.83,-73.54,136.59
978,87334843,0.5308,0.6611,0.0186,20.37,-74.09,136.65
979,87339842,0.5474,0.6567,0.0015,19.33,-74.57,136.71
980,87344843,0.5547,0.6387,-0.0098,18.60,-75.18,136.77
981,87349842,0.5684,0.6318,-0.0146,18.35,-75.85,136.95
982,87354843,0.5811,0.6226,-0.0020,18.41,-76.34,137.26
983,87359841,0.6006,0.6182,-0.0103,18.66,-76.83,137.50
984,87364845,0.6069,0.6064,-0.0117,18.66,-77.07,137.87
985,87369842,0.6133,0.5913,-0.0127,18.72,-77.26,138.29
986,87374843,0.6299,0.5869,-0.0171,19.02,-77.20,138.84
987,87379843,0.6421,0.5757,-0.0220,19.21,-77.13,139.33
988,87384843,0.6421,0.5640,-0.0288,19.45,-77.01,139.94
989,87390041,0.6528,0.5586,-0.0347,19.88,-76.34,140.55
990,87394845,0.6558,0.5391,-0.0264,20.61,-76.22,141.10
991,87399841,0.6631,0.5303,-0.0659,21.89,-75.91,141.65
992,87404841,0.6616,0.5107,-0.0708,23.54,-75.67,142.26
993,87409841,0.6655,0.4824,-0.0566,26.10,-75.43,142.74
994,87414843,0.6680,0.4575,-0.0664,29.82,-75.30,143.35
995,87419922,0.6187,0.3540,-0.1196,34.63,-75.24,144.02
996,87424845,0.6152,0.3599,-0.0420,41.40,-74.88,144.63
997,87429841,0.6875,0.3892,0.0073,48.66,-74.15,144.94
998,87434843,0.7002,0.3652,-0.0322,55.67,-73.41,145.12
999,87439842,0.7026,0.3608,-0.0376,61.89,-72.68,145.55
1000,87444843,0.7012,0.3491,-0.0229,67.50,-71.71,145.85
1001,87449842,0.7080,0.3374,-0.0181,72.74,-70.49,146.34
1002,87454843,0.7178,0.3311,-0.0249,77.26,-69.21,146.83
1003,87459845,0.7222,0.3237,-0.0142,80.91,-68.17,147.44
1004,87464842,0.6714,0.2939,-0.0210,83.78,-66.59,148.29
1005,87469843,0.6240,0.2788,-0.0439,85.18,-65.49,149.15
1006,87474843,0.6489,0.2686,-0.0503,85.98,-64.02,149.88
1007,87479843,0.6646,0.2593,-0.0464,86.22,-62.50,150.43
1008,87484843,0.6890,0.2578,-0.0498,86.04,-60.98,150.91
1009,87489843,0.6831,0.2505,-0.0649,85.61,-59.45,151.16
1010,87494843,0.6606,0.2280,-0.0615,84.63,-57.99,151.40
1011,87499844,0.6558,0.2153,-0.0640,83.60,-56.52,151.46
1012,87504842,0.6445,0.1943,-0.0601,82.07,-55.12,151.28
1013,87509842,0.6191,0.1719,-0.0469,80.43,-53.60,151.22
1014,87514843,0.6177,0.1602,-0.0352,78.54,-52.13,150.79
1015,87519843,0.6328,0.1436,-0.0244,76.28,-50.85,150.30
1016,87524843,0.6538,0.1313,-0.0083,73.84,-49.45,149.76
1017,87529842,0.6738,0.1167,0.0049,70.85,-48.11,148.96
1018,87534843,0.7002,0.1050,0.0020,67.62,-47.13,148.11
1019,87539867,0.7261,0.0928,-0.0112,63.78,-46.10,147.13
1020,87544845,0.7554,0.0747,-0.0386,59.82,-45.37,146.40
1021,87549842,0.7900,0.0552,-0.0522,55.49,-44.76,145.30
1022,87554843,0.8438,0.0420,-0.0879,50.79,-44.15,144.45
1023,87559843,0.8931,0.0435,-0.1265,45.98,-43.72,143.48
1024,87564843,0.9614,0.0591,-0.1777,40.98,-43.11,142.56
1025,87569843,1.0415,0.0942,-0.2310,35.79,-42.50,141.59
1026,87574845,1.1260,0.1401,-0.3081,30.67,-41.65,140.55
1027,87579841,1.1997,0.1860,-0.3550,26.40,-40.91,139.63
1028,87584843,1.2734,0.2354,-0.4194,21.10,-39.63,138.72
1029,87589842,1.3247,0.2847,-0.4712,15.73,-37.80,137.80
1030,87594844,1.3633,0.3140,-0.5186,10.43,-35.91,136.95
1031,87599841,1.4692,0.3516,-0.5625,5.12,-33.66,136.34
1032,87604844,1.4106,0.3320,-0.5615,-0.55,-31.28,136.10
1033,87609841,0.9351,0.2759,-0.4800,-5.61,-28.23,136.04
1034,87614843,0.5825,0.1929,-0.4185,-9.02,-25.67,136.10
1035,87619844,0.4946,0.1060,-0.3540,-11.46,-24.27,136.40
1036,87624843,0.5293,0.0239,-0.2905,-13.54,-23.17,136.83
1037,87630364,0.6138,-0.0264,-0.2402,-15.30,-21.52,137.26
1038,87634843,0.6680,-0.0537,-0.2261,-15.73,-20.24,137.38
1039,87639842,0.7344,-0.0991,-0.2271,-15.49,-18.35,137.26
1040,87644843,0.7661,-0.1406,-0.2280,-14.27,-16.52,137.20
1041,87649842,0.7773,-0.1636,-0.2368,-12.01,-14.51,136.71
1042,87654994,0.7715,-0.1895,-0.2437,-8.05,-12.13,135.98
1043,87659841,0.7734,-0.1763,-0.2495,-4.76,-10.30,135.18
1044,87664844,0.7744,-0.1816,-0.2598,-0.06,-8.41,133.96
1045,87669843,0.7886,-0.1978,-0.2764,5.12,-6.28,132.80
1046,87674847,0.8022,-0.2188,-0.2905,10.12,-4.15,131.34
1047,87679847,0.8193,-0.2334,-0.3052,15.18,-2.01,129.94
1048,87684844,0.8374,-0.2363,-0.3159,19.70,0.30,128.35
1049,87689841,0.8506,-0.2505,-0.3237,23.72,2.50,126.89
1050,87694845,0.8643,-0.2661,-0.3330,26.77,4.51,125.30
1051,87700220,0.8706,-0.2842,-0.3472,29.33,6.71,123.60
1052,87704843,0.8779,-0.2930,-0.3384,30.37,8.11,122.44
1053,87709841,0.8936,-0.3037,-0.3486,30.85,9.45,121.10
1054,87714951,0.9102,-0.3145,-0.3462,30.49,10.79,119.57
1055,87719843,0.9272,-0.3232,-0.3433,29.33,11.83,118.17
1056,87724842,0.9438,-0.3418,-0.3423,27.80,12.50,116.71
1057,87729843,0.9585,-0.3638,-0.3384,25.85,13.05,115.18
1058,87734843,0.9658,-0.3804,-0.3291,23.60,13.54,113.48
1059,87739843,0.9712,-0.3950,-0.3120,21.22,13.66,111.77
1060,87744843,0.9878,-0.4136,-0.2964,18.60,13.72,109.82
1061,87749844,1.0054,-0.4297,-0.2817,15.91,13.90,107.99
1062,87754843,1.0151,-0.4360,-0.2642,13.17,13.78,105.67
1063,87759843,1.0303,-0.4575,-0.2568,10.49,13.72,103.35
1064,87764843,1.0405,-0.4688,-0.2466,7.50,13.66,100.98
1065,87769841,1.0508,-0.4883,-0.2280,4.63,13.35,98.60
1066,87774845,1.0654,-0.5391,-0.2065,2.13,13.11,96.77
1067,87779844,1.0791,-0.5273,-0.2104,-0.06,12.87,95.00
1068,87784843,1.0752,-0.5273,-0.2192,-2.44,12.38,93.05
1069,87789843,1.0845,-0.5298,-0.2319,-5.24,11.71,90.91
1070,87794844,1.0903,-0.5513,-0.2251,-8.29,10.79,88.84
1071,87799841,1.1050,-0.5713,-0.2300,-11.65,9.70,86.65
1072,87804843,1.1143,-0.5811,-0.2188,-15.37,8.35,85.91
1073,87809843,1.1274,-0.5918,-0.2109,-19.21,6.65,84.39
1074,87814842,1.1499,-0.6108,-0.2075,-23.35,4.88,83.35
1075,87819843,1.1465,-0.5898,-0.1948,-27.80,2.99,82.32
1076,87824843,1.1436,-0.5698,-0.1934,-32.26,0.85,81.16
1077,87829842,1.1445,-0.5728,-0.1890,-36.40,-1.28,79.88
1078,87834843,1.1377,-0.5444,-0.1538,-40.73,-3.90,78.23
1079,87839842,1.1226,-0.5356,-0.1353,-45.18,-6.16,75.98
1080,87844841,1.1089,-0.5107,-0.1348,-50.00,-8.29,73.41
1081,87849845,1.0991,-0.5054,-0.1411,-54.94,-10.98,70.43
1082,87854842,1.0933,-0.5181,-0.1060,-59.45,-13.78,67.26
1083,87859841,1.1060,-0.6714,-0.0815,-62.32,-16.28,65.00
1084,87864843,1.0830,-0.5088,0.0439,-61.89,-16.77,63.60
1085,87869842,1.0957,-0.3984,0.0269,-60.73,-15.91,61.46
1086,87874843,1.0879,-0.3535,-0.0659,-59.21,-15.79,58.60
1087,87879843,0.9927,-0.3491,-0.0669,-56.95,-15.24,55.61
1088,87884842,0.9868,-0.3442,-0.0479,-53.90,-14.15,52.20
1089,87889843,1.0000,-0.3311,-0.0630,-51.04,-13.29,48.48
1090,87894843,0.9893,-0.3315,-0.1255,-47.80,-13.60,44.82
1091,87899843,0.9497,-0.3325,-0.1167,-44.27,-14.63,41.04
1092,87904843,0.9263,-0.3403,-0.0674,-40.49,-15.24,37.44
1093,87909841,0.9165,-0.3403,-0.0498,-36.71,-15.79,33.90
1094,87914841,0.9253,-0.3447,-0.0732,-32.80,-16.52,30.30
1095,87920342,0.9312,-0.3516,-0.0718,-28.60,-16.89,26.83
1096,87924845,0.9253,-0.3521,-0.0479,-24.33,-17.01,23.41
1097,87929842,0.9131,-0.3579,-0.0576,-19.57,-16.71,20.18
1098,87934843,0.9058,-0.3604,-0.0806,-14.51,-16.28,17.13
1099,87939985,0.8975,-0.3662,-0.0786,-8.90,-15.24,14.39
1100,87944843,0.8945,-0.3574,-0.0762,-2.56,-13.60,12.01
1101,87949842,0.9028,-0.3389,-0.1196,4.09,-11.65,9.76
1102,87954843,0.9150,-0.3345,-0.1504,10.91,-9.70,7.50
1103,87959842,0.9058,-0.3364,-0.1670,17.68,-8.05,5.49
1104,87964843,0.8911,-0.3530,-0.1787,24.63,-6.40,3.54
1105,87969841,0.8818,-0.3745,-0.1851,32.80,-4.51,1.46
1106,87974845,0.8823,-0.3872,-0.1934,38.17,-3.35,0.18
1107,87979842,0.8872,-0.3921,-0.2021,44.63,-2.01,-1.22
1108,87984843,0.8872,-0.4014,-0.2188,50.67,-0.73,-2.50
1109,87989842,0.8906,-0.4146,-0.2300,56.34,0.43,-3.54
1110,87994843,0.8838,-0.4253,-0.2324,61.65,1.34,-4.70
1111,87999842,0.8804,-0.4331,-0.2427,66.34,2.32,-5.49
1112,88004843,0.8701,-0.4409,-0.2544,70.61,3.23,-6.34
1113,88009843,0.8721,-0.4521,-0.2603,74.27,4.09,-7.01
1114,88014843,0.8726,-0.4570,-0.2666,77.13,4.76,-7.56
1115,88019841,0.8730,-0.4619,-0.2700,79.51,5.37,-8.11
1116,88024843,0.8760,-0.4688,-0.2744,81.10,5.85,-8.72
1117,88029844,0.8774,-0.4722,-0.2764,82.01,6.46,-9.15
1118,88034843,0.8765,-0.4751,-0.2803,81.95,7.01,-9.51
1119,88039841,0.8735,-0.4727,-0.2812,81.40,7.38,-9.82
1120,88044843,0.8774,-0.4761,-0.2876,80.12,7.87,-10.30
1121,88050367,0.8755,-0.4702,-0.2920,78.48,8.23,-10.67
1122,88054845,0.8662,-0.4619,-0.2700,76.28,8.54,-11.04
1123,88059842,0.8672,-0.4678,-0.2646,73.84,9.02,-11.46
1124,88064843,0.8770,-0.4629,-0.2705,70.91,9.39,-11.71
1125,88069841,0.8848,-0.4673,-0.2695,67.87,9.94,-12.01
1126,88074841,0.8877,-0.4624,-0.2729,64.45,10.49,-12.20
1127,88079845,0.8901,-0.4609,-0.2603,60.85,10.98,-12.38
1128,88084842,0.8965,-0.4644,-0.2524,57.32,11.77,-12.56
1129,88089843,0.9009,-0.4663,-0.2529,53.72,12.32,-12.68
1130,88094842,0.9053,-0.4678,-0.2451,50.49,12.87,-12.74
1131,88099845,0.9102,-0.4604,-0.2485,47.32,13.48,-12.74
1132,88104842,0.9038,-0.4551,-0.2500,44.39,14.02,-12.68
1133,88109841,0.9028,-0.4512,-0.2495,41.83,14.33,-12.62
1134,88114843,0.9102,-0.4487,-0.2505,39.57,14.88,-12.56
1135,88120045,0.9067,-0.4473,-0.2412,37.50,15.18,-12.44
1136,88124843,0.9136,-0.4346,-0.2383,35.79,15.55,-12.32
1137,88129845,0.9111,-0.4272,-0.2412,34.33,15.98,-12.26
1138,88134842,0.9106,-0.4185,-0.2251,33.35,16.28,-12.13
1139,88139841,0.9053,-0.4170,-0.2280,32.50,16.71,-12.07
1140,88144844,0.9062,-0.4097,-0.2192,32.01,17.07,-11.95
1141,88149843,0.9053,-0.4043,-0.2168,31.77,17.56,-11.89
1142,88154894,0.9009,-0.3965,-0.2129,31.77,17.93,-11.83
1143,88159841,0.9043,-0.3867,-0.2124,31.95,18.35,-11.83
1144,88164844,0.8979,-0.3784,-0.2148,32.38,18.66,-11.77
1145,88169843,0.8989,-0.3755,-0.2104,32.93,19.02,-11.71
1146,88174896,0.8950,-0.3691,-0.2036,33.66,19.21,-11.65
1147,88179841,0.8950,-0.3608,-0.2012,34.33,19.45,-11.71
1148,88184845,0.8882,-0.3545,-0.2017,35.12,19.63,-11.77
1149,88189842,0.8882,-0.3481,-0.2065,35.98,19.70,-11.77
1150,88194846,0.8872,-0.3418,-0.2017,36.77,19.82,-11.83
1151,88199843,0.8848,-0.3403,-0.1958,37.56,19.88,-11.77
1152,88204845,0.8887,-0.3398,-0.2007,38.41,19.82,-11.83
1153,88209842,0.8916,-0.3408,-0.1968,39.21,20.00,-11.77
1154,88214843,0.8896,-0.3369,-0.1934,40.00,19.82,-11.71
1155,88220232,0.8818,-0.3374,-0.1909,40.67,19.76,-11.71
1156,88224845,0.8818,-0.3384,-0.1919,41.28,19.70,-11.71
1157,88229841,0.8833,-0.3257,-0.2017,41.65,19.57,-11.59
1158,88234845,0.8916,-0.3267,-0.1987,42.13,19.39,-11.46
1159,88239843,0.8940,-0.3257,-0.1880,42.50,19.02,-11.46
1160,88244846,0.8833,-0.3335,-0.1851,42.68,18.90,-11.34
1161,88249843,0.8809,-0.3276,-0.1875,42.87,18.60,-11.16
1162,88254843,0.8853,-0.3267,-0.1807,42.87,18.11,-11.04
1163,88259843,0.8877,-0.3257,-0.1807,42.87,17.99,-10.85
1164,88264843,0.8892,-0.3237,-0.1826,42.68,17.56,-10.67
1165,88269841,0.8960,-0.3208,-0.1772,42.68,17.20,-10.30
1166,88274845,0.8950,-0.3311,-0.1782,42.50,16.59,-10.00
1167,88279842,0.8853,-0.3345,-0.1675,42.26,16.28,-9.57
1168,88284843,0.8794,-0.3345,-0.1709,41.52,15.73,-9.27
1169,88289843,0.8853,-0.3306,-0.1709,40.79,15.06,-8.90
1170,88294843,0.8901,-0.3281,-0.1655,39.82,14.45,-8.41
1171,88299841,0.8970,-0.3203,-0.1675,38.66,13.90,-8.05
1172,88305314,0.9009,-0.3271,-0.1655,37.32,13.11,-7.38
1173,88309845,0.9023,-0.3242,-0.1562,36.22,12.62,-7.01
1174,88314843,0.8887,-0.3311,-0.1514,34.76,11.95,-6.40
1175,88319843,0.8823,-0.3267,-0.1460,33.17,11.28,-5.85
1176,88324844,0.8926,-0.3276,-0.1484,31.46,10.67,-5.30
1177,88329843,0.9004,-0.3247,-0.1450,29.63,10.06,-4.63
1178,88334843,0.8994,-0.3208,-0.1421,27.87,9.33,-4.02
1179,88339843,0.8950,-0.3149,-0.1421,25.91,8.60,-3.48
1180,88344843,0.8955,-0.3149,-0.1289,23.84,8.05,-2.87
1181,88349842,0.8975,-0.3140,-0.1274,22.01,7.38,-2.38
1182,88354843,0.8955,-0.3101,-0.1235,20.00,6.83,-1.77
1183,88359843,0.8965,-0.3066,-0.1187,18.23,6.28,-1.22
1184,88364843,0.8999,-0.3027,-0.1143,16.28,5.61,-0.49
1185,88369843,0.9019,-0.3066,-0.1167,14.63,5.06,0.06
1186,88374843,0.9043,-0.3037,-0.1074,12.87,4.51,0.73
1187,88379841,0.9038,-0.2983,-0.1060,11.28,3.96,1.22
1188,88384843,0.9043,-0.2993,-0.0986,9.82,3.48,1.95
1189,88389843,0.9058,-0.2988,-0.0972,8.54,2.93,2.50
1190,88394842,0.9082,-0.2964,-0.0962,7.38,2.62,2.99
1191,88399843,0.9067,-0.2954,-0.0923,6.46,2.07,3.54
1192,88404843,0.9106,-0.2935,-0.0898,5.55,1.71,4.21
1193,88409843,0.9092,-0.3018,-0.0864,4.88,1.16,4.76
1194,88414843,0.9062,-0.3018,-0.0786,4.51,0.85,5.37
1195,88419937,0.9077,-0.3076,-0.0815,4.15,0.43,5.91
1196,88425165,0.9092,-0.3042,-0.0806,4.02,-0.06,6.83
1197,88429845,0.9136,-0.3096,-0.0786,4.09,-0.24,7.26
1198,88434842,0.9116,-0.3052,-0.0723,4.21,-0.67,7.93
1199,88439843,0.9146,-0.3008,-0.0698,4.51,-0.91,8.60
1200,88444843,0.9150,-0.3047,-0.0708,4.88,-1.16,9.21
1201,88449843,0.9150,-0.3066,-0.0708,5.49,-1.65,9.63
1202,88454843,0.9199,-0.3081,-0.0693,6.10,-1.89,10.24
1203,88459841,0.9263,-0.3120,-0.0664,6.71,-2.01,10.79
1204,88464843,0.9243,-0.3174,-0.0522,7.50,-2.32,11.28
1205,88469842,0.9297,-0.3120,-0.0591,8.29,-2.56,11.77
1206,88474844,0.9287,-0.3174,-0.0537,9.33,-2.80,12.20
1207,88479842,0.9316,-0.3232,-0.0562,10.37,-3.05,12.62
1208,88484841,0.9307,-0.3286,-0.0571,11.71,-3.11,13.11
1209,88489844,0.9321,-0.3374,-0.0537,12.74,-3.23,13.48
1210,88494843,0.9307,-0.3438,-0.0562,14.02,-3.48,13.84
1211,88499844,0.9248,-0.3540,-0.0562,15.49,-3.54,14.15
1212,88504843,0.9287,-0.3608,-0.0581,16.59,-3.84,14.57
1213,88509843,0.9219,-0.3667,-0.0615,17.68,-4.09,14.94
1214,88514843,0.9233,-0.3735,-0.0586,18.54,-4.09,15.12
1215,88519841,0.9253,-0.3706,-0.0552,19.33,-4.33,15.43
1216,88524843,0.9150,-0.3740,-0.0566,19.57,-4.76,15.49
1217,88529843,0.9194,-0.3750,-0.0605,19.76,-5.00,15.67
1218,88534843,0.9160,-0.3813,-0.0591,19.57,-5.18,15.67
1219,88539842,0.9126,-0.3789,-0.0640,19.21,-5.43,15.73
1220,88544843,0.9106,-0.3877,-0.0630,18.48,-5.79,15.67
1221,88549843,0.9082,-0.3931,-0.0581,17.56,-5.85,15.61
1222,88554843,0.9038,-0.3984,-0.0542,16.40,-6.28,15.43
1223,88559842,0.8955,-0.3960,-0.0557,15.18,-6.34,15.37
1224,88564843,0.8970,-0.4023,-0.0601,13.72,-6.77,15.18
1225,88569842,0.8989,-0.3999,-0.0562,12.26,-6.89,14.82
1226,88574843,0.8955,-0.4009,-0.0591,10.61,-7.13,14.57
1227,88579842,0.8945,-0.4019,-0.0640,8.96,-7.44,14.15
1228,88584843,0.8911,-0.3970,-0.0659,7.38,-7.74,13.90
1229,88589842,0.8877,-0.3994,-0.0669,5.67,-7.99,13.41
1230,88594843,0.8853,-0.3999,-0.0728,4.09,-8.41,13.11
1231,88599842,0.8823,-0.4028,-0.0728,2.56,-8.72,12.74
1232,88604843,0.8833,-0.4062,-0.0767,1.10,-8.90,12.32
1233,88609842,0.8853,-0.4058,-0.0796,-0.30,-9.33,12.01
1234,88614843,0.8794,-0.4097,-0.0781,-1.59,-9.51,11.65
1235,88619842,0.8794,-0.4116,-0.0776,-2.80,-9.76,11.28
1236,88624843,0.8784,-0.4126,-0.0786,-3.90,-10.06,11.10
1237,88629843,0.8804,-0.4111,-0.0757,-4.88,-10.43,10.55
1238,88634843,0.8804,-0.4102,-0.0850,-5.85,-10.49,10.43
1239,88639844,0.8823,-0.4048,-0.0825,-6.71,-10.73,10.24
1240,88644843,0.8804,-0.4043,-0.0859,-7.26,-11.04,9.82
1241,88649843,0.8755,-0.3989,-0.0869,-7.87,-11.10,9.51
1242,88654843,0.8774,-0.3940,-0.0942,-8.35,-11.40,9.21
1243,88659969,0.8774,-0.3921,-0.0957,-8.60,-11.46,8.84
1244,88664843,0.8750,-0.3892,-0.1011,-8.90,-11.89,8.60
1245,88669842,0.8691,-0.3877,-0.1050,-9.02,-12.01,8.29
1246,88674843,0.8682,-0.3872,-0.0996,-8.96,-12.26,7.99
1247,88680362,0.8726,-0.3857,-0.1118,-8.66,-12.44,7.74
1248,88684843,0.8677,-0.3848,-0.1138,-8.41,-12.68,7.44
1249,88689842,0.8613,-0.3853,-0.1167,-8.05,-12.87,7.32
1250,88694843,0.8677,-0.3857,-0.1187,-7.50,-13.05,7.26
1251,88699843,0.8687,-0.3853,-0.1206,-6.77,-13.29,7.13
1252,88704842,0.8691,-0.3794,-0.1172,-6.04,-13.54,7.07
1253,88709843,0.8682,-0.3765,-0.1167,-5.24,-13.66,6.95
1254,88714843,0.8711,-0.3799,-0.1182,-4.51,-13.84,6.95
1255,88719843,0.8755,-0.3745,-0.1138,-3.66,-13.90,6.95
1256,88724843,0.8774,-0.3755,-0.1133,-2.93,-14.02,6.89
1257,88729844,0.8745,-0.3740,-0.1104,-2.20,-13.96,7.01
1258,88734843,0.8774,-0.3789,-0.1138,-1.34,-14.02,7.01
1259,88740284,0.8823,-0.3818,-0.1167,-0.67,-13.90,7.07
1260,88744845,0.8853,-0.3843,-0.1167,-0.06,-13.96,7.32
1261,88749842,0.8823,-0.3896,-0.1230,0.49,-13.96,7.44
1262,88754843,0.8877,-0.3896,-0.1226,0.98,-13.90,7.62
1263,88760031,0.8921,-0.3970,-0.1172,1.46,-13.84,7.93
1264,88764843,0.8955,-0.4028,-0.1177,1.71,-13.78,8.11
1265,88769842,0.8896,-0.4087,-0.1235,2.13,-13.60,8.48
1266,88774843,0.8926,-0.4121,-0.1128,2.32,-13.41,8.78
1267,88779842,0.8921,-0.4160,-0.1167,2.56,-13.41,9.21
1268,88784843,0.8931,-0.4111,-0.1172,2.56,-13.17,9.45
1269,88789841,0.8950,-0.4067,-0.1099,2.38,-13.05,9.70
1270,88794844,0.8979,-0.4111,-0.1187,2.26,-12.87,10.06
1271,88799845,0.8945,-0.4121,-0.1221,1.95,-12.74,10.30
1272,88804842,0.9004,-0.4155,-0.1226,1.65,-12.56,10.55
1273,88809844,0.8994,-0.4185,-0.1230,1.28,-12.38,10.73
1274,88814841,0.8931,-0.4229,-0.1245,0.67,-12.20,11.04
1275,88819845,0.8926,-0.4258,-0.1240,0.18,-12.01,11.28
1276,88824842,0.8887,-0.4194,-0.1240,-0.49,-11.89,11.46
1277,88829844,0.8892,-0.4189,-0.1279,-1.22,-11.71,11.71
1278,88834843,0.8877,-0.4121,-0.1318,-2.13,-11.52,11.71
1279,88839843,0.8862,-0.4116,-0.1284,-2.93,-11.34,11.83
1280,88844841,0.8833,-0.4131,-0.1260,-4.09,-11.16,11.83
1281,88849843,0.8838,-0.4131,-0.1294,-5.00,-10.91,11.89
1282,88854843,0.8823,-0.4102,-0.1318,-5.98,-10.79,11.77
1283,88859841,0.8740,-0.4111,-0.1367,-6.89,-10.79,11.83
1284,88864844,0.8745,-0.4106,-0.1396,-7.74,-10.55,11.77
1285,88869843,0.8716,-0.4067,-0.1450,-8.48,-10.37,11.65
1286,88874842,0.8711,-0.4048,-0.1426,-9.09,-10.30,11.59
1287,88879844,0.8682,-0.4082,-0.1494,-9.51,-10.18,11.46
1288,88884843,0.8662,-0.4097,-0.1455,-9.76,-10.24,11.34
1289,88889841,0.8647,-0.4165,-0.1450,-10.00,-10.30,11.22
1290,88894843,0.8662,-0.4155,-0.1558,-10.00,-10.12,11.22
1291,88899842,0.8628,-0.4170,-0.1523,-10.00,-9.88,11.04
1292,88904843,0.8628,-0.4126,-0.1587,-10.00,-9.88,10.91
1293,88909841,0.8638,-0.4146,-0.1641,-10.06,-9.76,10.79
1294,88914843,0.8628,-0.4160,-0.1621,-9.88,-9.82,10.67
1295,88919842,0.8618,-0.4209,-0.1597,-9.82,-9.63,10.43
1296,88924844,0.8618,-0.4204,-0.1611,-9.63,-9.63,10.30
1297,88929841,0.8594,-0.4165,-0.1709,-9.45,-9.45,10.18
1298,88934843,0.8579,-0.4126,-0.1719,-9.15,-9.27,10.06
1299,88939957,0.8594,-0.4165,-0.1763,-8.84,-9.27,9.82
1300,88944845,0.8574,-0.4146,-0.1782,-8.54,-9.21,9.51
1301,88949842,0.8545,-0.4150,-0.1768,-8.29,-9.09,9.39
1302,88954843,0.8506,-0.4141,-0.1738,-7.87,-8.96,9.27
1303,88960116,0.8521,-0.4126,-0.1797,-7.38,-8.90,8.78
1304,88964843,0.8496,-0.4136,-0.1841,-7.07,-8.66,8.66
1305,88969842,0.8462,-0.4121,-0.1777,-6.40,-8.60,8.48
1306,88974843,0.8467,-0.4116,-0.1797,-6.10,-8.48,8.23
1307,88979841,0.8438,-0.4111,-0.1821,-5.55,-8.35,7.99
1308,88984843,0.8403,-0.4102,-0.1792,-4.94,-8.11,7.68
1309,88989842,0.8389,-0.4092,-0.1748,-4.39,-7.80,7.44
1310,88994843,0.8428,-0.4116,-0.1763,-3.90,-7.62,7.20
1311,88999842,0.8398,-0.4092,-0.1758,-3.48,-7.44,7.01
1312,89004845,0.8403,-0.4146,-0.1782,-2.93,-7.20,6.83
1313,89009842,0.8423,-0.4116,-0.1758,-2.32,-6.89,6.52
1314,89014843,0.8423,-0.4126,-0.1704,-1.89,-6.52,6.34
1315,89019841,0.8408,-0.4146,-0.1807,-1.46,-6.22,6.22
1316,89024844,0.8438,-0.4136,-0.1782,-1.04,-5.85,6.04
1317,89029842,0.8472,-0.4165,-0.1709,-0.67,-5.37,5.85
1318,89034843,0.8486,-0.4253,-0.1719,-0.24,-5.00,5.67
1319,89039843,0.8530,-0.4189,-0.1724,0.18,-4.57,5.55
1320,89044886,0.8525,-0.4209,-0.1753,0.49,-4.09,5.49
1321,89049843,0.8516,-0.4233,-0.1758,0.79,-3.72,5.24
1322,89054843,0.8560,-0.4233,-0.1738,0.91,-3.23,5.18
1323,89059841,0.8579,-0.4272,-0.1743,1.16,-2.68,4.94
1324,89064843,0.8599,-0.4248,-0.1777,1.28,-2.32,4.82
1325,89069934,0.8608,-0.4263,-0.1763,1.52,-1.89,4.76
1326,89074843,0.8618,-0.4341,-0.1743,1.46,-1.40,4.51
1327,89079843,0.8623,-0.4360,-0.1807,1.77,-0.98,4.51
1328,89084843,0.8647,-0.4341,-0.1826,1.89,-0.55,4.39
1329,89089841,0.8599,-0.4346,-0.1860,2.07,-0.06,4.33
1330,89094843,0.8633,-0.4419,-0.1802,2.26,0.24,4.21
1331,89099843,0.8647,-0.4390,-0.1860,2.32,0.67,4.21
1332,89104842,0.8687,-0.4453,-0.1812,2.62,1.04,4.21
1333,89109843,0.8623,-0.4404,-0.1855,2.74,1.34,4.15
1334,89114843,0.8623,-0.4448,-0.1831,2.87,1.83,4.09
1335,89119843,0.8584,-0.4438,-0.1860,2.93,2.32,3.96
1336,89124844,0.8613,-0.4419,-0.1865,3.05,2.62,3.90
1337,89129843,0.8623,-0.4429,-0.1855,3.05,2.87,3.78
1338,89134841,0.8643,-0.4395,-0.1846,3.17,3.23,3.72
1339,89139843,0.8594,-0.4429,-0.1826,3.29,3.60,3.60
1340,89144844,0.8584,-0.4478,-0.1821,3.29,3.90,3.54
1341,89149843,0.8628,-0.4487,-0.1860,3.48,4.15,3.48
1342,89154842,0.8604,-0.4424,-0.1860,3.54,4.39,3.29
1343,89159843,0.8608,-0.4419,-0.1812,3.60,4.57,3.17
1344,89164843,0.8574,-0.4453,-0.1792,3.60,4.88,2.99
1345,89169843,0.8613,-0.4390,-0.1831,3.60,5.12,2.87
1346,89174843,0.8564,-0.4385,-0.1768,3.72,5.24,2.62
1347,89179843,0.8569,-0.4399,-0.1797,3.90,5.49,2.38
1348,89184842,0.8550,-0.4365,-0.1758,3.90,5.73,2.13
1349,89189843,0.8579,-0.4438,-0.1763,4.09,5.85,1.89
1350,89194844,0.8530,-0.4399,-0.1768,4.27,5.85,1.71
1351,89199844,0.8550,-0.4390,-0.1787,4.45,6.04,1.40
1352,89204843,0.8540,-0.4360,-0.1768,4.70,6.16,1.16
1353,89209843,0.8545,-0.4365,-0.1782,4.94,6.22,0.98
1354,89214841,0.8540,-0.4375,-0.1777,5.12,6.46,0.73
1355,89219844,0.8540,-0.4360,-0.1733,5.43,6.28,0.49
1356,89224843,0.8574,-0.4395,-0.1753,5.67,6.40,0.18
1357,89229843,0.8569,-0.4375,-0.1694,5.85,6.40,-0.12
1358,89234843,0.8560,-0.4443,-0.1714,6.16,6.52,-0.30
1359,89239844,0.8599,-0.4434,-0.1665,6.46,6.46,-0.49
1360,89244843,0.8589,-0.4424,-0.1602,6.71,6.52,-0.79
1361,89249843,0.8540,-0.4399,-0.1602,6.89,6.59,-1.10
1362,89254843,0.8579,-0.4399,-0.1655,7.01,6.52,-1.28
1363,89259841,0.8604,-0.4370,-0.1611,7.13,6.65,-1.52
1364,89264843,0.8560,-0.4390,-0.1602,7.13,6.65,-1.83
1365,89269843,0.8618,-0.4419,-0.1616,7.07,6.77,-2.07
1366,89274842,0.8535,-0.4429,-0.1479,7.13,6.71,-2.32
1367,89279843,0.8569,-0.4419,-0.1484,7.13,6.77,-2.68
1368,89284843,0.8564,-0.4390,-0.1514,6.95,6.89,-2.93
1369,89289843,0.8608,-0.4346,-0.1499,6.89,6.89,-3.11
1370,89294843,0.8594,-0.4370,-0.1499,6.95,6.89,-3.41
1371,89299841,0.8613,-0.4390,-0.1455,6.77,7.01,-3.66
1372,89304843,0.8599,-0.4380,-0.1494,6.65,6.95,-3.96
1373,89309846,0.8579,-0.4346,-0.1431,6.65,6.89,-4.21
1374,89314842,0.8569,-0.4346,-0.1445,6.52,7.01,-4.45
1375,89319841,0.8628,-0.4321,-0.1401,6.46,7.07,-4.76
1376,89324845,0.8604,-0.4355,-0.1411,6.40,7.13,-4.94
1377,89329843,0.8579,-0.4321,-0.1348,6.28,7.13,-5.18
1378,89334844,0.8608,-0.4331,-0.1406,6.28,7.20,-5.43
1379,89339841,0.8604,-0.4282,-0.1396,6.22,7.26,-5.67
1380,89344843,0.8535,-0.4277,-0.1392,6.22,7.13,-5.79
1381,89349843,0.8540,-0.4258,-0.1357,6.28,7.26,-6.04
1382,89354843,0.8579,-0.4229,-0.1338,6.28,7.13,-6.34
1383,89359841,0.8589,-0.4214,-0.1270,6.34,7.32,-6.52
1384,89364843,0.8589,-0.4214,-0.1294,6.46,7.20,-6.77
1385,89369842,0.8608,-0.4160,-0.1313,6.59,7.32,-6.95
1386,89374843,0.8633,-0.4141,-0.1323,6.89,7.38,-7.20
1387,89379843,0.8643,-0.4087,-0.1265,7.01,7.38,-7.32
1388,89384843,0.8657,-0.4116,-0.1304,7.26,7.32,-7.56
1389,89389842,0.8760,-0.4087,-0.1245,7.74,7.62,-7.68
1390,89394843,0.8696,-0.4062,-0.1226,8.17,7.62,-7.80
1391,89399841,0.8745,-0.4019,-0.1235,8.60,7.74,-7.93
1392,89404843,0.8735,-0.4014,-0.1216,9.09,7.80,-8.11
1393,89409843,0.8755,-0.4014,-0.1196,9.57,7.87,-8.23
1394,89414843,0.8813,-0.4048,-0.1226,10.12,8.05,-8.35
1395,89419843,0.8813,-0.4014,-0.1196,10.79,8.17,-8.41
1396,89424843,0.8823,-0.4028,-0.1211,11.40,8.23,-8.54
1397,89429842,0.8823,-0.4028,-0.1235,11.95,8.35,-8.54
1398,89434843,0.8862,-0.3999,-0.1279,12.56,8.48,-8.60
1399,89439841,0.8838,-0.4058,-0.1260,13.23,8.41,-8.60
1400,89444843,0.8838,-0.4023,-0.1206,13.66,8.48,-8.60
1401,89449843,0.8877,-0.4067,-0.1201,14.21,8.60,-8.72
1402,89454843,0.8877,-0.4067,-0.1187,14.76,8.72,-8.78
1403,89459843,0.8848,-0.4048,-0.1177,15.12,8.84,-8.60
1404,89464843,0.8853,-0.4038,-0.1191,15.49,8.90,-8.66
1405,89469842,0.8882,-0.4009,-0.1167,15.91,8.90,-8.78
1406,89474843,0.8892,-0.4028,-0.1191,16.22,8.96,-8.84
1407,89479841,0.8872,-0.4038,-0.1182,16.46,9.02,-8.90
1408,89484843,0.8853,-0.4019,-0.1152,16.71,9.02,-8.96
1409,89489842,0.8853,-0.3994,-0.1138,16.95,9.02,-9.02
1410,89494845,0.8838,-0.3955,-0.1143,17.07,9.21,-9.09
1411,89499842,0.8804,-0.3960,-0.1133,17.20,9.27,-9.15
1412,89504843,0.8843,-0.3965,-0.1074,17.20,9.15,-9.15
1413,89509844,0.8882,-0.3979,-0.1123,17.20,9.09,-9.27
1414,89514843,0.8892,-0.3945,-0.1084,17.13,9.21,-9.21
1415,89519844,0.8877,-0.3975,-0.1108,16.95,9.09,-9.33
1416,89524843,0.8882,-0.3984,-0.1104,16.71,9.15,-9.39
1417,89530393,0.8867,-0.3960,-0.1113,16.65,9.09,-9.45
1418,89534843,0.8823,-0.3950,-0.1123,16.34,9.09,-9.51
1419,89539843,0.8877,-0.3970,-0.1074,15.98,8.84,-9.51
1420,89544843,0.8838,-0.3975,-0.1060,15.85,8.90,-9.45
1421,89549843,0.8813,-0.3970,-0.1143,15.49,8.72,-9.57
1422,89554843,0.8794,-0.3916,-0.1074,15.06,8.84,-9.63
1423,89559842,0.8794,-0.3901,-0.1069,14.63,8.60,-9.70
1424,89564843,0.8799,-0.3911,-0.1069,14.21,8.41,-9.63
1425,89569842,0.8789,-0.3857,-0.1104,13.72,8.41,-9.82
1426,89574843,0.8794,-0.3857,-0.1074,13.35,8.29,-9.82
1427,89579844,0.8848,-0.3853,-0.1064,12.74,8.23,-10.06
1428,89584843,0.8799,-0.3843,-0.1035,12.32,8.11,-10.06
1429,89589843,0.8818,-0.3867,-0.0981,11.83,7.93,-10.12
1430,89594843,0.8828,-0.3857,-0.0977,11.46,7.80,-10.12
1431,89599841,0.8838,-0.3833,-0.0991,11.10,7.74,-10.18
1432,89604843,0.8823,-0.3818,-0.0938,10.73,7.68,-10.18
1433,89609842,0.8784,-0.3828,-0.0913,10.43,7.68,-10.24
1434,89614843,0.8823,-0.3745,-0.0981,10.00,7.62,-10.18
1435,89619843,0.8823,-0.3765,-0.0962,9.70,7.56,-10.24
1436,89624843,0.8799,-0.3789,-0.0903,9.45,7.44,-10.12
1437,89630376,0.8857,-0.3784,-0.0894,9.09,7.50,-10.18
1438,89634843,0.8823,-0.3730,-0.0918,8.96,7.50,-10.12
1439,89639843,0.8833,-0.3706,-0.0923,8.72,7.38,-10.00
1440,89644843,0.8892,-0.3662,-0.0928,8.41,7.38,-10.00
1441,89649843,0.8887,-0.3628,-0.0898,8.11,7.32,-9.88
1442,89654843,0.8916,-0.3604,-0.0889,7.99,7.20,-9.88
1443,89659842,0.8926,-0.3545,-0.0820,7.80,7.26,-9.76
1444,89664843,0.8911,-0.3540,-0.0806,7.68,7.20,-9.63
1445,89669843,0.8896,-0.3564,-0.0830,7.74,7.01,-9.63
1446,89674843,0.8945,-0.3540,-0.0776,7.74,7.26,-9.45
1447,89679842,0.8989,-0.3584,-0.0776,7.80,7.13,-9.21
1448,89685086,0.9014,-0.3560,-0.0786,7.93,7.13,-9.02
1449,89689967,0.9053,-0.3594,-0.0703,8.23,7.13,-8.72
1450,89694843,0.8979,-0.3579,-0.0747,8.23,7.26,-8.54
1451,89699842,0.9033,-0.3564,-0.0684,8.54,7.13,-8.35
1452,89704843,0.9048,-0.3521,-0.0698,8.72,7.26,-8.17
1453,89709841,0.9067,-0.3525,-0.0767,8.96,7.13,-7.87
1454,89714841,0.9067,-0.3530,-0.0654,9.21,7.07,-7.68
1455,89719843,0.9072,-0.3521,-0.0679,9.39,7.07,-7.44
1456,89724842,0.9150,-0.3486,-0.0669,9.63,7.01,-7.13
1457,89729843,0.9141,-0.3511,-0.0708,9.82,6.95,-6.89
1458,89734843,0.9106,-0.3525,-0.0688,10.06,6.95,-6.65
1459,89739843,0.9141,-0.3481,-0.0654,10.12,6.95,-6.46
1460,89744843,0.9170,-0.3477,-0.0625,10.30,6.95,-6.16
1461,89749843,0.9160,-0.3486,-0.0625,10.30,6.77,-5.91
1462,89754841,0.9170,-0.3501,-0.0649,10.30,6.83,-5.67
1463,89759844,0.9160,-0.3477,-0.0552,10.43,6.65,-5.37
1464,89764843,0.9121,-0.3535,-0.0635,10.30,6.71,-5.12
1465,89769843,0.9141,-0.3496,-0.0640,10.37,6.65,-4.76
1466,89774843,0.9136,-0.3516,-0.0625,10.12,6.46,-4.63
1467,89779841,0.9189,-0.3525,-0.0615,10.00,6.40,-4.21
1468,89784846,0.9229,-0.3491,-0.0562,9.88,6.34,-3.96
1469,89789842,0.9199,-0.3555,-0.0566,9.70,6.16,-3.66
1470,89794843,0.9175,-0.3540,-0.0508,9.51,6.04,-3.41
1471,89799841,0.9165,-0.3540,-0.0537,9.21,5.85,-3.17
1472,89804843,0.9170,-0.3521,-0.0527,8.96,5.67,-2.93
1473,89809843,0.9189,-0.3506,-0.0498,8.66,5.67,-2.56
1474,89814890,0.9136,-0.3579,-0.0542,8.41,5.43,-2.38
1475,89819845,0.9136,-0.3530,-0.0552,8.05,5.37,-2.13
1476,89824842,0.9180,-0.3530,-0.0532,7.74,5.06,-1.83
1477,89829843,0.9155,-0.3560,-0.0498,7.38,5.00,-1.59
1478,89834842,0.9106,-0.3530,-0.0498,7.01,4.82,-1.46
1479,89839953,0.9131,-0.3530,-0.0488,6.52,4.57,-1.28
1480,89844844,0.9102,-0.3516,-0.0435,6.10,4.33,-1.04
1481,89849842,0.9102,-0.3511,-0.0439,5.49,4.15,-0.79
1482,89854845,0.9121,-0.3477,-0.0386,5.06,4.02,-0.67
1483,89859842,0.9126,-0.3481,-0.0430,4.57,3.84,-0.43
1484,89864843,0.9106,-0.3486,-0.0332,4.09,3.66,-0.37
1485,89869899,0.9111,-0.3472,-0.0396,3.60,3.60,-0.12
1486,89874843,0.9106,-0.3486,-0.0371,3.11,3.35,-0.18
1487,89879842,0.9102,-0.3496,-0.0410,2.62,3.23,0.00
1488,89884844,0.9116,-0.3438,-0.0381,2.13,3.05,0.06
1489,89889843,0.9116,-0.3457,-0.0356,1.89,2.74,0.12
1490,89894843,0.9116,-0.3472,-0.0332,1.52,2.74,0.30
1491,89899844,0.9102,-0.3477,-0.0293,1.22,2.44,0.43
1492,89904843,0.9062,-0.3442,-0.0366,0.98,2.26,0.49
1493,89909841,0.9092,-0.3462,-0.0396,0.79,2.07,0.49
1494,89914841,0.9121,-0.3481,-0.0337,0.67,1.89,0.61
1495,89919844,0.9116,-0.3501,-0.0303,0.55,1.77,0.79
1496,89924843,0.9141,-0.3457,-0.0269,0.49,1.65,0.79
1497,89929841,0.9116,-0.3491,-0.0386,0.43,1.52,0.98
1498,89934843,0.9160,-0.3462,-0.0347,0.67,1.34,1.16
1499,89939842,0.9194,-0.3447,-0.0312,0.61,1.16,1.34
1500,89944843,0.9160,-0.3506,-0.0249,0.85,1.16,1.34
1501,89949842,0.9214,-0.3481,-0.0293,0.98,0.98,1.59
1502,89954843,0.9150,-0.3462,-0.0317,1.16,0.85,1.65
1503,89959842,0.9194,-0.3467,-0.0254,1.28,0.73,1.77
1504,89964845,0.9194,-0.3496,-0.0234,1.46,0.67,1.95
1505,89969842,0.9224,-0.3452,-0.0273,1.77,0.49,2.13
1506,89974843,0.9209,-0.3423,-0.0259,1.83,0.49,2.20
1507,89979841,0.9219,-0.3472,-0.0225,1.95,0.37,2.32
1508,89984843,0.9258,-0.3472,-0.0254,2.13,0.30,2.44
1509,89989843,0.9268,-0.3472,-0.0234,2.26,0.30,2.44
1510,89994843,0.9219,-0.3467,-0.0269,2.44,0.12,2.56
1511,89999841,0.9219,-0.3477,-0.0215,2.56,0.06,2.74
1512,90004843,0.9209,-0.3501,-0.0205,2.80,0.18,2.80
1513,90009842,0.9219,-0.3477,-0.0190,2.99,0.06,2.93
1514,90014843,0.9233,-0.3516,-0.0205,3.17,0.06,2.93
1515,90019841,0.9185,-0.3511,-0.0161,3.23,-0.06,3.05
1516,90024845,0.9199,-0.3452,-0.0186,3.35,-0.06,3.11
1517,90029842,0.9209,-0.3467,-0.0205,3.60,-0.06,3.17
1518,90034843,0.9199,-0.3481,-0.0117,3.60,-0.12,3.23
1519,90039841,0.9214,-0.3462,-0.0249,3.72,-0.24,3.29
1520,90044843,0.9189,-0.3477,-0.0215,3.66,-0.24,3.29
1521,90049843,0.9185,-0.3452,-0.0254,3.84,-0.30,3.29
1522,90054843,0.9165,-0.3506,-0.0161,3.78,-0.30,3.29
1523,90059843,0.9189,-0.3462,-0.0186,3.84,-0.55,3.35
1524,90064843,0.9175,-0.3477,-0.0244,3.84,-0.61,3.35
1525,90069843,0.9229,-0.3472,-0.0215,3.90,-0.73,3.41
1526,90074843,0.9141,-0.3481,-0.0210,3.96,-0.79,3.35
1527,90079930,0.9141,-0.3506,-0.0220,4.02,-0.91,3.35
1528,90084843,0.9150,-0.3491,-0.0259,4.21,-1.10,3.35
1529,90089842,0.9121,-0.3496,-0.0269,4.27,-1.28,3.35
1530,90094843,0.9092,-0.3491,-0.0298,4.27,-1.34,3.35
1531,90099841,0.9141,-0.3462,-0.0269,4.39,-1.59,3.17
1532,90104843,0.9121,-0.3486,-0.0303,4.51,-1.83,3.17
1533,90109843,0.9121,-0.3511,-0.0278,4.51,-2.07,3.11
1534,90114843,0.9121,-0.3516,-0.0317,4.63,-2.20,3.11
1535,90119843,0.9131,-0.3516,-0.0308,4.70,-2.32,3.05
1536,90124843,0.9111,-0.3447,-0.0308,4.88,-2.50,3.05
1537,90130318,0.9160,-0.3501,-0.0361,4.94,-2.62,3.11
1538,90134843,0.9136,-0.3506,-0.0317,4.88,-2.74,2.99
1539,90139842,0.9199,-0.3486,-0.0342,5.06,-2.99,3.05
1540,90144843,0.9170,-0.3521,-0.0322,4.94,-3.17,2.99
1541,90149842,0.9155,-0.3516,-0.0308,4.94,-3.48,2.93
1542,90154843,0.9155,-0.3535,-0.0312,4.88,-3.48,2.99
1543,90159843,0.9185,-0.3550,-0.0283,4.76,-3.66,3.05
1544,90164843,0.9170,-0.3525,-0.0312,4.70,-3.78,3.05
1545,90169841,0.9180,-0.3511,-0.0366,4.57,-3.78,3.11
1546,90174843,0.9204,-0.3511,-0.0308,4.51,-3.84,3.23
1547,90179842,0.9160,-0.3511,-0.0264,4.33,-3.90,3.29
1548,90184844,0.9194,-0.3560,-0.0356,4.09,-4.21,3.23
1549,90189920,0.9253,-0.3574,-0.0317,3.84,-4.02,3.29
1550,90194843,0.9194,-0.3550,-0.0293,3.72,-3.96,3.29
1551,90199845,0.9219,-0.3530,-0.0366,3.54,-3.96,3.35
1552,90204843,0.9209,-0.3491,-0.0371,3.35,-4.02,3.54
1553,90209841,0.9209,-0.3496,-0.0415,3.11,-4.09,3.54
1554,90214843,0.9238,-0.3530,-0.0425,2.87,-4.15,3.48
1555,90219843,0.9209,-0.3540,-0.0376,2.62,-4.02,3.60
1556,90224841,0.9233,-0.3564,-0.0435,2.50,-4.02,3.78
1557,90229845,0.9248,-0.3550,-0.0376,2.32,-4.21,3.78
1558,90234845,0.9219,-0.3579,-0.0371,2.20,-4.15,3.84
1559,90239843,0.9263,-0.3594,-0.0391,2.01,-4.09,3.96
1560,90244914,0.9243,-0.3584,-0.0425,1.95,-4.02,4.02
1561,90249841,0.9258,-0.3584,-0.0444,1.83,-4.02,4.21
1562,90254842,0.9253,-0.3608,-0.0449,1.77,-4.09,4.27
1563,90259843,0.9224,-0.3608,-0.0430,1.59,-3.96,4.33
1564,90264848,0.9189,-0.3633,-0.0449,1.52,-3.96,4.45
1565,90269843,0.9204,-0.3613,-0.0513,1.40,-3.90,4.51
1566,90274841,0.9185,-0.3604,-0.0405,1.28,-3.90,4.63
1567,90279843,0.9204,-0.3569,-0.0420,1.22,-3.84,4.70
1568,90284842,0.9185,-0.3623,-0.0469,1.10,-3.78,4.76
1569,90289845,0.9141,-0.3604,-0.0483,1.04,-3.90,4.88
1570,90294842,0.9160,-0.3594,-0.0483,0.85,-3.84,4.76
1571,90299843,0.9116,-0.3589,-0.0469,0.79,-3.66,4.88
1572,90304842,0.9126,-0.3604,-0.0454,0.73,-3.78,4.82
1573,90309843,0.9141,-0.3628,-0.0469,0.55,-3.78,4.94
1574,90314843,0.9121,-0.3550,-0.0498,0.49,-3.72,4.94
1575,90319843,0.9126,-0.3623,-0.0518,0.37,-3.60,4.94
1576,90324841,0.9121,-0.3643,-0.0488,0.37,-3.66,5.00
1577,90329842,0.9102,-0.3638,-0.0449,0.43,-3.54,4.94
1578,90335213,0.9111,-0.3579,-0.0488,0.37,-3.60,5.00
1579,90339843,0.9150,-0.3608,-0.0503,0.37,-3.54,5.12
1580,90344843,0.9106,-0.3613,-0.0498,0.37,-3.54,5.06
1581,90349843,0.9092,-0.3569,-0.0503,0.37,-3.60,5.00
1582,90354842,0.9102,-0.3613,-0.0522,0.30,-3.48,4.94
1583,90359843,0.9028,-0.3604,-0.0483,0.18,-3.54,4.94
1584,90364843,0.9077,-0.3545,-0.0479,0.12,-3.48,4.82
1585,90369843,0.9116,-0.3579,-0.0474,0.06,-3.41,4.94
1586,90374842,0.9116,-0.3579,-0.0439,0.00,-3.35,4.88
1587,90379843,0.9082,-0.3589,-0.0459,-0.06,-3.41,4.94
1588,90384842,0.9097,-0.3613,-0.0459,-0.18,-3.35,4.94
1589,90389843,0.9106,-0.3643,-0.0474,-0.30,-3.29,4.88
1590,90394842,0.9136,-0.3608,-0.0498,-0.37,-3.29,4.94
1591,90399843,0.9111,-0.3667,-0.0459,-0.43,-3.11,5.00
1592,90404842,0.9062,-0.3638,-0.0435,-0.61,-3.05,5.06
1593,90409843,0.9121,-0.3613,-0.0449,-0.67,-3.17,5.06
1594,90414842,0.9062,-0.3643,-0.0464,-0.67,-2.93,5.18
1595,90419843,0.9102,-0.3618,-0.0474,-0.79,-2.87,5.24
1596,90424841,0.9097,-0.3652,-0.0493,-0.98,-2.93,5.30
1597,90429844,0.9111,-0.3638,-0.0435,-1.04,-2.99,5.30
1598,90434843,0.9102,-0.3647,-0.0493,-1.04,-3.05,5.43
1599,90439843,0.9097,-0.3638,-0.0493,-0.98,-2.87,5.37
1600,90444842,0.9097,-0.3633,-0.0503,-0.85,-2.80,5.43
1601,90449843,0.9111,-0.3662,-0.0542,-0.73,-2.68,5.37
1602,90454842,0.9102,-0.3682,-0.0527,-0.67,-2.87,5.37
1603,90459844,0.9111,-0.3672,-0.0532,-0.37,-2.87,5.37
1604,90464841,0.9126,-0.3701,-0.0547,-0.06,-2.74,5.37
1605,90469843,0.9077,-0.3691,-0.0552,0.30,-2.68,5.43
1606,90474845,0.9087,-0.3721,-0.0518,0.55,-2.68,5.49
1607,90479915,0.9102,-0.3740,-0.0542,0.79,-2.68,5.49
1608,90484841,0.9111,-0.3750,-0.0522,1.28,-2.74,5.49
1609,90489845,0.9111,-0.3765,-0.0474,1.59,-2.68,5.49
1610,90494843,0.9058,-0.3784,-0.0581,1.83,-2.56,5.55
1611,90499980,0.9087,-0.3765,-0.0532,2.07,-2.68,5.55
1612,90504843,0.9092,-0.3784,-0.0537,2.38,-2.74,5.43
1613,90509843,0.9131,-0.3794,-0.0469,2.44,-2.62,5.49
1614,90514843,0.9126,-0.3774,-0.0435,2.62,-2.50,5.37
1615,90519843,0.9077,-0.3779,-0.0454,2.68,-2.62,5.37
1616,90524841,0.9116,-0.3784,-0.0488,2.74,-2.56,5.24
1617,90529841,0.9077,-0.3770,-0.0469,2.56,-2.56,5.24
1618,90534845,0.9121,-0.3726,-0.0532,2.50,-2.44,5.12
1619,90539842,0.9102,-0.3765,-0.0483,2.38,-2.44,5.00
1620,90544844,0.9077,-0.3726,-0.0479,2.20,-2.38,4.88
1621,90549843,0.9058,-0.3726,-0.0522,2.13,-2.38,4.76
1622,90554843,0.9092,-0.3774,-0.0498,1.83,-2.32,4.51
1623,90559843,0.9072,-0.3779,-0.0464,1.71,-2.32,4.39
1624,90564842,0.9023,-0.3765,-0.0557,1.52,-2.32,4.39
1625,90569841,0.9072,-0.3779,-0.0542,1.34,-2.26,4.15
1626,90574845,0.9062,-0.3789,-0.0557,1.28,-2.20,4.09
1627,90579842,0.9077,-0.3750,-0.0537,1.16,-2.13,3.96
1628,90584841,0.9067,-0.3760,-0.0557,1.10,-2.07,3.78
1629,90589843,0.9043,-0.3765,-0.0518,0.98,-2.01,3.66
1630,90594843,0.9043,-0.3784,-0.0498,1.10,-2.07,3.41
1631,90599843,0.9033,-0.3784,-0.0557,1.04,-2.07,3.29
1632,90604842,0.9072,-0.3789,-0.0469,1.22,-2.01,3.11
1633,90609843,0.9077,-0.3779,-0.0542,1.34,-1.89,2.99
1634,90614843,0.9092,-0.3799,-0.0566,1.46,-1.95,2.87
1635,90619843,0.9106,-0.3779,-0.0518,1.59,-1.95,2.68
1636,90624841,0.9111,-0.3784,-0.0518,1.83,-1.95,2.56
1637,90629847,0.9072,-0.3804,-0.0547,2.13,-1.95,2.50
1638,90634845,0.9077,-0.3789,-0.0586,2.32,-1.83,2.44
1639,90639842,0.9126,-0.3813,-0.0601,2.50,-1.89,2.26
1640,90644844,0.9058,-0.3818,-0.0576,2.74,-1.83,2.20
1641,90649843,0.9077,-0.3789,-0.0562,3.05,-1.65,2.07
1642,90654843,0.9116,-0.3774,-0.0562,3.29,-1.77,1.95
1643,90659843,0.9092,-0.3770,-0.0605,3.35,-1.89,1.83
1644,90664843,0.9106,-0.3750,-0.0610,3.41,-1.71,1.71
1645,90669842,0.9126,-0.3721,-0.0581,3.54,-1.65,1.59
1646,90674842,0.9102,-0.3730,-0.0596,3.66,-1.65,1.46
1647,90679844,0.9106,-0.3809,-0.0601,3.66,-1.71,1.34
1648,90684844,0.9062,-0.3799,-0.0571,3.66,-1.65,1.22
1649,90689842,0.9067,-0.3735,-0.0576,3.72,-1.52,1.10
1650,90694843,0.9111,-0.3794,-0.0596,3.60,-1.52,1.10
1651,90699842,0.9136,-0.3755,-0.0581,3.54,-1.59,0.98
1652,90704919,0.9092,-0.3740,-0.0562,3.54,-1.34,0.85
1653,90709842,0.9102,-0.3760,-0.0654,3.35,-1.46,0.79
1654,90715043,0.9102,-0.3770,-0.0615,3.35,-1.40,0.73
1655,90719843,0.9106,-0.3770,-0.0605,3.29,-1.40,0.55
1656,90724843,0.9116,-0.3789,-0.0537,3.11,-1.34,0.55
1657,90729843,0.9121,-0.3804,-0.0571,3.11,-1.16,0.43
1658,90734841,0.9087,-0.3774,-0.0547,2.80,-1.10,0.43
1659,90739843,0.9116,-0.3755,-0.0571,2.62,-1.04,0.24
1660,90744843,0.9150,-0.3755,-0.0581,2.44,-0.91,0.18
1661,90749842,0.9126,-0.3789,-0.0566,2.32,-0.91,0.24
1662,90754843,0.9121,-0.3765,-0.0576,2.07,-0.91,0.18
1663,90759843,0.9111,-0.3770,-0.0601,1.89,-0.85,0.18
1664,90764843,0.9116,-0.3765,-0.0547,1.71,-0.73,0.00
1665,90769843,0.9111,-0.3711,-0.0605,1.59,-0.55,0.00
1666,90774844,0.9141,-0.3755,-0.0571,1.40,-0.43,-0.06
1667,90779842,0.9126,-0.3765,-0.0562,1.16,-0.43,-0.06
1668,90785059,0.9116,-0.3779,-0.0640,1.16,-0.37,-0.18
1669,90789843,0.9087,-0.3740,-0.0562,1.16,-0.37,-0.24
1670,90794843,0.9121,-0.3740,-0.0552,1.16,-0.30,-0.24
