# skilleye imu stream v1
# device=xiao_esp32c6 imu=mpu6050 addr=0x68
# rate_hz=200 accel_range_g=16 gyro_range_dps=2000 dlpf_hz=94
# units: accel in g, gyro in deg/s, t_us in microseconds since boot (monotonic)
# no shared clock with the camera -- tap the racket once before each take
# so both recordings share a spike to align on
seq,t_us,ax,ay,az,gx,gy,gz
0,771978087,0.8540,0.4922,-0.0493,12.07,-5.55,6.34
1,771983184,0.8560,0.4902,-0.0479,12.20,-5.61,6.46
2,771988087,0.8535,0.4873,-0.0469,12.26,-5.61,6.46
3,771993086,0.8574,0.4795,-0.0439,12.13,-5.61,6.52
4,771998087,0.8525,0.4824,-0.0464,12.01,-5.85,6.59
5,772003087,0.8511,0.4775,-0.0488,11.83,-5.73,6.65
6,772008087,0.8560,0.4761,-0.0503,11.52,-5.91,6.65
7,772013085,0.8555,0.4731,-0.0498,11.16,-5.91,6.65
8,772018087,0.8618,0.4727,-0.0464,10.98,-5.85,6.46
9,772023086,0.8652,0.4746,-0.0552,10.85,-5.85,6.40
10,772028090,0.8701,0.4692,-0.0537,10.79,-5.98,6.34
11,772033086,0.8730,0.4717,-0.0562,10.79,-6.04,6.34
12,772038088,0.8755,0.4712,-0.0571,10.79,-6.10,6.16
13,772043085,0.8774,0.4717,-0.0542,10.91,-6.04,6.16
14,772048087,0.8809,0.4697,-0.0645,11.16,-6.04,6.04
15,772053087,0.8833,0.4707,-0.0542,11.40,-6.16,5.85
16,772058087,0.8882,0.4736,-0.0615,11.77,-5.98,5.67
17,772063085,0.8940,0.4746,-0.0684,12.20,-5.91,5.49
18,772068087,0.8921,0.4756,-0.0645,12.50,-5.73,5.30
19,772073086,0.8999,0.4814,-0.0718,12.93,-5.61,5.06
20,772078087,0.8989,0.4810,-0.0806,13.48,-5.24,4.94
21,772083087,0.8994,0.4805,-0.0771,14.15,-5.18,4.88
22,772088087,0.8940,0.4785,-0.0830,15.00,-4.94,4.76
23,772093086,0.8882,0.4805,-0.0859,15.73,-4.76,4.82
24,772098087,0.8809,0.4829,-0.0854,16.71,-4.57,4.82
25,772103086,0.8828,0.4854,-0.0928,17.80,-4.33,5.06
26,772108089,0.8843,0.4854,-0.0938,18.84,-4.27,5.12
27,772113653,0.8872,0.4839,-0.0947,20.06,-4.27,5.24
28,772118088,0.8877,0.4790,-0.0947,21.52,-4.02,5.43
29,772123087,0.8892,0.4761,-0.0874,22.93,-4.02,5.67
30,772128087,0.8911,0.4785,-0.0913,24.63,-3.84,5.85
31,772133087,0.8916,0.4766,-0.0942,26.46,-3.78,6.10
32,772138087,0.8911,0.4746,-0.0938,28.23,-3.54,6.22
33,772143085,0.8936,0.4741,-0.0879,30.12,-3.41,6.28
34,772148085,0.8936,0.4810,-0.0908,31.95,-3.17,6.46
35,772153087,0.8672,0.4741,-0.1021,33.35,-2.99,6.65
36,772158088,0.8843,0.4575,-0.1001,34.27,-2.50,6.95
37,772163087,0.8989,0.4634,-0.0991,35.06,-2.07,7.38
38,772168087,0.9067,0.4727,-0.0947,35.37,-1.46,7.74
39,772173085,0.8945,0.4771,-0.0981,35.49,-0.79,8.05
40,772178087,0.8828,0.4746,-0.1133,35.12,-0.43,8.48
41,772183087,0.8789,0.4717,-0.1113,34.63,0.12,8.78
42,772188086,0.8804,0.4624,-0.1021,33.66,0.55,9.15
43,772193087,0.8779,0.4521,-0.1084,32.68,1.16,9.63
44,772198088,0.8765,0.4565,-0.1064,31.22,1.59,10.06
45,772203087,0.8770,0.4565,-0.1074,29.70,2.07,10.43
46,772208088,0.8740,0.4556,-0.1045,27.93,2.38,10.73
47,772213087,0.8740,0.4521,-0.1050,26.16,2.87,10.98
48,772218087,0.8730,0.4492,-0.1016,24.02,3.29,11.22
49,772223087,0.8765,0.4463,-0.1040,21.83,3.66,11.46
50,772228087,0.8750,0.4404,-0.0957,19.57,3.96,11.46
51,772233087,0.8647,0.4380,-0.0942,17.20,4.27,11.65
52,772238087,0.8711,0.4282,-0.0874,14.76,4.57,11.83
53,772243087,0.8730,0.4277,-0.0850,12.07,4.94,11.95
54,772248092,0.8755,0.4282,-0.0820,9.51,5.18,11.89
55,772253598,0.8755,0.4233,-0.0830,7.07,5.37,11.83
56,772258087,0.8755,0.4194,-0.0806,4.63,5.49,11.65
57,772263087,0.8726,0.4150,-0.0757,2.26,5.43,11.46
58,772268087,0.8721,0.4160,-0.0820,0.12,5.37,11.28
59,772273085,0.8750,0.4087,-0.0713,-1.95,5.30,10.85
60,772278089,0.8711,0.4072,-0.0698,-3.60,5.12,10.55
61,772283089,0.8677,0.4092,-0.0688,-5.24,4.94,10.00
62,772288086,0.8735,0.4067,-0.0557,-6.65,4.45,9.51
63,772293085,0.8740,0.4009,-0.0469,-7.87,4.02,9.09
64,772298087,0.8735,0.3945,-0.0449,-8.96,3.60,8.41
65,772303087,0.8774,0.3926,-0.0435,-9.76,2.99,7.93
66,772308086,0.8809,0.3892,-0.0293,-10.37,2.20,7.44
67,772313087,0.8721,0.3911,-0.0327,-10.67,1.71,6.83
68,772318085,0.8677,0.3887,-0.0356,-10.85,1.04,6.28
69,772323087,0.8687,0.3882,-0.0249,-10.79,0.30,5.67
70,772328086,0.8643,0.3872,-0.0269,-10.55,-0.55,5.12
71,772333085,0.8613,0.3867,-0.0269,-10.06,-1.10,4.39
72,772338089,0.8564,0.3862,-0.0298,-9.57,-1.77,3.78
73,772343088,0.8535,0.3867,-0.0254,-8.90,-2.68,2.93
74,772348086,0.8506,0.3906,-0.0249,-8.29,-3.54,2.20
75,772353090,0.8477,0.3892,-0.0190,-7.80,-4.02,1.40
76,772358086,0.8413,0.3838,-0.0215,-7.20,-5.00,0.49
77,772363087,0.8398,0.3887,-0.0176,-6.59,-5.79,-0.43
78,772368086,0.8330,0.3833,-0.0234,-6.28,-6.65,-1.16
79,772373087,0.8330,0.3848,-0.0225,-5.85,-7.50,-2.07
80,772378085,0.8262,0.3862,-0.0283,-5.67,-8.48,-2.99
81,772383087,0.8228,0.3901,-0.0239,-5.43,-9.33,-3.84
82,772388087,0.8208,0.3867,-0.0225,-5.37,-10.12,-4.70
83,772393085,0.8223,0.3896,-0.0273,-5.49,-10.85,-5.67
84,772398085,0.8213,0.3901,-0.0342,-5.55,-11.52,-6.40
85,772403087,0.8184,0.3896,-0.0356,-5.79,-12.32,-7.32
86,772408160,0.8164,0.3945,-0.0371,-5.98,-12.87,-8.11
87,772413175,0.8154,0.4004,-0.0322,-6.22,-13.41,-8.84
88,772418086,0.8193,0.4072,-0.0410,-6.46,-13.84,-9.51
89,772423087,0.8193,0.4126,-0.0415,-6.77,-14.21,-10.18
90,772428086,0.8213,0.4199,-0.0547,-7.13,-14.45,-10.79
91,772433322,0.8228,0.4258,-0.0601,-7.56,-15.00,-11.28
92,772438087,0.8232,0.4326,-0.0718,-8.11,-15.24,-11.71
93,772443087,0.8320,0.4312,-0.0718,-8.78,-15.67,-12.13
94,772448087,0.8296,0.4336,-0.0742,-9.63,-15.98,-12.50
95,772453086,0.8335,0.4302,-0.0830,-10.67,-16.40,-12.62
96,772458087,0.8301,0.4380,-0.0830,-11.77,-16.83,-12.87
97,772463087,0.8320,0.4414,-0.0864,-13.11,-17.38,-13.11
98,772468087,0.8354,0.4473,-0.0947,-14.33,-17.80,-13.17
99,772473086,0.8374,0.4521,-0.0996,-15.73,-18.29,-13.35
100,772478087,0.8354,0.4531,-0.0967,-16.95,-18.66,-13.54
101,772483087,0.8379,0.4580,-0.0972,-18.11,-18.96,-13.54
102,772488087,0.8354,0.4595,-0.1045,-19.21,-19.27,-13.54
103,772493086,0.8408,0.4707,-0.1074,-20.24,-19.57,-13.41
104,772498087,0.8389,0.4775,-0.1089,-21.10,-19.76,-13.60
105,772503089,0.8403,0.4814,-0.1147,-22.01,-19.88,-13.41
106,772508086,0.8398,0.4849,-0.1187,-22.74,-20.06,-13.29
107,772513087,0.8398,0.4902,-0.1196,-23.35,-20.12,-13.23
108,772518086,0.8359,0.5020,-0.1162,-23.90,-20.24,-13.11
109,772523087,0.8394,0.5098,-0.1265,-24.51,-20.30,-12.87
110,772528086,0.8408,0.5161,-0.1357,-25.06,-20.18,-12.68
111,772533087,0.8462,0.5210,-0.1338,-25.49,-20.37,-12.56
112,772538086,0.8442,0.5225,-0.1348,-26.04,-20.30,-12.26
113,772543087,0.8447,0.5322,-0.1387,-26.46,-20.30,-11.89
114,772548086,0.8423,0.5371,-0.1406,-27.13,-20.37,-11.71
115,772553087,0.8472,0.5415,-0.1362,-27.74,-20.12,-11.40
116,772558087,0.8457,0.5454,-0.1338,-28.54,-20.12,-11.28
117,772563087,0.8452,0.5464,-0.1357,-29.27,-19.88,-10.98
118,772568086,0.8486,0.5459,-0.1372,-30.12,-19.70,-10.85
119,772573087,0.8496,0.5430,-0.1299,-31.16,-19.45,-10.55
120,772578087,0.8491,0.5459,-0.1289,-32.20,-19.02,-10.37
121,772583085,0.8501,0.5430,-0.1304,-33.35,-18.78,-10.24
122,772588089,0.8477,0.5386,-0.1187,-34.51,-18.35,-10.00
123,772593087,0.8496,0.5396,-0.1226,-35.79,-17.93,-9.94
124,772598115,0.8491,0.5347,-0.1133,-37.13,-17.01,-9.70
125,772603085,0.8491,0.5352,-0.1074,-38.48,-16.59,-9.51
126,772608087,0.8535,0.5376,-0.1147,-40.06,-15.85,-9.51
127,772613087,0.8506,0.5312,-0.1206,-42.01,-15.30,-9.45
128,772618086,0.8521,0.5400,-0.1177,-44.02,-14.94,-9.63
129,772623087,0.8535,0.5435,-0.1191,-46.10,-14.45,-9.82
130,772628086,0.8574,0.5396,-0.1260,-48.35,-14.21,-10.12
131,772633087,0.8589,0.5464,-0.1245,-50.67,-13.84,-10.49
132,772638087,0.8467,0.5547,-0.1152,-52.93,-13.54,-11.10
133,772643087,0.8105,0.5635,-0.1167,-54.88,-13.29,-11.77
134,772648086,0.8306,0.5747,-0.1143,-56.52,-13.05,-12.68
135,772653086,0.8623,0.5664,-0.1187,-57.87,-12.93,-13.72
136,772658087,0.8828,0.5630,-0.1240,-58.96,-12.80,-14.82
137,772663088,0.8926,0.5669,-0.1182,-59.63,-12.74,-15.91
138,772668087,0.8970,0.5767,-0.1011,-60.00,-12.62,-17.07
139,772673087,0.8994,0.5796,-0.1064,-59.94,-12.50,-18.11
140,772678087,0.8999,0.5801,-0.1084,-59.45,-12.50,-19.33
141,772683085,0.8965,0.5786,-0.1016,-58.72,-12.20,-20.37
142,772688413,0.8755,0.5796,-0.0942,-57.44,-12.01,-21.46
143,772693087,0.8618,0.5850,-0.0952,-56.28,-11.83,-22.44
144,772698086,0.8462,0.5859,-0.1035,-54.63,-11.52,-23.41
145,772703085,0.8354,0.5825,-0.1021,-52.99,-11.40,-24.45
146,772708087,0.8296,0.5815,-0.1050,-51.22,-11.22,-25.18
147,772713086,0.8218,0.5825,-0.1011,-49.39,-11.10,-25.85
148,772718088,0.8149,0.5894,-0.1123,-47.50,-11.04,-26.46
149,772723087,0.8101,0.5933,-0.1094,-45.43,-10.79,-27.20
150,772728087,0.8086,0.5991,-0.1030,-43.17,-10.55,-27.80
151,772733085,0.7959,0.6021,-0.1104,-40.91,-10.24,-28.23
152,772738085,0.7900,0.6060,-0.1001,-38.54,-9.88,-28.72
153,772743087,0.7808,0.6030,-0.0981,-36.22,-9.33,-29.02
154,772748087,0.7729,0.6006,-0.0962,-33.90,-8.78,-29.39
155,772753087,0.7671,0.6021,-0.1001,-31.65,-8.35,-29.45
156,772758085,0.7588,0.5991,-0.0889,-29.45,-7.80,-29.57
157,772763085,0.7544,0.6035,-0.0913,-27.38,-7.07,-29.57
158,772768087,0.7476,0.6113,-0.0942,-25.55,-6.52,-29.57
159,772773087,0.7461,0.6128,-0.0781,-23.84,-5.73,-29.51
160,772778086,0.7422,0.6108,-0.0742,-22.50,-5.37,-29.45
161,772783085,0.7310,0.6167,-0.0732,-21.28,-4.57,-29.27
162,772788085,0.7261,0.6284,-0.0801,-20.24,-3.78,-29.15
163,772793087,0.7207,0.6362,-0.0830,-19.45,-3.35,-28.90
164,772798087,0.7119,0.6396,-0.0859,-18.90,-2.74,-28.72
165,772803087,0.7095,0.6382,-0.0762,-18.48,-2.20,-28.29
166,772808087,0.7002,0.6299,-0.0679,-18.23,-1.59,-27.68
167,772813087,0.6934,0.6079,-0.0664,-18.48,-1.04,-26.95
168,772818085,0.6836,0.5845,-0.0615,-19.02,-0.49,-25.85
169,772823085,0.6768,0.5591,-0.0576,-19.94,0.37,-24.63
170,772828087,0.6641,0.5400,-0.0581,-21.34,0.85,-23.05
171,772833085,0.6514,0.5283,-0.0552,-23.05,1.34,-21.46
172,772838089,0.6401,0.5215,-0.0630,-25.00,1.77,-19.70
173,772843113,0.6362,0.5200,-0.0513,-26.95,1.95,-17.87
174,772848087,0.6328,0.5303,-0.0635,-29.33,2.01,-16.16
175,772853089,0.6416,0.5381,-0.0542,-31.40,1.89,-14.51
176,772858086,0.6479,0.5562,-0.0635,-33.29,1.77,-12.87
177,772863085,0.6616,0.5728,-0.0566,-34.82,1.40,-11.46
178,772868087,0.6826,0.5898,-0.0361,-35.79,1.10,-10.37
179,772873089,0.6997,0.6045,-0.0186,-36.40,0.79,-9.27
180,772878086,0.7266,0.6255,0.0132,-36.46,0.73,-8.23
181,772883087,0.7495,0.6484,0.0278,-35.98,0.73,-7.44
182,772888086,0.7725,0.6709,0.0332,-35.24,0.73,-6.89
183,772893401,0.7944,0.6831,0.0454,-34.02,0.91,-6.34
184,772898087,0.8018,0.6943,0.0522,-32.68,0.98,-5.85
185,772903087,0.8032,0.6919,0.0674,-31.10,1.22,-5.24
186,772908087,0.8042,0.6987,0.0728,-29.57,1.34,-4.70
187,772913087,0.8027,0.7085,0.0835,-27.80,1.52,-4.09
188,772918087,0.8008,0.7144,0.0889,-25.79,1.95,-3.41
189,772923087,0.8003,0.7246,0.0913,-23.54,2.50,-2.68
190,772928087,0.7993,0.7378,0.0923,-21.40,2.87,-2.01
191,772933087,0.7954,0.7476,0.1016,-18.96,3.41,-1.28
192,772938087,0.7983,0.7573,0.1123,-16.40,4.02,-0.49
193,772943087,0.7866,0.7700,0.1118,-13.78,4.57,0.18
194,772948087,0.7764,0.7778,0.1162,-11.16,5.18,0.98
195,772953087,0.7729,0.7876,0.1304,-8.72,5.91,1.65
196,772958087,0.7686,0.7949,0.1367,-6.22,6.59,2.20
197,772963087,0.7603,0.8096,0.1499,-3.90,7.44,2.80
198,772968088,0.7646,0.8203,0.1548,-1.77,8.11,3.17
199,772973087,0.7617,0.8354,0.1616,0.24,9.02,3.78
200,772978087,0.7612,0.8467,0.1709,2.13,9.94,4.09
201,772983087,0.7578,0.8599,0.1685,3.60,10.73,4.27
202,772988087,0.7598,0.8726,0.1714,4.88,11.46,4.57
203,772993085,0.7573,0.8813,0.1748,5.67,12.32,4.76
204,772998284,0.7495,0.8823,0.1797,6.40,13.11,5.00
205,773003089,0.7349,0.8823,0.1733,6.40,13.96,5.18
206,773008086,0.7158,0.8755,0.1587,6.10,14.82,5.43
207,773013089,0.6953,0.8735,0.1528,5.79,15.73,5.79
208,773018087,0.6836,0.8696,0.1504,5.18,16.59,6.10
209,773023087,0.6797,0.8604,0.1489,4.76,17.50,6.46
210,773028087,0.6704,0.8496,0.1392,4.09,18.54,6.95
211,773033090,0.6655,0.8438,0.1450,3.60,19.57,7.38
212,773038086,0.6665,0.8369,0.1440,2.93,20.67,7.93
213,773043087,0.6641,0.8301,0.1519,2.44,21.83,8.48
214,773048163,0.6597,0.8267,0.1431,1.95,22.99,8.84
215,773053089,0.6665,0.8237,0.1460,1.52,24.15,9.21
216,773058086,0.6724,0.8330,0.1611,1.46,25.43,9.51
217,773063487,0.6797,0.8408,0.1587,1.46,26.71,9.63
218,773068087,0.6768,0.8418,0.1567,1.52,28.05,9.57
219,773073088,0.6777,0.8535,0.1528,1.52,29.45,9.45
220,773078087,0.6904,0.8638,0.1411,1.83,30.67,9.27
221,773083085,0.6982,0.8647,0.1323,2.07,32.01,8.84
222,773088087,0.7051,0.8628,0.1299,2.50,33.35,8.41
223,773093087,0.7065,0.8569,0.1235,2.99,34.51,7.99
224,773098712,0.6914,0.8516,-0.1846,3.66,33.90,7.32
225,773103090,0.7861,0.7046,-0.1304,6.52,27.93,7.87
226,773108086,0.8335,0.7378,-0.1162,8.17,23.05,8.60
227,773113085,0.7754,0.6465,-0.2280,9.94,18.41,8.96
228,773118085,0.8203,0.7354,0.5269,11.71,16.95,9.76
229,773123089,0.8423,0.8008,-0.0371,14.27,15.55,10.00
230,773128089,0.8145,0.7534,-0.0376,17.68,11.22,10.30
231,773133087,0.7793,0.7368,0.1694,20.85,9.09,10.61
232,773138087,0.8076,0.6934,0.1543,24.02,7.99,10.79
233,773143088,0.8218,0.6499,0.1367,27.26,6.40,10.67
234,773148087,0.8125,0.6392,0.0659,30.06,4.88,10.61
235,773153087,0.8223,0.6768,0.1182,32.68,3.90,10.24
236,773158087,0.8262,0.7002,0.1553,35.00,3.48,9.27
237,773163087,0.8232,0.6997,0.1074,36.95,3.29,8.17
238,773168087,0.8257,0.6841,0.0791,38.54,2.93,7.01
239,773173088,0.8223,0.6602,0.1113,39.70,3.11,5.85
240,773178087,0.8120,0.6284,0.1284,40.49,3.54,4.94
241,773183087,0.7998,0.5957,0.0962,41.10,3.78,4.09
242,773188087,0.7900,0.5791,0.1016,41.46,4.21,3.48
243,773193085,0.7837,0.5605,0.1499,41.16,4.70,3.05
244,773198085,0.7842,0.5400,0.1704,40.30,5.61,2.93
245,773203085,0.7822,0.5303,0.1567,39.09,6.28,2.68
246,773208238,0.7700,0.5259,0.1606,37.32,7.32,2.68
247,773213089,0.7891,0.3203,0.2085,34.27,8.66,3.54
248,773218087,0.7480,0.4307,0.0859,30.00,9.15,5.24
249,773223086,0.7754,0.4458,0.0205,25.55,8.41,7.13
250,773228087,0.8042,0.5186,0.0767,21.28,7.74,8.84
251,773233086,0.8276,0.5391,0.1377,17.32,8.35,9.94
252,773238087,0.8521,0.5317,0.1084,13.60,8.96,10.61
253,773243086,0.8511,0.5181,0.0864,10.30,9.57,11.22
254,773248087,0.8467,0.5195,0.1143,7.32,10.24,11.71
255,773253365,0.8350,0.5337,0.1353,4.57,11.22,11.89
256,773258089,0.8174,0.5591,0.1162,2.01,12.26,12.01
257,773263086,0.8120,0.5889,0.1182,0.00,13.17,11.77
258,773268088,0.8018,0.6128,0.1514,-1.52,14.63,11.04
259,773273086,0.8052,0.6357,0.1694,-2.50,16.34,9.82
260,773278089,0.8105,0.6445,0.1592,-2.99,17.99,7.93
261,773283085,0.8267,0.6426,0.1709,-3.05,20.00,5.73
262,773288086,0.8325,0.6270,0.1699,-3.29,21.89,3.35
263,773293087,0.8296,0.6079,0.1528,-3.54,23.60,1.10
264,773298086,0.8276,0.5957,0.1396,-4.09,24.82,-1.10
265,773303087,0.8276,0.5898,0.1201,-4.51,25.91,-3.17
266,773308087,0.8345,0.5879,0.1260,-4.88,26.65,-5.12
267,773313085,0.8433,0.5708,0.1279,-5.06,27.01,-6.71
268,773318087,0.8477,0.5562,0.1201,-5.49,27.01,-8.48
269,773323086,0.8501,0.5522,0.1274,-5.85,26.95,-10.00
270,773328087,0.8501,0.5518,0.1538,-6.28,26.83,-11.52
271,773333087,0.8369,0.5513,0.1553,-6.95,26.65,-12.99
272,773338087,0.8267,0.5571,0.1572,-7.80,26.34,-14.39
273,773343086,0.8208,0.5581,0.1699,-8.60,26.22,-15.91
274,773348087,0.8057,0.5640,0.1812,-9.76,26.04,-17.26
275,773353086,0.7979,0.5693,0.1836,-11.04,25.79,-18.78
276,773358087,0.7891,0.5781,0.1880,-12.44,25.91,-20.37
277,773363085,0.7842,0.5840,0.1992,-14.15,25.98,-21.89
278,773368090,0.7817,0.5962,0.2017,-15.91,26.28,-23.54
279,773373086,0.7715,0.5996,0.2012,-17.62,26.34,-25.12
280,773378231,0.7778,0.6377,0.2393,-19.27,26.71,-26.77
281,773383086,0.7773,0.6392,0.2358,-20.18,27.26,-28.60
282,773388087,0.7280,0.5400,0.0029,-20.12,26.16,-29.88
283,773393085,0.6860,0.4731,-0.0020,-19.45,22.50,-29.82
284,773398085,0.6812,0.4194,-0.0083,-18.41,17.56,-28.66
285,773403087,0.6807,0.4297,0.0347,-16.89,11.83,-26.59
286,773408086,0.6909,0.4595,0.1943,-15.67,7.13,-24.51
287,773413087,0.7168,0.4819,0.2842,-14.76,4.21,-22.50
288,773418088,0.7490,0.5225,0.3022,-13.90,2.74,-20.98
289,773423087,0.7700,0.5718,0.2925,-13.05,1.83,-20.06
290,773428087,0.7563,0.6050,0.2720,-12.20,0.98,-20.00
291,773433087,0.7402,0.5645,0.2930,-11.65,0.37,-20.06
292,773438087,0.7310,0.4893,0.3638,-11.22,0.49,-19.27
293,773443087,0.6904,0.5649,0.2065,-10.61,0.61,-18.17
294,773448087,0.6411,0.6011,0.1704,-9.45,-0.06,-17.87
295,773453087,0.6470,0.5522,0.2075,-8.29,-0.85,-17.38
296,773458085,0.6660,0.5732,0.1567,-7.32,-1.71,-16.83
297,773463089,0.7051,0.5952,0.1138,-6.59,-3.05,-16.52
298,773468086,0.7437,0.6172,0.1338,-6.28,-4.27,-16.46
299,773473087,0.7651,0.6265,0.1353,-6.22,-5.43,-16.83
300,773478087,0.7744,0.6284,0.1196,-6.52,-6.46,-17.44
301,773483088,0.7725,0.6436,0.1172,-6.95,-7.20,-18.17
302,773488087,0.7563,0.6348,0.1177,-7.68,-7.62,-18.90
303,773493087,0.7393,0.6294,0.1143,-8.29,-8.29,-19.51
304,773498087,0.7129,0.6313,0.0991,-8.96,-8.84,-20.00
305,773503085,0.6860,0.6392,0.1064,-9.70,-9.33,-20.43
306,773508085,0.6714,0.6362,0.1216,-10.61,-9.57,-20.91
307,773513089,0.6519,0.6294,0.1147,-11.95,-9.82,-21.10
308,773518086,0.6396,0.6396,0.1069,-13.35,-10.12,-21.28
309,773523156,0.6318,0.6357,0.1050,-15.06,-10.37,-21.52
310,773528087,0.6470,0.6270,0.0962,-16.83,-10.43,-21.59
311,773533087,0.6577,0.6289,0.0854,-18.78,-10.61,-21.59
312,773538087,0.6543,0.6289,0.0771,-20.73,-10.73,-21.71
313,773543087,0.6553,0.6323,0.0830,-22.87,-10.73,-21.83
314,773548087,0.6484,0.6353,0.0840,-24.94,-10.79,-22.01
315,773553088,0.6528,0.6396,0.0791,-26.77,-10.61,-22.20
316,773558158,0.6587,0.6333,0.0786,-28.48,-10.49,-22.56
317,773563541,0.6582,0.6318,0.0957,-30.00,-10.43,-22.74
318,773568087,0.6431,0.6421,0.0957,-31.34,-10.18,-23.11
319,773573086,0.6294,0.6426,0.1099,-32.68,-10.18,-23.54
320,773578087,0.6035,0.6499,0.1201,-33.90,-10.00,-24.02
321,773583087,0.6260,0.6548,0.1240,-34.70,-9.94,-24.63
322,773588087,0.6562,0.6606,0.1147,-35.37,-10.00,-25.06
323,773593087,0.6758,0.6709,0.1201,-35.43,-9.88,-25.61
324,773598087,0.6885,0.6655,0.1274,-35.24,-9.76,-26.16
325,773603087,0.6914,0.6689,0.1182,-35.06,-9.82,-26.95
326,773608085,0.6919,0.6694,0.1318,-34.88,-9.76,-27.87
327,773613140,0.6821,0.6714,0.1372,-34.70,-9.63,-28.60
328,773618087,0.6758,0.6655,0.1475,-34.39,-9.57,-29.51
329,773623085,0.6748,0.6582,0.1484,-33.84,-9.39,-30.30
330,773628089,0.6641,0.6514,0.1494,-33.23,-9.02,-30.91
331,773633086,0.6558,0.6455,0.1406,-32.56,-8.54,-31.71
332,773638087,0.6465,0.6406,0.1392,-31.52,-8.23,-32.32
333,773643087,0.6411,0.6367,0.1382,-30.55,-7.80,-32.87
334,773648087,0.6299,0.6411,0.1250,-29.51,-7.50,-33.54
335,773653086,0.6279,0.6460,0.1333,-28.41,-7.13,-34.15
336,773658087,0.6260,0.6509,0.1294,-27.50,-6.59,-34.88
337,773663085,0.6265,0.6504,0.1245,-26.83,-6.22,-35.55
338,773668089,0.6270,0.6621,0.1143,-26.16,-5.85,-36.40
339,773673086,0.6367,0.6870,0.1001,-25.85,-5.79,-37.38
340,773678087,0.6450,0.6772,0.1196,-25.85,-5.85,-38.48
341,773683087,0.6489,0.6665,0.1265,-26.10,-5.73,-39.45
342,773688087,0.6479,0.6665,0.1157,-26.77,-5.91,-40.30
343,773693088,0.6602,0.6802,0.1328,-27.50,-6.10,-41.28
344,773698085,0.6528,0.6831,0.1533,-28.60,-6.22,-42.26
345,773703087,0.6807,0.7139,0.1655,-29.88,-6.34,-43.29
346,773708085,0.6626,0.7383,0.1846,-31.22,-6.16,-44.63
347,773713085,0.6104,0.7285,0.1548,-32.62,-5.61,-45.73
348,773718087,0.6079,0.7495,0.1304,-33.60,-5.55,-46.65
349,773723088,0.5991,0.7563,0.1313,-34.15,-5.24,-47.38
350,773728087,0.5991,0.7666,0.1353,-34.33,-4.88,-47.99
351,773733087,0.6196,0.7705,0.1016,-33.60,-4.70,-48.48
352,773738087,0.6172,0.7666,0.1104,-32.50,-4.51,-48.78
353,773743087,0.6270,0.7549,0.1616,-30.85,-3.96,-48.78
354,773748087,0.6387,0.7456,0.2031,-28.72,-2.87,-48.35
355,773753088,0.6641,0.7480,0.1919,-26.10,-1.83,-47.38
356,773758087,0.6865,0.7686,0.1919,-22.99,-0.61,-46.40
357,773763087,0.6968,0.7856,0.2222,-19.63,0.85,-45.55
358,773768087,0.6943,0.8125,0.2231,-15.79,2.07,-44.94
359,773773087,0.6880,0.8438,0.1860,-12.01,3.17,-44.39
360,773778087,0.6714,0.8608,0.1675,-8.17,3.78,-43.84
361,773783085,0.6597,0.8667,0.1724,-4.39,4.33,-43.48
362,773788089,0.6509,0.8667,0.1729,-0.79,4.63,-42.93
363,773793086,0.6523,0.8657,0.1328,2.44,4.45,-42.13
364,773798087,0.6548,0.8628,0.1304,5.61,3.54,-41.10
365,773803085,0.6626,0.8696,0.1592,8.60,2.68,-39.76
366,773808087,0.6763,0.8765,0.1597,11.22,1.46,-38.05
367,773813085,0.6885,0.8794,0.1646,13.66,0.00,-36.34
368,773818087,0.7017,0.8799,0.1890,16.04,-1.59,-34.51
369,773823089,0.7119,0.8779,0.2217,17.93,-2.87,-32.74
370,773828086,0.7207,0.8770,0.2217,20.00,-4.27,-31.16
371,773833087,0.7256,0.8716,0.2100,21.77,-5.85,-29.51
372,773838087,0.7256,0.8716,0.2168,23.29,-7.38,-28.17
373,773843166,0.7314,0.8687,0.2246,24.70,-9.02,-27.01
374,773848089,0.7466,0.8604,0.2290,25.79,-10.61,-25.67
375,773853086,0.7651,0.8613,0.2295,26.65,-12.38,-24.57
376,773858087,0.7842,0.8618,0.2256,27.20,-14.15,-23.41
377,773863085,0.7905,0.8662,0.2222,27.50,-16.16,-22.50
378,773868087,0.7891,0.8652,0.2104,27.56,-18.41,-21.52
379,773873086,0.7900,0.8716,0.2046,27.80,-21.10,-21.10
380,773878088,0.7881,0.8672,0.1963,27.93,-24.39,-20.91
381,773883085,0.7910,0.8481,0.2217,28.78,-28.05,-20.79
382,773888089,0.7935,0.8154,0.2773,30.00,-31.46,-20.37
383,773893086,0.7935,0.7886,0.3208,32.01,-34.39,-19.63
384,773898087,0.7900,0.7852,0.3174,34.33,-36.77,-18.66
385,773903085,0.7900,0.8047,0.2930,37.20,-39.02,-17.80
386,773908087,0.7871,0.8154,0.2754,39.94,-41.04,-17.13
387,773913087,0.7988,0.8188,0.2500,42.62,-42.99,-16.71
388,773918087,0.8066,0.8120,0.2412,45.24,-45.00,-16.34
389,773923085,0.8218,0.8052,0.2285,47.62,-46.89,-15.79
390,773928087,0.8354,0.8018,0.2256,49.94,-48.66,-15.00
391,773933086,0.8335,0.8066,0.2217,52.01,-50.12,-14.09
392,773938087,0.8296,0.8193,0.2139,53.90,-51.59,-13.05
393,773943085,0.8267,0.8379,0.1919,55.49,-52.62,-12.01
394,773948087,0.8325,0.8594,0.1802,56.59,-53.78,-11.22
395,773953086,0.8252,0.8789,0.1685,57.13,-54.76,-10.43
396,773958087,0.8169,0.8926,0.1592,56.95,-55.85,-9.76
397,773963085,0.8081,0.9033,0.1543,56.40,-56.65,-9.09
398,773968087,0.7944,0.8994,0.1523,55.24,-57.50,-8.41
399,773973086,0.7783,0.8823,0.1401,53.60,-58.11,-7.50
400,773978087,0.7637,0.8691,0.1392,51.65,-58.96,-6.28
401,773983086,0.7563,0.8711,0.1309,49.51,-59.57,-4.82
402,773988087,0.7480,0.8662,0.1274,47.44,-60.12,-3.17
403,773993087,0.7456,0.8721,0.1216,45.30,-60.79,-1.34
404,773998087,0.7476,0.8799,0.1221,43.60,-61.10,0.61
405,774003085,0.7446,0.8950,0.1265,42.07,-61.40,2.44
406,774008087,0.7461,0.9072,0.1167,40.85,-61.40,4.39
407,774013086,0.7495,0.9033,0.1094,39.88,-61.40,6.65
408,774018085,0.7437,0.9194,0.1064,39.15,-61.28,8.90
409,774023087,0.7373,0.9258,0.0991,38.54,-60.91,11.16
410,774028087,0.7378,0.9331,0.0786,38.05,-60.55,13.48
411,774033085,0.7388,0.9395,0.0684,37.62,-60.30,15.79
412,774038087,0.7124,0.9482,0.0771,37.38,-59.70,18.05
413,774043087,0.6479,0.9741,0.1074,38.17,-58.96,20.00
414,774048086,0.6680,0.9321,0.0742,39.94,-58.05,22.32
415,774053088,0.6997,0.9185,0.0786,42.56,-56.89,25.30
416,774058087,0.7217,0.9331,0.0825,45.24,-55.73,28.29
417,774063087,0.7310,0.9365,0.0630,47.56,-54.70,30.91
418,774068087,0.7295,0.9346,0.0464,49.57,-53.72,33.60
419,774073087,0.7104,0.9297,0.0410,50.85,-52.74,36.10
420,774078087,0.6987,0.9253,0.0337,51.16,-51.59,38.41
421,774083087,0.6992,0.9204,0.0142,50.73,-50.67,40.67
422,774088087,0.7090,0.9180,0.0015,49.33,-50.00,42.80
423,774093087,0.7168,0.9131,0.0063,47.26,-49.15,44.70
424,774098087,0.7129,0.9077,0.0020,44.15,-48.54,46.40
425,774103087,0.6982,0.9004,-0.0083,40.37,-47.68,47.99
426,774108090,0.6914,0.8955,-0.0142,35.85,-46.95,49.33
427,774113086,0.6929,0.8989,-0.0273,30.85,-46.40,50.49
428,774118088,0.6973,0.8994,-0.0298,25.55,-45.91,51.34
429,774123089,0.7036,0.8892,-0.0386,20.06,-45.24,52.13
430,774128095,0.7070,0.8848,-0.0420,14.88,-44.70,52.74
431,774133085,0.6978,0.8784,-0.0479,9.63,-44.33,53.35
432,774138087,0.6958,0.8740,-0.0591,4.57,-43.54,53.84
433,774143087,0.6953,0.8667,-0.0684,-0.30,-43.11,54.33
434,774148085,0.6987,0.8706,-0.0732,-4.94,-42.32,54.82
435,774153085,0.7041,0.8652,-0.0815,-9.15,-41.71,55.12
436,774158672,0.7056,0.8682,-0.0928,-13.11,-41.10,55.49
437,774163087,0.6963,0.8677,-0.0967,-16.52,-40.55,55.73
438,774168089,0.6865,0.8701,-0.1099,-19.63,-40.06,55.98
439,774173086,0.6763,0.8618,-0.1055,-22.20,-39.63,56.28
440,774178089,0.6743,0.8604,-0.1152,-24.02,-39.09,56.65
441,774183087,0.6675,0.8599,-0.1069,-25.00,-38.72,57.01
442,774188086,0.6621,0.8647,-0.1172,-25.30,-38.17,57.32
443,774193088,0.6572,0.8599,-0.1128,-24.70,-37.62,57.56
444,774198090,0.6519,0.8467,-0.1245,-23.54,-37.13,57.93
445,774203113,0.6445,0.8389,-0.1255,-21.40,-36.65,58.35
446,774208086,0.6460,0.8350,-0.1265,-18.78,-35.98,58.90
447,774213085,0.6494,0.8364,-0.1250,-15.43,-35.37,59.51
448,774218087,0.6470,0.8350,-0.1172,-11.40,-34.76,60.12
449,774223085,0.6494,0.8262,-0.1196,-7.99,-34.09,60.67
450,774228087,0.6475,0.8213,-0.1206,-2.68,-33.11,61.46
451,774233101,0.6479,0.8169,-0.1187,1.65,-32.26,62.44
452,774238086,0.6509,0.8135,-0.1157,5.85,-31.40,63.29
453,774243087,0.6631,0.8145,-0.1191,9.82,-30.43,64.21
454,774248087,0.6826,0.8047,-0.1270,13.60,-29.39,65.06
455,774253085,0.6846,0.8091,-0.1177,16.89,-28.41,66.04
456,774258087,0.7036,0.8320,-0.0366,20.24,-27.20,66.89
457,774263086,0.7295,0.8193,-0.0703,23.35,-26.52,67.93
458,774268087,0.7217,0.8325,-0.0342,27.80,-25.43,69.51
459,774273087,0.7358,0.8174,-0.0244,30.43,-24.63,70.49
460,774278086,0.7471,0.8066,-0.0645,32.13,-23.66,71.71
461,774283087,0.7642,0.8057,-0.0596,33.54,-22.87,72.68
462,774288087,0.7729,0.7852,-0.0376,34.33,-21.89,73.66
463,774293133,0.7886,0.7798,-0.0767,34.51,-20.91,74.70
464,774298087,0.8032,0.7852,-0.0952,33.84,-20.18,75.67
465,774303085,0.8159,0.7832,-0.0850,32.20,-18.96,76.59
466,774308087,0.8296,0.7666,-0.0986,29.51,-17.87,77.62
467,774313088,0.8442,0.7646,-0.1162,25.43,-16.59,78.72
468,774318087,0.8521,0.7617,-0.1196,21.10,-15.24,79.51
469,774323085,0.8647,0.7642,-0.1401,14.51,-13.90,80.73
470,774328087,0.8945,0.7725,-0.1514,5.18,-12.38,82.20
471,774333087,0.9194,0.7822,-0.1372,-3.23,-10.61,83.48
472,774338086,0.9624,0.7842,-0.0713,-10.49,-9.39,84.57
473,774343087,0.9614,0.7954,-0.0439,-22.44,-7.68,85.79
474,774348086,0.9912,0.8062,-0.1152,-30.06,-6.65,87.13
475,774353087,1.0249,0.8286,-0.0957,-40.49,-5.30,89.15
476,774358087,1.0283,0.8374,-0.0801,-46.40,-4.51,90.43
477,774363087,1.0430,0.8657,-0.0903,-53.17,-3.17,92.74
478,774368086,1.0566,0.8828,-0.0854,-56.22,-2.56,94.27
479,774373089,1.0630,0.9141,-0.0820,-59.09,-1.46,97.26
480,774378086,1.0669,0.9360,-0.1001,-60.06,-0.79,99.33
481,774383089,1.0723,0.9673,-0.1035,-59.82,0.12,103.05
482,774388087,1.0762,0.9829,-0.0952,-59.02,0.67,105.67
483,774393086,1.0737,1.0078,-0.1021,-57.50,1.10,109.21
484,774398087,1.0762,1.0293,-0.1128,-55.00,1.59,113.90
485,774403089,1.0698,1.0371,-0.1060,-53.11,1.71,117.38
486,774408419,1.0664,1.0469,-0.1069,-49.88,1.77,122.74
487,774413087,1.0625,1.0444,-0.1113,-47.68,1.71,126.46
488,774418089,1.0645,1.0405,-0.1050,-44.27,1.59,132.32
489,774423087,1.0640,1.0317,-0.1025,-42.01,1.52,136.22
490,774428087,1.0605,1.0225,-0.1030,-39.45,1.34,141.28
491,774433087,1.0576,1.0127,-0.0957,-37.32,1.04,146.16
492,774438086,1.0664,0.9980,-0.0903,-35.73,0.67,151.16
493,774443087,1.0630,0.9810,-0.0850,-34.33,0.24,157.20
494,774448899,1.0610,0.9595,-0.0874,-33.96,-0.12,162.01
495,774453090,1.0566,0.9355,-0.0811,-34.02,-0.49,165.85
496,774458167,1.0508,0.9053,-0.0747,-34.63,-0.98,171.52
497,774463087,1.0386,0.8809,-0.0659,-35.37,-1.28,175.24
498,774468086,1.0312,0.8516,-0.0688,-36.71,-1.65,179.88
499,774473087,1.0151,0.8154,-0.0625,-38.54,-1.83,184.21
500,774478086,0.9980,0.7832,-0.0664,-40.85,-2.20,188.41
501,774483087,0.9893,0.7422,-0.0625,-43.72,-2.44,192.32
502,774488087,0.9834,0.7080,-0.0581,-47.26,-2.87,196.04
503,774493097,0.9614,0.6675,-0.0620,-52.32,-3.35,200.12
504,774498085,0.9507,0.6367,-0.0596,-55.85,-3.90,202.56
505,774503085,0.9307,0.5918,-0.0493,-60.49,-4.45,205.55
506,774508087,0.9131,0.5581,-0.0605,-65.18,-5.18,208.23
507,774513089,0.8892,0.5205,-0.0664,-69.70,-6.16,210.79
508,774518086,0.8623,0.4790,-0.0605,-73.90,-7.13,212.80
509,774523085,0.8369,0.4414,-0.0718,-77.50,-8.35,214.82
510,774528087,0.8062,0.3950,-0.0664,-80.43,-9.70,216.40
511,774533086,0.7842,0.3560,-0.0708,-82.38,-11.10,217.87
512,774538089,0.7583,0.3091,-0.0781,-83.72,-12.56,218.90
513,774543087,0.7383,0.2637,-0.0830,-84.09,-14.27,219.63
514,774548087,0.7085,0.2158,-0.0898,-83.84,-16.04,220.06
515,774553086,0.6851,0.1616,-0.0898,-82.87,-17.74,220.12
516,774558087,0.6670,0.1240,-0.1050,-81.28,-19.82,219.76
517,774563086,0.6528,0.0776,-0.1050,-79.27,-21.83,219.02
518,774568085,0.6362,0.0352,-0.1094,-76.46,-23.78,217.74
519,774573088,0.6157,-0.0044,-0.1162,-73.23,-25.67,216.28
520,774578087,0.5981,-0.0459,-0.1177,-69.88,-27.68,214.51
521,774583086,0.5737,-0.0928,-0.1289,-65.24,-30.06,211.95
522,774588087,0.5552,-0.1172,-0.1304,-62.20,-31.83,210.06
523,774593087,0.5288,-0.1538,-0.1284,-58.23,-33.72,207.44
524,774598088,0.5068,-0.1826,-0.1274,-53.90,-35.55,204.70
525,774603087,0.4834,-0.2148,-0.1313,-49.70,-37.38,201.65
526,774608086,0.4624,-0.2441,-0.1357,-45.49,-39.15,198.54
527,774613087,0.4395,-0.2754,-0.1313,-40.67,-41.16,194.57
528,774618086,0.4263,-0.2974,-0.1406,-37.87,-42.44,191.77
529,774623090,0.4053,-0.3208,-0.1401,-34.63,-43.90,188.29
530,774628086,0.3960,-0.3413,-0.1313,-31.95,-45.24,184.63
531,774633087,0.3843,-0.3774,-0.1304,-29.82,-46.77,180.98
532,774638086,0.3672,-0.4023,-0.1309,-28.05,-47.93,177.26
533,774643087,0.3511,-0.4277,-0.1270,-26.89,-48.96,173.41
534,774648087,0.3354,-0.4512,-0.1318,-26.10,-50.06,169.82
535,774653087,0.3286,-0.4761,-0.1294,-25.61,-51.10,165.98
536,774658219,0.3091,-0.5005,-0.1372,-25.61,-52.26,161.52
537,774663502,0.2920,-0.5190,-0.1377,-25.91,-52.99,157.80
538,774668087,0.2803,-0.5332,-0.1367,-26.46,-53.72,154.70
539,774673257,0.2803,-0.5615,-0.1514,-27.56,-54.27,149.94
540,774678088,0.2856,-0.5796,-0.1514,-28.48,-55.00,146.77
541,774683086,0.2847,-0.5845,-0.1533,-29.63,-55.49,142.62
542,774688087,0.2915,-0.5991,-0.1655,-30.79,-56.16,138.29
543,774693088,0.3032,-0.6099,-0.1689,-32.01,-56.89,132.80
544,774698087,0.3047,-0.6211,-0.1758,-32.62,-57.44,129.15
545,774703086,0.3081,-0.6382,-0.1846,-33.11,-58.05,124.45
546,774708088,0.3164,-0.6465,-0.1919,-33.41,-58.66,119.70
547,774713087,0.3174,-0.6655,-0.2056,-33.54,-59.45,115.06
548,774718087,0.3042,-0.6733,-0.2212,-33.29,-60.30,110.37
549,774723086,0.2935,-0.6895,-0.2310,-32.87,-61.16,105.79
550,774728087,0.2671,-0.7046,-0.2461,-32.26,-62.07,101.22
551,774733085,0.2363,-0.7178,-0.2593,-31.28,-63.29,96.83
552,774738087,0.2090,-0.7354,-0.2690,-30.00,-64.63,92.50
553,774743544,0.1875,-0.7480,-0.2720,-27.87,-66.10,86.77
554,774748087,0.1753,-0.7593,-0.2764,-25.61,-67.32,83.23
555,774753087,0.1660,-0.7676,-0.2793,-23.78,-68.48,79.70
556,774758087,0.1636,-0.7744,-0.2979,-21.46,-69.76,75.18
557,774763202,0.1714,-0.7837,-0.3125,-18.78,-71.40,69.51
558,774768087,0.1763,-0.7876,-0.3184,-16.71,-72.56,65.67
559,774773086,0.1802,-0.7969,-0.3179,-14.21,-73.84,60.49
560,774778087,0.1777,-0.8047,-0.3271,-11.34,-75.06,55.24
561,774783089,0.1772,-0.8140,-0.3359,-8.78,-76.22,49.88
562,774788086,0.1753,-0.8232,-0.3501,-6.59,-77.13,44.33
563,774793087,0.1660,-0.8291,-0.3599,-4.63,-78.29,38.48
564,774798086,0.1562,-0.8325,-0.3691,-3.05,-79.27,32.74
565,774803086,0.1484,-0.8364,-0.3760,-1.77,-80.18,26.71
566,774808087,0.1387,-0.8457,-0.3833,-0.55,-81.16,20.67
567,774813087,0.1133,-0.8530,-0.3901,0.55,-81.83,14.57
568,774818087,0.0918,-0.8555,-0.3911,1.59,-82.32,8.48
569,774823087,0.0718,-0.8628,-0.3955,2.50,-82.74,2.50
570,774828086,0.0493,-0.8657,-0.3887,3.41,-82.80,-3.48
571,774833085,0.0361,-0.8599,-0.3867,4.45,-82.87,-9.39
572,774838085,0.0234,-0.8550,-0.3853,5.43,-82.56,-15.43
573,774843089,0.0132,-0.8442,-0.3945,6.52,-82.32,-21.59
574,774848086,-0.0005,-0.8447,-0.3862,7.68,-81.89,-27.68
575,774853087,-0.0107,-0.8359,-0.3931,8.66,-81.46,-33.84
576,774858086,-0.0273,-0.8335,-0.4048,9.51,-81.04,-40.00
577,774863087,-0.0376,-0.8228,-0.4146,10.24,-80.67,-46.16
578,774868086,-0.0474,-0.8145,-0.4180,10.85,-80.43,-52.50
579,774873087,-0.0605,-0.7998,-0.4253,11.28,-80.12,-58.96
580,774878086,-0.0688,-0.7939,-0.4282,11.65,-79.57,-65.73
581,774883087,-0.0767,-0.7827,-0.4380,12.01,-79.21,-72.44
582,774888086,-0.0811,-0.7725,-0.4390,12.38,-78.72,-79.21
583,774893085,-0.0864,-0.7505,-0.4409,12.93,-78.17,-86.40
584,774898085,-0.0928,-0.7334,-0.4443,13.41,-77.50,-93.60
585,774903088,-0.1060,-0.7266,-0.4443,13.96,-77.01,-100.85
586,774908086,-0.1235,-0.7104,-0.4492,15.00,-76.52,-107.87
587,774913087,-0.1333,-0.6953,-0.4424,17.01,-75.98,-116.40
588,774918085,-0.1396,-0.6753,-0.4414,19.21,-75.43,-123.60
589,774923087,-0.1401,-0.6606,-0.4448,21.10,-74.94,-129.33
590,774928086,-0.1436,-0.6431,-0.4482,23.48,-74.51,-136.52
591,774933089,-0.1416,-0.6147,-0.4492,26.22,-74.27,-145.24
592,774938087,-0.1372,-0.5928,-0.4478,27.80,-74.02,-151.16
593,774943087,-0.1431,-0.5615,-0.4487,30.06,-73.84,-160.06
594,774948086,-0.1533,-0.5479,-0.4556,31.16,-73.84,-165.98
595,774953087,-0.1592,-0.5186,-0.4541,32.56,-73.66,-173.23
596,774958086,-0.1606,-0.4673,-0.4468,34.02,-73.60,-180.61
597,774963087,-0.1650,-0.4243,-0.4531,35.55,-73.48,-187.99
598,774968086,-0.1743,-0.3833,-0.4570,36.95,-73.23,-195.30
599,774973087,-0.1885,-0.3467,-0.4585,38.11,-73.17,-202.44
600,774978085,-0.2031,-0.3066,-0.4595,38.66,-73.17,-209.45
601,774983086,-0.2139,-0.2441,-0.4653,38.54,-72.99,-216.28
602,774988089,-0.2090,-0.1797,-0.4658,37.62,-72.93,-222.99
603,774993086,-0.2095,-0.1250,-0.4775,35.49,-72.80,-230.00
604,774998087,-0.2222,-0.0801,-0.4849,32.13,-72.44,-236.40
605,775003086,-0.2275,-0.0029,-0.4990,26.77,-72.32,-243.84
606,775008087,-0.2109,0.0640,-0.5176,22.74,-72.07,-248.66
607,775013086,-0.1953,0.1392,-0.5410,17.80,-71.77,-254.57
608,775018087,-0.1885,0.2056,-0.5552,13.05,-71.52,-260.06
609,775023087,-0.1987,0.2822,-0.5781,8.78,-71.10,-264.94
610,775028087,-0.2056,0.3623,-0.6011,5.24,-70.55,-269.09
611,775033089,-0.2080,0.4478,-0.6226,2.93,-70.00,-272.32
612,775038085,-0.2070,0.5386,-0.6440,2.32,-69.21,-274.63
613,775043085,-0.2017,0.6162,-0.6753,3.72,-68.29,-275.98
614,775048087,-0.1860,0.7070,-0.6890,7.13,-67.38,-276.34
615,775053088,-0.1606,0.7930,-0.7163,12.07,-66.34,-276.10
616,775058087,-0.1187,0.8833,-0.7393,18.29,-65.49,-274.88
617,775063086,-0.0718,0.9614,-0.7607,25.30,-64.39,-273.11
618,775068087,-0.0137,1.0425,-0.7798,32.38,-63.84,-270.67
619,775073184,0.0640,1.1245,-0.8174,40.12,-63.11,-266.83
620,775078087,0.1245,1.1836,-0.8330,44.45,-62.62,-263.90
621,775083086,0.2036,1.2480,-0.8604,48.41,-62.20,-259.88
622,775088087,0.2729,1.3037,-0.8965,50.49,-61.83,-255.43
623,775093087,0.3438,1.3657,-0.9238,50.30,-61.34,-250.18
624,775098087,0.4067,1.4136,-0.9609,47.80,-60.79,-244.27
625,775103387,0.4839,1.4746,-0.9883,42.62,-60.18,-236.46
626,775108087,0.5283,1.4946,-1.0063,38.05,-59.39,-230.79
627,775113087,0.5913,1.5269,-1.0259,29.70,-58.05,-221.65
628,775118089,0.6392,1.5474,-1.0342,23.72,-57.07,-215.30
629,775123085,0.7017,1.5684,-1.0493,16.16,-55.55,-206.95
630,775128086,0.7568,1.5762,-1.0674,8.96,-53.96,-198.48
631,775133087,0.8184,1.5874,-1.0781,2.44,-52.32,-189.63
632,775138086,0.8711,1.5991,-1.0786,-2.62,-50.55,-181.04
633,775143085,0.9204,1.5947,-1.0903,-6.22,-48.72,-172.07
634,775148087,0.9595,1.6006,-1.1016,-8.54,-46.83,-163.05
635,775153089,0.9941,1.5972,-1.1089,-9.88,-45.18,-154.09
636,775158086,1.0234,1.5957,-1.1099,-10.12,-43.54,-145.18
637,775163087,1.0513,1.5762,-1.1162,-9.45,-41.59,-136.22
638,775168086,1.0762,1.5640,-1.1211,-8.29,-39.94,-127.38
639,775173087,1.0918,1.5352,-1.1294,-6.95,-37.80,-118.90
640,775178086,1.1094,1.5088,-1.1260,-5.43,-36.04,-110.67
641,775183087,1.1182,1.4761,-1.1211,-3.96,-34.33,-102.87
642,775188086,1.1328,1.4399,-1.1157,-2.62,-32.56,-95.49
643,775193087,1.1411,1.3931,-1.1123,-1.59,-30.49,-87.13
644,775198090,1.1362,1.3594,-1.1108,-1.10,-28.66,-80.43
645,775203090,1.1343,1.3301,-1.1104,-0.79,-27.50,-75.49
646,775208086,1.1289,1.2939,-1.0947,-0.49,-25.91,-69.57
647,775213086,1.1235,1.2544,-1.0864,-0.06,-24.45,-64.02
648,775218606,1.1128,1.2124,-1.0723,0.98,-22.56,-57.68
649,775223087,1.1035,1.1860,-1.0654,1.89,-21.40,-53.66
650,775228086,1.0801,1.1470,-1.0483,3.72,-19.70,-48.84
651,775233087,1.0625,1.1079,-1.0396,5.85,-17.93,-44.45
652,775238086,1.0356,1.0723,-1.0303,8.23,-16.16,-40.30
653,775243085,1.0156,1.0405,-1.0122,10.49,-14.21,-36.71
654,775248085,0.9922,1.0039,-1.0020,12.56,-12.38,-33.29
655,775253087,0.9663,0.9639,-0.9912,14.15,-10.37,-30.37
656,775258087,0.9414,0.9331,-0.9722,15.24,-8.29,-27.80
657,775263087,0.9185,0.8950,-0.9561,15.67,-6.28,-25.55
658,775268152,0.8892,0.8584,-0.9443,15.85,-3.90,-23.23
659,775273089,0.8701,0.8354,-0.9316,15.55,-2.13,-21.95
660,775278086,0.8467,0.8096,-0.9189,15.30,-0.06,-20.55
661,775283087,0.8276,0.7861,-0.9004,14.94,2.01,-19.39
662,775288086,0.8032,0.7607,-0.8872,14.82,4.09,-18.41
663,775293087,0.7812,0.7329,-0.8750,14.57,6.10,-17.62
664,775298086,0.7578,0.7134,-0.8584,14.45,8.17,-17.07
665,775303151,0.7329,0.6885,-0.8452,14.45,10.37,-16.46
666,775308086,0.7222,0.6719,-0.8472,14.45,11.89,-16.28
667,775313088,0.7036,0.6548,-0.8257,14.33,13.78,-16.04
668,775318086,0.6816,0.6392,-0.8115,14.27,15.49,-16.04
669,775323411,0.6572,0.6255,-0.8022,14.02,17.44,-16.10
670,775328087,0.6426,0.6113,-0.7939,13.84,18.90,-16.28
671,775333087,0.6265,0.6045,-0.7886,13.66,20.55,-16.46
672,775338087,0.6079,0.5952,-0.7764,13.35,22.07,-16.89
673,775343086,0.5962,0.5859,-0.7764,13.23,23.48,-17.26
674,775348087,0.5781,0.5742,-0.7661,13.17,25.00,-17.68
675,775353087,0.5630,0.5679,-0.7559,13.17,26.16,-18.23
676,775358087,0.5576,0.5635,-0.7534,13.05,27.44,-18.72
677,775363086,0.5449,0.5562,-0.7461,13.17,28.48,-19.39
678,775368087,0.5469,0.5479,-0.7363,13.17,29.51,-19.88
679,775373087,0.5342,0.5444,-0.7271,13.29,30.43,-20.37
680,775378087,0.5322,0.5405,-0.7134,13.66,31.52,-20.67
681,775383086,0.5269,0.5386,-0.7158,14.15,32.44,-21.10
682,775388087,0.5205,0.5361,-0.7021,14.70,33.41,-21.34
683,775393087,0.5161,0.5332,-0.6978,15.49,34.45,-21.52
684,775398087,0.5068,0.5322,-0.6953,16.22,35.49,-21.83
685,775403089,0.4990,0.5293,-0.6836,16.89,36.40,-22.01
686,775408087,0.4883,0.5308,-0.6792,17.38,37.44,-22.07
687,775413087,0.4800,0.5288,-0.6836,17.38,38.35,-22.32
688,775418087,0.4697,0.5259,-0.6807,17.26,39.21,-22.50
689,775423087,0.4575,0.5220,-0.6797,16.83,39.94,-22.62
690,775428086,0.4546,0.5205,-0.6763,16.04,40.43,-22.74
691,775433085,0.4478,0.5151,-0.6704,15.24,40.91,-22.93
692,775438089,0.4409,0.5088,-0.6821,14.45,41.22,-23.05
693,775443087,0.4370,0.5088,-0.6816,14.09,41.46,-23.29
694,775448086,0.4414,0.5044,-0.6826,14.33,41.65,-23.41
695,775453089,0.4404,0.5093,-0.6689,15.06,41.95,-23.41
696,775458086,0.4409,0.5059,-0.6758,16.28,42.20,-23.54
697,775463087,0.4414,0.4990,-0.6714,18.11,42.38,-23.48
698,775468089,0.4448,0.5000,-0.6699,19.88,42.68,-23.48
699,775473087,0.4482,0.4966,-0.6792,21.95,42.99,-23.48
700,775478086,0.4517,0.4922,-0.6689,23.72,43.41,-23.60
701,775483089,0.4512,0.4868,-0.6631,25.24,43.96,-23.54
702,775488086,0.4575,0.4897,-0.6631,26.22,44.33,-23.60
703,775493087,0.4600,0.4854,-0.6582,26.65,44.82,-23.60
704,775498086,0.4658,0.4810,-0.6616,26.34,45.18,-23.60
705,775503087,0.4668,0.4756,-0.6558,25.37,45.61,-23.60
706,775508087,0.4692,0.4717,-0.6514,24.02,45.73,-23.54
707,775513087,0.4712,0.4678,-0.6543,22.26,46.10,-23.54
708,775518086,0.4702,0.4673,-0.6577,20.61,46.46,-23.29
709,775523085,0.4644,0.4673,-0.6543,18.90,46.52,-22.93
710,775528089,0.4590,0.4692,-0.6626,17.56,46.71,-22.80
711,775533088,0.4614,0.4707,-0.6631,16.40,46.52,-22.56
712,775538087,0.4585,0.4785,-0.6748,15.61,46.40,-22.32
713,775543085,0.4624,0.4761,-0.6743,15.55,46.34,-22.13
714,775548085,0.4644,0.4722,-0.6865,16.04,45.91,-22.07
715,775553087,0.4683,0.4717,-0.6924,17.13,45.79,-21.83
716,775558087,0.4775,0.4741,-0.6875,18.84,45.85,-21.83
717,775563087,0.4839,0.4678,-0.6914,20.79,45.85,-21.77
718,775568087,0.4849,0.4653,-0.6953,23.05,45.61,-21.83
719,775573086,0.4907,0.4575,-0.6899,25.30,45.85,-21.83
720,775578087,0.4937,0.4595,-0.6958,27.80,45.79,-22.01
721,775583087,0.4966,0.4551,-0.6929,30.12,46.04,-22.26
722,775588087,0.4956,0.4492,-0.6978,32.20,46.34,-22.56
723,775593086,0.4951,0.4482,-0.6987,34.09,46.71,-22.80
724,775598087,0.4961,0.4419,-0.6938,35.91,46.95,-23.17
725,775603088,0.4878,0.4438,-0.6968,37.38,47.32,-23.72
726,775608087,0.4854,0.4385,-0.7026,38.78,47.68,-24.27
727,775613115,0.4814,0.4424,-0.6987,39.82,48.23,-24.94
728,775618085,0.4819,0.4375,-0.7017,40.37,48.54,-25.49
729,775623087,0.4795,0.4380,-0.7021,40.91,49.15,-26.28
730,775628087,0.4858,0.4302,-0.6870,41.16,49.88,-26.89
731,775633165,0.4985,0.4292,-0.6802,41.40,50.61,-27.56
732,775638089,0.5088,0.4268,-0.6841,41.71,51.22,-28.11
733,775643085,0.5254,0.4199,-0.6548,42.32,52.44,-28.84
734,775648087,0.5361,0.4165,-0.6382,42.93,53.41,-29.33
735,775653086,0.5464,0.4170,-0.6284,43.48,54.82,-29.88
736,775658087,0.5601,0.4204,-0.6021,43.60,56.22,-30.43
737,775663085,0.5659,0.4258,-0.5903,42.87,57.56,-30.98
738,775668085,0.5825,0.4268,-0.5757,41.46,58.90,-31.65
739,775673085,0.5825,0.4331,-0.5640,39.39,60.24,-32.20
740,775678087,0.5928,0.4429,-0.5493,36.65,61.28,-32.74
741,775683085,0.5991,0.4482,-0.5376,32.68,62.07,-33.35
742,775688087,0.6001,0.4526,-0.5283,29.88,62.56,-33.84
743,775693089,0.5986,0.4590,-0.5054,26.04,63.11,-34.51
744,775698086,0.6001,0.4668,-0.4937,23.54,63.54,-34.76
745,775703167,0.5991,0.4722,-0.4761,20.98,63.60,-35.06
746,775708087,0.5918,0.4805,-0.4570,18.72,63.66,-35.18
747,775713086,0.5889,0.4888,-0.4365,17.20,63.72,-35.30
748,775718641,0.5913,0.4980,-0.4229,15.79,63.60,-35.37
749,775723086,0.5801,0.5088,-0.4082,15.37,63.35,-35.37
750,775728085,0.5776,0.5171,-0.3901,15.06,62.99,-35.24
751,775733093,0.5835,0.5308,-0.3726,15.30,62.44,-34.94
752,775738087,0.5806,0.5400,-0.3574,15.79,61.95,-34.70
753,775743087,0.5747,0.5503,-0.3354,16.71,61.22,-34.21
754,775748087,0.5674,0.5576,-0.3306,17.56,60.55,-33.78
755,775753085,0.5566,0.5669,-0.3169,18.41,59.82,-33.23
756,775758085,0.5483,0.5786,-0.3052,19.02,59.09,-32.50
757,775763091,0.5400,0.5874,-0.2969,19.45,57.99,-31.71
758,775768088,0.5342,0.5938,-0.2949,19.33,57.32,-31.22
759,775773087,0.5298,0.6001,-0.2954,18.90,56.46,-30.43
760,775778087,0.5283,0.6064,-0.2915,17.93,55.61,-29.70
761,775783086,0.5195,0.6104,-0.2935,16.71,54.57,-28.90
762,775788087,0.5200,0.6128,-0.2964,15.24,53.96,-28.17
763,775793088,0.5210,0.6182,-0.2993,13.72,52.93,-27.38
764,775798087,0.5176,0.6147,-0.2983,12.07,52.32,-26.65
765,775803086,0.5103,0.6099,-0.2964,10.67,51.59,-25.91
766,775808087,0.4946,0.6084,-0.3008,9.51,50.85,-25.18
767,775813522,0.4868,0.6006,-0.3022,8.35,50.00,-24.33
768,775818088,0.4839,0.5967,-0.3091,7.68,49.45,-23.72
769,775823087,0.4814,0.5874,-0.3164,7.01,48.54,-23.23
770,775828087,0.4893,0.5771,-0.3164,6.34,47.80,-22.68
771,775833085,0.4932,0.5654,-0.3237,5.91,47.07,-22.38
772,775838087,0.5137,0.5537,-0.3340,5.24,45.91,-22.07
773,775843370,0.5254,0.5464,-0.3403,4.45,45.12,-22.01
774,775848087,0.5430,0.5391,-0.3462,3.78,44.57,-22.26
775,775853087,0.5576,0.5264,-0.3530,2.62,43.48,-22.44
776,775858087,0.5732,0.5181,-0.3574,1.40,42.56,-22.87
777,775863352,0.5898,0.5103,-0.3599,-0.18,41.34,-23.54
778,775868087,0.5933,0.5083,-0.3662,-1.10,40.55,-24.09
779,775873086,0.6001,0.4976,-0.3657,-2.32,39.70,-24.70
780,775878087,0.6001,0.4912,-0.3643,-3.29,38.60,-25.43
781,775883086,0.5913,0.4897,-0.3633,-4.33,37.80,-26.22
782,775888087,0.5801,0.4858,-0.3735,-5.49,36.71,-26.77
783,775893087,0.5796,0.4854,-0.3682,-6.59,35.73,-27.44
784,775898087,0.5713,0.4785,-0.3618,-7.68,34.82,-27.80
785,775903086,0.5669,0.4751,-0.3564,-8.66,33.48,-28.29
786,775908087,0.5649,0.4717,-0.3594,-9.76,32.68,-28.72
787,775913086,0.5640,0.4727,-0.3560,-10.79,31.46,-29.15
788,775918087,0.5640,0.4727,-0.3521,-11.77,30.18,-29.57
789,775923087,0.5664,0.4673,-0.3521,-12.74,28.96,-29.94
790,775928087,0.5679,0.4653,-0.3511,-13.90,27.74,-30.30
791,775933136,0.5679,0.4570,-0.3525,-14.63,26.40,-30.61
792,775938088,0.5752,0.4478,-0.3545,-15.43,25.12,-30.85
793,775943087,0.5718,0.4409,-0.3511,-15.91,23.54,-31.10
794,775948087,0.5776,0.4282,-0.3452,-16.04,22.74,-31.16
795,775953086,0.5781,0.4170,-0.3413,-16.04,21.65,-31.16
796,775958087,0.5796,0.4043,-0.3262,-15.67,20.67,-31.10
797,775963086,0.5859,0.3940,-0.3281,-15.12,19.82,-31.10
798,775968088,0.5854,0.3838,-0.3120,-14.27,19.39,-30.98
799,775973087,0.5938,0.3735,-0.3022,-13.54,18.84,-30.79
800,775978086,0.5981,0.3652,-0.3003,-12.80,18.17,-30.73
801,775983085,0.6118,0.3608,-0.2930,-12.20,17.74,-30.73
802,775988087,0.6226,0.3555,-0.2910,-11.89,17.26,-30.98
803,775993087,0.6299,0.3501,-0.2881,-11.95,17.13,-31.16
804,775998087,0.6401,0.3438,-0.2871,-12.26,16.71,-31.28
805,776003089,0.6533,0.3413,-0.2842,-13.17,16.34,-31.59
806,776008086,0.6616,0.3423,-0.2822,-14.27,16.10,-31.95
807,776013087,0.6724,0.3398,-0.2822,-15.79,15.85,-32.32
808,776018086,0.6782,0.3345,-0.2827,-17.62,15.67,-32.62
809,776023089,0.6836,0.3291,-0.2827,-19.70,15.55,-32.99
810,776028086,0.6841,0.3286,-0.2788,-21.83,15.43,-33.29
811,776033088,0.6792,0.3145,-0.2837,-24.57,15.30,-33.66
812,776038087,0.6831,0.3091,-0.2852,-26.46,15.24,-33.90
813,776043087,0.6934,0.3071,-0.2832,-28.66,14.94,-34.15
814,776048085,0.6997,0.3081,-0.2896,-30.85,14.76,-34.39
815,776053089,0.7119,0.3125,-0.2910,-32.93,14.45,-34.63
816,776058086,0.7261,0.3120,-0.2969,-34.88,14.02,-35.12
817,776063085,0.7373,0.3110,-0.2949,-36.71,13.54,-35.43
818,776068085,0.7510,0.3125,-0.2900,-38.41,13.17,-35.91
819,776073087,0.7695,0.3203,-0.2944,-39.94,12.62,-36.52
820,776078087,0.7900,0.3335,-0.2896,-41.46,12.13,-37.07
821,776083085,0.8418,0.3828,-0.2705,-42.93,11.52,-37.74
822,776088087,0.9072,0.4204,-0.2598,-44.82,10.73,-38.17
823,776093087,0.9277,0.4810,-0.2505,-46.89,10.12,-38.54
824,776098086,0.9512,0.5078,-0.2441,-48.54,9.21,-38.72
825,776103089,0.9800,0.5127,-0.2197,-49.82,8.29,-38.72
826,776108086,1.0010,0.5117,-0.2031,-51.04,7.38,-38.54
827,776113087,1.0078,0.5186,-0.1958,-52.13,6.34,-38.60
828,776118087,1.0049,0.5381,-0.1860,-52.74,5.55,-38.90
829,776123087,0.9951,0.5649,-0.1733,-53.05,4.82,-39.51
830,776128086,0.9810,0.5762,-0.1694,-52.50,3.96,-40.30
831,776133086,0.9580,0.5835,-0.1646,-51.10,3.23,-41.16
832,776138087,0.9355,0.6016,-0.1587,-48.41,2.44,-41.77
833,776143089,0.9150,0.6196,-0.1401,-44.63,1.59,-42.32
834,776148086,0.8867,0.6357,-0.1401,-40.06,0.98,-42.87
835,776153090,0.8657,0.6460,-0.1421,-34.57,0.30,-43.35
836,776158086,0.8359,0.6538,-0.1479,-28.17,-0.55,-43.54
837,776163085,0.8208,0.6611,-0.1582,-21.04,-1.34,-43.72
838,776168085,0.7998,0.6567,-0.1699,-13.35,-2.01,-43.72
839,776173087,0.7729,0.6548,-0.1777,-5.18,-2.74,-43.78
840,776178086,0.7358,0.6553,-0.1860,3.48,-3.35,-43.66
841,776183085,0.7178,0.6572,-0.1895,12.26,-3.96,-43.66
842,776188089,0.7026,0.6621,-0.1948,21.10,-4.63,-43.41
843,776193086,0.6953,0.6665,-0.2056,29.45,-4.94,-43.17
844,776198088,0.6831,0.6689,-0.2114,37.32,-5.61,-42.80
845,776203088,0.6792,0.6758,-0.2153,44.51,-6.22,-42.38
846,776208087,0.6772,0.6802,-0.2241,50.55,-6.95,-41.89
847,776213087,0.6768,0.6821,-0.2227,55.67,-7.80,-41.40
848,776218087,0.6860,0.6836,-0.2192,59.63,-8.78,-40.91
849,776223086,0.6924,0.6885,-0.2290,62.26,-9.88,-40.18
850,776228088,0.7012,0.6919,-0.2266,63.84,-10.91,-39.45
851,776233507,0.7051,0.6938,-0.2290,64.33,-12.13,-38.41
852,776238087,0.7012,0.6880,-0.2422,63.66,-13.23,-37.56
853,776243087,0.7002,0.6807,-0.2534,62.38,-14.33,-36.77
854,776248087,0.6943,0.6763,-0.2671,60.12,-15.43,-35.79
855,776253089,0.6899,0.6655,-0.2764,57.13,-16.65,-34.70
856,776258086,0.6841,0.6548,-0.2856,53.35,-17.80,-33.60
857,776263085,0.6758,0.6382,-0.2930,49.21,-18.90,-32.50
858,776268085,0.6768,0.6294,-0.3013,44.45,-20.06,-31.59
859,776273085,0.6792,0.6187,-0.3018,39.63,-21.04,-30.61
860,776278087,0.6851,0.6064,-0.3145,34.51,-22.07,-29.76
861,776283088,0.6875,0.5918,-0.3184,29.57,-22.74,-29.02
862,776288087,0.6978,0.5903,-0.3281,25.24,-23.54,-28.35
863,776293086,0.7070,0.5786,-0.3291,21.04,-24.09,-27.74
864,776298088,0.7100,0.5767,-0.3452,17.50,-24.39,-27.26
865,776303087,0.7236,0.5854,-0.3481,14.21,-24.63,-26.89
866,776308087,0.7339,0.5850,-0.3604,11.22,-24.63,-26.40
867,776313085,0.7441,0.5889,-0.3628,8.41,-24.51,-26.04
868,776318561,0.7456,0.5869,-0.3789,5.24,-24.09,-25.49
869,776323087,0.7329,0.5967,-0.3862,3.41,-23.60,-25.12
870,776328086,0.7314,0.5933,-0.3833,1.52,-22.74,-24.76
871,776333085,0.7212,0.5742,-0.3862,-0.61,-22.01,-24.21
872,776338088,0.6987,0.5820,-0.3970,-2.44,-21.10,-23.54
873,776343104,0.7007,0.5889,-0.4043,-4.33,-20.00,-23.17
874,776348087,0.7007,0.5645,-0.4092,-6.52,-18.84,-22.68
875,776353087,0.6938,0.5630,-0.4185,-9.09,-17.56,-22.13
876,776358086,0.6973,0.5786,-0.4229,-11.89,-16.28,-21.83
877,776363087,0.6963,0.5820,-0.4243,-15.18,-14.76,-21.59
878,776368085,0.7080,0.5952,-0.4097,-19.02,-13.11,-21.59
879,776373085,0.7183,0.6099,-0.4048,-23.11,-11.65,-21.59
880,776378089,0.7300,0.6152,-0.4053,-27.56,-10.18,-21.83
881,776383087,0.7344,0.6230,-0.3994,-32.07,-8.66,-22.07
882,776388087,0.7334,0.6221,-0.3867,-36.83,-6.95,-22.38
883,776393085,0.7271,0.6294,-0.3848,-41.40,-5.49,-22.56
884,776398085,0.7168,0.6245,-0.3770,-45.91,-3.96,-22.80
885,776403087,0.7075,0.6284,-0.3755,-50.12,-2.44,-23.05
886,776408087,0.6997,0.6338,-0.3804,-53.78,-0.79,-23.11
887,776413087,0.6855,0.6343,-0.3867,-56.71,1.04,-22.87
888,776418089,0.6792,0.6421,-0.3999,-59.02,3.05,-22.68
889,776423087,0.6768,0.6494,-0.4170,-60.61,5.06,-22.26
890,776428088,0.6660,0.6514,-0.4233,-61.65,7.32,-21.59
891,776433085,0.6621,0.6460,-0.4229,-62.44,9.63,-20.91
892,776438087,0.6538,0.6411,-0.4160,-63.05,11.89,-20.06
893,776443083,0.6514,0.6387,-0.3984,-63.29,14.27,-19.09
894,776448088,0.6519,0.6357,-0.3774,-63.29,16.83,-17.99
895,776453087,0.6509,0.6494,-0.3652,-62.62,19.45,-16.89
896,776458087,0.6460,0.6611,-0.3662,-61.34,21.89,-15.91
897,776463087,0.6416,0.6675,-0.3457,-60.00,24.21,-15.00
898,776468087,0.6265,0.7666,-0.3931,-58.66,25.98,-14.94
899,776473087,0.6689,0.6909,-0.2974,-57.87,28.23,-14.88
900,776478088,0.6914,0.6587,-0.3228,-56.22,31.16,-14.27
901,776483087,0.6890,0.6758,-0.3691,-53.48,33.78,-13.35
902,776488088,0.6787,0.6890,-0.3716,-49.88,36.77,-12.38
903,776493085,0.6665,0.7041,-0.3818,-45.61,39.82,-11.40
904,776498087,0.6729,0.7158,-0.4028,-41.28,42.80,-10.12
905,776503087,0.6792,0.7271,-0.4102,-36.77,45.43,-8.84
906,776508088,0.6787,0.7407,-0.4126,-32.56,48.11,-7.68
907,776513085,0.6763,0.7485,-0.4062,-28.72,50.79,-6.59
908,776518087,0.6831,0.7573,-0.4043,-25.37,53.29,-5.55
909,776523087,0.6782,0.7544,-0.4019,-22.38,55.37,-4.57
910,776528087,0.6807,0.7480,-0.3877,-19.88,57.44,-3.48
911,776533089,0.6772,0.7534,-0.3691,-18.17,59.39,-2.20
912,776538086,0.6724,0.7549,-0.3623,-17.32,61.04,-0.79
913,776543088,0.6665,0.7598,-0.3462,-17.56,62.74,0.55
914,776548086,0.6782,0.7651,-0.3179,-18.54,64.45,2.01
915,776553087,0.6919,0.7812,-0.3584,-20.30,66.22,3.41
916,776558195,0.6719,0.7305,-0.3887,-20.98,66.59,4.51
917,776563086,0.6768,0.7788,-0.3110,-21.16,66.95,5.67
918,776568087,0.6680,0.7637,-0.4277,-21.52,66.04,6.95
919,776573089,0.6689,0.7695,-0.2271,-22.62,65.98,7.87
920,776578086,0.6680,0.8218,-0.1743,-24.02,67.50,8.29
921,776583085,0.6538,0.7632,-0.3320,-24.57,67.99,7.62
922,776588087,0.6484,0.7832,-0.2754,-24.02,67.93,7.20
923,776593087,0.6519,0.8071,-0.2354,-23.48,68.41,6.89
924,776598087,0.6641,0.8330,-0.2676,-22.80,68.96,6.52
925,776603374,0.6636,0.8247,-0.3193,-21.52,68.29,6.34
926,776608088,0.6655,0.8228,-0.2974,-20.61,67.20,6.10
927,776613087,0.6821,0.8252,-0.2695,-19.94,65.73,5.55
928,776618087,0.7021,0.8262,-0.2280,-19.39,63.96,4.82
929,776623086,0.6978,0.8340,-0.1904,-19.27,62.50,4.09
930,776628087,0.6709,0.8340,-0.1494,-19.45,61.65,3.48
931,776633087,0.6489,0.8228,-0.1343,-19.82,60.79,3.05
932,776638087,0.6309,0.7944,-0.1489,-20.61,59.94,2.74
933,776643086,0.6152,0.7651,-0.1279,-22.01,59.33,2.80
934,776648096,0.5986,0.7412,-0.0942,-23.78,58.78,2.99
935,776653087,0.5752,0.7192,-0.1016,-25.67,58.23,3.66
936,776658087,0.5483,0.7041,-0.1001,-27.87,57.62,4.45
937,776663087,0.5254,0.6968,-0.0845,-29.76,57.26,5.43
938,776668087,0.5068,0.6890,-0.0728,-31.83,57.07,6.71
939,776673085,0.4863,0.6860,-0.0713,-33.29,56.89,7.99
940,776678085,0.4707,0.6890,-0.0713,-34.57,56.83,9.33
941,776683086,0.4692,0.6841,-0.0444,-35.12,56.77,10.73
942,776688087,0.4678,0.6797,-0.0205,-35.37,57.01,12.32
943,776693087,0.4585,0.6836,-0.0234,-35.18,57.32,13.90
944,776698087,0.4561,0.6982,-0.0156,-34.33,57.62,15.43
945,776703086,0.4580,0.7139,-0.0117,-32.74,57.99,16.83
946,776708087,0.4644,0.7261,-0.0063,-30.55,58.23,18.23
947,776713086,0.4624,0.7388,0.0000,-27.62,58.78,19.45
948,776718087,0.4766,0.7588,0.0059,-24.02,58.90,20.49
949,776723087,0.4790,0.7764,0.0088,-19.76,59.09,21.34
950,776728087,0.4839,0.7944,0.0156,-14.82,59.33,22.01
951,776733086,0.4956,0.8140,0.0244,-9.27,59.57,22.44
952,776738087,0.5020,0.8271,0.0312,-3.41,59.82,22.62
953,776743087,0.5039,0.8408,0.0464,2.74,60.12,22.68
954,776748087,0.5039,0.8530,0.0508,9.21,60.49,22.50
955,776753390,0.5107,0.8652,0.0630,16.89,61.16,22.07
956,776758088,0.5117,0.8643,0.0654,21.95,61.59,21.77
957,776763086,0.5103,0.8647,0.0776,27.93,62.01,21.22
958,776768087,0.5117,0.8613,0.0811,33.60,62.62,20.67
959,776773087,0.5054,0.8530,0.0913,38.72,63.29,20.06
960,776778087,0.5005,0.8330,0.0850,43.29,63.84,19.51
961,776783194,0.4995,0.8276,0.1074,46.89,64.27,19.09
962,776788089,0.5020,0.8276,0.1270,49.88,64.82,18.48
963,776793087,0.5083,0.8257,0.1206,52.44,65.43,17.74
964,776798087,0.5083,0.8154,0.1182,54.33,66.04,17.20
965,776803087,0.5024,0.8032,0.1396,55.98,66.52,16.46
966,776808087,0.5005,0.8003,0.1411,57.07,67.13,15.79
967,776813087,0.5034,0.7881,0.1465,57.80,67.50,15.12
968,776818087,0.5112,0.7832,0.1436,57.93,67.74,14.33
969,776823087,0.5122,0.7764,0.1509,57.32,68.17,13.48
970,776828087,0.5146,0.7788,0.1440,56.16,68.35,12.62
971,776833086,0.5229,0.7749,0.1416,54.88,68.60,11.77
972,776838088,0.5391,0.7695,0.1421,53.23,68.60,10.85
973,776843087,0.5469,0.7622,0.1475,51.34,68.66,9.94
974,776848088,0.5547,0.7632,0.1431,49.21,68.54,8.96
975,776853085,0.5654,0.7686,0.1426,47.07,68.35,8.05
976,776858086,0.5747,0.7725,0.1455,44.57,68.23,6.89
977,776863087,0.5596,0.7832,0.1543,41.89,68.17,5.73
978,776868086,0.5576,0.7974,0.1450,39.02,67.93,4.27
979,776873089,0.5571,0.8311,0.1436,36.34,67.68,2.62
980,776878085,0.5264,0.8994,0.1636,33.72,67.56,0.55
981,776883085,0.5801,0.8203,0.1670,31.34,67.38,-1.89
982,776888086,0.6421,0.7578,0.1660,28.78,67.01,-3.78
983,776893102,0.6851,0.7212,0.1768,26.22,66.77,-5.18
984,776898087,0.6724,0.6978,0.1724,23.60,66.52,-6.22
985,776903087,0.6431,0.6841,0.1704,21.04,66.28,-7.07
986,776908088,0.6333,0.7925,0.1470,18.60,65.98,-8.05
987,776913086,0.6108,0.8604,0.1875,14.70,65.79,-10.06
988,776918088,0.5405,0.8071,0.2158,9.82,65.98,-12.20
989,776923087,0.5269,0.7412,0.2163,5.06,66.40,-13.96
990,776928088,0.5601,0.6787,0.2075,0.30,66.71,-15.43
991,776933086,0.5977,0.6611,0.2017,-4.39,67.20,-16.34
992,776938087,0.6143,0.6777,0.1841,-8.90,67.68,-17.07
993,776943087,0.6333,0.7100,0.1470,-12.87,67.87,-17.80
994,776948087,0.6416,0.7471,0.1250,-16.22,68.05,-18.41
995,776953086,0.6416,0.7798,0.1367,-18.90,68.23,-19.15
996,776958434,0.6270,0.8130,0.1470,-21.22,68.23,-20.24
997,776963087,0.6128,0.8145,0.1572,-22.44,68.60,-20.98
998,776968086,0.5977,0.8252,0.1782,-23.54,69.02,-21.95
999,776973087,0.5913,0.8247,0.1987,-24.21,69.63,-22.80
1000,776978085,0.5942,0.8174,0.2134,-24.39,70.49,-23.41
1001,776983087,0.5952,0.8223,0.2188,-24.39,71.46,-23.90
1002,776988086,0.6001,0.8198,0.2314,-23.96,72.56,-24.33
1003,776993087,0.5933,0.7993,0.2373,-23.29,73.66,-24.51
1004,776998086,0.5898,0.7861,0.2432,-22.38,74.82,-24.45
1005,777003087,0.5835,0.7812,0.2300,-21.46,75.79,-24.39
1006,777008086,0.5684,0.7871,0.2183,-20.30,76.83,-24.21
1007,777013087,0.5552,0.8159,0.2085,-19.15,77.80,-23.90
1008,777018086,0.5649,0.8354,0.2031,-17.99,78.54,-23.72
1009,777023087,0.5698,0.8345,0.2056,-16.95,79.51,-23.72
1010,777028086,0.5757,0.8267,0.1899,-16.34,80.18,-23.48
1011,777033087,0.5830,0.8398,0.1802,-16.10,80.73,-23.23
1012,777038086,0.5796,0.8491,0.1782,-16.34,81.40,-22.87
1013,777043604,0.5718,0.8599,0.1709,-17.20,81.95,-22.38
1014,777048087,0.5625,0.8647,0.1567,-18.29,82.44,-22.20
1015,777053087,0.5537,0.8652,0.1685,-19.88,83.05,-21.77
1016,777058087,0.5454,0.8726,0.1665,-21.95,83.72,-21.22
1017,777063086,0.5386,0.8804,0.1680,-24.02,84.39,-20.55
1018,777068087,0.5376,0.8838,0.1802,-26.16,83.78,-19.94
1019,777073087,0.5312,0.8779,0.2046,-28.29,85.55,-19.21
1020,777078087,0.5342,0.8740,0.2314,-30.24,85.91,-18.35
1021,777083087,0.5332,0.8818,0.2480,-31.95,85.85,-17.20
1022,777088085,0.5278,0.8872,0.2700,-33.17,87.13,-16.10
1023,777093087,0.5156,0.8892,0.2944,-33.96,88.90,-14.94
1024,777098086,0.5112,0.8896,0.3096,-34.57,90.24,-13.66
1025,777103567,0.4971,0.8965,0.3193,-34.57,92.20,-12.01
1026,777108087,0.4946,0.8989,0.3267,-34.39,93.17,-11.10
1027,777113087,0.4873,0.9058,0.3442,-33.90,95.06,-9.45
1028,777118088,0.4858,0.9067,0.3545,-33.48,96.16,-8.48
1029,777123135,0.4829,0.9116,0.3525,-32.80,97.44,-7.26
1030,777128087,0.4810,0.9092,0.3486,-32.38,98.72,-6.10
1031,777133087,0.4849,0.9043,0.3623,-32.07,99.88,-5.00
1032,777138087,0.4971,0.9014,0.3779,-31.59,100.79,-3.66
1033,777143156,0.4956,0.8960,0.3799,-31.52,101.77,-2.44
1034,777148087,0.4941,0.8818,0.3916,-31.59,102.56,-0.98
1035,777153087,0.4961,0.8765,0.3887,-31.65,103.11,0.55
1036,777158087,0.5015,0.8716,0.3955,-31.83,103.72,2.01
1037,777163085,0.5093,0.8706,0.4038,-32.07,104.21,3.48
1038,777168090,0.5093,0.8784,0.4214,-32.13,104.45,4.82
1039,777173087,0.5156,0.8892,0.4229,-32.26,104.82,6.10
1040,777178088,0.5220,0.8950,0.4277,-32.26,104.76,7.38
1041,777183086,0.5308,0.9077,0.4321,-32.38,104.76,8.48
1042,777188087,0.5303,0.9155,0.4395,-32.50,104.51,9.33
1043,777193089,0.5400,0.9141,0.4351,-32.87,104.33,10.18
1044,777198089,0.5454,0.9082,0.4404,-33.23,103.78,10.85
1045,777203089,0.5586,0.8979,0.4497,-33.90,102.99,11.71
1046,777208086,0.5483,0.8872,0.4424,-34.70,102.20,12.50
1047,777213087,0.5542,0.8833,0.4375,-35.43,101.28,13.29
1048,777218087,0.5576,0.8721,0.4341,-36.22,100.18,14.15
1049,777223087,0.5640,0.8647,0.4331,-36.95,98.84,15.12
1050,777228086,0.5718,0.8633,0.4272,-37.68,97.32,16.04
1051,777233087,0.5708,0.8716,0.4268,-38.23,95.55,16.89
1052,777238086,0.5835,0.8804,0.4287,-38.60,93.90,17.74
1053,777243087,0.5952,0.8872,0.4355,-38.72,92.07,18.41
1054,777248086,0.6084,0.8931,0.4551,-38.54,90.18,18.96
1055,777253087,0.5630,0.9331,0.4893,-38.54,88.05,19.33
1056,777258086,0.5503,0.9067,0.4746,-38.41,87.50,19.57
1057,777263087,0.5488,0.9141,0.4912,-38.17,85.43,19.82
1058,777268087,0.5513,0.8887,0.5200,-37.74,84.70,20.12
1059,777273087,0.5425,0.8701,0.5181,-37.26,82.80,20.43
1060,777278086,0.5454,0.8604,0.5176,-36.59,81.28,20.85
1061,777283180,0.5391,0.8477,0.5186,-35.98,79.70,21.40
1062,777288087,0.5449,0.7954,0.5469,-35.43,78.29,21.83
1063,777293087,0.5420,0.8203,0.5161,-35.49,77.26,22.44
1064,777298088,0.5093,0.8525,0.4912,-35.43,75.79,22.68
1065,777303086,0.5005,0.8413,0.5405,-35.18,74.57,22.68
1066,777308087,0.5054,0.8037,0.5557,-34.82,73.72,23.11
1067,777313087,0.5430,0.8271,0.5151,-35.12,72.68,23.66
1068,777318087,0.5156,0.9375,0.5435,-35.49,71.71,23.48
1069,777323086,0.5107,0.9136,0.5913,-35.18,70.85,23.17
1070,777328087,0.5225,0.8403,0.5479,-34.82,70.06,23.23
1071,777333087,0.5347,0.7993,0.5264,-34.70,69.09,23.41
1072,777338088,0.5278,0.7935,0.6147,-35.06,68.17,23.60
1073,777343086,0.5137,0.8223,0.6152,-36.04,67.68,23.78
1074,777348087,0.4907,0.7939,0.5210,-36.65,66.59,23.66
1075,777353087,0.4858,0.7651,0.5142,-36.59,65.18,23.48
1076,777358087,0.5029,0.7725,0.6196,-36.71,64.51,23.66
1077,777363086,0.5293,0.7974,0.6489,-36.52,64.21,23.78
1078,777368089,0.5454,0.8018,0.5674,-36.16,63.41,23.84
1079,777373087,0.5249,0.7930,0.5640,-35.37,62.32,24.02
1080,777378086,0.5024,0.8027,0.6401,-35.18,61.59,24.33
1081,777383089,0.4771,0.8486,0.6274,-35.79,60.98,24.33
1082,777388086,0.4932,0.8022,0.5503,-35.73,60.00,24.27
1083,777393085,0.5200,0.7363,0.5601,-34.88,58.66,24.27
1084,777398606,0.5415,0.7178,0.6108,-33.66,57.44,24.27
1085,777403087,0.5464,0.7095,0.6509,-32.93,56.89,24.57
1086,777408086,0.5381,0.7222,0.5898,-32.13,55.67,24.88
1087,777413087,0.5210,0.7314,0.5967,-31.40,54.39,25.18
1088,777418086,0.5054,0.7236,0.6499,-30.49,53.35,25.43
1089,777423087,0.5010,0.7012,0.6411,-29.45,52.44,25.67
1090,777428086,0.5010,0.6831,0.6113,-28.48,51.10,25.79
1091,777433087,0.5034,0.6782,0.6284,-27.56,50.00,26.10
1092,777438089,0.5112,0.6826,0.6733,-26.59,48.90,26.22
1093,777443087,0.5161,0.6797,0.6548,-25.55,47.62,26.16
1094,777448086,0.5215,0.6836,0.6411,-24.82,46.34,26.22
1095,777453089,0.5308,0.6782,0.6538,-24.02,45.06,26.10
1096,777458086,0.5405,0.6724,0.6699,-23.48,43.72,25.98
1097,777463088,0.5479,0.6650,0.6528,-22.99,42.32,25.85
1098,777468086,0.5552,0.6587,0.6538,-22.26,40.43,25.67
1099,777473087,0.5532,0.6558,0.6694,-21.65,38.90,25.30
1100,777478086,0.5571,0.6636,0.6826,-20.79,37.13,25.12
1101,777483085,0.5571,0.6616,0.6841,-19.63,35.00,24.51
1102,777488087,0.5547,0.6616,0.6758,-18.72,33.48,24.27
1103,777493086,0.5483,0.6592,0.6948,-17.38,31.59,23.84
1104,777498085,0.5483,0.6519,0.6924,-15.85,30.00,23.29
1105,777503088,0.5474,0.6460,0.7012,-14.09,28.11,22.74
1106,777508087,0.5410,0.6436,0.7041,-12.32,26.16,22.13
1107,777513087,0.5410,0.6377,0.7168,-10.49,24.15,21.46
1108,777518087,0.5435,0.6431,0.7197,-8.78,22.26,20.79
1109,777523086,0.5435,0.6382,0.7227,-7.01,20.24,20.12
1110,777528088,0.5454,0.6426,0.7256,-5.49,18.17,19.33
1111,777533137,0.5454,0.6411,0.7285,-3.96,16.04,18.60
1112,777538087,0.5425,0.6445,0.7192,-2.50,13.96,17.62
1113,777543086,0.5410,0.6367,0.7212,-1.28,11.77,16.77
1114,777548087,0.5430,0.6382,0.7212,-0.18,9.63,15.98
1115,777553086,0.5386,0.6372,0.7173,0.91,7.32,14.94
1116,777558462,0.5352,0.6426,0.7163,1.95,4.70,13.90
1117,777563087,0.5342,0.6411,0.7129,2.44,2.93,13.11
1118,777568086,0.5234,0.6436,0.7065,3.11,0.79,12.07
1119,777573178,0.5200,0.6421,0.7129,3.72,-1.40,11.22
1120,777578182,0.5117,0.6504,0.7124,4.21,-3.54,10.30
1121,777583087,0.5049,0.6558,0.7163,4.70,-5.55,9.27
1122,777588087,0.5029,0.6548,0.7148,5.00,-7.50,8.23
1123,777593087,0.4990,0.6572,0.7168,5.24,-9.33,7.13
1124,777598087,0.4971,0.6577,0.7065,5.24,-11.04,6.10
1125,777603085,0.4893,0.6519,0.7134,4.94,-12.87,5.12
1126,777608087,0.4917,0.6523,0.7046,4.51,-14.51,4.15
1127,777613087,0.4912,0.6533,0.7085,3.90,-16.28,3.11
1128,777618086,0.4888,0.6509,0.7017,3.05,-17.99,2.13
1129,777623087,0.4927,0.6533,0.6963,2.20,-19.45,1.16
1130,777628086,0.4927,0.6528,0.6929,1.22,-20.98,0.18
1131,777633087,0.4966,0.6616,0.7007,0.18,-22.50,-0.91
1132,777638087,0.4995,0.6631,0.6938,-0.67,-23.84,-1.89
1133,777643088,0.5039,0.6577,0.6924,-1.52,-25.24,-2.93
1134,777648087,0.5020,0.6577,0.6992,-2.38,-26.52,-3.84
1135,777653086,0.5078,0.6528,0.6968,-3.29,-27.80,-4.70
1136,777658087,0.4985,0.6465,0.6943,-4.09,-29.09,-5.55
1137,777663087,0.4990,0.6440,0.6953,-4.76,-30.24,-6.28
1138,777668087,0.4980,0.6436,0.6914,-5.43,-31.40,-6.95
1139,777673088,0.4985,0.6396,0.6953,-5.91,-32.50,-7.50
1140,777678087,0.4985,0.6382,0.6909,-6.28,-33.54,-8.05
1141,777683090,0.5044,0.6382,0.6880,-6.52,-34.45,-8.60
1142,777688086,0.5083,0.6470,0.6919,-6.46,-35.37,-9.15
1143,777693085,0.5122,0.6479,0.6997,-6.16,-36.16,-9.63
1144,777698089,0.5176,0.6562,0.6924,-5.73,-36.89,-10.12
1145,777703086,0.5176,0.6562,0.6973,-5.24,-37.56,-10.49
1146,777708085,0.5249,0.6587,0.7002,-4.82,-38.17,-11.04
1147,777713087,0.5283,0.6616,0.6943,-4.21,-38.72,-11.40
1148,777718086,0.5239,0.6621,0.6875,-3.60,-39.33,-11.83
1149,777723087,0.5259,0.6592,0.6875,-3.11,-39.70,-12.13
1150,777728086,0.5269,0.6592,0.6929,-2.62,-40.12,-12.44
1151,777733087,0.5278,0.6548,0.6851,-2.13,-40.43,-12.68
1152,777738086,0.5273,0.6523,0.6777,-1.95,-40.67,-12.93
1153,777743089,0.5269,0.6523,0.6743,-1.71,-40.85,-13.11
1154,777748086,0.5244,0.6528,0.6719,-1.52,-41.10,-13.17
1155,777753087,0.5259,0.6514,0.6729,-1.40,-41.40,-13.17
1156,777758087,0.5259,0.6479,0.6680,-1.46,-41.40,-13.23
1157,777763087,0.5210,0.6421,0.6631,-1.34,-41.65,-13.17
1158,777768086,0.5205,0.6440,0.6621,-1.40,-41.46,-13.05
1159,777773087,0.5146,0.6475,0.6675,-1.16,-41.40,-12.93
1160,777778087,0.5122,0.6436,0.6631,-0.85,-41.28,-12.74
1161,777783087,0.5073,0.6455,0.6631,-0.67,-41.10,-12.50
1162,777788086,0.5010,0.6465,0.6660,-0.43,-40.67,-12.44
1163,777793087,0.4995,0.6455,0.6670,-0.06,-40.30,-12.20
1164,777798086,0.4961,0.6470,0.6660,0.43,-39.82,-11.95
1165,777803087,0.5029,0.6548,0.6597,0.85,-39.21,-11.77
1166,777808086,0.5083,0.6528,0.6523,1.16,-38.54,-11.52
1167,777813087,0.5156,0.6572,0.6484,1.46,-38.05,-11.34
1168,777818086,0.5205,0.6543,0.6372,1.89,-37.50,-11.10
1169,777823085,0.5259,0.6514,0.6353,2.26,-36.95,-10.79
1170,777828087,0.5303,0.6533,0.6260,2.68,-36.52,-10.55
1171,777833087,0.5371,0.6592,0.6201,3.05,-35.91,-10.18
1172,777838087,0.5420,0.6553,0.6104,3.78,-35.30,-9.88
1173,777843086,0.5444,0.6567,0.6128,4.57,-34.70,-9.45
1174,777848087,0.5444,0.6665,0.6123,5.79,-34.27,-9.21
1175,777853087,0.5464,0.6797,0.6182,7.07,-33.72,-8.96
1176,777858087,0.5547,0.6831,0.6211,8.78,-33.05,-8.72
1177,777863087,0.5576,0.6938,0.6201,10.43,-32.32,-8.48
1178,777868086,0.5654,0.7046,0.6230,12.01,-31.59,-8.41
1179,777873088,0.5728,0.7139,0.6152,13.48,-30.91,-8.35
1180,777878086,0.5781,0.7236,0.6201,14.76,-29.94,-8.23
1181,777883515,0.5786,0.7280,0.6221,15.85,-28.84,-8.29
1182,777888087,0.5781,0.7295,0.6191,16.28,-28.17,-8.35
1183,777893087,0.5737,0.7300,0.6191,16.59,-27.26,-8.29
1184,777898088,0.5747,0.7305,0.6157,16.46,-26.22,-8.35
1185,777903085,0.5757,0.7280,0.6143,15.73,-25.18,-8.29
1186,777908087,0.5649,0.7285,0.6147,14.76,-24.15,-8.17
1187,777913087,0.5645,0.7241,0.6074,13.66,-23.23,-8.23
1188,777918086,0.5635,0.7246,0.6030,12.07,-22.13,-7.99
1189,777923087,0.5625,0.7251,0.6006,10.43,-21.22,-7.99
1190,777928086,0.5601,0.7280,0.5977,8.60,-20.24,-7.87
1191,777933087,0.5605,0.7300,0.5947,6.77,-19.15,-7.93
1192,777938086,0.5605,0.7285,0.5942,4.76,-18.05,-7.74
1193,777943087,0.5596,0.7266,0.5952,2.99,-17.13,-7.68
1194,777948086,0.5605,0.7231,0.5850,1.10,-16.16,-7.68
1195,777953131,0.5562,0.7207,0.5845,-0.61,-15.12,-7.56
1196,777958088,0.5513,0.7241,0.5894,-2.20,-14.09,-7.38
1197,777963087,0.5513,0.7163,0.5913,-3.78,-13.05,-7.38
1198,777968087,0.5454,0.7153,0.5908,-5.00,-12.07,-7.13
1199,777973087,0.5454,0.7080,0.5942,-6.46,-10.91,-7.01
1200,777978086,0.5464,0.7002,0.5879,-7.56,-10.12,-6.77
1201,777983087,0.5435,0.7021,0.5850,-8.60,-9.02,-6.46
1202,777988087,0.5425,0.6973,0.5874,-9.51,-8.17,-6.22
1203,777993087,0.5425,0.6929,0.5898,-10.12,-7.26,-5.91
1204,777998086,0.5454,0.6914,0.5952,-10.73,-6.34,-5.61
1205,778003087,0.5469,0.6870,0.5879,-10.98,-5.55,-5.18
1206,778008085,0.5474,0.6855,0.5903,-10.91,-4.76,-4.94
1207,778013189,0.5474,0.6860,0.5923,-10.91,-3.96,-4.51
1208,778018088,0.5518,0.6826,0.5918,-10.61,-3.35,-4.15
1209,778023087,0.5532,0.6772,0.5884,-10.30,-2.74,-3.84
1210,778028086,0.5498,0.6865,0.5938,-10.00,-2.13,-3.41
1211,778033087,0.5474,0.6821,0.5903,-9.33,-1.46,-3.11
1212,778038086,0.5439,0.6724,0.5923,-8.84,-1.10,-2.74
1213,778043089,0.5522,0.6709,0.5952,-8.11,-0.55,-2.32
1214,778048086,0.5474,0.6680,0.5938,-7.26,0.00,-1.89
1215,778053087,0.5513,0.6636,0.5981,-6.34,0.37,-1.52
1216,778058086,0.5542,0.6670,0.6001,-5.37,0.73,-1.16
1217,778063087,0.5527,0.6641,0.6045,-4.33,1.10,-0.79
1218,778068086,0.5498,0.6650,0.5991,-3.23,1.59,-0.43
1219,778073211,0.5547,0.6699,0.6001,-2.07,1.83,-0.12
1220,778078087,0.5557,0.6636,0.6055,-1.04,2.26,0.18
1221,778083086,0.5557,0.6699,0.6118,0.18,2.50,0.49
1222,778088087,0.5581,0.6660,0.6133,1.22,2.80,0.85
1223,778093087,0.5562,0.6680,0.6064,2.13,3.23,1.16
1224,778098088,0.5518,0.6665,0.6167,2.99,3.48,1.46
1225,778103086,0.5522,0.6646,0.6147,3.72,3.72,1.77
1226,778108087,0.5503,0.6641,0.6147,4.33,4.02,2.13
1227,778113087,0.5444,0.6606,0.6201,4.94,4.33,2.44
1228,778118089,0.5474,0.6665,0.6152,5.43,4.57,2.80
1229,778123087,0.5425,0.6616,0.6240,5.79,4.88,3.05
1230,778128086,0.5435,0.6704,0.6250,6.22,5.06,3.41
1231,778133087,0.5420,0.6709,0.6270,6.59,5.43,3.72
1232,778138087,0.5425,0.6709,0.6240,7.01,5.73,4.02
1233,778143087,0.5371,0.6768,0.6284,7.13,6.10,4.15
1234,778148086,0.5449,0.6753,0.6318,7.26,6.22,4.39
1235,778153087,0.5493,0.6753,0.6323,7.32,6.59,4.57
1236,778158086,0.5493,0.6772,0.6411,7.32,6.71,4.82
1237,778163087,0.5498,0.6812,0.6362,7.07,7.07,4.94
1238,778168087,0.5459,0.6826,0.6421,6.89,7.32,5.06
1239,778173087,0.5469,0.6831,0.6411,6.59,7.50,5.24
1240,778178086,0.5444,0.6821,0.6392,6.28,7.74,5.43
1241,778183529,0.5425,0.6812,0.6460,5.79,8.11,5.67
1242,778188087,0.5439,0.6855,0.6523,5.49,8.23,5.79
1243,778193086,0.5444,0.6816,0.6494,5.12,8.35,5.91
1244,778198091,0.5400,0.6812,0.6538,4.94,8.54,6.16
1245,778203088,0.5376,0.6777,0.6548,4.63,8.72,6.46
1246,778208087,0.5444,0.6738,0.6621,4.39,8.90,6.65
1247,778213087,0.5415,0.6777,0.6626,4.33,9.21,6.89
1248,778218087,0.5454,0.6782,0.6641,4.15,9.45,7.13
1249,778223086,0.5449,0.6802,0.6655,3.96,9.51,7.38
1250,778228087,0.5439,0.6836,0.6646,3.84,9.57,7.74
1251,778233277,0.5469,0.6860,0.6714,3.72,9.70,7.80
1252,778238087,0.5522,0.6890,0.6694,3.60,9.76,8.05
1253,778243087,0.5527,0.6885,0.6748,3.41,9.94,8.11
1254,778248088,0.5557,0.6855,0.6665,3.23,9.88,8.23
1255,778253086,0.5547,0.6865,0.6675,3.35,10.00,8.41
1256,778258087,0.5562,0.6807,0.6733,3.23,9.94,8.66
1257,778263087,0.5620,0.6797,0.6733,3.23,9.88,8.78
1258,778268087,0.5508,0.6826,0.6738,3.29,9.88,9.09
1259,778273086,0.5503,0.6763,0.6733,3.41,9.94,9.27
1260,778278087,0.5454,0.6714,0.6709,3.60,9.82,9.45
1261,778283087,0.5439,0.6768,0.6772,3.90,9.82,9.70
1262,778288087,0.5356,0.6699,0.6772,4.33,9.70,9.94
1263,778293087,0.5464,0.6694,0.6748,4.70,9.76,10.18
1264,778298086,0.5439,0.6655,0.6763,4.94,9.70,10.37
1265,778303087,0.5400,0.6631,0.6699,5.18,9.63,10.55
1266,778308086,0.5449,0.6636,0.6714,5.43,9.57,10.73
1267,778313087,0.5425,0.6626,0.6680,5.43,9.39,10.85
1268,778318087,0.5454,0.6675,0.6626,5.55,9.27,10.91
1269,778323087,0.5454,0.6670,0.6646,5.61,9.21,11.10
1270,778328087,0.5488,0.6689,0.6655,5.55,8.96,11.16
1271,778333087,0.5459,0.6655,0.6641,5.55,8.72,11.16
1272,778338087,0.5479,0.6709,0.6631,5.43,8.54,11.22
1273,778343087,0.5430,0.6675,0.6689,5.30,8.29,11.22
1274,778348086,0.5444,0.6650,0.6621,5.24,8.11,11.28
1275,778353087,0.5449,0.6631,0.6582,5.06,7.99,11.28
1276,778358086,0.5430,0.6606,0.6616,4.88,7.68,11.28
1277,778363092,0.5356,0.6592,0.6562,4.70,7.56,11.22
1278,778368087,0.5347,0.6543,0.6602,4.39,7.20,11.28
1279,778373086,0.5332,0.6548,0.6577,4.21,6.83,11.40
1280,778378087,0.5347,0.6543,0.6611,3.84,6.83,11.34
1281,778383087,0.5332,0.6523,0.6602,3.72,6.34,11.34
1282,778388087,0.5312,0.6455,0.6602,3.48,6.10,11.34
1283,778393086,0.5337,0.6465,0.6665,3.23,5.85,11.46
1284,778398087,0.5283,0.6445,0.6597,2.99,5.61,11.40
1285,778403087,0.5312,0.6465,0.6616,2.87,5.30,11.46
1286,778408087,0.5327,0.6440,0.6719,2.80,5.00,11.46
1287,778413085,0.5327,0.6455,0.6733,2.62,4.82,11.40
1288,778418089,0.5298,0.6406,0.6738,2.62,4.57,11.28
1289,778423087,0.5342,0.6455,0.6704,2.56,4.33,11.28
1290,778428087,0.5352,0.6445,0.6733,2.38,3.96,11.22
1291,778433086,0.5386,0.6426,0.6714,2.13,3.72,11.10
1292,778438087,0.5396,0.6431,0.6704,2.13,3.54,10.91
1293,778443087,0.5400,0.6445,0.6748,2.07,3.23,10.79
1294,778448087,0.5439,0.6475,0.6724,1.71,2.80,10.49
1295,778453090,0.5498,0.6440,0.6685,1.52,2.32,10.24
1296,778458087,0.5464,0.6460,0.6729,1.34,2.20,10.06
1297,778463109,0.5483,0.6455,0.6719,1.16,1.77,9.82
1298,778468087,0.5522,0.6436,0.6753,0.98,1.46,9.45
1299,778473087,0.5503,0.6431,0.6782,0.79,1.04,9.21
1300,778478086,0.5537,0.6411,0.6792,0.73,0.67,8.96
1301,778483087,0.5483,0.6460,0.6724,0.61,0.43,8.60
1302,778488086,0.5522,0.6401,0.6782,0.55,0.06,8.29
1303,778493085,0.5488,0.6455,0.6792,0.73,-0.24,8.05
1304,778498087,0.5503,0.6431,0.6826,0.79,-0.67,7.74
1305,778503431,0.5488,0.6392,0.6836,0.79,-0.98,7.44
1306,778508087,0.5513,0.6396,0.6797,0.79,-1.34,7.13
1307,778513087,0.5483,0.6416,0.6714,0.79,-1.52,6.95
1308,778518087,0.5527,0.6445,0.6821,0.85,-2.07,6.65
1309,778523085,0.5503,0.6411,0.6807,0.91,-2.26,6.28
1310,778528085,0.5522,0.6436,0.6880,1.04,-2.44,6.04
1311,778533085,0.5527,0.6455,0.6836,1.28,-2.80,5.73
1312,778538085,0.5566,0.6484,0.6880,1.34,-3.11,5.49
1313,778543085,0.5552,0.6455,0.6870,1.34,-3.35,5.24
1314,778548085,0.5547,0.6479,0.6924,1.34,-3.60,4.82
1315,778553085,0.5586,0.6489,0.6880,1.46,-3.84,4.63
1316,778558085,0.5562,0.6499,0.6880,1.59,-4.02,4.33
1317,778563085,0.5527,0.6489,0.6855,1.52,-4.33,4.02
1318,778568085,0.5547,0.6489,0.6841,1.52,-4.63,3.78
1319,778573085,0.5532,0.6509,0.6875,1.40,-4.63,3.66
1320,778578085,0.5537,0.6494,0.6782,1.22,-5.00,3.35
1321,778583085,0.5552,0.6450,0.6787,1.28,-5.12,3.23
1322,778588085,0.5547,0.6475,0.6797,1.10,-5.30,3.05
1323,778593085,0.5522,0.6489,0.6772,1.04,-5.37,3.05
1324,778598085,0.5459,0.6470,0.6768,0.85,-5.67,2.87
1325,778603085,0.5459,0.6475,0.6777,0.73,-5.91,2.80
1326,778608085,0.5483,0.6514,0.6758,0.73,-5.85,2.80
1327,778613085,0.5488,0.6548,0.6719,0.67,-6.16,2.74
1328,778618085,0.5459,0.6533,0.6724,0.67,-6.10,2.74
1329,778623085,0.5439,0.6587,0.6709,0.67,-6.16,2.74
1330,778628085,0.5459,0.6567,0.6694,0.79,-6.28,2.80
1331,778633085,0.5449,0.6592,0.6743,0.98,-6.34,3.05
1332,778638088,0.5449,0.6587,0.6714,1.22,-6.40,2.99
1333,778643087,0.5488,0.6587,0.6729,1.40,-6.46,3.23
1334,778648087,0.5518,0.6616,0.6655,1.77,-6.46,3.35
1335,778653088,0.5527,0.6685,0.6646,2.26,-6.59,3.54
1336,778658085,0.5513,0.6704,0.6611,2.62,-6.59,3.84
1337,778663087,0.5557,0.6738,0.6650,3.23,-6.65,4.02
1338,778668087,0.5498,0.6719,0.6675,4.02,-6.46,4.21
1339,778673085,0.5493,0.6724,0.6655,4.76,-6.34,4.57
1340,778678086,0.5513,0.6704,0.6689,5.37,-6.22,4.88
1341,778683089,0.5459,0.6665,0.6680,6.16,-6.22,5.37
1342,778688087,0.5415,0.6665,0.6699,6.77,-6.04,5.73
1343,778693088,0.5381,0.6641,0.6631,7.20,-5.98,6.16
1344,778698086,0.5386,0.6646,0.6660,7.62,-5.98,6.59
1345,778703085,0.5425,0.6655,0.6631,7.74,-5.61,7.01
1346,778708085,0.5474,0.6650,0.6592,7.74,-5.43,7.44
1347,778713085,0.5444,0.6646,0.6553,7.50,-5.24,7.93
1348,778718085,0.5503,0.6655,0.6523,7.01,-5.18,8.35
1349,778723085,0.5493,0.6611,0.6499,6.40,-4.94,8.66
1350,778728085,0.5537,0.6606,0.6484,5.61,-4.88,8.96
1351,778733085,0.5508,0.6611,0.6450,4.57,-4.94,9.45
1352,778738085,0.5479,0.6572,0.6504,3.35,-4.63,9.76
1353,778743085,0.5522,0.6514,0.6460,1.95,-4.70,10.06
1354,778748085,0.5522,0.6475,0.6431,0.61,-4.51,10.30
1355,778753085,0.5542,0.6460,0.6489,-0.79,-4.51,10.73
1356,778758085,0.5571,0.6426,0.6523,-2.20,-4.39,10.98
1357,778763085,0.5586,0.6406,0.6519,-3.41,-4.45,11.34
1358,778768085,0.5659,0.6416,0.6533,-4.57,-4.33,11.52
1359,778773085,0.5684,0.6426,0.6533,-5.43,-4.27,11.71
1360,778778085,0.5723,0.6426,0.6572,-6.10,-4.39,11.95
1361,778783085,0.5728,0.6406,0.6577,-6.52,-4.33,12.07
1362,778788085,0.5752,0.6372,0.6587,-6.52,-4.33,12.07
1363,778793085,0.5796,0.6362,0.6626,-6.34,-4.21,12.32
1364,778798085,0.5742,0.6387,0.6621,-5.85,-4.15,12.38
1365,778803085,0.5742,0.6338,0.6646,-5.55,-4.33,12.50
1366,778808085,0.5767,0.6265,0.6606,-4.82,-4.27,12.62
1367,778813085,0.5806,0.6284,0.6606,-4.15,-4.33,12.68
1368,778818699,0.5776,0.6265,0.6611,-3.54,-4.33,12.68
1369,778823086,0.5786,0.6221,0.6636,-2.99,-4.33,12.68
1370,778828087,0.5815,0.6177,0.6646,-2.44,-4.39,12.80
1371,778833151,0.5796,0.6172,0.6582,-1.83,-4.51,12.74
1372,778838086,0.5796,0.6123,0.6592,-1.52,-4.51,12.74
1373,778843085,0.5874,0.6099,0.6572,-1.22,-4.63,12.50
1374,778848089,0.5864,0.6089,0.6519,-1.10,-4.63,12.44
1375,778853085,0.5864,0.6060,0.6606,-1.16,-4.76,12.32
1376,778858088,0.5889,0.6001,0.6602,-1.28,-4.70,12.13
1377,778863086,0.5903,0.6055,0.6533,-1.34,-4.88,11.95
1378,778868085,0.5957,0.6074,0.6631,-1.59,-5.00,11.65
1379,778873085,0.5991,0.6040,0.6582,-1.77,-5.06,11.34
1380,778878085,0.5977,0.6050,0.6631,-2.13,-5.18,11.04
1381,778883085,0.6055,0.6064,0.6616,-2.26,-5.37,10.67
1382,778888085,0.5986,0.6035,0.6611,-2.44,-5.43,10.30
1383,778893085,0.5977,0.6074,0.6694,-2.62,-5.55,10.00
1384,778898086,0.5923,0.6006,0.6675,-2.68,-5.55,9.63
1385,778903088,0.5962,0.6011,0.6631,-2.74,-5.67,9.21
1386,778908086,0.5967,0.6025,0.6636,-2.68,-5.73,8.84
1387,778913085,0.5928,0.5991,0.6665,-2.68,-5.67,8.48
1388,778918085,0.5981,0.5991,0.6655,-2.62,-5.79,7.99
1389,778923085,0.5942,0.5977,0.6660,-2.50,-5.67,7.62
1390,778928087,0.5996,0.6035,0.6680,-2.38,-5.73,7.13
1391,778933087,0.6001,0.6016,0.6655,-2.20,-6.10,6.65
1392,778938087,0.6001,0.6025,0.6636,-2.07,-5.91,6.16
1393,778943086,0.5977,0.6011,0.6646,-1.83,-5.98,5.67
1394,778948087,0.5972,0.6001,0.6572,-1.59,-6.10,5.30
1395,778953085,0.5952,0.5967,0.6655,-1.52,-6.04,4.76
1396,778958085,0.5962,0.5996,0.6592,-1.28,-6.10,4.33
1397,778963085,0.5938,0.5977,0.6660,-1.16,-6.04,3.90
1398,778968085,0.5923,0.5986,0.6655,-0.91,-6.10,3.35
1399,778973085,0.5938,0.6021,0.6572,-0.85,-6.10,3.05
1400,778978085,0.5928,0.6050,0.6567,-0.61,-6.16,2.68
1401,778983085,0.5894,0.6021,0.6611,-0.49,-5.98,2.26
1402,778988087,0.5947,0.6021,0.6509,-0.37,-6.04,1.71
1403,778993091,0.5903,0.6050,0.6543,-0.24,-5.91,1.46
1404,778998089,0.5898,0.6035,0.6538,-0.12,-6.10,1.16
1405,779003161,0.5864,0.6064,0.6538,-0.18,-5.98,0.79
1406,779008087,0.5869,0.6060,0.6523,0.00,-5.91,0.49
1407,779013085,0.5859,0.6079,0.6519,0.12,-5.85,0.18
1408,779018086,0.5830,0.6060,0.6523,0.30,-5.98,-0.12
1409,779023085,0.5830,0.6060,0.6543,0.61,-5.73,-0.37
1410,779028085,0.5845,0.6064,0.6499,0.91,-5.79,-0.67
1411,779033085,0.5830,0.6079,0.6587,1.10,-5.61,-0.79
1412,779038085,0.5806,0.6040,0.6494,1.59,-5.55,-0.91
1413,779043085,0.5811,0.6133,0.6538,1.95,-5.37,-1.16
1414,779048085,0.5854,0.6157,0.6523,2.32,-5.37,-1.28
1415,779053085,0.5835,0.6167,0.6553,2.68,-5.37,-1.46
1416,779058086,0.5815,0.6182,0.6499,2.93,-5.00,-1.52
1417,779063085,0.5771,0.6187,0.6553,3.23,-4.88,-1.65
1418,779068445,0.5776,0.6201,0.6582,3.48,-4.82,-1.77
1419,779073087,0.5806,0.6187,0.6572,3.60,-4.70,-1.71
1420,779078087,0.5796,0.6226,0.6538,3.72,-4.51,-1.89
1421,779083087,0.5771,0.6245,0.6499,3.72,-4.51,-1.83
1422,779088087,0.5757,0.6240,0.6558,3.72,-4.27,-1.89
1423,779093087,0.5796,0.6245,0.6553,3.60,-4.15,-1.83
1424,779098087,0.5762,0.6255,0.6499,3.35,-3.96,-1.89
1425,779103087,0.5762,0.6240,0.6528,3.17,-3.78,-1.83
1426,779108566,0.5752,0.6216,0.6509,2.80,-3.66,-1.83
1427,779113086,0.5776,0.6230,0.6489,2.56,-3.48,-1.77
1428,779118085,0.5762,0.6274,0.6445,2.32,-3.29,-1.71
1429,779123085,0.5737,0.6304,0.6470,2.07,-3.11,-1.71
1430,779128085,0.5747,0.6270,0.6494,1.95,-3.05,-1.65
1431,779133085,0.5728,0.6255,0.6533,1.77,-2.99,-1.52
1432,779138085,0.5771,0.6250,0.6562,1.65,-2.68,-1.52
1433,779143085,0.5723,0.6279,0.6528,1.59,-2.68,-1.40
1434,779148085,0.5771,0.6230,0.6528,1.34,-2.56,-1.40
1435,779153085,0.5762,0.6191,0.6548,1.22,-2.38,-1.40
1436,779158085,0.5781,0.6201,0.6592,0.98,-2.26,-1.22
1437,779163085,0.5762,0.6196,0.6553,0.91,-2.20,-1.22
1438,779168085,0.5742,0.6250,0.6553,0.79,-2.13,-1.10
1439,779173085,0.5786,0.6221,0.6611,0.55,-2.13,-0.91
1440,779178085,0.5781,0.6201,0.6636,0.37,-1.89,-0.85
1441,779183085,0.5801,0.6191,0.6543,0.30,-1.95,-0.79
1442,779188261,0.5845,0.6206,0.6592,0.18,-1.83,-0.61
1443,779193278,0.5835,0.6147,0.6621,0.18,-1.83,-0.49
1444,779198090,0.5894,0.6201,0.6621,0.24,-1.83,-0.37
1445,779203087,0.5879,0.6245,0.6611,0.24,-1.65,-0.24
1446,779208087,0.5830,0.6187,0.6621,0.43,-1.89,-0.18
1447,779213086,0.5859,0.6196,0.6572,0.49,-1.77,0.00
1448,779218085,0.5894,0.6152,0.6621,0.67,-1.77,0.06
1449,779223085,0.5898,0.6162,0.6621,0.85,-1.95,0.06
1450,779228085,0.5884,0.6157,0.6621,1.10,-1.89,0.18
1451,779233085,0.5889,0.6157,0.6641,1.16,-1.83,0.24
1452,779238085,0.5952,0.6196,0.6631,1.40,-1.83,0.37
1453,779243085,0.5967,0.6211,0.6670,1.52,-1.83,0.30
1454,779248085,0.5981,0.6216,0.6616,1.46,-1.77,0.37
1455,779253085,0.5977,0.6201,0.6680,1.59,-1.95,0.37
1456,779258090,0.5957,0.6230,0.6621,1.52,-1.95,0.43
1457,779263089,0.5981,0.6191,0.6655,1.46,-2.01,0.43
1458,779268086,0.5952,0.6201,0.6680,1.34,-2.07,0.43
1459,779273087,0.5986,0.6226,0.6704,1.22,-2.13,0.37
1460,779278087,0.5972,0.6274,0.6694,1.16,-2.13,0.30
1461,779283087,0.6001,0.6274,0.6704,1.04,-1.95,0.37
1462,779288085,0.6035,0.6294,0.6660,0.91,-2.13,0.30
1463,779293085,0.6021,0.6279,0.6670,0.85,-2.20,0.24
1464,779298085,0.5972,0.6245,0.6699,0.73,-2.13,0.12
1465,779303085,0.5996,0.6245,0.6699,0.61,-2.26,0.18
1466,779308085,0.5996,0.6245,0.6729,0.49,-2.38,0.18
1467,779313087,0.5938,0.6279,0.6641,0.37,-2.38,0.18
1468,779318087,0.5957,0.6245,0.6621,0.30,-2.44,0.06
1469,779323087,0.5957,0.6245,0.6641,0.00,-2.44,0.00
1470,779328087,0.5947,0.6235,0.6616,-0.18,-2.62,0.00
1471,779333088,0.5967,0.6235,0.6621,-0.18,-2.56,0.12
1472,779338086,0.5981,0.6216,0.6641,-0.24,-2.68,0.12
1473,779343085,0.5957,0.6230,0.6631,-0.37,-2.68,-0.06
1474,779348085,0.6025,0.6270,0.6650,-0.18,-2.87,0.18
1475,779353085,0.5972,0.6299,0.6582,-0.12,-2.93,0.06
1476,779358085,0.5967,0.6289,0.6606,0.12,-3.11,0.06
1477,779363085,0.5942,0.6279,0.6602,0.12,-3.23,0.06
1478,779368085,0.5977,0.6309,0.6616,0.30,-3.23,0.00
1479,779373085,0.5981,0.6309,0.6646,0.37,-3.23,-0.06
1480,779378085,0.5952,0.6294,0.6582,0.37,-3.35,0.06
1481,779383085,0.5957,0.6265,0.6616,0.30,-3.54,0.06
1482,779388085,0.5923,0.6279,0.6533,0.18,-3.78,0.00
1483,779393085,0.5908,0.6270,0.6528,0.18,-3.78,0.12
1484,779398085,0.5918,0.6265,0.6543,0.12,-3.96,0.18
1485,779403085,0.5908,0.6260,0.6553,0.06,-4.15,0.18
1486,779408085,0.5938,0.6250,0.6548,-0.06,-4.27,0.24
1487,779413084,0.5933,0.6226,0.6606,-0.12,-4.21,0.24
1488,779418085,0.5962,0.6230,0.6646,-0.06,-4.39,0.24
1489,779423085,0.5957,0.6201,0.6650,-0.18,-4.39,0.30
1490,779428085,0.5986,0.6245,0.6646,-0.30,-4.57,0.43
1491,779433085,0.5986,0.6245,0.6631,-0.43,-4.63,0.43
1492,779438085,0.5957,0.6216,0.6548,-0.49,-4.76,0.43
1493,779443085,0.5972,0.6216,0.6558,-0.61,-4.94,0.49
1494,779448085,0.5898,0.6221,0.6626,-0.79,-4.94,0.55
1495,779453087,0.5972,0.6206,0.6646,-0.55,-5.12,0.61
1496,779458087,0.5928,0.6201,0.6641,-0.79,-5.18,0.61
1497,779463087,0.5903,0.6196,0.6602,-0.91,-5.37,0.67
1498,779468090,0.5913,0.6187,0.6562,-0.91,-5.37,0.79
1499,779473086,0.5928,0.6191,0.6553,-0.98,-5.43,0.91
1500,779478087,0.5898,0.6196,0.6479,-0.98,-5.61,0.98
1501,779483086,0.5879,0.6147,0.6548,-1.04,-5.67,1.10
1502,779488087,0.5913,0.6177,0.6543,-1.04,-5.85,1.28
1503,779493086,0.5894,0.6162,0.6548,-1.10,-5.98,1.46
1504,779498087,0.5820,0.6133,0.6533,-0.98,-6.10,1.59
1505,779503085,0.5864,0.6108,0.6602,-0.85,-6.16,1.83
1506,779508089,0.5850,0.6133,0.6543,-0.73,-6.34,1.89
1507,779513086,0.5850,0.6133,0.6543,-0.67,-6.40,2.07
1508,779518085,0.5845,0.6099,0.6597,-0.49,-6.40,2.32
1509,779523085,0.5854,0.6104,0.6533,-0.37,-6.40,2.38
1510,779528085,0.5894,0.6089,0.6538,-0.12,-6.71,2.62
1511,779533085,0.5869,0.6074,0.6533,0.00,-6.77,2.68
1512,779538085,0.5879,0.6094,0.6479,0.18,-6.83,2.93
1513,779543085,0.5894,0.6069,0.6548,0.30,-6.83,3.11
1514,779548085,0.5874,0.6104,0.6528,0.43,-6.89,3.29
1515,779553085,0.5879,0.6089,0.6538,0.73,-7.07,3.35
1516,779558085,0.5874,0.6113,0.6514,0.85,-7.20,3.48
1517,779563085,0.5879,0.6123,0.6553,1.10,-7.20,3.72
1518,779568085,0.5854,0.6143,0.6543,1.28,-7.26,3.78
1519,779573085,0.5908,0.6104,0.6587,1.59,-7.32,3.90
1520,779578085,0.5889,0.6133,0.6538,1.65,-7.26,3.90
1521,779583085,0.5938,0.6172,0.6611,1.83,-7.13,4.09
1522,779588085,0.5923,0.6152,0.6621,1.95,-7.32,4.15
1523,779593085,0.5933,0.6196,0.6646,2.07,-7.20,4.02
1524,779598085,0.5938,0.6196,0.6597,2.07,-7.13,4.09
1525,779603085,0.5933,0.6196,0.6650,2.07,-7.07,4.09
1526,779608085,0.5952,0.6230,0.6660,1.95,-6.89,4.15
1527,779613085,0.5962,0.6211,0.6626,1.77,-6.83,4.09
1528,779618085,0.5991,0.6206,0.6597,1.46,-6.77,4.09
1529,779623085,0.5962,0.6196,0.6626,1.28,-6.59,4.09
1530,779628085,0.5952,0.6191,0.6641,0.91,-6.52,3.90
1531,779633085,0.5962,0.6167,0.6631,0.49,-6.40,4.02
1532,779638214,0.5986,0.6152,0.6611,0.06,-6.34,3.90
1533,779643086,0.5981,0.6138,0.6646,-0.30,-6.28,3.96
1534,779648085,0.5957,0.6133,0.6665,-0.79,-6.10,3.96
1535,779653087,0.5962,0.6138,0.6621,-1.34,-6.04,3.96
1536,779658086,0.6016,0.6133,0.6592,-1.65,-5.91,3.84
1537,779663087,0.6006,0.6104,0.6548,-2.07,-5.91,3.84
1538,779668086,0.6016,0.6128,0.6626,-2.26,-5.85,3.84
1539,779673087,0.6021,0.6094,0.6528,-2.50,-5.73,3.78
1540,779678086,0.6021,0.6118,0.6577,-2.62,-5.73,3.66
1541,779683087,0.6055,0.6157,0.6582,-2.62,-5.55,3.66
1542,779688087,0.6025,0.6133,0.6626,-2.50,-5.49,3.60
1543,779693087,0.6011,0.6147,0.6577,-2.32,-5.55,3.54
1544,779698087,0.6064,0.6138,0.6597,-2.07,-5.43,3.41
1545,779703087,0.6006,0.6128,0.6655,-1.77,-5.24,3.35
1546,779708086,0.6021,0.6108,0.6562,-1.59,-5.30,3.29
1547,779713087,0.5991,0.6108,0.6587,-1.40,-5.12,3.17
1548,779718087,0.5981,0.6108,0.6636,-1.10,-4.88,3.29
1549,779723468,0.5957,0.6074,0.6641,-1.04,-5.00,3.11
1550,779728086,0.5977,0.6074,0.6553,-0.98,-5.06,2.93
1551,779733085,0.5967,0.6074,0.6592,-1.10,-4.94,2.93
1552,779738085,0.5981,0.6123,0.6567,-1.34,-4.88,2.74
1553,779743085,0.6006,0.6089,0.6582,-1.59,-4.82,2.62
1554,779748085,0.6016,0.6084,0.6577,-2.01,-4.76,2.50
1555,779753085,0.5977,0.6094,0.6509,-2.50,-4.82,2.38
1556,779758085,0.5996,0.6074,0.6567,-3.05,-4.76,2.20
1557,779763085,0.6011,0.6074,0.6680,-3.66,-4.76,2.01
1558,779768086,0.6064,0.6123,0.6582,-4.21,-4.88,1.89
1559,779773085,0.6084,0.6084,0.6587,-4.82,-5.06,1.71
1560,779778085,0.6089,0.6104,0.6577,-5.37,-5.06,1.40
1561,779783085,0.6069,0.6064,0.6602,-5.79,-5.24,1.28
1562,779788085,0.6064,0.6064,0.6572,-6.28,-5.37,1.10
1563,779793085,0.6074,0.6084,0.6582,-6.59,-5.43,0.85
1564,779798085,0.6074,0.6025,0.6606,-6.77,-5.55,0.73
1565,779803085,0.6016,0.5972,0.6582,-6.83,-5.67,0.55
1566,779808085,0.6040,0.5977,0.6621,-6.89,-5.91,0.43
1567,779813085,0.6021,0.5947,0.6626,-6.77,-5.98,0.30
1568,779818085,0.6006,0.6001,0.6606,-6.59,-5.91,0.12
1569,779823085,0.6021,0.5981,0.6606,-6.16,-6.16,0.06
1570,779828085,0.5986,0.5938,0.6602,-5.79,-6.22,-0.12
1571,779833085,0.5977,0.5918,0.6577,-5.37,-6.34,-0.18
1572,779838085,0.5972,0.5952,0.6543,-4.94,-6.52,-0.12
1573,779843088,0.5981,0.5942,0.6528,-4.33,-6.59,-0.18
1574,779848086,0.5977,0.5947,0.6572,-3.78,-6.71,-0.30
1575,779853085,0.6001,0.5947,0.6587,-3.17,-6.77,-0.30
1576,779858087,0.5977,0.5938,0.6577,-2.44,-6.83,-0.30
1577,779863086,0.5991,0.5928,0.6587,-1.83,-7.07,-0.37
1578,779868085,0.5986,0.5894,0.6528,-1.10,-7.20,-0.37
1579,779873087,0.5952,0.5884,0.6592,-0.55,-7.38,-0.24
1580,779878087,0.5947,0.5864,0.6548,0.06,-7.44,-0.12
1581,779883086,0.5933,0.5864,0.6558,0.55,-7.38,-0.18
1582,779888087,0.5942,0.5864,0.6533,0.91,-7.44,-0.06
1583,779893086,0.5942,0.5889,0.6494,1.46,-7.56,0.06
1584,779898087,0.5938,0.5938,0.6606,1.83,-7.62,0.12
1585,779903086,0.5977,0.5918,0.6562,2.20,-7.56,0.24
1586,779908087,0.5986,0.5967,0.6577,2.50,-7.56,0.24
1587,779913087,0.5986,0.5947,0.6558,2.68,-7.56,0.24
1588,779918087,0.6040,0.5967,0.6582,2.87,-7.38,0.30
1589,779923087,0.6040,0.6001,0.6572,3.11,-7.44,0.37
1590,779928085,0.6045,0.6016,0.6631,3.05,-7.32,0.37
1591,779933085,0.6040,0.6011,0.6553,3.17,-7.26,0.30
1592,779938085,0.6064,0.6035,0.6567,3.17,-7.13,0.43
1593,779943085,0.6035,0.6045,0.6523,3.23,-6.95,0.43
1594,779948085,0.6060,0.6035,0.6523,3.29,-6.83,0.55
1595,779953085,0.6045,0.6011,0.6514,3.17,-6.59,0.61
1596,779958085,0.6030,0.6104,0.6562,3.23,-6.40,0.61
1597,779963086,0.6060,0.6108,0.6597,3.17,-6.28,0.55
1598,779968085,0.6079,0.6147,0.6685,3.05,-5.91,0.55
1599,779973085,0.6074,0.6128,0.6621,3.11,-5.73,0.49
1600,779978085,0.6123,0.6143,0.6704,2.99,-5.30,0.55
1601,779983085,0.6128,0.6167,0.6631,2.74,-5.18,0.55
1602,779988085,0.6152,0.6143,0.6675,2.56,-4.88,0.55
1603,779993085,0.6138,0.6191,0.6636,2.26,-4.70,0.49
1604,779998085,0.6108,0.6182,0.6626,2.01,-4.45,0.49
1605,780003085,0.6138,0.6187,0.6621,1.77,-4.21,0.55
1606,780008085,0.6143,0.6216,0.6597,1.40,-3.90,0.55
1607,780013085,0.6113,0.6201,0.6631,1.10,-3.66,0.55
1608,780018085,0.6108,0.6182,0.6616,0.79,-3.48,0.55
1609,780023085,0.6138,0.6226,0.6553,0.37,-3.35,0.67
1610,780028085,0.6123,0.6162,0.6533,0.12,-2.93,0.73
1611,780033085,0.6118,0.6099,0.6577,-0.12,-2.80,0.79
1612,780038085,0.6118,0.6123,0.6553,-0.49,-2.74,0.85
1613,780043085,0.6113,0.6079,0.6553,-0.67,-2.50,1.04
1614,780048085,0.6074,0.6060,0.6538,-0.79,-2.38,1.22
1615,780053085,0.6104,0.6094,0.6553,-0.98,-2.07,1.34
1616,780058085,0.6064,0.6133,0.6533,-1.04,-1.95,1.40
1617,780063352,0.6035,0.6099,0.6514,-1.04,-1.83,1.71
1618,780068085,0.6006,0.6069,0.6548,-0.85,-1.71,1.83
1619,780073087,0.6050,0.6030,0.6538,-0.85,-1.59,2.01
1620,780078085,0.6084,0.6084,0.6538,-0.73,-1.46,2.20
1621,780083085,0.6016,0.6050,0.6519,-0.61,-1.34,2.32
1622,780088179,0.6079,0.6060,0.6450,-0.49,-1.28,2.50
1623,780093087,0.6040,0.6035,0.6519,-0.37,-1.16,2.74
1624,780098086,0.6060,0.6045,0.6509,-0.24,-1.04,2.80
1625,780103085,0.6074,0.6050,0.6470,-0.18,-0.98,3.11
1626,780108085,0.6055,0.6035,0.6489,-0.24,-0.98,3.23
1627,780113085,0.6064,0.6045,0.6460,-0.18,-0.91,3.48
1628,780118085,0.6055,0.6006,0.6455,-0.06,-0.91,3.54
1629,780123222,0.6123,0.6006,0.6479,-0.12,-0.98,3.78
1630,780128087,0.6060,0.6021,0.6528,0.00,-0.98,3.90
1631,780133086,0.6094,0.6006,0.6426,0.06,-0.98,3.96
1632,780138085,0.6060,0.6025,0.6470,0.18,-0.91,4.21
1633,780143085,0.6074,0.6040,0.6489,0.30,-0.91,4.27
1634,780148085,0.6060,0.6030,0.6470,0.61,-0.85,4.39
1635,780153085,0.6089,0.6006,0.6499,0.73,-0.98,4.51
1636,780158085,0.6069,0.6006,0.6455,0.91,-1.04,4.57
1637,780163085,0.6113,0.5991,0.6489,1.10,-1.10,4.57
1638,780168086,0.6084,0.5972,0.6421,1.28,-1.04,4.57
1639,780173085,0.6104,0.5962,0.6465,1.52,-1.04,4.70
1640,780178085,0.6099,0.5957,0.6421,1.65,-1.10,4.82
1641,780183085,0.6040,0.5918,0.6484,1.71,-1.28,4.76
1642,780188085,0.6074,0.5898,0.6431,1.77,-1.16,4.76
1643,780193085,0.6069,0.5864,0.6519,1.89,-1.16,4.82
1644,780198085,0.6094,0.5879,0.6426,2.07,-1.28,4.82
1645,780203085,0.6128,0.5889,0.6538,2.38,-1.34,4.76
1646,780208085,0.6147,0.5889,0.6494,2.50,-1.34,4.82
1647,780213085,0.6128,0.5884,0.6460,2.99,-1.34,4.70
1648,780218085,0.6162,0.5884,0.6528,3.41,-1.40,4.51
1649,780223085,0.6196,0.5894,0.6509,3.96,-1.34,4.39
1650,780228085,0.6235,0.5884,0.6494,4.33,-1.34,4.33
1651,780233085,0.6235,0.5889,0.6528,4.82,-1.28,4.02
1652,780238086,0.6201,0.5879,0.6548,5.18,-1.16,3.84
1653,780243085,0.6270,0.5845,0.6528,5.61,-1.04,3.54
1654,780248085,0.6230,0.5869,0.6543,5.98,-0.98,3.29
1655,780253085,0.6201,0.5820,0.6538,6.40,-0.85,3.05
1656,780258085,0.6206,0.5850,0.6455,6.40,-0.73,2.74
1657,780263085,0.6191,0.5879,0.6436,6.52,-0.67,2.56
1658,780268085,0.6226,0.5879,0.6519,6.40,-0.37,2.20
1659,780273090,0.6182,0.5854,0.6475,6.34,-0.30,1.83
1660,780278207,0.6191,0.5894,0.6431,6.22,-0.12,1.40
1661,780283085,0.6182,0.5903,0.6426,6.04,0.12,1.04
1662,780288085,0.6206,0.5889,0.6450,5.98,0.18,0.61
1663,780293153,0.6211,0.5923,0.6470,5.79,0.37,0.24
1664,780298087,0.6177,0.5977,0.6455,5.55,0.49,-0.18
1665,780303087,0.6167,0.5972,0.6475,5.37,0.55,-0.61
1666,780308347,0.6177,0.5996,0.6475,5.30,0.79,-1.04
1667,780313087,0.6201,0.6006,0.6489,5.30,0.79,-1.40
1668,780318469,0.6167,0.6060,0.6450,5.43,0.98,-1.71
1669,780323087,0.6167,0.6060,0.6450,5.55,1.16,-2.20
1670,780328086,0.6128,0.6050,0.6489,5.85,1.22,-2.44
1671,780333087,0.6118,0.6064,0.6465,6.28,1.46,-2.93
1672,780338085,0.6079,0.6089,0.6465,6.59,1.71,-3.29
1673,780343086,0.6099,0.6216,0.6455,7.07,1.83,-3.60
1674,780348085,0.6055,0.6177,0.6475,7.44,1.95,-3.78
1675,780353085,0.6035,0.6162,0.6509,7.87,2.26,-4.09
1676,780358085,0.6074,0.6201,0.6494,8.17,2.32,-4.39
1677,780363085,0.6021,0.6206,0.6436,8.23,2.50,-4.70
1678,780368085,0.6045,0.6260,0.6455,8.41,2.80,-5.00
1679,780373085,0.6040,0.6284,0.6475,8.29,2.80,-5.12
1680,780378085,0.6016,0.6353,0.6479,8.29,2.99,-5.49
1681,780383086,0.6001,0.6338,0.6445,8.05,3.23,-5.67
1682,780388085,0.6006,0.6362,0.6465,7.74,3.41,-5.79
1683,780393085,0.6006,0.6411,0.6406,7.44,3.41,-5.98
1684,780398085,0.5991,0.6426,0.6450,6.95,3.48,-6.10
1685,780403085,0.5977,0.6392,0.6406,6.52,3.48,-6.22
1686,780408085,0.5967,0.6484,0.6465,6.10,3.60,-6.34
1687,780413085,0.5967,0.6504,0.6406,5.67,3.60,-6.46
1688,780418085,0.5947,0.6499,0.6411,5.30,3.60,-6.52
1689,780423085,0.5938,0.6499,0.6348,4.94,3.84,-6.52
1690,780428085,0.5942,0.6592,0.6392,4.76,3.72,-6.46
1691,780433085,0.5854,0.6616,0.6406,4.45,3.78,-6.40
1692,780438085,0.5869,0.6621,0.6343,4.39,3.78,-6.28
1693,780443085,0.5874,0.6621,0.6401,4.39,3.84,-6.10
1694,780448085,0.5845,0.6616,0.6470,4.45,3.84,-6.10
1695,780453085,0.5864,0.6611,0.6367,4.63,3.78,-5.91
1696,780458085,0.5869,0.6646,0.6436,4.57,3.84,-5.61
1697,780463085,0.5869,0.6606,0.6426,4.76,3.66,-5.43
1698,780468085,0.5869,0.6626,0.6353,4.88,3.60,-5.24
1699,780474000,0.5845,0.6631,0.6382,5.06,3.54,-4.82
1700,780478089,0.5835,0.6646,0.6406,5.12,3.41,-4.70
1701,780483085,0.5859,0.6694,0.6426,5.37,3.48,-4.39
1702,780488086,0.5825,0.6704,0.6440,5.43,3.41,-4.02
1703,780493085,0.5850,0.6709,0.6377,5.49,3.29,-3.84
1704,780498085,0.5845,0.6685,0.6377,5.55,3.17,-3.48
1705,780503085,0.5874,0.6670,0.6406,5.61,2.99,-3.17
1706,780508087,0.5879,0.6738,0.6445,5.49,3.05,-2.93
1707,780513087,0.5854,0.6753,0.6470,5.37,2.87,-2.62
1708,780518088,0.5889,0.6748,0.6460,5.24,2.62,-2.32
1709,780523087,0.5918,0.6753,0.6514,4.94,2.44,-1.89
1710,780528086,0.5942,0.6748,0.6558,4.63,2.26,-1.59
1711,780533085,0.6001,0.6768,0.6514,4.27,2.20,-1.40
1712,780538086,0.6030,0.6787,0.6587,3.66,2.07,-0.98
1713,780543087,0.6079,0.6797,0.6558,3.29,2.01,-0.79
1714,780548085,0.6113,0.6836,0.6543,2.56,1.65,-0.67
1715,780553085,0.6055,0.6851,0.6489,1.83,1.46,-0.43
1716,780558085,0.6089,0.6846,0.6528,1.22,1.34,-0.24
1717,780563085,0.6143,0.6841,0.6514,0.37,1.16,-0.06
1718,780568087,0.6123,0.6841,0.6523,-0.43,0.73,0.18
1719,780573087,0.6108,0.6821,0.6504,-1.10,0.61,0.43
1720,780578089,0.6094,0.6821,0.6470,-2.13,0.24,0.67
1721,780583087,0.6060,0.6831,0.6411,-3.05,-0.06,0.98
1722,780588088,0.6021,0.6772,0.6431,-3.90,-0.24,1.22
1723,780593134,0.6016,0.6733,0.6348,-4.63,-0.67,1.52
1724,780598086,0.5918,0.6699,0.6343,-5.43,-0.98,1.83
1725,780603085,0.5913,0.6665,0.6387,-6.16,-1.16,2.07
1726,780608085,0.5879,0.6636,0.6362,-6.89,-1.52,2.44
1727,780613085,0.5918,0.6641,0.6372,-7.50,-1.77,2.80
1728,780618085,0.5942,0.6616,0.6382,-7.93,-2.07,3.17
1729,780623085,0.6021,0.6685,0.6387,-8.35,-2.50,3.60
1730,780628085,0.5981,0.6709,0.6401,-8.72,-2.80,3.84
1731,780633085,0.6055,0.6733,0.6396,-9.02,-3.11,4.21
1732,780638085,0.6133,0.6797,0.6348,-9.21,-3.54,4.33
1733,780643085,0.6206,0.6846,0.6284,-9.39,-3.90,4.63
1734,780648087,0.6245,0.6890,0.6372,-9.82,-4.27,4.70
1735,780653085,0.6274,0.6924,0.6313,-10.12,-4.82,4.82
1736,780658085,0.6313,0.6895,0.6343,-10.55,-5.18,4.88
1737,780663085,0.6284,0.6929,0.6265,-11.10,-5.67,4.94
1738,780668085,0.6245,0.6890,0.6226,-11.77,-6.16,4.94
1739,780673085,0.6216,0.6895,0.6187,-12.62,-6.59,5.00
1740,780678085,0.6143,0.6855,0.6167,-13.66,-7.20,4.88
1741,780683085,0.6133,0.6777,0.6167,-14.63,-7.74,5.00
1742,780688085,0.5991,0.6748,0.6025,-15.85,-8.23,5.06
1743,780693138,0.5986,0.6675,0.6001,-17.07,-8.72,5.18
1744,780698088,0.5903,0.6616,0.5957,-18.23,-9.27,5.30
1745,780703087,0.5854,0.6587,0.5933,-19.33,-9.76,5.43
1746,780708089,0.5825,0.6567,0.5879,-20.37,-10.49,5.61
1747,780713085,0.5850,0.6519,0.5913,-21.28,-10.98,5.67
1748,780718087,0.5767,0.6479,0.5835,-22.13,-11.52,5.73
1749,780723087,0.5830,0.6479,0.5908,-22.68,-12.01,5.98
1750,780728086,0.5830,0.6528,0.5908,-23.11,-12.56,5.98
1751,780733088,0.5854,0.6509,0.5889,-23.54,-12.93,5.98
1752,780738087,0.5957,0.6538,0.5918,-23.84,-13.54,5.98
1753,780743086,0.5977,0.6577,0.5923,-24.21,-14.02,5.85
1754,780748085,0.6060,0.6543,0.5913,-24.51,-14.70,5.61
1755,780753087,0.6084,0.6553,0.5967,-25.06,-15.18,5.37
1756,780758086,0.6138,0.6514,0.5908,-25.61,-15.67,5.00
1757,780763088,0.6143,0.6455,0.5874,-26.40,-16.34,4.76
1758,780768086,0.6147,0.6431,0.5850,-27.32,-16.89,4.27
1759,780773085,0.6108,0.6421,0.5850,-28.48,-17.56,3.84
1760,780778087,0.6138,0.6323,0.5840,-29.76,-18.17,3.48
1761,780783087,0.6079,0.6245,0.5850,-30.91,-18.90,3.05
1762,780788086,0.6084,0.6201,0.5747,-32.13,-19.57,2.68
1763,780793129,0.6025,0.6079,0.5796,-33.54,-20.30,2.38
1764,780798087,0.6079,0.6011,0.5786,-34.88,-21.16,1.83
1765,780803087,0.6074,0.6001,0.5752,-36.04,-21.65,1.34
1766,780808087,0.6064,0.5923,0.5708,-37.01,-22.44,0.85
1767,780813087,0.6118,0.5894,0.5767,-38.05,-23.17,0.43
1768,780818086,0.6138,0.5845,0.5811,-38.60,-23.90,-0.18
1769,780823087,0.6206,0.5869,0.5898,-39.02,-24.63,-0.79
1770,780828086,0.6230,0.5894,0.5869,-39.21,-25.30,-1.34
1771,780833087,0.6289,0.5908,0.5923,-39.27,-25.85,-2.01
1772,780838086,0.6338,0.5889,0.5952,-39.02,-26.34,-2.68
1773,780843087,0.6372,0.5903,0.5996,-38.84,-26.95,-3.48
1774,780848086,0.6470,0.5918,0.6011,-38.54,-27.38,-4.21
1775,780853315,0.6514,0.5962,0.6035,-38.29,-27.80,-5.06
1776,780858087,0.6548,0.6001,0.6025,-37.99,-28.29,-5.67
1777,780863086,0.6636,0.6050,0.6011,-37.87,-28.66,-6.65
1778,780868087,0.6694,0.6021,0.6060,-37.93,-29.09,-7.44
1779,780873087,0.6719,0.6040,0.6006,-37.93,-29.45,-8.23
1780,780878087,0.6768,0.6084,0.6016,-38.17,-29.88,-9.02
1781,780883086,0.6743,0.6133,0.5967,-38.35,-30.18,-9.82
1782,780888087,0.6777,0.6182,0.6006,-38.60,-30.55,-10.61
1783,780893087,0.6758,0.6182,0.5991,-39.09,-30.98,-11.22
1784,780898087,0.6738,0.6177,0.5991,-39.63,-31.16,-11.89
1785,780903086,0.6675,0.6143,0.5928,-40.00,-31.40,-12.38
1786,780908152,0.6675,0.6187,0.6030,-40.67,-31.71,-12.99
1787,780913087,0.6631,0.6187,0.5967,-41.22,-31.71,-13.29
1788,780918087,0.6562,0.6187,0.5967,-41.77,-32.07,-13.72
1789,780923086,0.6597,0.6196,0.5962,-42.32,-32.13,-13.90
1790,780928087,0.6606,0.6255,0.6011,-42.93,-32.13,-14.27
1791,780933087,0.6592,0.6309,0.5972,-43.48,-32.20,-14.57
1792,780938087,0.6553,0.6357,0.5942,-44.02,-32.20,-14.70
1793,780943087,0.6572,0.6406,0.5928,-44.63,-32.13,-14.94
1794,780948087,0.6621,0.6445,0.5923,-45.24,-32.01,-15.06
1795,780953371,0.6655,0.6475,0.5830,-45.79,-32.01,-15.24
1796,780958087,0.6704,0.6523,0.5840,-46.40,-32.01,-15.43
1797,780963086,0.6714,0.6548,0.5776,-47.07,-32.07,-15.55
1798,780968087,0.6704,0.6543,0.5791,-47.80,-31.95,-15.73
1799,780973085,0.6699,0.6562,0.5801,-48.48,-31.95,-15.79
1800,780978085,0.6714,0.6597,0.5771,-49.21,-31.89,-15.85
1801,780983087,0.6743,0.6577,0.5679,-49.88,-31.77,-15.91
1802,780988087,0.6719,0.6562,0.5708,-50.55,-31.59,-15.98
1803,780993086,0.6768,0.6558,0.5752,-51.16,-31.59,-15.98
1804,780998087,0.6782,0.6499,0.5640,-51.65,-31.46,-15.98
1805,781003087,0.6738,0.6533,0.5684,-52.07,-31.34,-15.91
1806,781008087,0.6748,0.6504,0.5654,-52.44,-31.16,-15.91
1807,781013086,0.6719,0.6421,0.5659,-52.68,-31.10,-15.73
1808,781018087,0.6689,0.6367,0.5703,-52.87,-30.91,-15.61
1809,781023087,0.6646,0.6299,0.5713,-52.93,-30.55,-15.49
1810,781028087,0.6606,0.6235,0.5718,-52.87,-30.24,-15.30
1811,781033086,0.6558,0.6123,0.5771,-52.87,-29.82,-15.12
1812,781038087,0.6509,0.6040,0.5850,-52.74,-29.51,-14.88
1813,781043087,0.6455,0.5933,0.5840,-52.74,-29.09,-14.63
1814,781048087,0.6392,0.5840,0.5815,-52.93,-28.66,-14.51
1815,781053085,0.6401,0.5835,0.5820,-53.17,-28.11,-14.45
1816,781058087,0.6421,0.5898,0.5908,-53.60,-27.68,-14.45
1817,781063088,0.6626,0.5908,0.5859,-54.39,-27.44,-14.57
1818,781068087,0.6792,0.5967,0.5889,-55.37,-27.01,-14.94
1819,781073285,0.6914,0.5967,0.5879,-56.71,-26.95,-15.24
1820,781078087,0.7065,0.5918,0.5903,-58.23,-27.01,-15.61
1821,781083085,0.7153,0.5845,0.5923,-59.82,-26.65,-16.10
1822,781088089,0.7197,0.5796,0.5996,-61.46,-26.59,-16.52
1823,781093086,0.7290,0.5723,0.6060,-62.99,-26.46,-17.13
1824,781098088,0.7305,0.5640,0.6245,-64.33,-26.34,-17.56
1825,781103087,0.7236,0.5522,0.6460,-65.12,-26.10,-17.93
1826,781108087,0.7192,0.5347,0.6479,-65.43,-25.67,-18.29
1827,781113085,0.7104,0.5054,0.6792,-65.00,-25.30,-18.54
1828,781118088,0.7036,0.4878,0.6929,-64.15,-24.63,-18.78
1829,781123087,0.7017,0.4688,0.7065,-62.62,-24.15,-18.60
1830,781128087,0.6968,0.4556,0.7212,-60.49,-23.54,-18.66
1831,781133087,0.7036,0.4399,0.7363,-57.50,-22.93,-18.48
1832,781138088,0.7036,0.4336,0.7622,-54.02,-22.20,-18.54
1833,781143087,0.7148,0.4321,0.7646,-50.18,-21.40,-18.29
1834,781148087,0.7314,0.4404,0.7646,-45.79,-20.73,-18.41
1835,781153086,0.7495,0.4575,0.7754,-41.22,-20.24,-18.60
1836,781158087,0.7681,0.4814,0.7837,-36.52,-19.70,-18.96
1837,781163087,0.8081,0.5063,0.7705,-31.95,-19.27,-19.70
1838,781168090,0.8408,0.5288,0.7754,-27.68,-18.90,-20.61
1839,781173085,0.8716,0.5396,0.7749,-23.66,-18.72,-21.59
1840,781178089,0.8931,0.5430,0.7656,-20.18,-18.66,-22.68
1841,781183085,0.9009,0.5381,0.7695,-17.38,-18.48,-23.78
1842,781188086,0.8955,0.5215,0.7598,-15.12,-18.41,-24.70
1843,781193086,0.8740,0.4961,0.7559,-13.48,-18.48,-25.49
1844,781198091,0.8433,0.4731,0.7598,-12.13,-18.41,-26.04
1845,781203424,0.8135,0.4458,0.7568,-11.16,-18.29,-26.52
1846,781208088,0.7856,0.4194,0.7632,-10.37,-18.05,-26.65
1847,781213087,0.7568,0.3994,0.7690,-10.00,-17.50,-26.46
1848,781218088,0.7319,0.3779,0.7656,-9.45,-17.01,-26.40
1849,781223086,0.7065,0.3569,0.7705,-9.27,-16.59,-26.16
1850,781228087,0.6816,0.3403,0.7690,-9.33,-15.98,-25.79
1851,781233087,0.6631,0.3218,0.7764,-9.63,-15.24,-25.24
1852,781238088,0.6475,0.3032,0.7651,-9.94,-14.57,-24.70
1853,781243086,0.6299,0.2949,0.7642,-10.43,-13.90,-24.02
1854,781248088,0.6177,0.2915,0.7529,-10.85,-13.17,-23.35
1855,781253085,0.6079,0.2896,0.7485,-11.40,-12.62,-22.62
1856,781258085,0.6079,0.2876,0.7441,-12.01,-12.13,-22.07
1857,781263087,0.6060,0.2949,0.7446,-12.62,-11.46,-21.71
1858,781268086,0.6167,0.2998,0.7495,-13.05,-10.79,-21.16
1859,781273085,0.6196,0.3047,0.7451,-13.54,-10.37,-20.67
1860,781278087,0.6177,0.3037,0.7422,-13.72,-9.70,-20.30
1861,781283087,0.6128,0.2983,0.7480,-13.66,-9.27,-19.76
1862,781288086,0.6094,0.2881,0.7568,-13.60,-8.72,-19.27
1863,781293090,0.5952,0.2852,0.7593,-12.99,-7.99,-18.84
1864,781298087,0.5840,0.2700,0.7681,-12.01,-7.32,-18.11
1865,781303087,0.5815,0.3296,0.7310,-10.98,-7.13,-18.05
1866,781308087,0.5952,0.3315,0.7529,-10.37,-7.74,-19.09
1867,781313085,0.6064,0.3496,0.7651,-10.49,-9.39,-21.46
1868,781318088,0.6035,0.3037,0.7764,-11.34,-11.83,-25.06
1869,781323341,0.6113,0.3208,0.8003,-13.11,-15.30,-29.94
1870,781328087,0.6167,0.3257,0.7705,-15.85,-19.45,-36.83
1871,781333087,0.6245,0.0327,1.0146,-17.32,-21.89,-41.22
1872,781338088,0.5542,0.0781,0.9688,-17.07,-22.80,-43.96
1873,781343086,0.4785,0.0874,0.8765,-15.24,-24.15,-46.46
1874,781348087,0.4443,0.0771,0.8979,-11.46,-24.88,-48.29
1875,781353087,0.4521,0.1040,0.9561,-6.10,-24.57,-49.27
1876,781358150,0.4502,0.1587,0.9385,0.24,-23.48,-49.76
1877,781363214,0.4580,0.1929,0.8818,7.44,-22.56,-49.88
1878,781368087,0.4722,0.2202,0.8838,15.12,-21.34,-49.70
1879,781373088,0.4995,0.2437,0.8931,22.93,-19.94,-49.51
1880,781378087,0.5283,0.2769,0.8628,30.43,-18.48,-49.15
1881,781383085,0.5498,0.3149,0.8418,37.38,-16.83,-48.84
1882,781388089,0.5684,0.3506,0.8433,43.60,-15.30,-48.54
1883,781393087,0.5713,0.3799,0.8472,48.78,-13.78,-47.99
1884,781398087,0.5728,0.3892,0.8315,53.05,-11.95,-47.38
1885,781403086,0.5645,0.3936,0.8232,55.91,-10.30,-46.77
1886,781408165,0.5581,0.3955,0.8364,57.68,-8.48,-46.16
1887,781413087,0.5518,0.3975,0.8340,58.29,-6.65,-45.43
1888,781418088,0.5400,0.3989,0.8242,57.56,-4.94,-44.57
1889,781423085,0.5352,0.4033,0.8286,55.73,-3.05,-43.90
1890,781428086,0.5273,0.4043,0.8315,52.99,-1.10,-43.11
1891,781433305,0.5269,0.4141,0.8223,49.21,0.79,-42.56
1892,781438087,0.5249,0.4272,0.8130,44.94,2.68,-41.89
1893,781443087,0.5283,0.4375,0.8267,39.94,4.70,-41.34
1894,781448087,0.5327,0.4492,0.8237,34.63,6.59,-40.98
1895,781453086,0.5386,0.4614,0.8242,28.96,8.41,-40.61
1896,781458087,0.5444,0.4771,0.8145,23.17,10.30,-40.24
1897,781463086,0.5498,0.5000,0.8208,17.07,12.13,-40.06
1898,781468511,0.5483,0.5303,0.8120,10.98,13.90,-40.24
1899,781473087,0.5459,0.5581,0.7905,4.94,15.12,-40.73
1900,781478086,0.5562,0.5830,0.7563,-1.40,15.55,-41.65
1901,781483087,0.5566,0.5903,0.7354,-7.44,14.82,-43.41
1902,781488087,0.5723,0.5366,0.8027,-13.23,13.17,-45.12
1903,781493087,0.5630,0.5083,0.8130,-18.17,11.46,-46.71
1904,781498090,0.5264,0.5059,0.8076,-22.38,9.45,-47.80
1905,781503087,0.4907,0.5127,0.8379,-25.24,7.74,-48.60
1906,781508087,0.4722,0.5122,0.8481,-26.95,6.65,-48.96
1907,781513087,0.4565,0.5229,0.8354,-27.32,5.61,-48.84
1908,781518086,0.4624,0.5278,0.8232,-26.59,5.06,-48.29
1909,781523090,0.4746,0.5356,0.8159,-24.82,4.39,-47.44
1910,781528086,0.4902,0.5483,0.8081,-22.38,3.60,-46.40
1911,781533087,0.5063,0.5591,0.7925,-19.15,3.11,-45.18
1912,781538086,0.5210,0.5742,0.7905,-15.61,2.68,-43.84
1913,781543087,0.5308,0.5889,0.7905,-11.65,2.13,-42.50
1914,781548087,0.5425,0.6069,0.7949,-7.93,1.71,-41.22
1915,781553087,0.5439,0.6108,0.7930,-4.27,1.52,-39.94
1916,781558086,0.5479,0.6084,0.8003,-0.91,1.46,-38.72
1917,781563086,0.5479,0.6045,0.7979,1.95,1.46,-37.56
1918,781568145,0.5435,0.5972,0.7915,4.15,1.46,-36.34
1919,781573134,0.5391,0.5933,0.7969,5.67,1.59,-34.88
1920,781578086,0.5337,0.5874,0.7935,6.65,1.65,-33.54
1921,781583087,0.5322,0.5908,0.7910,6.77,1.71,-32.32
1922,781588087,0.5278,0.5942,0.7900,6.34,1.95,-31.16
1923,781593085,0.5234,0.5908,0.7900,5.30,1.95,-30.24
1924,781598089,0.5259,0.5830,0.7910,3.72,1.95,-29.33
1925,781603087,0.5278,0.5820,0.7876,2.07,1.83,-28.48
1926,781608087,0.5283,0.5732,0.7788,0.24,1.65,-27.50
1927,781613087,0.5259,0.5732,0.7827,-1.59,1.22,-26.52
1928,781618087,0.5200,0.5757,0.7822,-3.48,0.67,-25.49
1929,781623087,0.5249,0.5854,0.7817,-5.12,0.24,-24.57
1930,781628087,0.5244,0.5913,0.7871,-6.40,-0.24,-23.72
1931,781633087,0.5220,0.5977,0.7881,-7.44,-0.73,-22.93
1932,781638087,0.5205,0.5933,0.7905,-8.23,-1.22,-22.20
1933,781643087,0.5132,0.5967,0.7925,-8.66,-1.65,-21.34
1934,781648087,0.5078,0.5962,0.7959,-8.90,-2.01,-20.61
1935,781653087,0.5034,0.6025,0.8037,-8.78,-2.26,-19.82
1936,781658087,0.4995,0.6094,0.8042,-8.48,-2.20,-18.96
1937,781663087,0.5044,0.6133,0.8022,-8.05,-2.50,-18.35
1938,781668087,0.5029,0.6196,0.7949,-7.56,-2.38,-17.74
1939,781673087,0.5161,0.6138,0.7925,-7.13,-2.50,-17.01
1940,781678088,0.5210,0.6221,0.7974,-6.77,-2.56,-16.16
1941,781683087,0.5293,0.6260,0.7993,-6.34,-2.74,-15.24
1942,781688088,0.5366,0.6343,0.8018,-6.16,-2.87,-14.33
1943,781693085,0.5332,0.6416,0.7954,-5.91,-2.87,-13.54
1944,781698085,0.5352,0.6406,0.7896,-5.85,-3.05,-12.50
1945,781703087,0.5352,0.6401,0.7871,-5.98,-3.11,-11.59
1946,781708087,0.5332,0.6455,0.7837,-6.22,-3.11,-10.49
1947,781713087,0.5410,0.6494,0.7871,-6.46,-3.35,-9.39
1948,781718605,0.5391,0.6567,0.7871,-6.89,-3.41,-8.60
1949,781723261,0.5366,0.6587,0.7905,-7.32,-3.48,-7.62
1950,781728088,0.5420,0.6646,0.7817,-7.68,-3.41,-6.89
1951,781733086,0.5391,0.6646,0.7886,-8.11,-3.60,-6.22
1952,781738085,0.5420,0.6597,0.7793,-8.35,-3.72,-5.67
1953,781743085,0.5400,0.6475,0.7744,-8.84,-3.96,-5.06
1954,781748087,0.5488,0.6421,0.7559,-9.33,-4.33,-4.57
1955,781753228,0.5557,0.6357,0.7539,-9.76,-4.88,-4.02
1956,781758087,0.5601,0.6343,0.7480,-10.12,-5.43,-3.35
1957,781763087,0.5596,0.6353,0.7446,-10.55,-6.22,-2.99
1958,781768087,0.5596,0.6318,0.7358,-11.10,-7.13,-2.32
1959,781773087,0.5547,0.6191,0.7188,-11.52,-8.11,-2.01
1960,781778088,0.5610,0.6128,0.7202,-12.01,-8.90,-1.59
1961,781783087,0.5527,0.6089,0.7163,-12.38,-9.70,-1.28
1962,781788087,0.5508,0.5952,0.7080,-12.74,-10.37,-1.10
1963,781793085,0.5615,0.5791,0.6738,-12.93,-11.04,-1.10
1964,781798087,0.5562,0.5962,0.7002,-12.74,-11.59,-1.10
1965,781803087,0.5342,0.5684,0.6885,-12.62,-11.77,-1.28
1966,781808087,0.3413,0.5254,0.6782,-12.50,-11.83,-1.40
1967,781813087,0.4712,0.5234,0.6016,-13.23,-12.20,-1.52
1968,781818088,0.5552,0.5186,0.6084,-13.41,-12.62,-1.71
1969,781823087,0.5825,0.5288,0.6255,-13.48,-12.62,-2.07
1970,781828087,0.5747,0.5464,0.6182,-13.66,-12.80,-2.50
1971,781833534,0.5679,0.5610,0.6426,-13.84,-13.11,-3.23
1972,781838087,0.5752,0.5542,0.6733,-13.90,-13.35,-3.78
1973,781843088,0.5762,0.5518,0.6768,-13.66,-13.66,-4.39
1974,781848087,0.5825,0.5679,0.6729,-13.35,-14.27,-4.94
1975,781853087,0.5845,0.5850,0.7036,-12.44,-14.76,-5.24
1976,781858087,0.5723,0.5815,0.6997,-11.46,-15.24,-5.55
1977,781863087,0.5518,0.5898,0.6724,-10.06,-16.16,-5.55
1978,781868087,0.5957,0.5850,0.6543,-8.29,-16.83,-5.61
1979,781873487,0.5850,0.5796,0.6562,-6.34,-17.50,-5.49
1980,781878087,0.5054,0.5967,0.6499,-3.84,-17.99,-5.55
1981,781883087,0.5273,0.5977,0.6182,-1.22,-18.54,-5.37
1982,781888087,0.5562,0.5923,0.5942,1.77,-19.09,-5.24
1983,781893087,0.5117,0.6084,0.5894,4.51,-19.27,-5.00
1984,781898087,0.5210,0.6006,0.6104,6.83,-19.76,-4.70
1985,781903087,0.5513,0.5796,0.6362,8.90,-19.82,-4.33
1986,781908087,0.5894,0.5469,0.6724,10.91,-19.88,-3.96
1987,781913088,0.6377,0.5137,0.7046,12.99,-20.00,-3.54
1988,781918087,0.6787,0.4858,0.7505,15.00,-19.88,-3.29
1989,781923087,0.6973,0.4668,0.7900,16.71,-19.88,-3.17
1990,781928087,0.7021,0.4614,0.8120,18.41,-20.18,-3.41
1991,781933088,0.6978,0.4585,0.8237,20.43,-20.18,-3.78
1992,781938087,0.6938,0.4761,0.8135,22.44,-20.61,-4.39
1993,781943087,0.6909,0.4893,0.7896,24.57,-20.85,-5.12
1994,781948087,0.6978,0.5205,0.7529,26.89,-21.04,-5.85
1995,781953087,0.7012,0.5532,0.7197,29.57,-21.40,-6.28
1996,781958087,0.6982,0.5898,0.6943,32.38,-21.71,-6.71
1997,781963087,0.6597,0.6177,0.6802,35.49,-21.89,-6.77
1998,781968087,0.6284,0.6445,0.6533,38.78,-22.13,-6.59
1999,781973087,0.6133,0.6655,0.6406,42.26,-22.32,-6.04
2000,781978087,0.6108,0.6826,0.6382,45.85,-22.56,-5.18
2001,781983087,0.6167,0.6929,0.6230,49.45,-22.80,-3.96
2002,781988087,0.6289,0.6899,0.6021,53.05,-23.29,-2.50
2003,781993087,0.6367,0.6704,0.5791,56.04,-23.96,-0.73
2004,781998087,0.6450,0.6572,0.5610,58.11,-24.88,1.16
2005,782003087,0.6182,0.6338,0.5781,57.93,-25.49,1.83
2006,782008087,0.6230,0.6167,0.5425,54.39,-26.34,1.28
2007,782013087,0.6592,0.5864,0.6294,48.11,-27.01,0.91
2008,782018087,0.6802,0.5835,0.6763,39.70,-27.32,0.61
2009,782023087,0.6812,0.5562,0.6880,28.96,-27.07,0.30
2010,782028086,0.6519,0.5757,0.7202,16.10,-26.16,-0.18
2011,782033087,0.5806,0.6250,0.6982,0.91,-24.88,-0.91
2012,782038086,0.5176,0.6621,0.6338,-16.46,-23.54,-2.44
2013,782043087,0.4771,0.6650,0.6074,-34.39,-21.83,-5.00
2014,782048086,0.4492,0.6641,0.6265,-52.99,-19.82,-7.80
2015,782053087,0.4360,0.6499,0.6216,-71.65,-17.80,-10.06
2016,782058087,0.4478,0.6255,0.6279,-89.63,-15.55,-11.89
2017,782063087,0.4341,0.5889,0.6899,-106.04,-13.35,-13.05
2018,782068086,0.4385,0.5210,0.7471,-120.00,-10.61,-13.35
2019,782073086,0.4634,0.4326,0.7583,-130.55,-7.74,-13.11
2020,782078085,0.5410,0.2710,0.8105,-138.29,-5.12,-11.89
2021,782083087,0.6040,0.2974,0.8018,-144.39,-2.01,-9.94
2022,782088086,0.5698,0.3740,0.7280,-147.99,-0.12,-7.99
2023,782093085,0.5732,0.4268,0.6831,-149.51,1.28,-6.10
2024,782098087,0.5654,0.4658,0.6885,-148.90,2.62,-4.02
2025,782103087,0.6543,0.4927,0.6343,-146.65,3.60,-1.77
2026,782108087,0.6709,0.5278,0.6147,-142.44,3.96,0.67
2027,782113087,0.6646,0.5254,0.6577,-136.10,4.15,2.93
2028,782118088,0.5996,0.5371,0.7031,-127.44,4.63,5.18
2029,782123087,0.4639,0.5938,0.7437,-116.95,5.12,7.13
2030,782128087,0.3599,0.6792,0.8013,-105.24,6.04,8.05
2031,782133087,0.4170,0.6318,0.8745,-92.93,7.38,8.05
2032,782138088,0.5229,0.5146,0.9243,-79.09,9.02,8.29
2033,782143087,0.5571,0.4575,0.9336,-64.09,10.67,9.15
2034,782148087,0.5264,0.4873,0.9033,-48.35,12.13,10.12
2035,782153088,0.4697,0.5503,0.8862,-32.44,13.29,11.10
2036,782158087,0.4448,0.5620,0.8774,-16.46,14.45,11.71
2037,782163088,0.4609,0.5161,0.8882,-0.98,15.49,12.50
2038,782168087,0.4902,0.4653,0.8901,12.93,16.52,13.72
2039,782173087,0.4980,0.4502,0.8809,24.70,17.32,14.94
2040,782178087,0.4829,0.4751,0.8511,33.90,18.11,16.22
2041,782183085,0.4785,0.4893,0.8340,40.30,18.41,17.20
2042,782188087,0.4854,0.4868,0.8350,43.96,18.66,18.35
2043,782193119,0.4941,0.4897,0.8330,45.24,18.78,19.39
2044,782198088,0.4922,0.4980,0.8447,44.39,18.96,20.37
2045,782203089,0.4873,0.5127,0.8506,41.95,19.02,21.34
2046,782208087,0.4814,0.5186,0.8618,38.11,19.09,22.20
2047,782213087,0.4829,0.5132,0.8560,33.41,19.09,23.17
2048,782218087,0.4834,0.5059,0.8530,27.93,19.15,24.15
2049,782223997,0.4800,0.5020,0.8560,21.04,19.09,25.43
2050,782228090,0.4766,0.5088,0.8599,16.59,19.02,26.16
2051,782233087,0.4746,0.5073,0.8613,11.34,18.96,27.13
2052,782238085,0.4766,0.4980,0.8555,6.65,18.78,28.17
2053,782243085,0.4829,0.5020,0.8560,2.87,18.54,29.15
2054,782248085,0.4897,0.5000,0.8608,-0.12,18.35,30.12
2055,782253085,0.4990,0.5015,0.8613,-2.20,18.05,31.16
2056,782258087,0.5020,0.4990,0.8618,-3.29,17.74,32.20
2057,782263087,0.5083,0.5005,0.8662,-3.35,17.26,33.11
2058,782268087,0.5146,0.4956,0.8711,-2.20,16.89,34.15
2059,782273087,0.5190,0.4937,0.8638,-0.24,16.40,35.06
2060,782278183,0.5215,0.4888,0.8789,2.74,16.04,36.04
2061,782283202,0.5215,0.4863,0.8755,6.16,15.49,37.07
2062,782288087,0.5308,0.4883,0.8828,10.06,15.12,38.05
2063,782293087,0.5366,0.4805,0.8867,14.09,14.63,38.84
2064,782298088,0.5405,0.4771,0.8818,17.99,14.21,39.76
2065,782303087,0.5479,0.4761,0.8906,21.65,13.78,40.49
2066,782308088,0.5552,0.4771,0.8872,24.94,13.29,41.10
2067,782313087,0.5640,0.4790,0.8931,27.80,12.68,41.71
2068,782318089,0.5693,0.4785,0.8843,29.88,12.01,42.26
2069,782323086,0.5752,0.4756,0.8784,31.34,11.46,42.74
2070,782328085,0.5850,0.4692,0.8779,32.07,10.79,43.11
2071,782333087,0.5908,0.4668,0.8687,32.32,10.06,43.41
2072,782338086,0.6001,0.4648,0.8657,31.95,9.27,43.72
2073,782343087,0.6025,0.4668,0.8672,31.28,8.48,44.02
2074,782348087,0.6133,0.4673,0.8652,30.43,7.68,44.15
2075,782353087,0.6147,0.4746,0.8647,29.45,6.65,44.21
2076,782358086,0.6216,0.4746,0.8633,28.35,5.79,44.33
2077,782363089,0.6260,0.4795,0.8691,27.38,4.94,44.33
2078,782368086,0.6270,0.4790,0.8608,26.52,3.78,44.39
2079,782373085,0.6294,0.4727,0.8560,26.04,2.80,44.45
2080,782378086,0.6294,0.4741,0.8516,25.79,2.01,44.57
2081,782383085,0.6309,0.4751,0.8462,25.85,1.10,44.63
2082,782388085,0.6274,0.4751,0.8496,26.22,0.24,44.70
2083,782393335,0.6240,0.4771,0.8359,26.83,-0.61,44.88
2084,782398086,0.6152,0.4790,0.8398,28.05,-1.40,44.94
2085,782403089,0.6138,0.4893,0.8403,29.63,-2.20,45.06
2086,782408086,0.6172,0.4956,0.8398,31.77,-2.74,45.24
2087,782413087,0.6167,0.5068,0.8462,34.21,-3.17,45.37
2088,782418086,0.6182,0.5166,0.8477,36.95,-3.78,45.37
2089,782423089,0.6216,0.5283,0.8477,39.88,-4.15,45.37
2090,782428086,0.6230,0.5361,0.8491,42.74,-4.33,45.43
2091,782433087,0.6274,0.5400,0.8442,45.30,-4.51,45.24
2092,782438086,0.6270,0.5464,0.8398,47.44,-4.63,45.30
2093,782443087,0.6201,0.5474,0.8394,49.09,-4.63,45.12
2094,782448086,0.6133,0.5435,0.8315,50.00,-4.76,45.12
2095,782453087,0.6089,0.5391,0.8228,50.24,-4.63,45.06
2096,782458086,0.6011,0.5298,0.8188,49.57,-4.51,45.06
2097,782463087,0.5938,0.5244,0.8105,48.41,-4.45,45.00
2098,782468086,0.5845,0.5239,0.7964,46.52,-4.39,45.06
2099,782473089,0.5786,0.5156,0.7861,44.09,-4.21,45.12
2100,782478087,0.5830,0.5103,0.7866,41.28,-4.39,45.18
2101,782483086,0.5728,0.5049,0.7788,38.23,-4.27,45.30
2102,782488088,0.5747,0.5088,0.7749,35.18,-4.21,45.43
2103,782493088,0.5747,0.5098,0.7764,32.13,-4.27,45.55
2104,782498087,0.5801,0.5151,0.7769,29.27,-4.21,45.55
2105,782503087,0.5786,0.5112,0.7739,26.40,-4.27,45.61
2106,782508086,0.5845,0.5103,0.7661,23.78,-4.33,45.67
2107,782513085,0.5859,0.5142,0.7603,21.22,-4.39,45.67
2108,782518085,0.5894,0.5156,0.7568,18.72,-4.45,45.73
2109,782523087,0.5981,0.5210,0.7529,16.59,-4.70,45.67
2110,782528089,0.6025,0.5225,0.7529,14.57,-5.00,45.55
2111,782533087,0.6104,0.5195,0.7441,12.93,-5.24,45.43
2112,782538086,0.6182,0.5186,0.7373,11.22,-5.43,45.12
2113,782543085,0.6299,0.5220,0.7373,9.88,-5.73,44.88
2114,782548087,0.6387,0.5215,0.7261,8.54,-6.16,44.57
2115,782553087,0.6484,0.5244,0.7285,7.50,-6.65,44.02
2116,782558087,0.6592,0.5269,0.7197,6.59,-7.01,43.60
2117,782563087,0.6592,0.5278,0.7163,5.85,-7.50,43.11
2118,782568087,0.6650,0.5273,0.7134,5.24,-7.87,42.62
2119,782573087,0.6729,0.5288,0.7017,4.76,-8.35,42.07
2120,782578087,0.6816,0.5303,0.7026,4.39,-8.78,41.46
2121,782583088,0.6816,0.5288,0.7041,4.27,-9.33,41.04
2122,782588087,0.6880,0.5337,0.7046,4.21,-10.06,40.37
2123,782593089,0.6870,0.5361,0.6973,4.39,-10.49,39.82
2124,782598087,0.6831,0.5327,0.7021,4.70,-10.91,39.39
2125,782603087,0.6846,0.5366,0.6963,5.06,-11.34,38.90
2126,782608087,0.6821,0.5327,0.6953,5.79,-11.77,38.54
2127,782613088,0.6743,0.5293,0.6934,6.46,-12.32,38.17
2128,782618087,0.6699,0.5220,0.6890,7.44,-12.62,37.80
2129,782623085,0.6631,0.5220,0.6792,8.48,-13.05,37.62
2130,782628087,0.6626,0.5225,0.6748,9.57,-13.23,37.44
2131,782633087,0.6572,0.5190,0.6787,10.61,-13.48,37.38
2132,782638087,0.6470,0.5156,0.6792,11.77,-13.54,37.26
2133,782643087,0.6440,0.5166,0.6763,12.87,-13.60,37.20
2134,782648135,0.6406,0.5093,0.6772,13.84,-13.66,37.20
2135,782653087,0.6411,0.5054,0.6689,14.70,-13.72,37.26
2136,782658087,0.6392,0.5068,0.6729,15.43,-13.66,37.38
2137,782663087,0.6401,0.5083,0.6724,15.73,-13.60,37.32
2138,782668087,0.6396,0.5063,0.6729,15.79,-13.48,37.44
2139,782673087,0.6392,0.5068,0.6753,15.43,-13.05,37.44
2140,782678085,0.6426,0.5054,0.6660,14.76,-12.99,37.44
2141,782683087,0.6440,0.5049,0.6641,13.66,-12.74,37.44
2142,782688086,0.6455,0.4941,0.6636,12.20,-12.62,37.44
2143,782693085,0.6450,0.4985,0.6660,10.49,-12.56,37.44
2144,782698276,0.6470,0.4893,0.6616,8.84,-12.20,37.44
2145,782703087,0.6470,0.4829,0.6611,7.07,-12.07,37.44
2146,782708087,0.6475,0.4844,0.6626,5.61,-11.77,37.50
2147,782713087,0.6523,0.4756,0.6660,4.39,-11.71,37.56
2148,782718094,0.6484,0.4746,0.6665,3.35,-11.46,37.62
2149,782723090,0.6572,0.4731,0.6660,2.68,-11.34,37.62
2150,782728087,0.6626,0.4727,0.6709,2.38,-11.16,37.68
2151,782733086,0.6689,0.4717,0.6729,2.44,-10.91,37.62
2152,782738085,0.6729,0.4658,0.6782,2.62,-10.55,37.56
2153,782743089,0.6738,0.4648,0.6733,2.99,-10.49,37.50
2154,782748086,0.6763,0.4634,0.6831,3.48,-10.30,37.50
2155,782753294,0.6792,0.4629,0.6885,4.09,-10.06,37.44
2156,782758087,0.6821,0.4590,0.6953,4.70,-9.88,37.26
2157,782763087,0.6870,0.4565,0.6885,5.12,-9.57,37.01
2158,782768087,0.6914,0.4551,0.6919,5.55,-9.51,36.89
2159,782773087,0.6968,0.4497,0.6909,5.79,-9.39,36.59
2160,782778086,0.7002,0.4463,0.6929,5.85,-9.33,36.40
2161,782783087,0.7065,0.4404,0.6963,5.73,-9.09,35.98
2162,782788088,0.7104,0.4365,0.6899,5.55,-9.02,35.67
2163,782793087,0.7148,0.4321,0.6924,5.12,-8.90,35.30
2164,782798086,0.7173,0.4287,0.6904,4.82,-8.78,34.82
2165,782803087,0.7197,0.4238,0.6982,4.33,-8.78,34.45
2166,782808086,0.7202,0.4150,0.6904,3.90,-8.66,33.96
2167,782813087,0.7241,0.4175,0.6909,3.29,-8.60,33.54
2168,782818087,0.7241,0.4136,0.6865,2.74,-8.54,32.99
2169,782823087,0.7227,0.4082,0.6885,2.26,-8.48,32.50
2170,782828086,0.7261,0.4067,0.6851,1.71,-8.60,32.07
2171,782833087,0.7349,0.4062,0.6831,1.22,-8.54,31.40
2172,782838087,0.7378,0.4062,0.6895,0.91,-8.41,30.91
2173,782843087,0.7402,0.4087,0.6875,0.61,-8.54,30.24
2174,782848086,0.7422,0.4043,0.6865,0.30,-8.54,29.63
2175,782853087,0.7437,0.3999,0.6909,-0.18,-8.60,28.96
2176,782858089,0.7402,0.3989,0.6880,-0.61,-8.60,28.23
2177,782863086,0.7441,0.4009,0.6890,-1.34,-8.78,27.68
2178,782868087,0.7446,0.3984,0.6821,-2.13,-8.96,27.01
2179,782873086,0.7417,0.3857,0.6753,-2.74,-9.15,26.52
2180,782878536,0.7485,0.3838,0.6748,-3.60,-9.27,25.85
2181,782883088,0.7427,0.3813,0.6826,-4.33,-9.45,25.24
2182,782888087,0.7446,0.3750,0.6772,-4.88,-9.63,24.76
2183,782893087,0.7437,0.3760,0.6714,-5.18,-9.76,24.27
2184,782898086,0.7402,0.3740,0.6787,-5.18,-9.94,23.78
2185,782903088,0.7422,0.3779,0.6777,-5.00,-10.06,23.29
2186,782908087,0.7388,0.3721,0.6738,-4.51,-10.12,22.80
2187,782913087,0.7402,0.3672,0.6768,-3.90,-10.18,22.56
2188,782918088,0.7393,0.3677,0.6724,-2.99,-10.24,22.07
2189,782923087,0.7422,0.3691,0.6724,-2.07,-10.37,21.77
2190,782928087,0.7417,0.3643,0.6704,-0.91,-10.30,21.40
2191,782933087,0.7397,0.3647,0.6758,0.24,-10.30,20.98
2192,782938085,0.7378,0.3682,0.6729,1.34,-10.37,20.67
2193,782943089,0.7417,0.3657,0.6743,2.38,-10.24,20.37
2194,782948087,0.7397,0.3594,0.6719,3.11,-10.37,20.18
2195,782953086,0.7363,0.3599,0.6685,3.60,-10.24,19.82
2196,782958087,0.7397,0.3564,0.6753,3.84,-10.37,19.57
2197,782963086,0.7397,0.3511,0.6626,3.84,-10.43,19.27
2198,782968087,0.7388,0.3530,0.6641,3.60,-10.18,18.90
2199,782973089,0.7417,0.3477,0.6660,3.17,-10.24,18.60
2200,782978087,0.7417,0.3491,0.6558,2.68,-10.24,18.35
2201,782983086,0.7378,0.3472,0.6602,2.13,-10.30,18.05
2202,782988085,0.7446,0.3452,0.6621,1.52,-10.24,17.62
2203,782993089,0.7417,0.3408,0.6660,1.22,-10.24,17.50
