# skilleye imu stream v1
# device=xiao_esp32c6 imu=mpu6050 addr=0x68
# rate_hz=200 accel_range_g=16 gyro_range_dps=2000 dlpf_hz=94
# units: accel in g, gyro in deg/s, t_us in microseconds since boot (monotonic)
# no shared clock with the camera -- tap the racket once before each take
# so both recordings share a spike to align on
seq,t_us,ax,ay,az,gx,gy,gz
0,65090444,0.7202,0.6812,0.0757,1.10,-3.23,-2.44
1,65095445,0.7202,0.6841,0.0732,1.04,-3.41,-2.38
2,65100442,0.7212,0.6816,0.0698,1.10,-3.48,-2.26
3,65105440,0.7222,0.6807,0.0835,1.10,-3.66,-2.26
4,65110443,0.7271,0.6865,0.0776,1.22,-3.90,-2.07
5,65115442,0.7290,0.6831,0.0664,1.34,-4.09,-2.07
6,65120443,0.7251,0.6826,0.0688,1.65,-4.15,-1.95
7,65125441,0.7256,0.6855,0.0645,1.95,-4.45,-1.77
8,65130443,0.7266,0.6826,0.0635,2.07,-4.45,-1.65
9,65135442,0.7266,0.6782,0.0684,2.38,-4.70,-1.46
10,65140443,0.7275,0.6816,0.0571,2.68,-4.82,-1.28
11,65145441,0.7266,0.6821,0.0605,2.87,-4.88,-1.22
12,65150442,0.7310,0.6841,0.0562,3.11,-5.06,-1.04
13,65155442,0.7256,0.6841,0.0562,3.54,-5.06,-0.91
14,65160442,0.7280,0.6870,0.0547,3.72,-5.18,-0.55
15,65165503,0.7256,0.6836,0.0513,4.09,-5.30,-0.43
16,65170440,0.7290,0.6841,0.0542,4.39,-5.49,-0.37
17,65175442,0.7324,0.6885,0.0552,4.88,-5.49,-0.24
18,65180441,0.7305,0.6860,0.0581,5.18,-5.73,0.06
19,65185671,0.7354,0.6904,0.0537,5.67,-5.49,0.12
20,65190441,0.7349,0.6938,0.0483,5.98,-5.73,0.30
21,65195443,0.7373,0.6953,0.0508,6.34,-5.67,0.43
22,65200442,0.7349,0.6963,0.0449,6.71,-5.79,0.49
23,65205442,0.7363,0.7021,0.0425,7.01,-5.73,0.67
24,65210442,0.7422,0.7012,0.0469,7.26,-5.67,0.73
25,65215561,0.7393,0.6987,0.0449,7.50,-5.79,0.79
26,65220442,0.7378,0.6992,0.0444,7.68,-5.91,0.85
27,65225443,0.7402,0.7002,0.0376,7.80,-5.85,1.04
28,65230442,0.7456,0.6997,0.0366,7.74,-5.79,1.10
29,65235441,0.7417,0.6987,0.0396,7.80,-5.91,1.16
30,65240443,0.7417,0.6987,0.0322,7.62,-5.98,1.16
31,65245440,0.7446,0.7012,0.0391,7.38,-5.98,1.46
32,65250442,0.7485,0.6963,0.0337,7.20,-6.04,1.52
33,65255443,0.7490,0.6982,0.0327,6.89,-6.10,1.59
34,65260442,0.7524,0.7017,0.0293,6.59,-6.28,1.77
35,65265440,0.7490,0.6978,0.0283,6.16,-6.28,1.71
36,65270441,0.7505,0.6963,0.0220,5.85,-6.40,1.95
37,65275440,0.7480,0.6953,0.0264,5.43,-6.28,2.01
38,65280441,0.7520,0.6943,0.0269,5.12,-6.52,2.26
39,65285442,0.7466,0.6919,0.0210,4.76,-6.46,2.38
40,65290442,0.7524,0.6914,0.0273,4.45,-6.46,2.56
41,65295440,0.7446,0.6919,0.0312,4.09,-6.52,2.56
42,65300440,0.7490,0.6899,0.0205,4.02,-6.46,2.87
43,65305442,0.7461,0.6929,0.0254,3.66,-6.46,3.11
44,65310443,0.7427,0.6909,0.0269,3.48,-6.40,3.29
45,65315441,0.7451,0.6885,0.0225,3.41,-6.34,3.41
46,65320441,0.7446,0.6919,0.0200,3.29,-6.28,3.66
47,65325443,0.7451,0.6904,0.0210,3.23,-6.16,3.84
48,65330442,0.7388,0.6904,0.0259,3.35,-6.10,4.02
49,65335588,0.7412,0.6929,0.0186,3.48,-6.04,4.27
50,65340442,0.7373,0.6948,0.0205,3.66,-5.85,4.39
51,65345441,0.7373,0.6919,0.0205,3.84,-5.73,4.57
52,65350442,0.7354,0.6978,0.0200,4.21,-5.49,4.76
53,65355442,0.7349,0.6963,0.0190,4.51,-5.49,4.94
54,65360442,0.7329,0.7007,0.0229,4.94,-5.30,5.06
55,65365443,0.7324,0.6948,0.0186,5.24,-5.12,5.24
56,65370442,0.7310,0.6987,0.0269,5.73,-5.00,5.30
57,65375440,0.7314,0.6987,0.0278,6.10,-4.76,5.43
58,65380440,0.7275,0.7002,0.0205,6.46,-4.45,5.61
59,65385442,0.7256,0.6973,0.0220,6.83,-4.33,5.73
60,65390442,0.7222,0.6987,0.0234,7.26,-4.15,5.91
61,65395443,0.7192,0.6938,0.0215,7.50,-3.96,5.85
62,65400442,0.7144,0.6948,0.0308,7.87,-3.78,5.98
63,65405440,0.7173,0.6963,0.0283,8.11,-3.54,6.10
64,65410442,0.7153,0.6924,0.0288,8.35,-3.17,6.16
65,65415444,0.7158,0.6943,0.0225,8.66,-2.93,6.10
66,65420440,0.7168,0.6924,0.0278,8.78,-2.87,6.16
67,65425442,0.7173,0.6978,0.0288,8.90,-2.62,6.04
68,65430441,0.7192,0.6938,0.0337,9.09,-2.38,5.85
69,65435442,0.7241,0.6978,0.0317,9.27,-2.13,5.73
70,65440440,0.7217,0.7041,0.0303,9.21,-2.07,5.43
71,65445442,0.7222,0.7041,0.0273,9.33,-1.89,5.00
72,65450448,0.7188,0.6997,0.0269,9.21,-1.89,4.70
73,65455442,0.7188,0.7012,0.0317,9.27,-1.77,4.21
74,65460442,0.7212,0.6973,0.0347,9.15,-1.46,3.90
75,65465440,0.7188,0.6968,0.0381,9.21,-1.28,3.41
76,65470442,0.7109,0.6904,0.0356,9.15,-1.22,3.05
77,65475442,0.7065,0.6895,0.0415,9.09,-0.91,2.50
78,65480441,0.7036,0.6826,0.0356,9.09,-0.73,2.20
79,65485442,0.6992,0.6807,0.0352,9.27,-0.49,1.71
80,65490440,0.6963,0.6782,0.0376,9.51,-0.18,1.28
81,65495442,0.6953,0.6743,0.0435,9.94,0.24,0.98
82,65500441,0.6938,0.6733,0.0444,10.49,0.61,0.55
83,65505442,0.6885,0.6694,0.0537,11.22,1.22,0.12
84,65510440,0.6919,0.6777,0.0503,12.01,1.71,-0.18
85,65515442,0.6851,0.6753,0.0596,13.05,2.38,-0.61
86,65520441,0.6890,0.6772,0.0552,14.21,3.11,-1.16
87,65525442,0.6807,0.6802,0.0610,15.00,3.66,-1.71
88,65530442,0.6821,0.6787,0.0562,16.10,4.45,-2.20
89,65535442,0.6807,0.6812,0.0571,16.95,5.18,-2.87
90,65540441,0.6792,0.6763,0.0522,17.99,6.10,-3.48
91,65545442,0.6802,0.6807,0.0557,18.96,6.95,-4.15
92,65550440,0.6826,0.6782,0.0425,19.76,7.74,-4.94
93,65555442,0.6841,0.6768,0.0503,20.61,8.60,-5.67
94,65560442,0.6807,0.6748,0.0488,21.28,9.57,-6.46
95,65565442,0.6821,0.6704,0.0557,21.95,10.55,-7.26
96,65570441,0.6865,0.6685,0.0562,22.50,11.52,-8.05
97,65575888,0.6890,0.6655,0.0557,22.93,12.50,-8.84
98,65580440,0.6934,0.6685,0.0596,23.11,13.54,-9.63
99,65585442,0.6948,0.6714,0.0464,23.29,14.51,-10.43
100,65590458,0.6968,0.6792,0.0376,23.41,15.79,-11.59
101,65595444,0.6973,0.6807,0.0391,23.35,16.65,-12.26
102,65600442,0.7056,0.6792,0.0376,23.41,17.68,-13.05
103,65605442,0.7080,0.6890,0.0361,23.35,18.60,-13.96
104,65610440,0.7134,0.6973,0.0332,23.35,19.70,-14.94
105,65615442,0.7173,0.7065,0.0254,23.11,20.73,-15.85
106,65620441,0.7217,0.7144,0.0269,22.80,21.83,-16.95
107,65625442,0.7246,0.7212,0.0225,22.50,22.80,-18.05
108,65630442,0.7363,0.7256,0.0195,22.01,23.72,-19.39
109,65635440,0.7437,0.7305,0.0166,21.40,24.76,-20.43
110,65640444,0.7505,0.7319,0.0103,20.67,25.73,-21.46
111,65645442,0.7495,0.7358,-0.0015,19.82,26.65,-22.56
112,65650442,0.7495,0.7383,0.0024,18.78,27.62,-23.66
113,65655443,0.7432,0.7373,-0.0161,17.62,28.66,-24.76
114,65660442,0.7393,0.7334,-0.0127,16.28,29.63,-25.67
115,65665959,0.7363,0.7310,-0.0195,14.70,30.61,-26.59
116,65670442,0.7319,0.7310,-0.0220,13.11,31.22,-27.32
117,65675442,0.7256,0.7334,-0.0327,11.16,32.26,-27.80
118,65680443,0.7197,0.7368,-0.0430,9.15,33.23,-28.54
119,65685440,0.7153,0.7397,-0.0522,7.20,34.21,-28.96
120,65690546,0.7217,0.7505,-0.0635,4.82,35.18,-29.76
121,65695907,0.7227,0.7554,-0.0684,3.11,36.16,-30.18
122,65700442,0.7197,0.7632,-0.0747,1.83,36.77,-30.61
123,65705441,0.7266,0.7686,-0.0757,0.18,37.32,-30.91
124,65710442,0.7275,0.7690,-0.0776,-1.28,38.23,-31.10
125,65715443,0.7422,0.7661,-0.0820,-2.68,39.02,-31.28
126,65720442,0.7466,0.7705,-0.0933,-3.84,39.76,-31.34
127,65725440,0.7559,0.7686,-0.0962,-5.12,40.37,-31.40
128,65730441,0.7598,0.7676,-0.1089,-6.10,40.85,-31.28
129,65735447,0.7603,0.7744,-0.1323,-7.01,41.46,-31.04
130,65740442,0.7544,0.7759,-0.1387,-7.50,41.77,-30.73
131,65745441,0.7568,0.7793,-0.1426,-7.80,42.01,-30.30
132,65750440,0.7593,0.7876,-0.1543,-7.80,42.32,-29.88
133,65755601,0.7637,0.7944,-0.1636,-7.56,42.50,-29.21
134,65760443,0.7656,0.8042,-0.1655,-7.13,42.56,-28.90
135,65765442,0.7749,0.8052,-0.1709,-6.28,42.74,-28.35
136,65770441,0.7754,0.8115,-0.1768,-5.30,42.74,-27.87
137,65775444,0.7725,0.8140,-0.1753,-4.09,42.99,-27.07
138,65780441,0.7871,0.8169,-0.1685,-2.62,42.93,-26.40
139,65785440,0.7876,0.8232,-0.1807,-0.98,42.93,-25.61
140,65790442,0.7671,0.9038,-0.2358,1.16,42.68,-24.94
141,65795444,0.7861,0.8789,-0.2158,4.57,42.26,-24.82
142,65800441,0.8340,0.8179,-0.1934,8.23,41.77,-24.21
143,65805442,0.8525,0.7671,-0.1782,11.77,41.46,-23.05
144,65810441,0.8301,0.7505,-0.1753,15.37,41.28,-21.65
145,65815444,0.7915,0.7666,-0.2173,18.90,40.91,-20.24
146,65820441,0.7900,0.7607,-0.1968,22.44,40.61,-18.78
147,65825442,0.7998,0.7593,-0.1812,25.98,40.43,-17.20
148,65830441,0.7964,0.7520,-0.1787,29.02,40.30,-15.49
149,65835442,0.7905,0.7373,-0.2002,31.59,40.18,-13.66
150,65840441,0.8018,0.7373,-0.1938,33.78,40.06,-11.77
151,65845442,0.8120,0.7471,-0.1958,35.85,40.00,-9.82
152,65850441,0.8130,0.7495,-0.2217,37.62,39.94,-7.99
153,65855442,0.8081,0.7500,-0.2339,39.21,39.82,-5.98
154,65860442,0.8125,0.7510,-0.2349,40.73,39.76,-4.02
155,65865442,0.8232,0.7651,-0.2368,42.32,39.57,-2.07
156,65870441,0.8223,0.7690,-0.2437,44.09,39.33,-0.49
157,65875442,0.9595,0.6035,-0.4443,46.40,37.87,2.13
158,65880441,1.4067,0.0469,-1.6475,49.45,22.68,11.46
159,65885444,1.4868,0.1938,-0.4517,51.83,2.38,27.68
160,65890441,1.0361,0.5308,0.0146,59.02,-7.80,41.71
161,65895442,0.7241,0.7393,0.1343,69.51,-10.30,50.30
162,65900441,0.7349,0.8955,0.1250,81.95,-8.41,54.70
163,65905442,0.8555,0.9702,0.0576,96.95,-3.48,57.38
164,65910442,0.8657,0.9468,0.0044,105.61,-0.18,58.35
165,65915442,0.7866,0.9028,-0.1191,114.27,3.54,59.45
166,65920442,0.6880,0.8950,-0.2402,121.22,6.83,60.55
167,65925441,0.6206,0.9150,-0.3306,126.46,9.70,61.40
168,65930442,0.6104,0.9346,-0.3491,131.04,12.20,61.77
169,65935443,0.6162,0.9419,-0.3442,136.46,15.06,61.95
170,65940442,0.6143,0.9512,-0.2866,140.18,18.11,61.95
171,65945441,0.6069,0.9482,-0.2192,142.50,21.89,61.71
172,65950443,0.6182,0.9468,-0.2358,143.35,25.85,61.28
173,65955442,0.6313,0.9346,-0.2661,142.87,29.33,60.79
174,65960443,0.6333,0.8994,-0.2505,141.46,32.56,60.37
175,65965441,0.6362,0.8413,-0.0562,138.54,37.20,60.37
176,65970442,0.6738,0.8574,-0.3950,134.70,40.98,60.30
177,65975442,0.6880,0.8979,-0.3398,128.84,42.93,59.15
178,65980442,0.7163,0.9263,-0.2417,123.29,45.24,57.01
179,65985441,0.7305,0.8853,-0.2842,115.12,46.95,54.27
180,65990443,0.8125,0.8394,-0.3608,106.28,47.13,51.83
181,65995442,0.8354,0.8501,-0.3213,97.50,46.65,49.82
182,66000442,0.8071,0.8818,-0.3232,89.57,46.28,47.62
183,66005441,0.7925,0.8716,-0.4185,84.94,45.12,45.61
184,66010442,0.8042,0.8423,-0.2500,83.41,44.39,44.51
185,66015442,0.8447,0.7559,-0.2178,84.51,44.39,44.51
186,66020442,0.8765,0.6543,-0.2061,86.71,44.76,46.46
187,66025441,0.9150,0.6436,-0.1611,90.67,45.79,49.45
188,66030442,0.9253,0.6499,-0.1831,96.16,47.01,53.23
189,66035442,0.9395,0.6899,-0.2036,103.66,48.35,56.95
190,66040442,0.9448,0.7324,-0.2456,112.74,49.76,60.30
191,66045441,0.9434,0.7402,-0.2681,123.96,51.46,63.66
192,66050442,0.9175,0.7271,-0.2808,136.28,53.48,66.89
193,66055442,0.8823,0.7124,-0.3003,150.73,55.91,70.30
194,66060442,0.8301,0.6992,-0.3257,166.10,58.60,73.78
195,66065441,0.7764,0.6899,-0.3384,182.13,61.40,76.83
196,66070442,0.7275,0.6694,-0.3511,197.68,64.15,79.39
197,66075442,0.7026,0.6362,-0.3594,212.26,66.89,81.59
198,66080442,0.7153,0.6035,-0.3716,225.00,69.21,83.17
199,66085441,0.7480,0.5698,-0.3774,235.30,71.40,84.27
200,66090443,0.7915,0.5249,-0.3706,243.17,73.11,85.06
201,66095442,0.8076,0.5034,-0.3594,248.78,74.94,84.94
202,66100442,0.8047,0.4761,-0.3145,252.01,76.52,83.84
203,66105441,0.7979,0.4414,-0.2837,252.38,78.29,82.62
204,66110442,0.8066,0.4072,-0.2524,250.18,79.94,80.73
205,66115442,0.8867,0.3643,-0.2129,245.12,81.71,78.60
206,66120443,0.9053,0.3228,-0.1069,236.83,82.93,76.22
207,66125443,0.9180,0.2803,-0.1270,225.67,84.51,73.41
208,66130442,0.9062,0.2324,-0.1162,212.26,84.21,70.67
209,66135442,0.8955,0.2310,-0.0723,196.83,83.54,67.38
210,66140442,0.9224,0.1963,-0.0508,179.45,82.99,64.02
211,66145441,0.9409,0.1709,-0.0654,160.79,82.80,60.85
212,66150442,0.9429,0.1592,-0.0908,141.59,82.50,57.68
213,66155442,0.9434,0.1572,-0.0840,122.44,81.40,54.88
214,66160442,0.9551,0.1646,-0.0938,103.23,80.49,52.13
215,66165732,0.9653,0.1724,-0.1143,84.70,79.33,49.39
216,66170442,0.9717,0.1758,-0.1265,67.20,77.93,46.83
217,66175442,0.9614,0.1758,-0.1323,50.98,76.52,44.57
218,66180442,0.9624,0.1724,-0.1431,36.52,75.18,42.44
219,66185442,0.9443,0.1650,-0.1582,23.90,73.90,40.67
220,66190440,0.9370,0.1807,-0.1582,13.78,72.50,39.09
221,66195442,0.9321,0.1738,-0.1646,5.79,71.46,37.74
222,66200442,0.9194,0.1680,-0.1621,0.61,70.49,36.83
223,66205442,0.9121,0.1724,-0.1602,-2.01,69.70,36.10
224,66210442,0.8965,0.1895,-0.1558,-2.99,68.84,35.30
225,66215441,0.8306,0.2275,-0.1758,-1.83,68.17,34.57
226,66220442,0.6455,0.3433,-0.2671,1.28,67.13,33.35
227,66225641,0.7065,0.2891,-0.2339,8.05,66.04,32.68
228,66230442,0.7705,0.2861,-0.2319,14.27,65.91,33.05
229,66235441,0.7471,0.3188,-0.2998,23.35,65.61,33.54
230,66240442,0.7383,0.2856,-0.3105,34.02,65.12,34.27
231,66245442,0.7690,0.2549,-0.3037,47.80,64.70,35.06
232,66250442,0.7500,0.2559,-0.3130,57.13,64.27,35.43
233,66255442,0.6914,0.2612,-0.3403,68.66,63.48,35.49
234,66260442,0.6572,0.2520,-0.3481,79.70,62.26,35.06
235,66265443,0.6929,0.2393,-0.3213,90.55,61.40,34.45
236,66270442,0.7808,0.2456,-0.2812,100.91,60.67,33.78
237,66275442,0.8608,0.2476,-0.2471,110.43,60.43,32.99
238,66280443,0.9180,0.2451,-0.2192,118.84,60.06,31.95
239,66285442,0.9648,0.2568,-0.1924,125.98,59.82,30.73
240,66290441,0.9897,0.2910,-0.1689,132.68,59.51,29.15
241,66295442,1.0249,0.3179,-0.1558,139.63,59.33,27.38
242,66300442,1.0693,0.3389,-0.1338,145.98,59.39,25.55
243,66305442,1.1182,0.3823,-0.1206,152.93,59.45,23.90
244,66310441,1.1660,0.4155,-0.0991,159.94,59.57,22.32
245,66315442,1.2114,0.4438,-0.0537,167.13,60.00,20.43
246,66320440,1.2402,0.4648,-0.0195,173.90,60.67,18.72
247,66325533,1.2236,0.4893,0.0142,180.12,61.16,17.20
248,66330441,1.1797,0.5356,0.0332,185.79,61.71,15.30
249,66335442,1.0815,0.5493,-0.0190,190.37,61.83,13.35
250,66340441,0.9873,0.5493,-0.0107,193.66,61.71,11.71
251,66345442,0.9365,0.5381,-0.0493,195.67,61.83,9.94
252,66350553,0.9131,0.5107,-0.1211,196.28,61.46,8.54
253,66355442,0.8960,0.4966,-0.1357,196.04,61.34,7.44
254,66360441,0.8755,0.4805,-0.1533,194.82,61.34,6.34
255,66365442,0.8633,0.4785,-0.1860,192.93,61.65,5.49
256,66370530,0.8525,0.4678,-0.2261,190.30,61.89,4.63
257,66375442,0.8521,0.4668,-0.2314,187.26,62.32,3.78
258,66380441,0.8506,0.4751,-0.2261,183.66,62.80,2.87
259,66385442,0.8184,0.4800,-0.2329,179.63,63.66,1.89
260,66390441,0.8242,0.4922,-0.2847,175.24,64.39,0.55
261,66395443,0.8394,0.4800,-0.2324,170.91,65.24,-0.61
262,66400440,0.8457,0.4868,-0.2275,166.10,65.85,-1.89
263,66405441,0.8320,0.4961,-0.2554,161.10,66.65,-3.11
264,66410444,0.7979,0.5034,-0.2397,155.73,67.26,-4.51
265,66415442,0.7661,0.5044,-0.2163,150.30,68.11,-5.73
266,66420442,0.7036,0.5020,-0.2349,144.70,68.90,-6.83
267,66425441,0.7207,0.4858,-0.2549,138.72,69.63,-7.80
268,66430442,0.7349,0.4893,-0.2607,131.89,70.24,-8.66
269,66435442,0.7959,0.4614,-0.2363,126.52,70.49,-9.27
270,66440442,0.8442,0.4561,-0.2534,119.51,70.49,-9.21
271,66445441,0.8442,0.4663,-0.2383,113.17,70.49,-9.21
272,66450442,0.8042,0.4653,-0.2124,107.50,71.04,-9.09
273,66455442,0.7681,0.4673,-0.2290,102.56,71.83,-8.84
274,66460442,0.7510,0.4746,-0.2695,98.66,72.68,-8.41
275,66465443,0.7500,0.4766,-0.2822,95.61,73.35,-8.17
276,66470442,0.7588,0.4810,-0.2632,93.41,74.27,-7.93
277,66475442,0.7583,0.4722,-0.2764,91.83,75.24,-7.56
278,66480442,0.7607,0.4736,-0.3057,91.16,75.98,-7.26
279,66485750,0.7725,0.4790,-0.3047,91.46,76.34,-6.83
280,66490443,0.7783,0.4814,-0.3247,92.62,76.89,-6.46
281,66495441,0.7778,0.4824,-0.3408,94.76,77.44,-5.91
282,66500443,0.7749,0.4863,-0.3564,97.99,77.74,-5.18
283,66505812,0.7715,0.4897,-0.3506,102.01,77.99,-4.45
284,66510442,0.7749,0.4863,-0.3486,106.83,78.48,-3.72
285,66515442,0.7686,0.4873,-0.3491,112.01,78.78,-2.80
286,66520442,0.7603,0.4897,-0.3608,117.93,79.02,-1.83
287,66525441,0.7466,0.4966,-0.3545,124.21,79.27,-0.85
288,66530442,0.7407,0.5059,-0.3560,130.73,79.33,-0.12
289,66535442,0.7275,0.5142,-0.3516,136.65,79.63,0.43
290,66540442,0.7085,0.5186,-0.3403,142.93,79.70,0.55
291,66545442,0.6909,0.5288,-0.3276,148.90,79.94,0.49
292,66550442,0.6777,0.5234,-0.3174,154.39,80.12,-0.12
293,66555442,0.6704,0.5137,-0.2954,158.90,80.49,-0.85
294,66560444,0.6636,0.5020,-0.2905,162.62,81.16,-1.59
295,66565442,0.6646,0.4868,-0.2842,165.67,81.83,-2.32
296,66570442,0.6636,0.4766,-0.2788,167.74,82.32,-2.99
297,66575899,0.6709,0.4565,-0.2725,168.90,82.80,-3.78
298,66580442,0.6855,0.4624,-0.2681,169.45,84.82,-4.51
299,66585442,0.6895,0.4561,-0.2617,169.51,84.45,-5.18
300,66590442,0.6860,0.4438,-0.2598,168.78,85.73,-6.04
301,66595886,0.6855,0.4370,-0.2686,167.99,85.85,-6.77
302,66600443,0.6733,0.4365,-0.2632,166.89,87.44,-7.44
303,66605441,0.6616,0.4292,-0.2568,165.79,89.51,-8.23
304,66610441,0.6421,0.4233,-0.2783,165.12,91.04,-8.90
305,66616504,0.6416,0.4292,-0.2603,165.00,92.80,-9.94
306,66620444,0.6465,0.4346,-0.2368,165.00,94.27,-10.67
307,66625442,0.6484,0.4287,-0.2378,165.18,95.85,-11.77
308,66630442,0.6396,0.4380,-0.2393,165.85,97.26,-12.62
309,66635441,0.6270,0.4473,-0.2241,166.22,98.72,-13.78
310,66640442,0.6226,0.4497,-0.2144,166.95,100.00,-15.00
311,66645442,0.6128,0.4565,-0.2012,167.68,101.28,-16.10
312,66650444,0.6025,0.4609,-0.1968,168.35,102.50,-17.44
313,66655443,0.6089,0.4595,-0.1807,169.09,103.23,-18.72
314,66660442,0.6182,0.4590,-0.1719,169.76,104.27,-19.94
315,66665442,0.6226,0.4624,-0.1577,170.61,104.82,-21.34
316,66670443,0.6240,0.4585,-0.1504,171.65,105.55,-22.56
317,66675441,0.6182,0.4619,-0.1396,172.74,105.79,-24.02
318,66680442,0.6187,0.4663,-0.1465,173.96,106.10,-25.55
319,66685442,0.6128,0.4629,-0.1353,175.43,106.10,-27.26
320,66690441,0.6147,0.4575,-0.1270,177.07,105.91,-29.02
321,66695440,0.6079,0.4507,-0.1284,179.33,105.49,-30.73
322,66700440,0.5879,0.4487,-0.1274,181.77,104.88,-32.50
323,66705441,0.5918,0.4492,-0.1138,184.94,104.21,-34.39
324,66710442,0.5972,0.4429,-0.0889,188.11,103.29,-36.52
325,66715442,0.6030,0.4473,-0.0767,191.34,102.56,-38.60
326,66720441,0.5977,0.4482,-0.0552,194.51,101.65,-40.85
327,66725442,0.5884,0.4478,-0.0586,197.26,100.49,-43.11
328,66730441,0.5869,0.4438,-0.0488,199.33,99.57,-45.00
329,66735442,0.5815,0.4424,-0.0396,202.26,97.56,-47.56
330,66740441,0.5762,0.4395,-0.0347,203.96,96.10,-49.39
331,66745444,0.5713,0.4355,-0.0205,205.85,94.33,-51.59
332,66750441,0.5620,0.4375,-0.0181,207.20,92.32,-53.90
333,66755442,0.5391,0.4346,-0.0186,207.74,90.18,-56.16
334,66760441,0.5205,0.4297,-0.0254,207.74,87.80,-58.48
335,66765442,0.4951,0.4307,-0.0278,206.65,85.73,-60.85
336,66770441,0.4678,0.3608,-0.0601,204.45,84.39,-63.35
337,66775442,0.4634,0.3750,-0.0620,200.61,80.61,-66.10
338,66780442,0.4600,0.3687,-0.0020,195.91,78.17,-68.84
339,66785442,0.4795,0.4028,-0.0054,190.91,75.67,-71.83
340,66790441,0.4946,0.4126,-0.0312,185.98,73.17,-74.76
341,66795442,0.5005,0.4150,0.0034,181.34,70.91,-77.74
342,66800441,0.4907,0.4136,0.0239,176.71,68.54,-80.79
343,66805440,0.4922,0.4185,0.0103,172.68,66.52,-83.96
344,66810440,0.4658,0.4297,0.0044,169.09,64.39,-86.95
345,66815442,0.4482,0.4438,0.0195,165.61,62.20,-89.94
346,66820441,0.4565,0.4565,-0.0034,163.05,60.00,-93.05
347,66825962,0.3770,0.4409,-0.0210,159.88,57.32,-96.16
348,66830446,0.3447,0.4717,-0.0146,157.87,55.55,-98.23
349,66835442,0.3438,0.4878,-0.0151,155.06,53.35,-100.73
350,66840442,0.3633,0.5000,-0.0317,152.44,51.10,-103.54
351,66845442,0.3652,0.5078,-0.0171,149.63,48.90,-106.40
352,66850442,0.3506,0.5127,0.0010,146.77,46.83,-109.45
353,66855442,0.3296,0.5312,0.0054,143.90,44.70,-112.50
354,66860442,0.3213,0.5352,0.0264,140.91,42.62,-115.67
355,66865442,0.3252,0.5503,0.0474,137.99,40.55,-118.96
356,66870442,0.3281,0.5649,0.0630,135.06,38.41,-122.01
357,66875440,0.3213,0.5854,0.0688,131.59,36.52,-125.30
358,66880442,0.3066,0.6060,0.0791,128.72,34.88,-128.54
359,66885442,0.2915,0.6333,0.0981,128.78,32.99,-131.65
360,66890442,0.2788,0.6475,0.1138,128.54,31.34,-134.82
361,66895442,0.2568,0.6631,0.1279,127.62,29.63,-137.74
362,66900442,0.2329,0.6719,0.1465,127.13,27.99,-140.37
363,66905518,0.2065,0.6855,0.1646,129.39,26.46,-142.80
364,66910442,0.1709,0.6909,0.1792,129.82,24.88,-144.88
365,66915634,0.1431,0.7017,0.1841,133.11,23.11,-146.65
366,66920443,0.1216,0.7163,0.2021,136.71,21.34,-148.11
367,66925442,0.1104,0.7314,0.1929,140.91,19.57,-149.33
368,66930442,0.0957,0.7529,0.1772,145.79,17.32,-150.55
369,66935442,0.0806,0.7778,0.1641,150.79,15.06,-151.59
370,66940442,0.0605,0.7979,0.1475,156.16,12.32,-152.32
371,66945442,0.0542,0.8188,0.1309,161.95,9.27,-152.87
372,66950442,0.0444,0.8384,0.1201,167.80,5.79,-153.17
373,66955442,0.0386,0.8608,0.1050,173.54,2.50,-153.17
374,66960442,0.0244,0.8828,0.0972,179.21,-1.40,-153.11
375,66965442,0.0132,0.9155,0.0908,184.57,-5.06,-152.62
376,66970442,-0.0029,0.9370,0.0918,189.57,-8.96,-151.95
377,66975442,-0.0283,0.9585,0.0918,193.90,-12.93,-151.16
378,66980442,-0.0518,0.9834,0.1001,197.13,-16.95,-150.24
379,66985443,-0.0933,0.9932,0.1030,199.39,-21.04,-148.90
380,66990442,-0.1328,1.0034,0.1138,199.94,-24.70,-147.56
381,66995442,-0.1646,1.0117,0.1338,199.09,-28.60,-146.10
382,67000442,-0.1929,1.0278,0.1431,196.46,-32.50,-144.39
383,67005440,-0.2305,1.0381,0.1636,192.26,-36.22,-142.74
384,67010441,-0.2666,1.0435,0.1836,186.34,-39.70,-141.16
385,67016217,-0.3062,1.0513,0.1997,177.07,-43.96,-139.27
386,67020442,-0.3345,1.0610,0.2158,169.76,-46.77,-138.05
387,67025445,-0.3735,1.0762,0.2261,159.51,-50.18,-136.52
388,67030441,-0.4121,1.0972,0.2373,148.84,-53.48,-135.18
389,67035442,-0.4458,1.1138,0.2339,137.74,-57.01,-133.90
390,67040441,-0.4771,1.1318,0.2427,128.05,-60.30,-132.44
391,67045442,-0.5166,1.1494,0.2598,117.50,-63.84,-131.04
392,67050441,-0.5518,1.1621,0.2695,108.41,-67.20,-129.33
393,67055442,-0.5845,1.1641,0.2769,100.49,-70.61,-127.56
394,67060441,-0.6138,1.1758,0.2891,94.33,-74.15,-125.18
395,67065442,-0.6465,1.1855,0.2920,89.76,-78.17,-122.99
396,67070441,-0.6704,1.1880,0.3057,86.52,-82.20,-120.43
397,67075442,-0.6938,1.1895,0.3179,84.76,-86.77,-117.44
398,67080441,-0.7197,1.1870,0.3311,84.21,-91.71,-114.51
399,67085442,-0.7451,1.1826,0.3359,84.39,-97.26,-111.10
400,67090441,-0.7705,1.1826,0.3462,85.37,-103.17,-107.68
401,67095442,-0.8101,1.1851,0.3467,86.65,-109.88,-103.96
402,67100441,-0.8477,1.1704,0.3452,88.23,-117.20,-100.06
403,67105443,-0.8774,1.1670,0.3472,89.94,-125.06,-95.85
404,67110442,-0.9229,1.1421,0.3545,91.65,-133.54,-91.52
405,67115443,-0.9106,1.1406,0.3384,93.48,-142.68,-86.95
406,67120442,-0.9546,1.1118,0.3789,94.76,-152.26,-82.26
407,67125445,-1.0479,1.0815,0.3330,95.91,-162.20,-77.56
408,67130441,-1.0894,1.0352,0.3252,96.34,-172.80,-72.50
409,67135442,-1.0801,1.0435,0.2974,97.07,-183.78,-67.74
410,67140441,-1.1313,1.0190,0.3047,97.99,-195.37,-62.99
411,67145442,-1.1592,1.0088,0.2544,99.09,-207.26,-58.11
412,67150441,-1.2070,1.0137,0.2246,101.65,-220.00,-53.23
413,67155442,-1.2607,1.0264,0.1943,106.34,-232.87,-48.48
414,67160441,-1.3086,1.0342,0.1548,112.87,-246.22,-43.11
415,67165442,-1.3608,1.0376,0.1255,120.18,-260.00,-37.74
416,67170441,-1.4019,1.0225,0.0767,128.66,-274.21,-31.77
417,67175442,-1.4731,1.0186,0.0562,135.98,-288.23,-25.55
418,67180441,-1.5645,0.9990,0.0317,144.21,-302.20,-18.66
419,67185443,-1.6401,0.9746,0.0034,151.28,-316.16,-11.40
420,67190440,-1.7012,0.9385,-0.0156,157.20,-330.18,-3.60
421,67195445,-1.7852,0.9185,-0.0786,162.01,-343.96,4.45
422,67200441,-1.8809,0.8882,-0.1230,165.12,-357.68,12.99
423,67205442,-1.9458,0.8545,-0.1655,167.07,-371.16,21.83
424,67210441,-2.0376,0.8228,-0.2251,168.11,-384.63,30.91
425,67215441,-2.1304,0.7964,-0.2603,168.23,-397.87,40.30
426,67220442,-2.2085,0.7661,-0.3042,168.17,-410.73,49.57
427,67225441,-2.3135,0.7554,-0.3667,168.23,-423.54,59.21
428,67230442,-2.4287,0.7412,-0.4233,168.78,-436.04,68.84
429,67235442,-2.5381,0.7324,-0.4775,170.00,-447.74,78.66
430,67240443,-2.6514,0.7300,-0.5454,171.89,-459.57,87.87
431,67245442,-2.7666,0.7202,-0.5981,174.57,-470.55,98.78
432,67250442,-2.8818,0.7158,-0.6528,177.32,-481.04,109.51
433,67255442,-3.0039,0.7041,-0.7012,180.00,-490.73,120.37
434,67260442,-3.1201,0.6958,-0.7480,181.89,-499.57,131.52
435,67265442,-3.2305,0.6895,-0.7949,183.23,-507.80,143.23
436,67270442,-3.3569,0.6929,-0.8408,183.29,-515.06,155.12
437,67275442,-3.5181,0.6821,-0.8989,182.56,-522.13,167.07
438,67280442,-3.6450,0.6895,-0.9355,181.34,-528.35,178.96
439,67285442,-3.7852,0.6997,-0.9941,179.82,-534.09,191.22
440,67290442,-3.9155,0.7090,-1.0391,177.87,-539.39,203.48
441,67295443,-4.0386,0.7227,-1.0869,175.98,-544.15,215.85
442,67300442,-4.1475,0.7319,-1.1250,174.27,-548.84,228.41
443,67305440,-4.2373,0.7441,-1.1519,173.54,-552.26,238.60
444,67310442,-4.3472,0.7598,-1.1948,173.78,-556.16,251.40
445,67315443,-4.4580,0.7861,-1.2305,174.70,-559.39,264.39
446,67320441,-4.5767,0.8154,-1.2744,176.95,-562.32,277.62
447,67325442,-4.6992,0.8247,-1.3101,179.57,-564.82,290.91
448,67330442,-4.8198,0.8662,-1.3296,182.38,-566.77,304.33
449,67335442,-4.9351,0.9067,-1.3740,185.00,-568.35,317.62
450,67340441,-5.0439,0.9521,-1.4102,186.59,-569.51,330.85
451,67345442,-5.1553,0.9922,-1.4331,187.26,-570.55,343.90
452,67350441,-5.2935,1.0386,-1.4814,185.79,-571.28,356.52
453,67355442,-5.4209,1.0776,-1.5024,182.07,-571.77,368.90
454,67360441,-5.5034,1.1133,-1.5132,176.16,-571.89,381.04
455,67365442,-5.5913,1.1475,-1.5205,168.66,-571.89,392.80
456,67370442,-5.6807,1.1826,-1.5234,160.06,-571.10,404.15
457,67375440,-5.7773,1.2285,-1.5474,150.91,-570.00,415.12
458,67380442,-5.8599,1.2681,-1.5635,141.52,-568.66,425.61
459,67385442,-5.9531,1.3066,-1.5703,131.59,-566.65,435.49
460,67390441,-6.0410,1.3599,-1.6133,122.99,-564.45,445.06
461,67395675,-6.1318,1.4243,-1.6465,112.13,-561.34,455.49
462,67400442,-6.1938,1.4727,-1.6709,105.79,-558.84,462.07
463,67405799,-6.2617,1.5254,-1.7061,97.56,-554.76,471.28
464,67410442,-6.2969,1.5635,-1.7324,92.93,-551.65,476.89
465,67415440,-6.3208,1.6025,-1.7432,87.01,-546.95,483.35
466,67420797,-6.3062,1.6514,-1.7988,80.24,-540.79,490.12
467,67425442,-6.3208,1.6675,-1.8350,75.37,-536.65,494.39
468,67430443,-6.3008,1.6748,-1.8477,67.38,-530.55,498.90
469,67435442,-6.2646,1.7095,-1.9019,58.96,-523.90,502.80
470,67440442,-6.2627,1.7192,-1.9609,48.78,-517.13,506.16
471,67445442,-6.2314,1.7441,-2.0020,37.13,-510.00,508.90
472,67450442,-6.1968,1.7827,-2.0630,24.27,-502.68,511.10
473,67455442,-6.1548,1.8003,-2.1011,10.91,-494.88,512.80
474,67460442,-6.1133,1.8486,-2.1675,-2.93,-486.65,514.21
475,67465965,-6.0752,1.9067,-2.2153,-18.35,-476.10,515.67
476,67470442,-6.0117,1.9297,-2.2695,-27.99,-468.84,516.65
477,67475484,-5.9678,1.9717,-2.3345,-40.06,-459.45,518.05
478,67480442,-5.9058,1.9932,-2.3833,-51.10,-449.88,519.88
479,67485442,-5.7969,1.9995,-2.4521,-60.12,-440.12,522.20
480,67490442,-5.6792,2.0010,-2.5259,-67.32,-429.82,525.30
481,67495442,-5.5645,1.9897,-2.5801,-72.62,-419.45,528.96
482,67500443,-5.4419,1.9829,-2.6470,-75.24,-408.48,533.35
483,67505442,-5.3213,1.9683,-2.6948,-75.37,-397.01,538.17
484,67510442,-5.2339,1.9399,-2.7339,-72.93,-385.06,543.41
485,67515442,-5.1226,1.9424,-2.7847,-68.72,-372.13,549.57
486,67520442,-4.9814,1.9048,-2.8115,-61.52,-358.41,556.34
487,67525546,-4.8740,1.8706,-2.8169,-52.50,-343.23,563.29
488,67530442,-4.7739,1.8521,-2.8667,-41.10,-327.38,570.67
489,67535442,-4.6807,1.8101,-2.8823,-28.11,-310.24,579.02
490,67540441,-4.5718,1.7515,-2.8931,-14.45,-292.32,587.38
491,67545442,-4.4922,1.6733,-2.8838,-1.59,-273.60,596.10
492,67550441,-4.4146,1.5869,-2.8794,9.21,-254.70,604.76
493,67555442,-4.3389,1.4990,-2.8462,16.46,-235.55,613.29
494,67560442,-4.2808,1.4067,-2.8252,20.30,-216.77,621.22
495,67565442,-4.2202,1.3115,-2.7695,21.40,-198.48,628.60
496,67570441,-4.1592,1.2061,-2.7075,19.57,-180.49,635.18
497,67575444,-4.0947,1.1118,-2.6733,15.18,-163.23,640.79
498,67580442,-4.0391,1.0156,-2.6260,9.09,-146.83,645.30
499,67585442,-3.9858,0.9087,-2.5728,2.32,-131.28,648.84
500,67590441,-3.9453,0.8018,-2.5146,-5.06,-117.01,651.28
501,67595444,-3.8857,0.7114,-2.4834,-12.56,-103.90,652.68
502,67600442,-3.8213,0.6313,-2.4688,-20.12,-91.59,653.17
503,67605442,-3.7505,0.5464,-2.3965,-27.01,-79.82,653.05
504,67610441,-3.6943,0.4580,-2.3271,-33.72,-68.90,652.01
505,67615442,-3.6152,0.3843,-2.2744,-39.70,-58.72,650.43
506,67620440,-3.5659,0.3296,-2.2124,-42.99,-48.66,648.54
507,67625441,-3.5156,0.2749,-2.1440,-41.95,-38.35,646.40
508,67630440,-3.4429,0.1968,-2.0850,-37.56,-27.56,644.21
509,67635444,-3.3633,0.1475,-2.0312,-30.06,-16.40,641.77
510,67640443,-3.2886,0.0991,-1.9678,-19.63,-4.82,639.45
511,67645442,-3.2192,0.0537,-1.9468,-7.07,7.32,637.01
512,67650441,-3.1724,0.0215,-1.9141,7.93,19.82,633.96
513,67655444,-3.1494,-0.0073,-1.8735,23.96,32.80,630.49
514,67660442,-3.1167,-0.0571,-1.8096,40.18,47.56,626.28
515,67665442,-3.0601,-0.1074,-1.7554,56.22,59.57,621.83
516,67670441,-3.0059,-0.1646,-1.6934,71.71,73.35,616.65
517,67675442,-2.9458,-0.2188,-1.6362,86.46,87.74,611.04
518,67680441,-2.8755,-0.2617,-1.5791,100.98,101.71,604.70
519,67685442,-2.8154,-0.3096,-1.5200,115.06,116.22,597.68
520,67690441,-2.7466,-0.3428,-1.4360,127.56,130.98,590.06
521,67695442,-2.7056,-0.4038,-1.3892,140.37,145.49,581.28
522,67700441,-2.6704,-0.3965,-1.3677,150.18,159.57,571.65
523,67705442,-2.6182,-0.4673,-1.2998,156.89,172.74,561.04
524,67710441,-2.5557,-0.5176,-1.2534,160.18,185.18,549.57
525,67715442,-2.4731,-0.5605,-1.1509,161.16,196.52,537.62
526,67720442,-2.3677,-0.5781,-1.1040,158.66,206.83,525.30
527,67725443,-2.3379,-0.6035,-1.0679,152.20,215.79,512.32
528,67730441,-2.3516,-0.6270,-1.0029,142.38,223.29,499.02
529,67735442,-2.3335,-0.6626,-0.9375,128.96,229.88,485.30
530,67740441,-2.2744,-0.7134,-0.8755,114.57,235.43,471.83
531,67745860,-2.2422,-0.7661,-0.8232,97.07,239.88,458.78
532,67750443,-2.1826,-0.8540,-0.7627,76.34,242.74,445.91
533,67755442,-2.1152,-0.8418,-0.6904,54.15,244.15,433.35
534,67760442,-2.0645,-0.8643,-0.6089,30.91,244.27,420.61
535,67765441,-1.9834,-0.8779,-0.5786,8.35,244.02,408.84
536,67770442,-1.9951,-0.8892,-0.5200,-11.16,241.83,397.56
537,67775442,-1.9819,-0.9087,-0.5317,-24.82,239.63,386.83
538,67780442,-1.9805,-0.9253,-0.4692,-32.62,237.07,377.07
539,67785528,-1.9512,-0.9414,-0.4312,-34.82,234.51,367.74
540,67790442,-1.9580,-0.9097,-0.4106,-32.38,232.26,358.96
541,67795442,-1.9463,-0.9136,-0.3481,-25.61,229.94,350.18
542,67800442,-1.9214,-0.9326,-0.3013,-15.06,228.29,341.65
543,67805441,-1.9097,-0.9468,-0.3096,-1.89,226.83,333.11
544,67810442,-1.8633,-0.9512,-0.2539,12.93,225.98,324.45
545,67815442,-1.8320,-0.9722,-0.2056,27.93,225.55,315.30
546,67820442,-1.8120,-0.9922,-0.1660,41.83,225.55,306.04
547,67825443,-1.7979,-1.0278,-0.1182,53.78,225.98,296.59
548,67830444,-1.8091,-1.0420,-0.0654,63.35,226.46,286.65
549,67835598,-1.7905,-1.0806,-0.0093,70.18,227.13,276.59
550,67840443,-1.7681,-1.0889,0.0586,74.21,228.54,266.22
551,67845443,-1.7173,-1.1006,0.1484,74.88,229.45,255.67
552,67850443,-1.6934,-1.1392,0.1953,71.83,230.43,245.06
553,67855442,-1.6704,-1.1660,0.2607,65.61,231.46,234.63
554,67860441,-1.6514,-1.1919,0.3125,56.16,232.38,224.45
555,67865979,-1.6338,-1.1919,0.3359,44.57,232.74,214.39
556,67870442,-1.6309,-1.1943,0.3745,32.01,233.11,204.76
557,67875804,-1.6289,-1.2124,0.4072,19.39,232.99,195.49
558,67880442,-1.6094,-1.2217,0.4360,9.39,232.80,188.54
559,67885442,-1.6255,-1.2578,0.4668,-5.12,232.07,178.72
560,67890442,-1.6235,-1.2808,0.4727,-14.33,231.40,172.74
561,67895442,-1.6318,-1.3208,0.5215,-24.33,230.43,165.98
562,67900442,-1.6436,-1.3267,0.5425,-32.32,229.39,159.57
563,67905442,-1.5488,-1.3628,0.5757,-38.90,228.23,153.54
564,67910442,-1.6421,-1.3901,0.6250,-45.49,227.26,147.87
565,67915442,-1.6548,-1.4121,0.5757,-51.77,225.85,142.56
566,67920442,-1.6982,-1.4385,0.5732,-57.07,223.66,137.56
567,67925444,-1.7183,-1.4575,0.6011,-60.85,221.46,133.05
568,67930444,-1.6504,-1.4697,0.5776,-65.06,219.21,128.72
569,67935440,-1.6514,-1.5396,0.6392,-69.63,216.10,124.63
570,67940442,-1.6963,-1.5103,0.6099,-73.29,212.50,120.55
571,67945442,-1.6221,-1.5371,0.5859,-75.73,209.33,116.16
572,67950441,-1.5894,-1.5830,0.6392,-77.01,205.12,111.89
573,67955442,-1.5552,-1.6152,0.6265,-77.56,200.18,107.68
574,67960441,-1.5103,-1.6362,0.5713,-76.83,195.49,102.87
575,67965442,-1.4546,-1.6641,0.5947,-74.09,190.30,97.99
576,67970441,-1.4116,-1.6670,0.5913,-69.02,184.57,92.44
577,67975442,-1.3354,-1.6890,0.5449,-62.07,178.78,86.65
578,67980441,-1.2705,-1.6899,0.5508,-53.78,172.56,80.67
579,67985442,-1.1992,-1.7173,0.5566,-44.94,165.98,73.96
580,67990442,-1.1494,-1.7446,0.5166,-36.04,159.33,66.95
581,67995441,-1.1240,-1.7354,0.5073,-26.71,152.13,59.33
582,68000442,-1.0732,-1.7256,0.4888,-16.52,144.70,51.28
583,68005442,-1.0063,-1.7383,0.4619,-5.30,137.20,42.93
584,68010442,-0.8867,-1.7749,0.4990,5.43,129.21,34.27
585,68015441,-0.8618,-1.7666,0.4761,13.78,121.16,25.55
586,68020442,-0.8091,-1.7412,0.4702,21.46,112.87,15.91
587,68025756,-0.7607,-1.7490,0.4634,32.32,102.80,4.70
588,68030442,-0.7349,-1.7593,0.4551,39.63,95.85,-2.56
589,68035442,-0.7031,-1.7393,0.4731,47.80,87.93,-11.77
590,68040440,-0.6699,-1.7319,0.4956,55.12,79.33,-21.28
591,68045446,-0.6514,-1.7217,0.5225,62.68,69.33,-32.68
592,68050442,-0.6499,-1.7163,0.5254,66.22,62.80,-40.18
593,68055442,-0.6455,-1.6914,0.5459,69.15,54.63,-49.63
594,68060442,-0.6626,-1.6489,0.5488,70.30,47.01,-58.90
595,68065441,-0.6816,-1.6025,0.5483,70.55,39.45,-67.74
596,68070442,-0.7021,-1.5571,0.5479,70.18,32.01,-76.40
597,68075442,-0.7124,-1.5088,0.5479,69.21,25.00,-84.45
598,68080442,-0.7168,-1.4634,0.5361,67.74,18.35,-92.01
599,68085441,-0.7319,-1.4204,0.5254,65.73,11.83,-98.96
600,68090442,-0.7422,-1.3799,0.5122,63.78,5.73,-105.18
601,68095442,-0.7485,-1.3384,0.5034,62.20,0.12,-111.04
602,68100442,-0.7485,-1.2983,0.4858,60.85,-5.00,-116.22
603,68105441,-0.7417,-1.2578,0.4819,60.00,-10.18,-121.10
604,68110442,-0.7217,-1.2368,0.4556,59.27,-14.70,-125.43
605,68115442,-0.7373,-1.1948,0.4565,58.90,-19.09,-129.63
606,68120443,-0.7397,-1.1685,0.4536,58.90,-23.05,-133.48
607,68125440,-0.7485,-1.1450,0.4272,58.96,-26.83,-136.89
608,68130443,-0.7417,-1.1323,0.4224,58.84,-30.43,-140.06
609,68135441,-0.7344,-1.0981,0.4136,58.66,-33.96,-143.05
610,68140440,-0.7197,-1.0703,0.4116,58.78,-37.20,-145.73
611,68145440,-0.7119,-1.0488,0.4082,58.60,-40.43,-148.29
612,68150441,-0.6992,-1.0308,0.3994,58.29,-43.29,-150.67
613,68155442,-0.6831,-1.0151,0.3979,57.99,-45.98,-152.56
614,68160441,-0.6646,-0.9922,0.3911,57.38,-48.66,-154.21
615,68165442,-0.6479,-0.9761,0.3823,56.65,-51.16,-155.55
616,68170441,-0.6270,-0.9600,0.3711,55.61,-53.23,-156.71
617,68175442,-0.6021,-0.9502,0.3643,54.63,-55.30,-157.26
618,68180441,-0.5713,-0.9390,0.3564,53.48,-57.01,-157.80
619,68185443,-0.5435,-0.9180,0.3452,52.32,-58.66,-157.87
620,68190440,-0.5132,-0.9136,0.3252,51.22,-60.06,-157.87
621,68195445,-0.4854,-0.8960,0.3091,50.06,-61.28,-157.56
622,68200441,-0.4629,-0.8848,0.2974,48.78,-62.44,-157.38
623,68205442,-0.4370,-0.8711,0.2769,47.38,-63.41,-156.95
624,68210441,-0.4116,-0.8623,0.2715,45.91,-64.21,-156.52
625,68215442,-0.3794,-0.8535,0.2646,44.27,-64.82,-155.98
626,68220566,-0.3379,-0.8467,0.2603,42.80,-65.55,-155.61
627,68225442,-0.3423,-0.8413,0.2378,41.10,-66.10,-155.18
628,68230441,-0.3052,-0.8345,0.2344,39.45,-66.59,-154.76
629,68235442,-0.3013,-0.8228,0.2383,37.74,-67.01,-154.45
630,68240442,-0.2749,-0.8169,0.2114,36.10,-67.26,-154.27
631,68245444,-0.2617,-0.8013,0.2065,33.96,-67.74,-153.96
632,68250442,-0.2524,-0.7983,0.2041,32.56,-67.80,-153.72
633,68255442,-0.2344,-0.7944,0.1899,31.10,-67.99,-153.60
634,68260442,-0.2236,-0.7905,0.1812,30.00,-67.99,-153.54
635,68265441,-0.2012,-0.7847,0.1763,29.21,-68.23,-153.35
636,68270442,-0.1875,-0.7798,0.1694,28.78,-68.29,-153.35
637,68275442,-0.1689,-0.7808,0.1689,28.90,-68.23,-153.23
638,68280442,-0.1323,-0.7773,0.1582,29.09,-68.17,-153.11
639,68285441,-0.1450,-0.7808,0.1587,29.51,-68.23,-153.11
640,68290443,-0.1196,-0.7842,0.1621,30.00,-67.99,-153.05
641,68295442,-0.0996,-0.7852,0.1577,30.49,-67.87,-152.93
642,68300442,-0.0410,-0.7876,0.1567,31.04,-67.93,-153.23
643,68305443,-0.0166,-0.7783,0.1611,31.59,-67.74,-153.54
644,68310442,0.0215,-0.7686,0.1738,32.01,-67.56,-154.02
645,68315585,0.0254,-0.7734,0.1724,32.44,-67.44,-154.39
646,68320442,0.1123,-0.7773,0.2041,33.05,-67.01,-154.57
647,68325441,0.0747,-0.7734,0.2075,33.11,-66.46,-154.88
648,68330442,0.1328,-0.7900,0.2344,33.05,-65.73,-155.00
649,68335442,0.1021,-0.7930,0.2495,33.05,-64.63,-154.94
650,68340442,0.0869,-0.7812,0.2603,32.93,-63.54,-154.76
651,68345440,0.0840,-0.7944,0.2715,32.38,-62.07,-154.39
652,68350441,0.0679,-0.8013,0.2764,31.34,-60.73,-153.90
653,68355442,0.0566,-0.7944,0.2725,29.70,-58.96,-153.35
654,68360441,0.0625,-0.7900,0.2798,27.74,-57.44,-152.80
655,68365442,0.0737,-0.7808,0.2798,25.49,-55.43,-152.38
656,68370441,0.0869,-0.7729,0.2729,22.74,-53.78,-152.01
657,68375442,0.1099,-0.7676,0.2661,19.76,-52.01,-151.59
658,68380441,0.1416,-0.7593,0.2593,16.89,-50.37,-151.22
659,68385442,0.1782,-0.7480,0.2549,14.02,-48.60,-150.85
660,68390441,0.2148,-0.7363,0.2451,11.65,-47.01,-150.37
661,68395442,0.2573,-0.7314,0.2407,9.33,-45.67,-149.94
662,68400441,0.2944,-0.7148,0.2334,7.38,-44.21,-149.33
663,68405442,0.3140,-0.7314,0.2319,5.73,-42.80,-148.60
664,68410440,0.2358,-0.7354,0.2422,4.76,-41.28,-147.38
665,68415442,0.2920,-0.7002,0.2148,3.84,-39.70,-146.52
666,68420441,0.3110,-0.7080,0.2422,2.80,-38.11,-145.43
667,68425442,0.2944,-0.7017,0.2402,2.44,-36.46,-144.15
668,68430441,0.3091,-0.7026,0.2241,2.20,-34.82,-142.80
669,68435442,0.3374,-0.6978,0.2212,2.44,-33.23,-141.22
670,68440442,0.3555,-0.6841,0.2275,3.17,-31.59,-139.94
671,68445441,0.3940,-0.6597,0.2290,4.09,-30.00,-138.66
672,68450440,0.4331,-0.6411,0.2241,4.94,-28.60,-137.62
673,68455442,0.5068,-0.6118,0.2075,5.18,-27.32,-136.77
674,68460441,0.6055,-0.6152,0.1807,4.39,-26.34,-136.10
675,68465442,0.5952,-0.6357,0.1875,3.66,-25.55,-134.70
676,68470441,0.5815,-0.6177,0.1919,3.11,-24.57,-133.35
677,68475442,0.5991,-0.6069,0.1738,2.44,-23.66,-131.89
678,68480441,0.6167,-0.5972,0.1758,1.71,-23.05,-130.49
679,68485442,0.6294,-0.5859,0.1714,0.98,-22.38,-129.15
680,68490441,0.6362,-0.5737,0.1709,0.55,-21.83,-127.68
681,68495442,0.6455,-0.5679,0.1704,0.06,-21.34,-126.59
682,68500441,0.6431,-0.5562,0.1685,-0.12,-20.79,-125.24
683,68505442,0.6509,-0.5498,0.1646,-0.24,-20.12,-123.90
684,68510442,0.6523,-0.5474,0.1562,-0.55,-19.76,-122.44
685,68515442,0.6562,-0.5317,0.1499,-0.98,-19.45,-121.04
686,68520441,0.6680,-0.5264,0.1523,-1.59,-19.09,-119.51
687,68525442,0.6758,-0.5215,0.1484,-2.32,-18.90,-118.05
688,68530441,0.6860,-0.5039,0.1382,-3.29,-18.66,-116.71
689,68535451,0.6953,-0.4961,0.1465,-4.45,-18.60,-115.55
690,68540442,0.6924,-0.4829,0.1421,-5.61,-18.60,-114.27
691,68545441,0.6836,-0.4805,0.1362,-7.01,-18.72,-113.11
692,68550442,0.6753,-0.4761,0.1304,-8.35,-18.90,-111.77
693,68555442,0.6680,-0.4712,0.1270,-9.88,-19.02,-110.37
694,68560442,0.6597,-0.4688,0.1304,-11.16,-18.96,-108.84
695,68565441,0.6411,-0.4688,0.1270,-12.38,-19.21,-107.32
696,68570442,0.6382,-0.4644,0.1230,-13.11,-19.27,-105.61
697,68575442,0.6309,-0.4634,0.1255,-13.72,-19.39,-103.84
698,68580441,0.6372,-0.4619,0.1240,-13.84,-19.39,-102.01
699,68585452,0.6499,-0.4575,0.1221,-13.84,-19.27,-100.37
700,68590443,0.6680,-0.4502,0.1240,-13.54,-19.33,-98.72
701,68595442,0.6880,-0.4453,0.1235,-12.93,-19.39,-97.13
702,68600442,0.7075,-0.4429,0.1226,-12.07,-19.33,-95.67
703,68605447,0.7280,-0.4443,0.1245,-10.98,-19.15,-94.09
704,68610442,0.7402,-0.4448,0.1255,-9.57,-19.02,-92.44
705,68615442,0.7676,-0.4478,0.1279,-8.17,-18.78,-91.04
706,68620441,0.7876,-0.4531,0.1270,-6.83,-18.60,-89.51
707,68625442,0.8135,-0.4463,0.1284,-5.43,-18.60,-87.99
708,68630441,0.8340,-0.4419,0.1226,-4.27,-18.60,-86.46
709,68635442,0.8623,-0.4395,0.1235,-3.17,-18.78,-85.18
710,68640441,0.8843,-0.4370,0.1304,-2.07,-18.96,-83.90
711,68645450,0.9028,-0.4399,0.1133,-1.16,-19.33,-82.62
712,68650442,0.9277,-0.4341,0.1167,-0.49,-19.82,-81.34
713,68655442,0.9419,-0.4360,0.1221,0.24,-20.37,-80.00
714,68660441,0.9590,-0.4282,0.1201,0.91,-20.79,-78.66
715,68665442,0.9810,-0.4209,0.1138,1.40,-21.40,-77.44
716,68670441,0.9849,-0.4194,0.1138,2.07,-21.77,-76.16
717,68675442,0.9995,-0.4106,0.1138,2.68,-22.56,-74.88
718,68680441,1.0010,-0.4028,0.1123,3.60,-23.05,-73.60
719,68685444,1.0039,-0.3965,0.1147,4.51,-23.60,-72.32
720,68690441,1.0117,-0.3901,0.1177,5.67,-23.78,-70.91
721,68695442,1.0151,-0.3823,0.1201,6.89,-24.02,-69.70
722,68700441,1.0195,-0.3745,0.1265,8.41,-24.15,-68.48
723,68705442,1.0264,-0.3789,0.1284,10.00,-24.15,-66.89
724,68710441,1.0269,-0.3711,0.1333,11.89,-24.02,-65.49
725,68715444,1.0273,-0.3657,0.1396,13.90,-23.66,-63.78
726,68720441,1.0239,-0.3589,0.1362,15.55,-23.23,-62.20
727,68725440,1.0215,-0.3555,0.1426,17.20,-22.87,-60.55
728,68730442,1.0161,-0.3521,0.1372,18.60,-22.13,-58.90
729,68735442,1.0142,-0.3433,0.1343,19.76,-21.59,-57.20
730,68740454,1.0088,-0.3403,0.1211,20.55,-20.91,-55.43
731,68745441,1.0068,-0.3325,0.1206,20.98,-20.18,-53.78
732,68750442,1.0073,-0.3267,0.1260,21.10,-19.33,-52.07
733,68755441,1.0005,-0.3228,0.1201,20.85,-18.41,-50.18
734,68760442,0.9966,-0.3169,0.1162,20.18,-17.26,-48.48
735,68765442,0.9907,-0.3145,0.1162,19.02,-16.28,-46.77
736,68770442,0.9888,-0.3135,0.1157,17.74,-14.88,-45.00
737,68775441,0.9902,-0.3062,0.1123,15.91,-13.78,-43.23
738,68780442,1.0024,-0.2979,0.1094,13.66,-12.56,-41.52
739,68785442,1.0161,-0.2871,0.1084,11.16,-11.59,-39.94
740,68790442,1.0303,-0.2773,0.1050,8.17,-10.49,-38.66
741,68795721,1.0317,-0.2612,0.0962,4.88,-9.70,-37.38
742,68800442,1.0410,-0.2559,0.0923,1.65,-8.72,-36.28
743,68805442,1.0391,-0.2495,0.0864,-1.95,-7.99,-35.18
744,68810442,1.0381,-0.2456,0.0859,-5.12,-7.38,-34.15
745,68815923,1.0327,-0.2407,0.0820,-8.41,-6.65,-32.99
746,68820442,1.0244,-0.2373,0.0757,-11.40,-6.16,-31.83
747,68825442,1.0186,-0.2324,0.0723,-14.09,-5.49,-30.55
748,68830442,1.0078,-0.2266,0.0737,-16.40,-4.82,-29.27
749,68835441,0.9980,-0.2246,0.0708,-18.17,-4.09,-28.05
750,68841265,0.9888,-0.2222,0.0669,-19.94,-3.29,-26.52
751,68845445,0.9814,-0.2192,0.0801,-20.79,-2.74,-25.37
752,68850440,0.9780,-0.2168,0.0664,-21.46,-2.07,-24.02
753,68855441,0.9800,-0.2114,0.0752,-21.77,-1.28,-22.62
754,68860442,0.9746,-0.2036,0.0742,-21.77,-0.91,-21.46
755,68865444,0.9683,-0.2061,0.0698,-21.40,-0.49,-20.06
756,68870441,0.9600,-0.2051,0.0752,-20.73,0.00,-18.78
757,68875442,0.9492,-0.2100,0.0747,-19.51,0.30,-17.44
758,68880441,0.9448,-0.2139,0.0811,-18.35,0.61,-16.04
759,68885442,0.9365,-0.2188,0.0835,-17.07,1.10,-14.51
760,68890441,0.9346,-0.2192,0.0903,-15.37,1.22,-13.11
761,68895449,0.9365,-0.2163,0.0840,-13.78,1.52,-11.77
762,68900441,0.9341,-0.2173,0.0952,-12.32,1.40,-10.55
763,68905442,0.9380,-0.2197,0.0977,-10.79,1.40,-9.33
764,68910441,0.9424,-0.2217,0.0938,-9.51,1.40,-8.23
765,68915442,0.9521,-0.2271,0.1069,-8.17,1.22,-7.13
766,68920442,0.9595,-0.2285,0.1050,-7.01,0.91,-6.22
767,68925442,0.9634,-0.2275,0.1084,-5.73,0.61,-5.43
768,68930463,0.9658,-0.2305,0.1079,-4.51,0.30,-4.70
769,68935442,0.9639,-0.2349,0.1226,-3.48,0.06,-4.09
770,68940444,0.9697,-0.2456,0.1206,-2.56,-0.43,-3.41
771,68945444,0.9741,-0.2544,0.1201,-1.59,-0.98,-2.93
772,68950441,0.9771,-0.2549,0.1182,-0.67,-1.52,-2.32
773,68955441,0.9863,-0.2568,0.1265,0.24,-1.83,-1.77
774,68960440,0.9902,-0.2612,0.1284,1.04,-2.44,-1.52
775,68965516,0.9917,-0.2676,0.1318,1.59,-2.87,-1.16
776,68970441,0.9907,-0.2710,0.1230,2.20,-3.41,-0.91
777,68975442,0.9888,-0.2808,0.1309,2.50,-4.02,-0.67
778,68980441,0.9854,-0.2871,0.1299,2.93,-4.51,-0.55
779,68985472,0.9795,-0.2939,0.1279,3.29,-5.12,-0.24
780,68990442,0.9736,-0.2969,0.1250,3.54,-5.49,-0.18
781,68995443,0.9678,-0.3008,0.1309,3.78,-6.04,-0.06
782,69000442,0.9619,-0.3057,0.1318,3.96,-6.40,0.18
783,69005442,0.9565,-0.3145,0.1226,4.02,-6.83,0.30
784,69010442,0.9482,-0.3164,0.1294,4.09,-7.13,0.43
785,69015442,0.9438,-0.3247,0.1343,4.39,-7.38,0.55
786,69020442,0.9395,-0.3247,0.1260,4.45,-7.80,0.55
787,69025442,0.9331,-0.3276,0.1255,4.63,-8.17,0.61
788,69030442,0.9336,-0.3296,0.1230,4.70,-8.11,0.67
789,69035442,0.9277,-0.3394,0.1211,4.88,-8.35,0.67
790,69040442,0.9272,-0.3442,0.1226,4.88,-8.48,0.55
791,69045442,0.9189,-0.3447,0.1196,4.82,-8.54,0.49
792,69050442,0.9146,-0.3486,0.1084,4.82,-8.54,0.49
793,69055443,0.9097,-0.3545,0.1143,4.88,-8.48,0.30
794,69060442,0.9116,-0.3594,0.1099,4.82,-8.41,0.18
795,69065440,0.9097,-0.3628,0.1099,4.88,-8.35,0.06
796,69070442,0.9014,-0.3628,0.1089,4.57,-8.23,-0.12
797,69075442,0.8989,-0.3628,0.1094,4.27,-7.93,-0.37
798,69080442,0.8960,-0.3691,0.1035,3.78,-7.74,-0.55
799,69085442,0.8965,-0.3672,0.0986,3.05,-7.50,-0.67
800,69090441,0.8999,-0.3691,0.0928,2.13,-7.38,-0.98
801,69095442,0.8965,-0.3711,0.0874,1.28,-7.20,-1.04
802,69100441,0.8970,-0.3755,0.0815,0.18,-6.89,-1.46
803,69105442,0.8975,-0.3794,0.0820,-0.73,-6.65,-1.65
804,69110441,0.8975,-0.3799,0.0791,-1.46,-6.16,-1.77
805,69115442,0.8960,-0.3794,0.0703,-2.68,-5.61,-2.07
806,69120442,0.8984,-0.3848,0.0693,-3.60,-5.18,-2.20
807,69125442,0.9004,-0.3857,0.0698,-4.63,-4.88,-2.38
808,69130441,0.9038,-0.3887,0.0703,-5.73,-4.27,-2.38
809,69135442,0.9116,-0.3926,0.0728,-6.89,-3.84,-2.56
810,69140442,0.9233,-0.3955,0.0698,-7.99,-3.54,-2.80
811,69145442,0.9316,-0.3994,0.0698,-8.96,-3.05,-2.99
812,69150441,0.9453,-0.3896,0.0645,-10.12,-2.62,-3.23
813,69155442,0.9512,-0.3960,0.0615,-11.04,-2.26,-3.48
814,69160442,0.9575,-0.3960,0.0649,-12.07,-1.83,-3.72
815,69165440,0.9619,-0.3965,0.0630,-13.05,-1.65,-4.09
816,69170442,0.9653,-0.3970,0.0581,-13.72,-1.46,-4.39
817,69175444,0.9761,-0.3970,0.0703,-14.45,-1.16,-4.63
818,69180441,0.9844,-0.3955,0.0596,-14.94,-0.91,-5.00
819,69185443,0.9927,-0.3936,0.0615,-15.24,-0.85,-5.30
820,69190440,1.0029,-0.3882,0.0601,-15.37,-0.79,-5.79
821,69195445,1.0063,-0.3862,0.0552,-15.24,-0.61,-5.98
822,69200441,1.0171,-0.3809,0.0581,-14.76,-0.61,-6.46
823,69205442,1.0186,-0.3838,0.0630,-14.21,-0.61,-6.71
824,69210441,1.0195,-0.3784,0.0586,-13.41,-0.61,-7.01
825,69215442,1.0264,-0.3799,0.0640,-12.50,-0.49,-7.32
826,69220441,1.0259,-0.3740,0.0645,-11.40,-0.49,-7.62
827,69225442,1.0249,-0.3706,0.0654,-10.37,-0.43,-7.93
828,69230442,1.0195,-0.3696,0.0757,-9.39,-0.55,-7.99
829,69235442,1.0220,-0.3647,0.0786,-8.54,-0.61,-8.11
830,69240442,1.0190,-0.3594,0.0752,-7.50,-0.79,-8.35
831,69245442,1.0127,-0.3545,0.0757,-6.83,-1.10,-8.54
832,69250442,1.0059,-0.3511,0.0767,-6.22,-1.34,-8.60
833,69255440,1.0024,-0.3438,0.0786,-5.79,-1.28,-8.78
834,69260440,0.9912,-0.3408,0.0811,-5.30,-1.71,-8.84
835,69265441,0.9819,-0.3350,0.0859,-4.88,-1.77,-8.96
836,69270442,0.9814,-0.3306,0.0879,-4.57,-2.13,-8.96
837,69275442,0.9771,-0.3252,0.0864,-4.09,-2.38,-9.02
838,69280441,0.9736,-0.3193,0.0928,-3.54,-2.68,-8.90
839,69285442,0.9702,-0.3169,0.0928,-2.93,-2.99,-8.84
840,69290441,0.9722,-0.3096,0.1040,-2.32,-3.17,-8.90
841,69295442,0.9668,-0.3003,0.0991,-1.77,-3.48,-8.84
842,69300441,0.9697,-0.2964,0.1011,-1.22,-3.84,-8.84
843,69305442,0.9712,-0.2925,0.1079,-0.61,-4.21,-8.72
844,69310441,0.9678,-0.2886,0.1123,-0.18,-4.45,-8.48
845,69315442,0.9624,-0.2793,0.1016,0.18,-4.94,-8.66
846,69320441,0.9600,-0.2798,0.1074,0.67,-5.30,-8.41
847,69325442,0.9561,-0.2808,0.1128,1.10,-5.55,-8.23
848,69330442,0.9521,-0.2749,0.1113,1.40,-5.98,-8.29
849,69335442,0.9497,-0.2705,0.1089,1.83,-6.52,-7.99
850,69340442,0.9438,-0.2749,0.1113,2.13,-6.89,-7.74
851,69345442,0.9390,-0.2690,0.1094,2.50,-7.32,-7.44
852,69350441,0.9390,-0.2690,0.1055,2.99,-7.62,-7.13
853,69355442,0.9346,-0.2627,0.1050,3.54,-8.11,-6.89
854,69360441,0.9351,-0.2656,0.1089,4.21,-8.66,-6.52
855,69365440,0.9312,-0.2632,0.1064,4.82,-8.96,-6.22
856,69370440,0.9351,-0.2617,0.1104,5.61,-9.57,-5.79
857,69375526,0.9385,-0.2598,0.1113,6.04,-9.88,-5.55
858,69380441,0.9409,-0.2603,0.1045,6.59,-10.30,-5.37
859,69385442,0.9468,-0.2559,0.1035,7.07,-10.73,-5.06
860,69390442,0.9473,-0.2568,0.0977,7.50,-11.10,-4.88
861,69395442,0.9512,-0.2588,0.1021,7.87,-11.59,-4.51
862,69400441,0.9512,-0.2588,0.1084,8.23,-12.13,-4.21
863,69405444,0.9492,-0.2568,0.1079,8.41,-12.38,-4.02
864,69410441,0.9458,-0.2578,0.1030,8.84,-12.56,-3.66
865,69415442,0.9453,-0.2627,0.1069,8.90,-12.87,-3.35
866,69420442,0.9404,-0.2622,0.1055,8.90,-12.93,-2.93
867,69425892,0.9429,-0.2646,0.1074,8.48,-13.17,-2.56
868,69430443,0.9429,-0.2651,0.1060,7.93,-13.17,-2.26
869,69435442,0.9409,-0.2695,0.1016,7.20,-13.41,-1.89
870,69440442,0.9482,-0.2627,0.0996,6.22,-13.54,-1.46
871,69445442,0.9551,-0.2612,0.0908,5.12,-13.60,-1.34
872,69450442,0.9541,-0.2627,0.0938,3.78,-13.72,-1.10
873,69455442,0.9634,-0.2573,0.0947,2.32,-13.90,-1.04
874,69460442,0.9668,-0.2612,0.0928,0.98,-14.15,-0.91
875,69465442,0.9688,-0.2593,0.0835,-0.55,-14.21,-0.73
876,69470441,0.9702,-0.2607,0.0850,-2.20,-14.33,-0.67
877,69475613,0.9741,-0.2593,0.0737,-3.54,-14.33,-0.67
878,69480442,0.9736,-0.2622,0.0737,-4.88,-14.51,-0.49
879,69485442,0.9746,-0.2632,0.0688,-5.98,-14.51,-0.30
880,69490442,0.9707,-0.2651,0.0679,-6.89,-14.70,-0.06
881,69495442,0.9673,-0.2622,0.0576,-7.68,-14.63,0.00
882,69500442,0.9668,-0.2690,0.0547,-8.17,-14.70,0.30
883,69505443,0.9668,-0.2646,0.0547,-8.35,-14.70,0.49
884,69510442,0.9658,-0.2656,0.0464,-8.60,-14.57,0.85
885,69515442,0.9688,-0.2632,0.0430,-8.35,-14.51,1.04
886,69520442,0.9668,-0.2646,0.0361,-8.11,-14.51,1.28
887,69525442,0.9702,-0.2632,0.0322,-7.74,-14.63,1.46
888,69530443,0.9722,-0.2651,0.0366,-7.44,-14.57,1.59
889,69535442,0.9683,-0.2646,0.0327,-6.95,-14.57,1.77
890,69540442,0.9688,-0.2642,0.0259,-6.34,-14.63,1.95
891,69545442,0.9653,-0.2715,0.0210,-5.98,-14.51,2.20
892,69550442,0.9639,-0.2715,0.0156,-5.37,-14.39,2.38
893,69555442,0.9663,-0.2661,0.0146,-4.70,-14.27,2.50
894,69560445,0.9648,-0.2656,0.0068,-4.21,-14.15,2.62
895,69565442,0.9663,-0.2690,0.0034,-3.66,-13.96,2.80
896,69570442,0.9658,-0.2676,-0.0024,-3.17,-13.78,2.93
897,69575440,0.9663,-0.2734,0.0103,-2.80,-13.60,3.17
898,69580442,0.9619,-0.2715,0.0015,-2.50,-13.29,3.48
899,69585442,0.9683,-0.2720,0.0044,-2.07,-13.35,3.48
900,69590472,0.9600,-0.2749,-0.0005,-1.89,-12.99,3.72
901,69595443,0.9580,-0.2773,-0.0068,-1.59,-12.74,3.84
902,69600442,0.9639,-0.2783,-0.0044,-1.40,-12.38,4.15
903,69605442,0.9614,-0.2812,-0.0127,-1.28,-12.26,4.15
904,69610442,0.9668,-0.2822,-0.0088,-1.10,-11.95,4.39
905,69615442,0.9658,-0.2832,-0.0107,-1.10,-11.71,4.39
906,69620442,0.9668,-0.2783,-0.0059,-0.85,-11.40,4.45
907,69625442,0.9619,-0.2832,-0.0078,-0.79,-11.10,4.51
908,69630442,0.9678,-0.2852,-0.0059,-0.61,-10.61,4.51
909,69635442,0.9634,-0.2920,-0.0054,-0.37,-10.24,4.45
910,69640442,0.9629,-0.2910,-0.0088,-0.30,-9.70,4.57
911,69645442,0.9624,-0.2876,-0.0020,-0.24,-9.33,4.63
912,69650441,0.9604,-0.2905,-0.0015,-0.30,-8.72,4.63
913,69655442,0.9600,-0.2886,0.0039,-0.30,-8.23,4.70
914,69660442,0.9580,-0.2920,-0.0005,-0.49,-7.87,4.51
915,69665442,0.9629,-0.2930,0.0015,-0.79,-7.32,4.45
916,69670442,0.9585,-0.2920,0.0039,-1.04,-6.77,4.33
917,69675442,0.9521,-0.2964,0.0029,-1.34,-6.16,4.21
918,69680442,0.9521,-0.2974,0.0103,-1.83,-5.73,4.02
919,69685442,0.9512,-0.2930,0.0103,-2.38,-5.24,3.84
920,69690442,0.9546,-0.2939,0.0117,-2.87,-4.88,3.72
921,69695442,0.9526,-0.2944,0.0117,-3.41,-4.39,3.66
922,69700443,0.9556,-0.2925,0.0205,-3.72,-3.84,3.29
923,69705442,0.9561,-0.2905,0.0166,-4.27,-3.48,3.05
924,69710443,0.9556,-0.2935,0.0161,-4.76,-3.11,2.74
925,69715442,0.9580,-0.2905,0.0186,-5.18,-2.56,2.50
926,69720442,0.9536,-0.2925,0.0132,-5.61,-2.26,2.26
927,69725442,0.9541,-0.2959,0.0190,-5.98,-1.77,2.01
928,69730442,0.9517,-0.2964,0.0151,-6.10,-1.40,1.95
929,69735442,0.9448,-0.2944,0.0142,-6.22,-1.04,1.65
930,69740442,0.9429,-0.2949,0.0112,-6.22,-0.67,1.59
931,69745442,0.9448,-0.2939,0.0122,-6.34,-0.30,1.34
932,69750442,0.9531,-0.2910,0.0176,-6.34,0.18,1.22
933,69755442,0.9575,-0.2944,0.0107,-6.22,0.24,1.04
934,69760441,0.9590,-0.2939,0.0078,-6.16,0.67,0.79
935,69765442,0.9590,-0.2944,0.0132,-6.16,0.91,0.61
936,69770442,0.9575,-0.2954,0.0146,-5.98,1.22,0.24
937,69775885,0.9541,-0.2949,0.0088,-5.91,1.34,0.12
938,69780442,0.9565,-0.2969,0.0083,-5.73,1.52,0.00
939,69785442,0.9502,-0.2979,0.0063,-5.67,1.71,-0.18
940,69790442,0.9541,-0.2954,0.0078,-5.55,1.89,-0.37
941,69795442,0.9570,-0.2939,0.0063,-5.49,1.95,-0.55
942,69800442,0.9644,-0.2881,0.0005,-5.30,2.07,-0.85
943,69805442,0.9639,-0.2852,-0.0015,-5.12,2.20,-1.10
944,69810442,0.9692,-0.2852,-0.0029,-4.88,2.26,-1.46
945,69815442,0.9688,-0.2871,-0.0015,-4.63,2.44,-1.71
946,69820442,0.9683,-0.2891,-0.0093,-4.45,2.50,-2.07
947,69825442,0.9609,-0.2891,-0.0083,-4.09,2.62,-2.13
948,69830442,0.9570,-0.2900,-0.0112,-3.96,2.56,-2.38
949,69835442,0.9541,-0.2861,-0.0073,-3.66,2.74,-2.50
950,69840442,0.9526,-0.2876,-0.0122,-3.35,2.62,-2.62
951,69845442,0.9482,-0.2866,-0.0127,-3.05,2.87,-2.68
952,69850442,0.9448,-0.2876,-0.0137,-2.80,2.87,-2.87
953,69855442,0.9438,-0.2842,-0.0107,-2.50,3.11,-2.93
954,69860442,0.9370,-0.2852,-0.0146,-2.26,3.17,-2.99
955,69865442,0.9409,-0.2827,-0.0137,-2.01,3.11,-3.05
956,69870442,0.9448,-0.2788,-0.0156,-1.77,3.23,-3.23
957,69875442,0.9453,-0.2812,-0.0200,-1.59,3.23,-3.54
958,69880442,0.9429,-0.2739,-0.0146,-1.46,3.35,-3.72
959,69885442,0.9370,-0.2769,-0.0151,-1.40,3.35,-3.84
960,69890442,0.9399,-0.2773,-0.0234,-1.40,3.48,-3.96
961,69895442,0.9360,-0.2778,-0.0254,-1.16,3.60,-3.96
962,69900442,0.9360,-0.2734,-0.0190,-1.10,3.54,-4.09
963,69905442,0.9360,-0.2764,-0.0269,-0.91,3.72,-4.21
964,69910442,0.9370,-0.2773,-0.0254,-0.85,3.78,-4.27
965,69915442,0.9395,-0.2769,-0.0195,-0.79,3.84,-4.21
966,69920442,0.9370,-0.2739,-0.0283,-0.61,4.09,-4.21
967,69925442,0.9419,-0.2739,-0.0244,-0.49,4.09,-4.33
968,69930442,0.9404,-0.2681,-0.0269,-0.37,3.96,-4.33
969,69935442,0.9380,-0.2686,-0.0220,-0.37,4.27,-4.33
970,69940442,0.9419,-0.2705,-0.0195,-0.12,4.33,-4.27
971,69945757,0.9355,-0.2725,-0.0181,0.12,4.39,-4.27
972,69950442,0.9399,-0.2720,-0.0146,0.49,4.51,-4.27
973,69955442,0.9380,-0.2700,-0.0220,0.79,4.70,-4.21
974,69960442,0.9351,-0.2681,-0.0205,1.16,4.70,-4.09
975,69965442,0.9380,-0.2715,-0.0249,1.65,4.88,-4.21
976,69970442,0.9458,-0.2671,-0.0225,2.07,5.06,-4.09
977,69975442,0.9424,-0.2710,-0.0234,2.56,5.06,-3.96
978,69980786,0.9463,-0.2690,-0.0186,2.99,5.30,-3.96
979,69985485,0.9487,-0.2632,-0.0156,3.48,5.43,-3.96
980,69990442,0.9458,-0.2676,-0.0146,3.84,5.49,-3.96
981,69995442,0.9443,-0.2686,-0.0137,4.15,5.79,-3.78
982,70000442,0.9473,-0.2734,-0.0210,4.27,6.10,-3.78
983,70005442,0.9473,-0.2700,-0.0146,4.51,6.22,-3.72
984,70010442,0.9502,-0.2686,-0.0127,4.33,6.34,-3.66
985,70015442,0.9482,-0.2715,-0.0103,4.33,6.46,-3.54
986,70020442,0.9492,-0.2720,-0.0132,4.33,6.77,-3.35
987,70025442,0.9512,-0.2690,-0.0034,4.33,6.89,-3.23
988,70030442,0.9507,-0.2690,-0.0010,4.09,7.20,-3.23
989,70035442,0.9551,-0.2666,0.0034,4.15,7.38,-3.11
990,70040442,0.9526,-0.2686,0.0054,4.09,7.68,-3.05
991,70045528,0.9561,-0.2686,0.0098,4.21,7.68,-2.93
992,70050442,0.9561,-0.2651,0.0132,3.96,7.87,-2.87
993,70055442,0.9570,-0.2715,0.0107,3.84,8.11,-2.62
994,70060442,0.9609,-0.2695,0.0107,3.78,8.29,-2.62
995,70065516,0.9634,-0.2725,0.0186,3.78,8.35,-2.44
996,70070442,0.9658,-0.2642,0.0195,3.78,8.48,-2.32
997,70075442,0.9668,-0.2676,0.0317,3.72,8.48,-2.26
998,70080443,0.9697,-0.2715,0.0288,3.96,8.72,-2.07
999,70085441,0.9756,-0.2690,0.0322,4.02,8.78,-1.83
1000,70090442,0.9751,-0.2666,0.0381,4.39,8.90,-1.65
1001,70095442,0.9727,-0.2661,0.0439,4.51,8.96,-1.46
1002,70100441,0.9751,-0.2666,0.0454,4.88,9.02,-1.34
1003,70105442,0.9751,-0.2642,0.0459,5.00,9.02,-1.10
1004,70110441,0.9790,-0.2656,0.0518,5.18,9.02,-0.85
1005,70115442,0.9756,-0.2661,0.0620,5.49,9.02,-0.61
1006,70120442,0.9780,-0.2651,0.0645,5.67,9.02,-0.49
1007,70125442,0.9761,-0.2661,0.0664,5.61,8.96,-0.30
1008,70130441,0.9771,-0.2617,0.0728,5.61,8.84,0.06
1009,70135442,0.9834,-0.2593,0.0693,5.61,8.72,0.12
1010,70140441,0.9893,-0.2573,0.0693,5.43,8.66,0.43
1011,70145442,0.9819,-0.2603,0.0815,5.24,8.41,0.67
1012,70150441,0.9834,-0.2568,0.0840,5.24,8.48,0.79
1013,70155442,0.9775,-0.2612,0.0908,5.12,8.23,1.04
1014,70160442,0.9790,-0.2554,0.0933,5.24,8.05,1.28
1015,70165442,0.9780,-0.2568,0.0996,5.24,7.93,1.65
1016,70170441,0.9751,-0.2563,0.0957,5.37,7.74,1.95
1017,70175442,0.9717,-0.2583,0.0913,5.49,7.56,2.26
1018,70180441,0.9707,-0.2534,0.1040,5.67,7.44,2.50
1019,70185442,0.9731,-0.2534,0.0972,5.85,7.26,2.80
1020,70190442,0.9741,-0.2505,0.1006,6.10,7.32,2.93
1021,70195444,0.9648,-0.2534,0.1113,6.40,6.95,3.29
1022,70200442,0.9629,-0.2534,0.1089,6.34,6.71,3.60
1023,70205442,0.9634,-0.2495,0.1123,6.65,6.65,3.78
1024,70210441,0.9619,-0.2520,0.1050,6.71,6.34,4.15
1025,70215442,0.9600,-0.2461,0.1069,6.65,6.28,4.39
1026,70220474,0.9556,-0.2539,0.1143,6.65,6.28,4.63
1027,70225442,0.9541,-0.2510,0.1113,6.52,6.04,4.88
1028,70230441,0.9541,-0.2515,0.1084,6.34,5.91,5.18
1029,70235442,0.9541,-0.2495,0.1118,6.10,5.79,5.43
1030,70240441,0.9556,-0.2476,0.1113,5.79,5.61,5.49
1031,70245548,0.9526,-0.2505,0.1143,5.37,5.55,5.73
1032,70250443,0.9526,-0.2510,0.1084,4.88,5.37,5.79
1033,70255442,0.9502,-0.2490,0.1128,4.51,5.30,5.98
1034,70260441,0.9507,-0.2485,0.1064,3.96,5.12,6.04
1035,70265442,0.9478,-0.2510,0.1074,3.48,5.12,6.28
1036,70270441,0.9453,-0.2534,0.1069,3.05,4.88,6.52
1037,70275442,0.9453,-0.2549,0.1089,2.44,4.82,6.65
1038,70280442,0.9438,-0.2515,0.1084,2.01,4.70,6.77
1039,70285442,0.9404,-0.2520,0.1030,1.59,4.70,6.83
1040,70290441,0.9399,-0.2544,0.1064,1.10,4.51,6.95
1041,70295442,0.9424,-0.2588,0.1016,0.61,4.45,6.95
1042,70300442,0.9370,-0.2568,0.0981,0.30,4.45,7.20
1043,70305442,0.9424,-0.2607,0.0996,0.06,4.45,7.26
1044,70310441,0.9448,-0.2593,0.0986,-0.18,4.33,7.38
1045,70315444,0.9395,-0.2622,0.0942,-0.43,4.39,7.50
1046,70320441,0.9458,-0.2646,0.1016,-0.67,4.45,7.50
1047,70325442,0.9492,-0.2661,0.0962,-0.85,4.33,7.50
1048,70330441,0.9438,-0.2617,0.0898,-1.22,4.33,7.62
1049,70335442,0.9453,-0.2666,0.1011,-1.65,4.27,7.62
1050,70340441,0.9463,-0.2700,0.0981,-1.83,4.21,7.56
1051,70345442,0.9453,-0.2710,0.0972,-2.13,4.02,7.62
1052,70350441,0.9492,-0.2705,0.0957,-2.38,3.90,7.62
1053,70355442,0.9507,-0.2690,0.0938,-2.74,3.84,7.50
1054,70360441,0.9507,-0.2710,0.0928,-2.93,3.78,7.44
1055,70365444,0.9521,-0.2759,0.0869,-3.23,3.78,7.38
1056,70370441,0.9517,-0.2773,0.0864,-3.48,3.54,7.26
1057,70375442,0.9526,-0.2788,0.0903,-3.54,3.35,7.20
1058,70380441,0.9526,-0.2798,0.0933,-3.48,3.41,7.13
1059,70385442,0.9497,-0.2817,0.0884,-3.54,3.17,7.13
1060,70390441,0.9487,-0.2769,0.0850,-3.48,2.99,7.07
1061,70395494,0.9492,-0.2832,0.0957,-3.54,2.87,6.95
1062,70400441,0.9541,-0.2817,0.0874,-3.35,2.68,6.89
1063,70405442,0.9521,-0.2861,0.0918,-3.23,2.56,6.89
1064,70410441,0.9546,-0.2896,0.0879,-3.11,2.44,6.77
1065,70415444,0.9531,-0.2891,0.0854,-2.99,2.38,6.71
1066,70420441,0.9536,-0.2930,0.0840,-2.80,2.32,6.59
1067,70425442,0.9502,-0.2891,0.0830,-2.80,2.07,6.52
1068,70430444,0.9517,-0.2925,0.0820,-2.68,2.01,6.40
1069,70435442,0.9502,-0.2930,0.0869,-2.50,1.71,6.34
1070,70440442,0.9497,-0.2944,0.0894,-2.56,1.46,6.28
1071,70445442,0.9551,-0.2944,0.0859,-2.56,1.34,6.10
1072,70450443,0.9546,-0.2988,0.0898,-2.56,1.16,5.85
1073,70455442,0.9526,-0.2974,0.0894,-2.56,1.04,5.79
1074,70460442,0.9551,-0.2983,0.0894,-2.62,0.91,5.55
1075,70465442,0.9497,-0.3022,0.0854,-2.56,0.55,5.49
1076,70470442,0.9526,-0.3018,0.0889,-2.62,0.43,5.30
1077,70475443,0.9517,-0.3008,0.0825,-2.44,0.30,5.24
1078,70480442,0.9546,-0.3003,0.0869,-2.32,0.06,5.06
1079,70485442,0.9570,-0.3008,0.0845,-2.32,-0.24,4.82
1080,70490443,0.9526,-0.3032,0.0825,-2.01,-0.37,4.63
1081,70495440,0.9512,-0.3076,0.0786,-1.95,-0.49,4.57
1082,70500697,0.9497,-0.3042,0.0869,-1.59,-0.73,4.39
1083,70505442,0.9458,-0.3076,0.0825,-1.40,-0.85,4.33
1084,70510441,0.9478,-0.3057,0.0903,-1.28,-1.16,4.21
1085,70515444,0.9463,-0.3076,0.0894,-1.10,-1.22,4.09
1086,70520441,0.9458,-0.3076,0.0830,-0.98,-1.28,3.96
1087,70525442,0.9438,-0.3091,0.0830,-0.79,-1.59,3.78
1088,70530489,0.9482,-0.3081,0.0732,-0.55,-1.52,3.72
1089,70535444,0.9521,-0.3057,0.0811,-0.43,-1.83,3.60
1090,70540442,0.9487,-0.3066,0.0806,-0.18,-1.83,3.48
1091,70545442,0.9526,-0.3057,0.0796,0.18,-2.01,3.23
1092,70550441,0.9502,-0.3066,0.0776,0.37,-2.13,3.17
1093,70555444,0.9536,-0.3096,0.0742,0.73,-2.26,2.87
1094,70560441,0.9487,-0.3101,0.0806,1.04,-2.32,2.80
1095,70565499,0.9463,-0.3105,0.0757,1.16,-2.38,2.56
1096,70570444,0.9458,-0.3086,0.0757,1.46,-2.68,2.44
1097,70575442,0.9512,-0.3091,0.0786,1.46,-2.44,2.26
1098,70580444,0.9463,-0.3086,0.0762,1.52,-2.44,2.07
1099,70585442,0.9434,-0.3042,0.0762,1.65,-2.56,1.95
1100,70590442,0.9434,-0.3110,0.0806,1.46,-2.68,1.77
1101,70595442,0.9458,-0.3115,0.0811,1.28,-2.62,1.59
1102,70600442,0.9463,-0.3062,0.0854,1.10,-2.50,1.34
1103,70605442,0.9429,-0.3027,0.0757,0.98,-2.62,1.28
1104,70610442,0.9390,-0.3076,0.0776,0.67,-2.62,1.04
1105,70615440,0.9346,-0.3101,0.0767,0.49,-2.62,0.85
1106,70620447,0.9336,-0.3091,0.0762,0.37,-2.56,0.61
1107,70625445,0.9385,-0.3066,0.0801,0.18,-2.50,0.37
1108,70630440,0.9346,-0.3057,0.0737,0.12,-2.56,0.24
1109,70635442,0.9355,-0.3047,0.0728,0.06,-2.38,0.06
1110,70640442,0.9399,-0.3066,0.0718,0.00,-2.38,-0.06
1111,70645442,0.9355,-0.3081,0.0771,-0.18,-2.38,-0.12
1112,70650442,0.9360,-0.3071,0.0732,-0.18,-2.20,-0.37
1113,70655442,0.9424,-0.3013,0.0708,-0.30,-2.26,-0.49
1114,70660443,0.9429,-0.3047,0.0767,-0.43,-2.07,-0.73
1115,70665440,0.9448,-0.3037,0.0723,-0.43,-1.89,-0.79
1116,70670443,0.9448,-0.3042,0.0693,-0.61,-1.95,-0.85
1117,70675442,0.9453,-0.3066,0.0708,-0.73,-2.01,-1.16
1118,70680442,0.9482,-0.3052,0.0688,-0.73,-1.71,-1.28
1119,70685442,0.9458,-0.3062,0.0693,-0.85,-1.65,-1.40
1120,70690442,0.9463,-0.3052,0.0693,-0.91,-1.52,-1.59
1121,70695441,0.9482,-0.3037,0.0767,-1.10,-1.52,-1.71
1122,70700442,0.9517,-0.3022,0.0762,-1.16,-1.59,-1.77
1123,70705972,0.9536,-0.3022,0.0767,-1.22,-1.52,-1.95
1124,70710442,0.9570,-0.3008,0.0737,-1.16,-1.46,-2.01
1125,70715442,0.9580,-0.2983,0.0747,-1.16,-1.40,-2.38
1126,70720442,0.9580,-0.3003,0.0703,-1.10,-1.46,-2.38
1127,70725442,0.9570,-0.3018,0.0767,-1.04,-1.46,-2.50
1128,70730442,0.9590,-0.2988,0.0786,-0.67,-1.34,-2.68
1129,70735442,0.9541,-0.3008,0.0752,-0.49,-1.34,-2.80
1130,70740442,0.9609,-0.2988,0.0728,-0.37,-1.34,-2.87
1131,70745442,0.9609,-0.2979,0.0757,-0.18,-1.34,-2.93
1132,70750442,0.9634,-0.2944,0.0752,0.00,-1.22,-2.99
1133,70755442,0.9629,-0.2925,0.0732,0.18,-1.34,-3.11
1134,70760442,0.9648,-0.2915,0.0728,0.37,-1.34,-3.11
1135,70765442,0.9658,-0.2891,0.0762,0.43,-1.40,-3.23
1136,70770442,0.9609,-0.2900,0.0801,0.55,-1.46,-3.35
1137,70775442,0.9609,-0.2886,0.0723,0.67,-1.40,-3.35
1138,70780442,0.9609,-0.2886,0.0786,0.61,-1.46,-3.35
1139,70785442,0.9595,-0.2881,0.0688,0.91,-1.46,-3.29
1140,70790442,0.9590,-0.2876,0.0762,0.85,-1.59,-3.29
1141,70795442,0.9595,-0.2847,0.0708,0.79,-1.71,-3.23
1142,70800442,0.9604,-0.2852,0.0723,0.85,-1.52,-3.11
1143,70805442,0.9585,-0.2808,0.0806,0.85,-1.65,-3.23
1144,70810441,0.9619,-0.2812,0.0776,0.85,-1.71,-3.05
1145,70815442,0.9629,-0.2798,0.0776,0.85,-1.83,-3.11
1146,70820441,0.9663,-0.2793,0.0806,0.85,-2.01,-3.05
1147,70825442,0.9644,-0.2793,0.0791,0.85,-2.07,-2.99
1148,70830441,0.9673,-0.2773,0.0791,1.10,-2.07,-2.87
1149,70835442,0.9653,-0.2764,0.0723,1.16,-2.26,-2.87
1150,70840441,0.9653,-0.2739,0.0796,1.34,-2.26,-2.74
1151,70845444,0.9634,-0.2715,0.0796,1.52,-2.44,-2.68
1152,70850442,0.9600,-0.2705,0.0786,2.01,-2.44,-2.50
1153,70855442,0.9634,-0.2681,0.0830,2.20,-2.56,-2.44
1154,70860441,0.9561,-0.2739,0.0796,2.68,-2.62,-2.32
1155,70865442,0.9595,-0.2681,0.0820,2.99,-2.56,-2.26
1156,70870441,0.9561,-0.2690,0.0771,3.35,-2.68,-2.13
1157,70875442,0.9536,-0.2661,0.0776,3.54,-2.74,-1.89
1158,70880441,0.9575,-0.2666,0.0820,3.84,-2.80,-1.77
1159,70885442,0.9526,-0.2637,0.0776,4.09,-2.87,-1.71
1160,70890441,0.9531,-0.2637,0.0796,4.09,-2.93,-1.65
1161,70895530,0.9541,-0.2666,0.0767,4.21,-2.99,-1.52
1162,70900444,0.9609,-0.2671,0.0806,4.33,-3.05,-1.46
1163,70905441,0.9561,-0.2661,0.0801,4.33,-3.05,-1.34
1164,70910441,0.9624,-0.2617,0.0815,4.21,-3.29,-1.22
1165,70915442,0.9629,-0.2622,0.0771,4.15,-3.23,-1.22
1166,70920441,0.9575,-0.2598,0.0815,4.27,-3.41,-1.16
1167,70925442,0.9634,-0.2583,0.0752,4.09,-3.54,-0.91
1168,70930441,0.9600,-0.2617,0.0762,4.09,-3.41,-1.04
1169,70935442,0.9575,-0.2598,0.0757,4.02,-3.41,-0.91
1170,70940441,0.9595,-0.2617,0.0762,3.96,-3.48,-0.85
1171,70945442,0.9585,-0.2568,0.0747,3.90,-3.54,-0.73
1172,70950441,0.9556,-0.2534,0.0684,3.90,-3.29,-0.67
1173,70955442,0.9521,-0.2573,0.0771,3.72,-3.41,-0.49
1174,70960441,0.9536,-0.2578,0.0732,3.66,-3.41,-0.43
1175,70965442,0.9551,-0.2539,0.0747,3.48,-3.41,-0.30
1176,70970441,0.9536,-0.2515,0.0762,3.41,-3.41,-0.18
1177,70975444,0.9492,-0.2515,0.0674,3.11,-3.29,0.06
1178,70980441,0.9526,-0.2544,0.0703,3.05,-3.29,0.06
1179,70985442,0.9536,-0.2544,0.0674,2.87,-3.17,0.18
1180,70990440,0.9531,-0.2534,0.0728,2.74,-3.23,0.30
1181,70995442,0.9546,-0.2524,0.0713,2.50,-3.05,0.49
1182,71000465,0.9570,-0.2500,0.0674,2.32,-2.99,0.61
1183,71005441,0.9590,-0.2563,0.0708,2.20,-2.99,0.61
1184,71010522,0.9551,-0.2529,0.0796,2.01,-2.87,0.79
1185,71015442,0.9600,-0.2534,0.0684,2.13,-2.68,0.85
1186,71020441,0.9624,-0.2554,0.0664,2.01,-2.80,0.91
1187,71025442,0.9585,-0.2563,0.0649,1.95,-2.74,0.98
1188,71030444,0.9600,-0.2539,0.0679,1.83,-2.56,1.04
1189,71035442,0.9614,-0.2539,0.0698,1.71,-2.32,1.22
1190,71040440,0.9600,-0.2544,0.0679,1.46,-2.20,1.28
1191,71045443,0.9609,-0.2549,0.0693,1.40,-2.13,1.34
1192,71050440,0.9595,-0.2559,0.0664,1.16,-1.95,1.28
1193,71055444,0.9565,-0.2573,0.0659,0.85,-1.89,1.28
1194,71060441,0.9546,-0.2583,0.0718,0.67,-1.83,1.52
1195,71065440,0.9561,-0.2573,0.0659,0.37,-1.71,1.65
1196,71070442,0.9512,-0.2539,0.0640,0.06,-1.46,1.71
1197,71075444,0.9556,-0.2554,0.0718,-0.06,-1.40,1.71
1198,71080441,0.9541,-0.2554,0.0615,-0.49,-1.16,1.71
1199,71085442,0.9551,-0.2607,0.0649,-0.91,-0.98,1.71
1200,71090441,0.9521,-0.2578,0.0645,-1.16,-1.04,1.71
1201,71095503,0.9546,-0.2593,0.0703,-1.52,-0.91,1.83
1202,71100441,0.9585,-0.2632,0.0732,-1.77,-0.79,1.71
1203,71105443,0.9565,-0.2686,0.0708,-2.01,-0.55,1.89
1204,71110441,0.9580,-0.2627,0.0664,-2.20,-0.61,1.89
1205,71115442,0.9561,-0.2686,0.0713,-2.44,-0.49,1.95
1206,71120442,0.9609,-0.2651,0.0664,-2.56,-0.30,1.89
1207,71125442,0.9604,-0.2666,0.0703,-2.80,-0.24,1.95
1208,71130441,0.9604,-0.2671,0.0708,-2.74,-0.18,1.95
1209,71135442,0.9600,-0.2695,0.0625,-2.74,0.06,1.89
1210,71140441,0.9600,-0.2646,0.0679,-2.80,-0.12,1.89
1211,71145442,0.9624,-0.2720,0.0703,-2.56,0.06,1.89
1212,71150441,0.9648,-0.2715,0.0654,-2.50,0.30,2.01
1213,71155442,0.9648,-0.2725,0.0659,-2.56,0.30,2.01
1214,71160441,0.9678,-0.2695,0.0723,-2.38,0.24,1.95
1215,71165442,0.9653,-0.2710,0.0723,-2.32,0.30,2.07
1216,71170441,0.9639,-0.2744,0.0674,-2.32,0.37,2.07
1217,71175444,0.9614,-0.2754,0.0630,-2.20,0.37,1.95
1218,71180441,0.9619,-0.2739,0.0645,-1.95,0.30,2.07
1219,71185443,0.9590,-0.2734,0.0718,-1.89,0.49,2.20
1220,71190440,0.9619,-0.2734,0.0659,-1.59,0.43,2.13
1221,71195445,0.9648,-0.2720,0.0684,-1.52,0.43,2.01
1222,71200442,0.9634,-0.2749,0.0674,-1.28,0.49,2.20
1223,71205442,0.9604,-0.2749,0.0708,-0.91,0.43,2.13
1224,71210442,0.9634,-0.2803,0.0723,-0.85,0.37,2.13
1225,71215442,0.9614,-0.2783,0.0645,-0.61,0.55,2.13
1226,71220441,0.9614,-0.2759,0.0698,-0.49,0.55,2.13
1227,71225442,0.9609,-0.2739,0.0757,-0.37,0.49,2.20
1228,71230559,0.9570,-0.2739,0.0723,-0.37,0.49,2.13
1229,71235444,0.9604,-0.2734,0.0688,-0.30,0.55,2.20
1230,71240440,0.9565,-0.2759,0.0684,-0.18,0.55,2.13
1231,71245441,0.9604,-0.2705,0.0659,-0.24,0.49,2.13
1232,71250442,0.9541,-0.2778,0.0713,-0.37,0.61,2.07
1233,71255442,0.9575,-0.2734,0.0771,-0.18,0.55,1.95
1234,71260441,0.9531,-0.2729,0.0713,-0.24,0.73,2.01
1235,71265442,0.9556,-0.2744,0.0718,-0.24,0.73,2.07
1236,71270441,0.9556,-0.2710,0.0737,-0.12,0.79,2.01
1237,71275442,0.9536,-0.2710,0.0708,-0.12,0.73,1.95
1238,71280441,0.9531,-0.2700,0.0708,-0.18,0.79,1.95
1239,71285440,0.9502,-0.2725,0.0708,0.00,0.85,1.83
1240,71290442,0.9502,-0.2734,0.0781,0.12,0.91,1.89
1241,71295442,0.9478,-0.2720,0.0732,0.12,0.91,1.89
1242,71300443,0.9448,-0.2700,0.0708,0.12,1.04,1.71
1243,71305442,0.9438,-0.2671,0.0703,0.24,1.10,1.77
1244,71310442,0.9414,-0.2715,0.0776,0.12,1.34,1.71
1245,71315440,0.9438,-0.2710,0.0713,-0.06,1.46,1.59
1246,71320444,0.9429,-0.2720,0.0693,-0.24,1.52,1.59
1247,71325442,0.9429,-0.2725,0.0762,-0.49,1.59,1.52
1248,71330441,0.9463,-0.2759,0.0728,-0.73,1.71,1.52
1249,71335442,0.9473,-0.2686,0.0752,-1.04,1.89,1.46
1250,71340441,0.9502,-0.2734,0.0786,-1.34,1.83,1.40
1251,71345442,0.9458,-0.2720,0.0732,-1.71,1.95,1.40
1252,71350442,0.9526,-0.2710,0.0820,-2.07,2.07,1.10
1253,71355442,0.9570,-0.2729,0.0757,-2.38,2.13,1.16
1254,71360441,0.9502,-0.2729,0.0752,-2.87,2.26,0.91
1255,71365442,0.9497,-0.2710,0.0820,-3.05,2.32,0.98
1256,71370441,0.9541,-0.2710,0.0757,-3.35,2.38,0.73
1257,71375440,0.9517,-0.2764,0.0791,-3.72,2.56,0.55
1258,71380521,0.9546,-0.2734,0.0688,-3.90,2.56,0.49
1259,71385442,0.9556,-0.2715,0.0752,-4.09,2.62,0.37
1260,71390442,0.9570,-0.2720,0.0771,-4.39,2.56,0.30
1261,71395442,0.9551,-0.2715,0.0767,-4.51,2.80,0.24
1262,71400441,0.9561,-0.2734,0.0742,-4.70,2.74,0.00
1263,71405442,0.9570,-0.2725,0.0781,-4.76,2.80,-0.06
1264,71410442,0.9590,-0.2720,0.0796,-4.94,2.93,-0.18
1265,71415441,0.9590,-0.2749,0.0801,-5.06,2.80,-0.30
1266,71420440,0.9609,-0.2764,0.0791,-5.18,2.99,-0.49
1267,71425442,0.9590,-0.2710,0.0752,-5.18,2.99,-0.55
1268,71430441,0.9639,-0.2676,0.0767,-5.30,3.05,-0.61
1269,71435440,0.9644,-0.2744,0.0703,-5.37,3.05,-0.79
1270,71441422,0.9673,-0.2710,0.0791,-5.49,3.11,-0.91
1271,71445444,0.9673,-0.2715,0.0791,-5.61,3.11,-0.98
1272,71450441,0.9653,-0.2720,0.0728,-5.49,3.05,-1.10
1273,71455441,0.9673,-0.2710,0.0835,-5.67,3.11,-1.28
1274,71460441,0.9600,-0.2710,0.0815,-5.79,2.99,-1.34
1275,71465442,0.9683,-0.2754,0.0762,-5.67,2.93,-1.52
1276,71470441,0.9697,-0.2695,0.0811,-5.49,3.05,-1.65
1277,71475442,0.9668,-0.2671,0.0825,-5.49,2.99,-1.83
1278,71480441,0.9648,-0.2661,0.0820,-5.43,2.93,-1.95
1279,71485444,0.9663,-0.2676,0.0767,-5.49,2.99,-1.95
1280,71490441,0.9595,-0.2632,0.0776,-5.43,3.05,-2.13
1281,71495442,0.9580,-0.2651,0.0806,-5.18,3.05,-2.32
1282,71500441,0.9600,-0.2646,0.0796,-5.12,2.99,-2.38
1283,71505442,0.9531,-0.2632,0.0796,-5.12,3.05,-2.32
1284,71510442,0.9536,-0.2637,0.0840,-5.12,2.99,-2.44
1285,71515441,0.9497,-0.2607,0.0825,-5.18,3.05,-2.32
1286,71520440,0.9438,-0.2607,0.0781,-5.06,2.93,-2.56
1287,71525556,0.9448,-0.2646,0.0889,-5.30,2.99,-2.44
1288,71530442,0.9443,-0.2651,0.0820,-5.37,3.11,-2.50
1289,71535442,0.9409,-0.2617,0.0825,-5.55,2.87,-2.44
1290,71540442,0.9473,-0.2603,0.0850,-5.73,3.11,-2.38
1291,71545444,0.9434,-0.2612,0.0835,-5.85,3.11,-2.32
1292,71550442,0.9424,-0.2617,0.0874,-6.10,3.05,-2.38
1293,71555442,0.9448,-0.2607,0.0854,-6.22,3.29,-2.38
1294,71560466,0.9414,-0.2661,0.0864,-6.52,3.11,-2.26
1295,71565442,0.9404,-0.2676,0.0840,-6.65,3.05,-2.07
1296,71570441,0.9468,-0.2642,0.0864,-6.71,3.11,-2.01
1297,71575442,0.9497,-0.2627,0.0874,-7.01,3.11,-2.07
1298,71580440,0.9541,-0.2627,0.0913,-7.01,2.93,-2.01
1299,71585442,0.9521,-0.2646,0.0825,-7.13,2.93,-1.95
1300,71590441,0.9551,-0.2676,0.0889,-7.07,2.99,-1.95
1301,71595442,0.9590,-0.2710,0.0913,-6.95,2.87,-1.95
1302,71600440,0.9619,-0.2681,0.0864,-6.95,2.80,-2.07
1303,71605442,0.9624,-0.2725,0.0830,-6.71,2.62,-1.95
1304,71610441,0.9639,-0.2734,0.0864,-6.71,2.56,-2.01
1305,71615442,0.9634,-0.2676,0.0913,-6.34,2.38,-1.83
1306,71620442,0.9678,-0.2710,0.0840,-6.04,2.32,-1.83
1307,71625442,0.9668,-0.2690,0.0854,-5.67,2.13,-1.89
1308,71630441,0.9683,-0.2739,0.0835,-5.24,2.20,-1.89
1309,71635442,0.9673,-0.2769,0.0835,-4.88,1.83,-1.77
1310,71640440,0.9702,-0.2725,0.0786,-4.51,1.89,-1.65
1311,71645442,0.9658,-0.2729,0.0806,-4.15,1.83,-1.71
1312,71650441,0.9673,-0.2764,0.0854,-3.72,1.77,-1.65
1313,71655444,0.9668,-0.2744,0.0869,-3.48,1.65,-1.65
1314,71660440,0.9668,-0.2734,0.0869,-3.29,1.46,-1.59
1315,71665442,0.9639,-0.2759,0.0830,-3.17,1.52,-1.46
1316,71670441,0.9653,-0.2744,0.0801,-3.11,1.28,-1.52
1317,71675442,0.9707,-0.2759,0.0884,-2.93,1.16,-1.52
1318,71680440,0.9697,-0.2773,0.0869,-2.93,0.98,-1.46
1319,71685753,0.9736,-0.2764,0.0820,-2.80,0.85,-1.40
1320,71690442,0.9771,-0.2720,0.0854,-2.74,0.73,-1.46
1321,71695441,0.9751,-0.2744,0.0859,-2.44,0.55,-1.46
1322,71700442,0.9761,-0.2705,0.0850,-2.26,0.43,-1.59
1323,71705442,0.9790,-0.2710,0.0903,-2.13,0.24,-1.52
1324,71710442,0.9731,-0.2720,0.0884,-1.83,0.06,-1.71
1325,71715441,0.9722,-0.2705,0.0854,-1.59,0.00,-1.71
1326,71720442,0.9673,-0.2729,0.0791,-1.28,-0.06,-1.77
1327,71725442,0.9707,-0.2690,0.0854,-0.79,-0.18,-1.77
1328,71730442,0.9683,-0.2690,0.0825,-0.49,-0.30,-1.89
1329,71735440,0.9717,-0.2705,0.0840,-0.12,-0.49,-1.83
1330,71740442,0.9683,-0.2661,0.0806,0.18,-0.37,-1.77
1331,71745441,0.9683,-0.2671,0.0840,0.37,-0.67,-1.83
1332,71750442,0.9668,-0.2637,0.0801,0.67,-0.79,-1.83
1333,71755442,0.9683,-0.2627,0.0781,0.91,-0.79,-1.83
1334,71760442,0.9648,-0.2637,0.0806,1.10,-1.04,-1.95
1335,71765441,0.9644,-0.2607,0.0771,1.28,-1.10,-1.95
1336,71770442,0.9653,-0.2578,0.0815,1.34,-1.10,-2.01
1337,71775442,0.9678,-0.2622,0.0820,1.46,-1.22,-2.07
1338,71780442,0.9644,-0.2578,0.0815,1.40,-1.34,-2.01
1339,71785851,0.9648,-0.2524,0.0801,1.46,-1.40,-2.20
1340,71790442,0.9668,-0.2544,0.0757,1.52,-1.40,-2.32
1341,71795442,0.9634,-0.2534,0.0791,1.40,-1.59,-2.38
1342,71800442,0.9624,-0.2573,0.0776,1.22,-1.65,-2.44
1343,71805441,0.9624,-0.2539,0.0791,1.22,-1.65,-2.50
1344,71810442,0.9668,-0.2500,0.0762,1.22,-1.71,-2.68
1345,71815442,0.9688,-0.2495,0.0786,1.28,-1.65,-2.68
1346,71820443,0.9683,-0.2451,0.0781,1.16,-1.77,-2.74
1347,71825441,0.9663,-0.2441,0.0825,1.16,-1.77,-2.87
1348,71830826,0.9663,-0.2490,0.0762,1.16,-1.71,-2.99
1349,71835442,0.9663,-0.2412,0.0762,1.10,-1.89,-3.17
1350,71840441,0.9668,-0.2466,0.0747,1.22,-1.95,-3.17
1351,71845442,0.9639,-0.2427,0.0781,1.22,-1.83,-3.17
1352,71850440,0.9658,-0.2412,0.0820,1.28,-1.83,-3.23
1353,71855442,0.9648,-0.2354,0.0796,1.40,-1.95,-3.35
1354,71860441,0.9639,-0.2339,0.0806,1.46,-1.95,-3.41
1355,71865445,0.9653,-0.2363,0.0757,1.46,-2.01,-3.54
1356,71870441,0.9668,-0.2324,0.0796,1.46,-2.13,-3.66
1357,71875442,0.9634,-0.2314,0.0771,1.52,-2.01,-3.60
1358,71880441,0.9648,-0.2314,0.0771,1.46,-1.95,-3.66
1359,71885442,0.9629,-0.2280,0.0845,1.46,-2.07,-3.78
1360,71890441,0.9648,-0.2261,0.0762,1.22,-1.77,-3.90
1361,71895442,0.9624,-0.2271,0.0767,1.16,-1.89,-3.90
1362,71900442,0.9639,-0.2246,0.0820,1.10,-1.83,-3.90
1363,71905442,0.9614,-0.2271,0.0806,0.91,-1.83,-3.90
1364,71910441,0.9644,-0.2222,0.0840,0.73,-1.71,-3.96
1365,71915444,0.9609,-0.2256,0.0864,0.61,-1.65,-4.02
1366,71920442,0.9614,-0.2261,0.0864,0.55,-1.65,-4.02
1367,71925443,0.9648,-0.2241,0.0820,0.49,-1.40,-3.96
1368,71930440,0.9668,-0.2212,0.0859,0.49,-1.52,-3.96
1369,71935442,0.9663,-0.2207,0.0796,0.43,-1.59,-3.96
1370,71940441,0.9683,-0.2197,0.0815,0.43,-1.52,-4.09
1371,71945442,0.9688,-0.2222,0.0854,0.43,-1.40,-4.02
1372,71950440,0.9658,-0.2188,0.0913,0.24,-1.34,-3.96
1373,71955442,0.9707,-0.2148,0.0830,0.18,-1.34,-4.09
1374,71960441,0.9736,-0.2124,0.0830,0.30,-1.34,-4.15
1375,71965442,0.9795,-0.2144,0.0801,0.06,-1.40,-4.09
1376,71970440,0.9756,-0.2173,0.0820,0.00,-1.34,-4.15
1377,71975442,0.9731,-0.2134,0.0806,0.12,-1.34,-4.21
1378,71980441,0.9697,-0.2109,0.0791,0.24,-1.34,-4.09
1379,71985442,0.9712,-0.2134,0.0835,0.24,-1.28,-3.96
1380,71990440,0.9697,-0.2163,0.0850,0.30,-1.40,-3.96
1381,71995442,0.9629,-0.2139,0.0840,0.37,-1.28,-3.84
1382,72000441,0.9614,-0.2153,0.0879,0.30,-1.10,-3.72
1383,72005442,0.9619,-0.2129,0.0801,0.43,-1.22,-3.48
1384,72010440,0.9663,-0.2134,0.0776,0.49,-1.22,-3.35
1385,72015442,0.9697,-0.2148,0.0859,0.49,-1.28,-3.23
1386,72020442,0.9702,-0.2153,0.0820,0.55,-1.40,-2.99
1387,72025440,0.9712,-0.2144,0.0815,0.61,-1.28,-2.87
1388,72030442,0.9771,-0.2095,0.0825,0.61,-1.10,-2.74
1389,72035440,0.9829,-0.2100,0.0884,0.61,-1.16,-2.74
1390,72040442,0.9839,-0.2109,0.0859,0.61,-1.34,-2.50
1391,72045442,0.9810,-0.2119,0.0786,0.79,-1.22,-2.38
1392,72050442,0.9849,-0.2090,0.0850,0.85,-1.28,-2.26
1393,72055441,0.9922,-0.2100,0.0732,0.73,-1.34,-2.20
1394,72060442,0.9888,-0.2075,0.0801,0.91,-1.40,-2.13
1395,72065441,0.9868,-0.2070,0.0825,1.04,-1.34,-2.01
1396,72070441,0.9805,-0.2056,0.0806,1.04,-1.40,-1.89
1397,72075442,0.9805,-0.2036,0.0811,1.22,-1.40,-1.65
1398,72080441,0.9868,-0.2041,0.0815,1.22,-1.40,-1.59
1399,72085442,0.9780,-0.2002,0.0830,1.28,-1.46,-1.28
1400,72090440,0.9766,-0.2036,0.0850,1.34,-1.46,-1.28
1401,72095442,0.9736,-0.2041,0.0781,1.28,-1.46,-1.04
1402,72100441,0.9731,-0.2026,0.0815,1.40,-1.16,-0.85
1403,72105444,0.9722,-0.2046,0.0815,1.40,-1.40,-0.55
1404,72110440,0.9756,-0.2026,0.0801,1.28,-1.34,-0.24
1405,72115442,0.9741,-0.2017,0.0742,1.28,-1.40,-0.06
1406,72120442,0.9692,-0.2017,0.0806,1.34,-1.34,0.18
1407,72125442,0.9727,-0.1968,0.0801,1.28,-1.40,0.37
1408,72130441,0.9741,-0.2007,0.0825,1.28,-1.46,0.55
1409,72135442,0.9727,-0.2021,0.0825,1.34,-1.46,0.61
1410,72140441,0.9756,-0.2017,0.0859,1.52,-1.28,0.91
1411,72145442,0.9702,-0.2036,0.0820,1.65,-1.34,1.04
1412,72150440,0.9663,-0.2007,0.0791,1.77,-1.34,1.34
1413,72155444,0.9648,-0.2007,0.0811,1.83,-1.34,1.46
1414,72160441,0.9688,-0.1997,0.0776,2.07,-1.22,1.59
1415,72165442,0.9741,-0.1992,0.0820,2.20,-1.34,1.83
1416,72170440,0.9790,-0.1992,0.0811,2.07,-1.40,1.77
1417,72175497,0.9756,-0.2017,0.0850,2.13,-1.46,1.83
1418,72180444,0.9746,-0.2046,0.0703,2.26,-1.46,1.83
1419,72185443,0.9683,-0.2021,0.0781,2.20,-1.40,2.13
1420,72190440,0.9702,-0.2046,0.0776,2.26,-1.52,2.20
1421,72195445,0.9746,-0.2021,0.0786,2.20,-1.40,2.44
1422,72200442,0.9736,-0.2065,0.0801,2.13,-1.46,2.56
1423,72205442,0.9741,-0.2012,0.0732,2.20,-1.59,2.62
1424,72210441,0.9780,-0.2026,0.0728,2.01,-1.52,2.74
1425,72215442,0.9819,-0.2002,0.0752,1.95,-1.65,2.87
1426,72220440,0.9800,-0.2046,0.0742,2.13,-1.59,2.87
1427,72225476,0.9790,-0.2007,0.0747,2.01,-1.52,2.99
1428,72230441,0.9775,-0.2061,0.0747,2.07,-1.59,2.99
1429,72235495,0.9751,-0.2051,0.0762,2.01,-1.71,3.05
1430,72240440,0.9707,-0.2080,0.0728,2.07,-1.65,3.17
1431,72245440,0.9741,-0.2041,0.0728,2.26,-1.65,3.29
1432,72250444,0.9727,-0.2021,0.0801,2.32,-1.71,3.35
1433,72255442,0.9688,-0.2085,0.0762,2.44,-1.65,3.35
1434,72260442,0.9707,-0.2119,0.0723,2.62,-1.65,3.54
1435,72265441,0.9746,-0.2100,0.0762,2.74,-1.65,3.72
1436,72270442,0.9673,-0.2109,0.0737,2.80,-1.52,3.72
1437,72275441,0.9717,-0.2090,0.0688,2.80,-1.65,3.66
1438,72280444,0.9697,-0.2100,0.0762,2.80,-1.59,3.78
1439,72285442,0.9697,-0.2100,0.0732,2.87,-1.52,3.78
1440,72290442,0.9741,-0.2148,0.0762,2.80,-1.65,3.90
1441,72295442,0.9702,-0.2119,0.0757,2.74,-1.65,3.84
1442,72300442,0.9707,-0.2148,0.0708,2.74,-1.65,3.78
1443,72305442,0.9736,-0.2129,0.0791,2.62,-1.65,3.84
1444,72310442,0.9761,-0.2148,0.0757,2.74,-1.77,3.78
1445,72315442,0.9722,-0.2183,0.0762,2.74,-1.59,3.72
1446,72320440,0.9668,-0.2183,0.0762,2.87,-1.59,3.72
1447,72325442,0.9697,-0.2202,0.0771,2.87,-1.65,3.78
1448,72330441,0.9663,-0.2207,0.0771,2.93,-1.65,3.78
1449,72335443,0.9678,-0.2163,0.0767,2.74,-1.59,3.72
1450,72340440,0.9658,-0.2192,0.0771,2.80,-1.77,3.66
1451,72345515,0.9717,-0.2256,0.0840,2.80,-1.65,3.54
1452,72350442,0.9697,-0.2178,0.0820,2.93,-1.59,3.54
1453,72355443,0.9663,-0.2246,0.0737,2.74,-1.46,3.60
1454,72360442,0.9673,-0.2236,0.0757,2.80,-1.52,3.48
1455,72365441,0.9673,-0.2227,0.0815,2.80,-1.59,3.54
1456,72370442,0.9731,-0.2231,0.0776,2.87,-1.59,3.41
1457,72375442,0.9736,-0.2192,0.0767,2.80,-1.52,3.54
1458,72380442,0.9727,-0.2246,0.0762,2.87,-1.65,3.35
1459,72385441,0.9707,-0.2236,0.0752,2.68,-1.46,3.29
1460,72390442,0.9727,-0.2251,0.0806,2.62,-1.40,3.29
1461,72395442,0.9702,-0.2236,0.0806,2.56,-1.46,3.29
1462,72400442,0.9736,-0.2246,0.0752,2.62,-1.46,3.17
1463,72405441,0.9736,-0.2241,0.0801,2.50,-1.52,3.11
1464,72410442,0.9746,-0.2241,0.0791,2.56,-1.46,3.05
1465,72415442,0.9746,-0.2271,0.0820,2.56,-1.46,2.93
1466,72420442,0.9741,-0.2251,0.0825,2.56,-1.40,2.99
1467,72425441,0.9731,-0.2227,0.0649,2.56,-1.34,2.80
1468,72430443,0.9746,-0.2246,0.0757,2.50,-1.40,2.68
1469,72435442,0.9766,-0.2261,0.0830,2.44,-1.34,2.50
1470,72440442,0.9722,-0.2280,0.0781,2.38,-1.22,2.62
1471,72445441,0.9741,-0.2241,0.0796,2.20,-1.28,2.44
1472,72450442,0.9731,-0.2256,0.0845,2.13,-0.98,2.44
1473,72455442,0.9741,-0.2246,0.0786,1.83,-0.91,2.32
1474,72460442,0.9761,-0.2280,0.0811,1.65,-0.91,2.26
1475,72465441,0.9712,-0.2280,0.0815,1.59,-0.91,2.20
1476,72470442,0.9746,-0.2285,0.0801,1.22,-0.98,2.01
1477,72475442,0.9717,-0.2256,0.0752,1.04,-0.85,2.01
1478,72480442,0.9722,-0.2256,0.0815,0.85,-0.79,1.95
1479,72485441,0.9692,-0.2261,0.0757,0.61,-0.85,1.83
1480,72490442,0.9697,-0.2217,0.0811,0.61,-0.67,1.71
1481,72495442,0.9702,-0.2266,0.0801,0.43,-0.67,1.65
1482,72500442,0.9722,-0.2319,0.0840,0.12,-0.67,1.52
1483,72505441,0.9707,-0.2261,0.0791,0.30,-0.55,1.52
1484,72510442,0.9673,-0.2275,0.0854,0.30,-0.43,1.52
1485,72515443,0.9648,-0.2271,0.0796,0.18,-0.43,1.46
1486,72520442,0.9697,-0.2261,0.0835,0.37,-0.43,1.28
1487,72525441,0.9727,-0.2227,0.0811,0.37,-0.43,1.22
1488,72530442,0.9697,-0.2256,0.0781,0.37,-0.43,1.22
1489,72535443,0.9673,-0.2256,0.0845,0.30,-0.37,1.10
1490,72540443,0.9639,-0.2285,0.0840,0.37,-0.43,0.98
1491,72545441,0.9658,-0.2271,0.0796,0.49,-0.43,0.85
1492,72550444,0.9658,-0.2275,0.0791,0.43,-0.24,0.91
1493,72555442,0.9658,-0.2285,0.0815,0.49,-0.24,0.91
1494,72560442,0.9697,-0.2275,0.0742,0.49,-0.24,0.79
1495,72565441,0.9648,-0.2280,0.0820,0.61,-0.24,0.67
1496,72570442,0.9683,-0.2256,0.0762,0.55,-0.18,0.61
1497,72575442,0.9653,-0.2246,0.0791,0.43,-0.24,0.49
1498,72580442,0.9653,-0.2251,0.0796,0.43,-0.30,0.49
1499,72585441,0.9702,-0.2241,0.0806,0.37,-0.12,0.30
1500,72590442,0.9673,-0.2256,0.0786,0.30,-0.18,0.24
1501,72595442,0.9678,-0.2241,0.0825,0.18,-0.12,0.24
1502,72600442,0.9644,-0.2227,0.0796,0.18,-0.24,0.18
1503,72605541,0.9604,-0.2251,0.0776,0.12,-0.18,0.12
1504,72610442,0.9614,-0.2227,0.0767,0.12,-0.30,0.00
1505,72615442,0.9644,-0.2261,0.0781,0.18,-0.37,-0.06
1506,72620442,0.9600,-0.2266,0.0830,0.18,-0.24,0.00
1507,72625441,0.9619,-0.2271,0.0776,0.30,-0.24,-0.12
1508,72630444,0.9639,-0.2222,0.0845,0.43,-0.37,-0.24
1509,72635441,0.9653,-0.2275,0.0728,0.43,-0.24,-0.30
1510,72640444,0.9678,-0.2246,0.0747,0.55,-0.30,-0.37
1511,72645442,0.9624,-0.2305,0.0742,0.67,-0.55,-0.30
1512,72650441,0.9639,-0.2231,0.0820,0.79,-0.37,-0.37
1513,72655442,0.9629,-0.2280,0.0781,1.04,-0.67,-0.43
1514,72660441,0.9634,-0.2222,0.0825,1.10,-0.49,-0.49
1515,72665442,0.9678,-0.2222,0.0742,1.46,-0.73,-0.55
1516,72670442,0.9717,-0.2217,0.0806,1.52,-0.67,-0.55
1517,72675442,0.9707,-0.2227,0.0781,1.83,-0.79,-0.67
1518,72680441,0.9692,-0.2222,0.0811,2.01,-0.79,-0.79
1519,72685442,0.9707,-0.2261,0.0786,2.07,-0.91,-0.79
1520,72690441,0.9663,-0.2236,0.0791,2.26,-0.85,-0.85
1521,72695442,0.9692,-0.2246,0.0762,2.44,-1.10,-0.85
1522,72700441,0.9707,-0.2275,0.0781,2.56,-1.16,-0.85
1523,72705442,0.9756,-0.2251,0.0732,2.50,-1.28,-0.85
1524,72710441,0.9736,-0.2227,0.0815,2.56,-1.22,-0.91
1525,72715442,0.9722,-0.2202,0.0737,2.68,-1.28,-0.91
1526,72720442,0.9771,-0.2236,0.0825,2.68,-1.28,-1.04
1527,72725442,0.9756,-0.2212,0.0806,2.62,-1.22,-1.04
1528,72730441,0.9761,-0.2207,0.0776,2.68,-1.28,-1.10
1529,72735442,0.9766,-0.2192,0.0820,2.68,-1.34,-1.10
1530,72740441,0.9785,-0.2178,0.0830,2.62,-1.52,-1.28
1531,72745443,0.9761,-0.2188,0.0786,2.68,-1.46,-1.28
1532,72750441,0.9775,-0.2173,0.0825,2.50,-1.40,-1.40
1533,72755800,0.9795,-0.2134,0.0854,2.44,-1.40,-1.46
1534,72760442,0.9800,-0.2139,0.0830,2.26,-1.46,-1.52
1535,72765442,0.9771,-0.2158,0.0796,2.07,-1.59,-1.59
1536,72770441,0.9800,-0.2168,0.0825,1.95,-1.52,-1.65
1537,72775444,0.9756,-0.2139,0.0815,1.77,-1.65,-1.71
1538,72780441,0.9731,-0.2148,0.0791,1.83,-1.71,-1.77
1539,72785504,0.9761,-0.2163,0.0811,1.89,-1.65,-1.83
1540,72790442,0.9712,-0.2178,0.0796,1.89,-1.65,-1.77
1541,72795441,0.9727,-0.2109,0.0825,1.95,-1.65,-1.83
1542,72800441,0.9731,-0.2095,0.0884,2.13,-1.59,-1.83
1543,72805442,0.9722,-0.2134,0.0889,2.38,-1.77,-1.77
1544,72810441,0.9717,-0.2095,0.0825,2.62,-1.59,-1.89
1545,72815442,0.9712,-0.2075,0.0879,2.50,-1.71,-1.89
1546,72820441,0.9688,-0.2085,0.0811,2.87,-1.71,-1.95
1547,72825444,0.9717,-0.2119,0.0859,2.68,-1.46,-1.95
1548,72830441,0.9663,-0.2085,0.0820,2.80,-1.65,-1.89
1549,72835442,0.9678,-0.2090,0.0850,2.93,-1.65,-1.89
1550,72840441,0.9692,-0.2085,0.0884,2.80,-1.65,-1.89
1551,72845443,0.9702,-0.2056,0.0854,2.74,-1.65,-2.01
1552,72850441,0.9712,-0.2061,0.0820,2.62,-1.52,-1.89
1553,72855442,0.9702,-0.2090,0.0898,2.68,-1.59,-1.89
1554,72860441,0.9727,-0.2139,0.0864,2.62,-1.52,-1.95
1555,72865442,0.9707,-0.2095,0.0825,2.62,-1.59,-1.83
1556,72870441,0.9736,-0.2095,0.0884,2.62,-1.59,-1.89
1557,72876065,0.9751,-0.2070,0.0874,2.50,-1.46,-1.77
1558,72880442,0.9731,-0.2061,0.0815,2.80,-1.65,-1.83
1559,72885440,0.9683,-0.2085,0.0869,2.87,-1.46,-1.77
1560,72890442,0.9766,-0.2085,0.0879,2.74,-1.46,-1.83
1561,72895444,0.9741,-0.2075,0.0884,2.87,-1.46,-1.77
1562,72900441,0.9771,-0.2085,0.0815,2.87,-1.46,-1.71
1563,72905442,0.9775,-0.2114,0.0791,3.05,-1.52,-1.71
1564,72910441,0.9805,-0.2124,0.0854,3.05,-1.40,-1.77
1565,72915442,0.9829,-0.2085,0.0820,3.11,-1.46,-1.71
1566,72920441,0.9756,-0.2075,0.0913,3.11,-1.34,-1.71
1567,72925444,0.9736,-0.2095,0.0894,3.11,-1.28,-1.71
1568,72930441,0.9775,-0.2100,0.0820,3.17,-1.28,-1.83
1569,72935442,0.9780,-0.2070,0.0869,3.05,-1.28,-1.77
1570,72940441,0.9756,-0.2065,0.0840,2.87,-1.28,-1.83
1571,72945442,0.9775,-0.2104,0.0801,2.68,-1.34,-1.83
1572,72950441,0.9795,-0.2061,0.0864,2.68,-1.22,-1.95
1573,72955705,0.9741,-0.2090,0.0864,2.38,-1.22,-1.83
1574,72960442,0.9761,-0.2070,0.0835,2.20,-0.98,-2.01
1575,72965442,0.9800,-0.2041,0.0874,1.89,-1.10,-2.07
1576,72970442,0.9829,-0.2056,0.0864,1.71,-1.16,-2.07
1577,72975441,0.9795,-0.2036,0.0825,1.46,-1.16,-2.26
1578,72980442,0.9829,-0.2051,0.0884,1.34,-1.16,-2.26
1579,72985442,0.9795,-0.2012,0.0845,1.04,-1.04,-2.26
1580,72990442,0.9810,-0.2002,0.0845,0.91,-1.04,-2.38
1581,72995441,0.9775,-0.2017,0.0830,0.79,-1.10,-2.44
1582,73000442,0.9775,-0.2007,0.0918,0.67,-1.16,-2.62
1583,73005442,0.9795,-0.1978,0.0894,0.73,-1.16,-2.62
1584,73010442,0.9736,-0.2017,0.0859,0.67,-1.04,-2.62
1585,73015968,0.9717,-0.2021,0.0913,0.73,-1.04,-2.74
1586,73020442,0.9712,-0.1973,0.0898,0.61,-0.98,-2.74
1587,73025442,0.9771,-0.1953,0.0830,0.67,-1.04,-2.80
1588,73030442,0.9741,-0.1929,0.0864,0.61,-0.98,-2.87
1589,73035441,0.9775,-0.1953,0.0894,0.61,-0.98,-2.93
1590,73040442,0.9736,-0.1919,0.0859,0.67,-1.04,-2.93
1591,73045442,0.9731,-0.1938,0.0854,0.61,-1.04,-2.93
1592,73050442,0.9731,-0.1943,0.0864,0.73,-1.10,-2.93
1593,73055441,0.9741,-0.1904,0.0801,0.79,-1.04,-2.87
1594,73060442,0.9771,-0.1948,0.0840,0.67,-1.04,-2.93
1595,73065626,0.9751,-0.1919,0.0869,0.73,-1.10,-2.99
1596,73070442,0.9736,-0.1895,0.0845,0.79,-1.10,-2.93
1597,73075441,0.9771,-0.1855,0.0923,0.79,-1.22,-2.99
1598,73080442,0.9785,-0.1904,0.0825,0.85,-1.16,-3.05
1599,73085442,0.9727,-0.1880,0.0806,0.85,-1.16,-3.05
1600,73090442,0.9775,-0.1875,0.0806,0.98,-1.16,-2.93
1601,73095441,0.9741,-0.1870,0.0850,1.10,-1.22,-2.93
1602,73100442,0.9746,-0.1880,0.0840,1.10,-1.34,-2.93
1603,73105442,0.9736,-0.1899,0.0815,1.10,-1.22,-2.93
1604,73110442,0.9780,-0.1855,0.0835,1.10,-1.22,-2.99
1605,73115443,0.9731,-0.1880,0.0854,1.16,-1.16,-2.87
1606,73120443,0.9790,-0.1851,0.0806,1.16,-1.28,-2.74
1607,73125442,0.9800,-0.1860,0.0796,1.22,-1.40,-2.74
1608,73130443,0.9790,-0.1880,0.0879,1.22,-1.40,-2.68
1609,73135441,0.9805,-0.1826,0.0796,1.22,-1.28,-2.74
1610,73140442,0.9727,-0.1855,0.0791,1.28,-1.34,-2.56
1611,73145442,0.9766,-0.1860,0.0869,1.28,-1.34,-2.50
1612,73150443,0.9736,-0.1885,0.0874,1.34,-1.46,-2.50
1613,73155441,0.9741,-0.1855,0.0811,1.40,-1.71,-2.32
1614,73160442,0.9766,-0.1875,0.0845,1.52,-1.71,-2.26
1615,73165441,0.9756,-0.1885,0.0815,1.52,-1.83,-2.20
1616,73170440,0.9790,-0.1836,0.0874,1.59,-1.83,-2.20
1617,73175440,0.9771,-0.1816,0.0835,1.71,-1.89,-2.01
1618,73180442,0.9761,-0.1865,0.0786,1.89,-1.95,-1.95
1619,73185442,0.9795,-0.1826,0.0776,2.01,-2.13,-1.89
1620,73190441,0.9741,-0.1880,0.0757,2.13,-2.07,-1.71
1621,73195489,0.9785,-0.1865,0.0825,2.20,-2.20,-1.65
1622,73200442,0.9790,-0.1870,0.0811,2.26,-2.13,-1.52
1623,73205442,0.9790,-0.1851,0.0845,2.38,-2.32,-1.52
1624,73210442,0.9810,-0.1865,0.0811,2.44,-2.56,-1.28
1625,73215441,0.9858,-0.1851,0.0811,2.50,-2.38,-1.28
1626,73220443,0.9863,-0.1826,0.0757,2.68,-2.74,-1.16
1627,73225442,0.9858,-0.1802,0.0845,2.74,-2.87,-0.98
1628,73230442,0.9834,-0.1807,0.0796,2.80,-2.93,-0.98
1629,73235441,0.9858,-0.1816,0.0757,2.93,-2.99,-0.91
1630,73240443,0.9854,-0.1797,0.0742,3.17,-3.29,-0.79
1631,73245442,0.9863,-0.1841,0.0806,3.23,-3.35,-0.67
1632,73250442,0.9829,-0.1812,0.0767,3.35,-3.41,-0.55
1633,73255441,0.9839,-0.1821,0.0796,3.48,-3.48,-0.49
1634,73260442,0.9858,-0.1797,0.0825,3.84,-3.78,-0.37
1635,73265441,0.9907,-0.1772,0.0806,4.09,-3.72,-0.30
1636,73270442,0.9902,-0.1782,0.0767,4.33,-3.96,-0.24
1637,73275442,0.9902,-0.1733,0.0791,4.51,-4.02,-0.18
1638,73280442,0.9893,-0.1768,0.0815,4.57,-4.21,-0.06
1639,73285441,0.9878,-0.1763,0.0771,4.70,-4.27,-0.06
1640,73290443,0.9863,-0.1763,0.0767,4.70,-4.33,0.00
1641,73295442,0.9873,-0.1724,0.0791,4.63,-4.51,0.06
1642,73300442,0.9854,-0.1743,0.0752,4.70,-4.70,0.12
1643,73305441,0.9888,-0.1719,0.0806,4.70,-4.82,0.24
1644,73310442,0.9868,-0.1699,0.0806,4.51,-4.88,0.24
1645,73315442,0.9883,-0.1704,0.0752,4.45,-5.06,0.30
1646,73320443,0.9873,-0.1704,0.0771,4.21,-5.18,0.43
1647,73325441,0.9858,-0.1670,0.0776,4.02,-5.18,0.43
1648,73330442,0.9858,-0.1685,0.0688,3.90,-5.18,0.55
1649,73335443,0.9863,-0.1699,0.0718,3.72,-5.37,0.55
1650,73340442,0.9829,-0.1714,0.0728,3.60,-5.43,0.73
1651,73345441,0.9849,-0.1670,0.0718,3.60,-5.73,0.67
1652,73350442,0.9810,-0.1665,0.0708,3.35,-5.55,0.79
1653,73355442,0.9829,-0.1675,0.0713,3.41,-5.85,0.85
1654,73360441,0.9785,-0.1621,0.0767,3.48,-5.79,0.79
1655,73365442,0.9800,-0.1646,0.0747,3.60,-5.67,0.91
1656,73370441,0.9761,-0.1694,0.0728,3.72,-5.85,1.04
1657,73375442,0.9756,-0.1636,0.0718,3.84,-5.85,1.10
1658,73380441,0.9736,-0.1665,0.0737,3.90,-5.98,1.22
1659,73385442,0.9722,-0.1641,0.0776,3.96,-5.98,1.10
1660,73390441,0.9731,-0.1650,0.0806,4.09,-5.85,1.40
1661,73395442,0.9722,-0.1631,0.0684,4.15,-6.04,1.28
1662,73400441,0.9785,-0.1675,0.0684,4.15,-5.98,1.28
1663,73405442,0.9810,-0.1641,0.0762,4.02,-6.10,1.46
1664,73410441,0.9785,-0.1621,0.0654,3.90,-5.98,1.52
1665,73415442,0.9814,-0.1626,0.0732,3.90,-5.98,1.52
1666,73420441,0.9824,-0.1675,0.0669,3.72,-6.04,1.59
1667,73425491,0.9849,-0.1650,0.0649,3.66,-5.91,1.65
1668,73430442,0.9873,-0.1680,0.0635,3.35,-5.98,1.59
1669,73435719,0.9878,-0.1660,0.0601,3.35,-6.04,1.59
1670,73440442,0.9844,-0.1646,0.0601,3.23,-5.91,1.52
1671,73445442,0.9810,-0.1680,0.0693,3.11,-5.79,1.52
1672,73450442,0.9854,-0.1670,0.0620,2.93,-5.85,1.52
1673,73455441,0.9844,-0.1675,0.0610,2.99,-5.73,1.52
1674,73460442,0.9839,-0.1685,0.0615,2.99,-5.67,1.46
1675,73465441,0.9795,-0.1660,0.0659,3.05,-5.67,1.46
1676,73470441,0.9824,-0.1675,0.0586,2.87,-5.67,1.40
1677,73475442,0.9785,-0.1758,0.0547,2.87,-5.61,1.34
1678,73480441,0.9795,-0.1694,0.0620,2.80,-5.49,1.40
1679,73485442,0.9756,-0.1689,0.0586,2.68,-5.24,1.52
1680,73490441,0.9790,-0.1733,0.0532,2.62,-5.12,1.46
1681,73495442,0.9766,-0.1709,0.0552,2.50,-5.00,1.34
1682,73500441,0.9819,-0.1729,0.0591,2.32,-4.88,1.40
1683,73505440,0.9834,-0.1738,0.0527,2.20,-4.63,1.40
1684,73510982,0.9829,-0.1758,0.0586,1.95,-4.63,1.28
1685,73515442,0.9829,-0.1729,0.0562,1.77,-4.51,1.28
1686,73520441,0.9824,-0.1743,0.0479,1.52,-4.39,1.28
1687,73525442,0.9819,-0.1753,0.0493,1.46,-4.33,1.22
1688,73530441,0.9834,-0.1743,0.0527,1.40,-4.27,1.16
1689,73535442,0.9829,-0.1709,0.0508,0.98,-4.33,1.10
1690,73540441,0.9829,-0.1743,0.0513,1.04,-4.02,1.10
1691,73545444,0.9834,-0.1758,0.0522,0.98,-3.84,0.91
1692,73550442,0.9810,-0.1777,0.0488,0.79,-3.84,0.85
1693,73555442,0.9785,-0.1777,0.0503,0.73,-3.72,0.91
1694,73560744,0.9814,-0.1772,0.0508,0.55,-3.54,0.91
1695,73565443,0.9834,-0.1729,0.0454,0.37,-3.41,0.98
1696,73570442,0.9790,-0.1768,0.0469,0.24,-3.29,0.91
1697,73575442,0.9834,-0.1753,0.0488,0.18,-3.23,0.85
1698,73580441,0.9829,-0.1763,0.0459,0.00,-3.05,0.73
1699,73585442,0.9858,-0.1748,0.0449,-0.18,-3.11,0.73
1700,73590441,0.9849,-0.1768,0.0454,-0.18,-2.93,0.67
1701,73595442,0.9849,-0.1748,0.0474,-0.30,-2.80,0.67
1702,73600441,0.9878,-0.1743,0.0449,-0.43,-2.80,0.67
1703,73605442,0.9917,-0.1724,0.0415,-0.49,-2.68,0.49
1704,73610441,0.9883,-0.1748,0.0479,-0.43,-2.62,0.43
1705,73615442,0.9839,-0.1738,0.0420,-0.55,-2.50,0.55
1706,73620441,0.9834,-0.1758,0.0425,-0.37,-2.38,0.55
1707,73625442,0.9790,-0.1768,0.0405,-0.61,-2.20,0.43
1708,73630441,0.9819,-0.1763,0.0444,-0.55,-2.26,0.49
1709,73635444,0.9761,-0.1719,0.0439,-0.49,-2.20,0.49
1710,73640440,0.9795,-0.1724,0.0464,-0.49,-2.01,0.43
1711,73645589,0.9795,-0.1709,0.0415,-0.37,-1.95,0.37
1712,73650442,0.9829,-0.1733,0.0430,-0.37,-1.95,0.30
1713,73655442,0.9756,-0.1699,0.0410,-0.24,-1.83,0.43
1714,73660441,0.9780,-0.1777,0.0479,-0.18,-1.77,0.43
1715,73665444,0.9775,-0.1709,0.0405,-0.06,-1.71,0.30
1716,73670441,0.9819,-0.1753,0.0381,0.18,-1.71,0.30
1717,73675442,0.9775,-0.1758,0.0488,0.06,-1.65,0.24
1718,73680441,0.9790,-0.1733,0.0493,0.24,-1.59,0.18
1719,73685442,0.9785,-0.1704,0.0439,0.37,-1.52,0.18
1720,73690441,0.9775,-0.1689,0.0474,0.24,-1.52,0.06
1721,73695442,0.9756,-0.1719,0.0435,0.37,-1.40,0.12
1722,73700441,0.9756,-0.1719,0.0420,0.49,-1.34,0.12
1723,73705444,0.9751,-0.1724,0.0439,0.61,-1.28,0.12
1724,73710441,0.9751,-0.1675,0.0498,0.79,-1.16,0.12
1725,73715442,0.9761,-0.1699,0.0439,0.79,-1.16,0.00
1726,73720441,0.9766,-0.1689,0.0474,0.91,-1.22,-0.06
1727,73725442,0.9736,-0.1699,0.0396,1.04,-1.04,0.00
1728,73730442,0.9717,-0.1699,0.0435,1.22,-1.10,-0.06
1729,73735442,0.9717,-0.1675,0.0439,1.28,-0.91,0.00
1730,73740441,0.9775,-0.1724,0.0444,1.40,-0.85,0.06
1731,73745442,0.9785,-0.1704,0.0469,1.65,-0.73,0.12
1732,73750441,0.9761,-0.1685,0.0459,1.77,-0.61,0.24
1733,73755442,0.9766,-0.1680,0.0493,1.65,-0.61,0.12
1734,73760441,0.9751,-0.1675,0.0459,1.83,-0.55,0.06
1735,73765444,0.9766,-0.1675,0.0449,1.89,-0.43,0.12
1736,73770441,0.9771,-0.1733,0.0444,1.71,-0.55,0.18
1737,73775440,0.9751,-0.1719,0.0449,1.77,-0.37,0.24
1738,73780442,0.9727,-0.1699,0.0508,1.71,-0.37,0.24
1739,73785442,0.9756,-0.1689,0.0513,1.71,-0.24,0.37
1740,73790442,0.9775,-0.1738,0.0483,1.65,-0.06,0.43
1741,73795442,0.9819,-0.1748,0.0430,1.65,-0.12,0.37
1742,73800441,0.9766,-0.1689,0.0527,1.59,-0.12,0.37
1743,73805442,0.9863,-0.1748,0.0498,1.46,-0.06,0.37
1744,73810441,0.9858,-0.1738,0.0464,1.40,0.06,0.49
1745,73815445,0.9834,-0.1748,0.0537,1.34,0.12,0.49
1746,73820444,0.9922,-0.1724,0.0527,1.28,0.00,0.55
1747,73825440,0.9946,-0.1748,0.0513,1.28,0.12,0.49
1748,73830445,0.9971,-0.1743,0.0469,1.28,0.12,0.49
1749,73835442,1.0000,-0.1743,0.0542,1.22,0.12,0.49
1750,73840444,0.9980,-0.1748,0.0562,1.34,0.12,0.49
1751,73845441,1.0010,-0.1768,0.0581,1.46,0.00,0.49
1752,73850442,1.0005,-0.1748,0.0483,1.77,-0.06,0.55
1753,73855442,0.9941,-0.1782,0.0532,1.89,0.00,0.61
1754,73860441,0.9932,-0.1797,0.0513,2.26,-0.06,0.61
1755,73865442,0.9927,-0.1807,0.0498,2.62,-0.06,0.79
1756,73870442,0.9917,-0.1777,0.0542,2.87,-0.06,0.73
1757,73875442,0.9917,-0.1782,0.0566,3.11,0.00,0.85
1758,73880441,0.9956,-0.1802,0.0581,3.54,0.12,0.91
1759,73885445,0.9941,-0.1836,0.0532,3.84,0.06,1.04
1760,73890440,0.9932,-0.1807,0.0571,4.21,0.06,1.16
1761,73895443,0.9932,-0.1792,0.0664,4.45,0.12,1.22
1762,73900794,0.9990,-0.1836,0.0620,4.70,0.12,1.22
1763,73905530,1.0024,-0.1812,0.0659,4.82,0.12,1.34
1764,73910442,1.0020,-0.1826,0.0649,5.06,0.00,1.28
1765,73915442,1.0039,-0.1826,0.0635,5.24,-0.06,1.28
1766,73920443,1.0005,-0.1870,0.0664,5.43,0.06,1.28
1767,73925441,1.0029,-0.1826,0.0703,5.73,-0.06,1.28
1768,73930442,1.0034,-0.1855,0.0728,5.91,-0.18,1.34
1769,73935442,1.0010,-0.1831,0.0728,6.46,-0.24,1.28
1770,73940441,0.9961,-0.1826,0.0747,6.83,-0.43,1.34
1771,73945442,0.9951,-0.1826,0.0762,7.26,-0.24,1.46
1772,73950442,0.9937,-0.1831,0.0781,7.74,-0.37,1.52
1773,73955444,0.9893,-0.1841,0.0723,8.35,-0.49,1.77
1774,73960441,0.9932,-0.1807,0.0737,8.90,-0.49,1.89
1775,73965442,0.9956,-0.1836,0.0796,9.63,-0.55,2.07
1776,73970442,0.9912,-0.1807,0.0815,10.30,-0.55,2.13
1777,73975441,0.9907,-0.1787,0.0820,11.22,-0.61,2.32
1778,73980442,0.9883,-0.1821,0.0811,11.89,-0.67,2.50
1779,73985442,0.9878,-0.1802,0.0762,12.62,-0.67,2.68
1780,73990442,0.9854,-0.1802,0.0786,13.29,-0.55,2.87
1781,73995441,0.9854,-0.1777,0.0854,13.90,-0.55,3.05
1782,74000442,0.9849,-0.1758,0.0850,14.51,-0.55,3.17
1783,74005442,0.9893,-0.1777,0.0830,14.88,-0.55,3.29
1784,74010443,0.9839,-0.1787,0.0869,15.24,-0.73,3.60
1785,74015441,0.9878,-0.1772,0.0850,15.55,-0.67,3.78
1786,74020442,0.9888,-0.1724,0.0879,15.67,-0.73,3.90
1787,74025442,0.9878,-0.1719,0.0869,15.67,-0.85,4.09
1788,74030443,0.9946,-0.1743,0.0874,15.61,-0.73,4.15
1789,74035441,0.9946,-0.1724,0.0825,15.43,-0.79,4.33
1790,74040442,0.9907,-0.1689,0.0864,15.30,-0.85,4.39
1791,74045442,0.9922,-0.1680,0.0923,15.06,-0.98,4.57
1792,74050481,0.9907,-0.1675,0.0845,15.00,-1.04,4.70
1793,74055441,0.9878,-0.1709,0.0854,14.94,-1.10,4.88
1794,74060442,0.9854,-0.1709,0.0854,14.70,-1.16,5.00
1795,74065442,0.9839,-0.1641,0.0903,14.70,-1.40,5.18
1796,74070442,0.9839,-0.1714,0.0825,14.70,-1.46,5.49
1797,74075441,0.9805,-0.1665,0.0811,14.63,-1.46,5.67
1798,74080442,0.9829,-0.1655,0.0845,14.82,-1.77,5.85
1799,74085441,0.9819,-0.1646,0.0850,14.82,-1.71,6.10
1800,74090440,0.9810,-0.1621,0.0771,15.00,-1.95,6.28
1801,74095441,0.9824,-0.1602,0.0811,15.18,-2.20,6.52
1802,74100442,0.9810,-0.1621,0.0747,15.30,-2.26,6.77
1803,74105442,0.9775,-0.1621,0.0801,15.67,-2.44,6.95
1804,74110442,0.9761,-0.1592,0.0747,15.91,-2.62,7.26
1805,74115441,0.9731,-0.1611,0.0703,16.16,-2.87,7.38
1806,74120443,0.9702,-0.1592,0.0718,16.34,-2.99,7.56
1807,74125442,0.9658,-0.1577,0.0752,16.52,-3.17,7.80
1808,74130442,0.9653,-0.1592,0.0693,16.65,-3.29,8.17
1809,74135441,0.9590,-0.1602,0.0728,16.83,-3.48,8.29
1810,74140442,0.9570,-0.1582,0.0776,16.83,-3.72,8.66
1811,74145442,0.9521,-0.1626,0.0688,16.77,-3.84,8.96
1812,74150442,0.9512,-0.1621,0.0547,16.59,-3.96,9.33
1813,74155441,0.9492,-0.1602,0.0669,16.34,-4.15,9.51
1814,74160442,0.9434,-0.1655,0.0610,16.10,-4.33,9.76
1815,74165442,0.9409,-0.1616,0.0640,15.61,-4.57,10.06
1816,74170442,0.9360,-0.1641,0.0571,15.30,-4.45,10.49
1817,74175441,0.9331,-0.1694,0.0576,14.82,-4.63,10.73
1818,74180442,0.9307,-0.1689,0.0596,14.27,-4.82,10.98
1819,74185441,0.9258,-0.1753,0.0581,13.78,-5.06,11.34
1820,74190441,0.9238,-0.1787,0.0566,13.23,-5.12,11.83
1821,74195445,0.9263,-0.1831,0.0527,12.62,-5.12,12.20
1822,74200443,0.9248,-0.1860,0.0532,11.95,-5.18,12.56
1823,74205703,0.9263,-0.1880,0.0503,11.34,-5.24,12.99
1824,74210443,0.9351,-0.1953,0.0498,10.55,-5.43,13.41
1825,74215442,0.9380,-0.2017,0.0493,10.00,-5.43,13.78
1826,74220443,0.9478,-0.2056,0.0474,9.27,-5.67,14.15
1827,74225441,0.9580,-0.2100,0.0459,8.35,-5.79,14.45
1828,74230443,0.9644,-0.2134,0.0425,7.38,-5.98,14.88
1829,74235442,0.9717,-0.2192,0.0376,6.46,-6.22,15.18
1830,74240442,0.9785,-0.2251,0.0352,5.55,-6.16,15.55
1831,74245440,0.9863,-0.2271,0.0352,4.88,-6.59,15.85
1832,74250441,1.0005,-0.2334,0.0371,4.27,-6.77,16.04
1833,74255443,1.0088,-0.2422,0.0342,3.72,-6.77,16.28
1834,74260442,1.0127,-0.2451,0.0283,3.35,-7.07,16.46
1835,74265442,1.0137,-0.2480,0.0337,2.93,-7.50,16.59
1836,74270441,1.0200,-0.2539,0.0283,2.50,-7.62,16.71
1837,74275442,1.0254,-0.2563,0.0269,2.32,-7.99,16.77
1838,74280442,1.0234,-0.2588,0.0234,2.13,-8.23,16.89
1839,74285442,1.0195,-0.2661,0.0273,2.20,-8.48,17.01
1840,74290721,1.0161,-0.2715,0.0220,2.26,-8.78,17.13
1841,74295442,1.0073,-0.2759,0.0215,2.62,-8.96,17.07
1842,74300442,1.0034,-0.2817,0.0254,2.99,-9.09,17.26
1843,74305442,1.0000,-0.2817,0.0200,3.60,-9.27,17.32
1844,74310441,0.9966,-0.2808,0.0264,4.09,-9.57,17.32
1845,74315442,0.9839,-0.2905,0.0269,4.70,-9.63,17.50
1846,74320442,0.9756,-0.2905,0.0210,5.49,-9.82,17.62
1847,74325442,0.9673,-0.2905,0.0244,6.22,-9.88,17.62
1848,74330441,0.9600,-0.2910,0.0210,7.07,-10.12,17.68
1849,74335442,0.9473,-0.2910,0.0239,7.80,-10.06,17.68
1850,74340442,0.9448,-0.2954,0.0249,8.72,-9.94,17.74
1851,74345443,0.9321,-0.2959,0.0215,9.51,-9.94,17.93
1852,74350441,0.9243,-0.2993,0.0195,10.55,-9.94,18.11
1853,74355443,0.9111,-0.3018,0.0215,11.34,-9.88,18.35
1854,74360442,0.9072,-0.3022,0.0156,11.95,-9.70,18.35
1855,74365442,0.9019,-0.3081,0.0220,12.38,-9.57,18.41
1856,74370441,0.8999,-0.3042,0.0215,12.87,-9.39,18.48
1857,74375442,0.8940,-0.3057,0.0166,13.29,-9.15,18.54
1858,74380442,0.8906,-0.3115,0.0215,13.41,-8.96,18.48
1859,74385442,0.8926,-0.3086,0.0142,13.41,-8.90,18.48
1860,74390440,0.8906,-0.3086,0.0161,13.29,-8.48,18.41
1861,74395441,0.8901,-0.3125,0.0122,13.17,-8.23,18.48
1862,74400442,0.8936,-0.3145,0.0142,13.11,-7.99,18.41
1863,74405441,0.8950,-0.3174,0.0093,12.74,-7.74,18.29
1864,74410442,0.8936,-0.3193,0.0112,12.38,-7.62,18.23
1865,74415441,0.8970,-0.3237,0.0098,12.07,-7.38,18.05
1866,74420442,0.9053,-0.3267,0.0127,11.59,-6.89,17.93
1867,74425441,0.9102,-0.3252,0.0034,11.34,-6.65,17.74
1868,74430442,0.9175,-0.3247,0.0034,11.16,-6.34,17.62
1869,74435441,0.9224,-0.3311,0.0093,10.91,-6.10,17.26
1870,74440442,0.9292,-0.3364,0.0034,10.67,-5.73,16.95
1871,74445441,0.9331,-0.3413,0.0039,10.24,-5.24,16.65
1872,74450442,0.9375,-0.3379,0.0010,9.76,-5.00,16.34
1873,74455441,0.9448,-0.3442,-0.0039,9.39,-4.76,15.85
1874,74460442,0.9546,-0.3472,-0.0039,8.90,-4.21,15.37
1875,74465442,0.9561,-0.3477,-0.0020,8.29,-4.15,15.06
1876,74470442,0.9639,-0.3486,-0.0039,7.68,-3.72,14.51
1877,74475442,0.9678,-0.3418,-0.0063,7.01,-3.35,14.02
1878,74480443,0.9775,-0.3467,-0.0054,6.22,-3.11,13.23
1879,74485442,0.9800,-0.3442,-0.0122,5.55,-2.74,12.68
1880,74490442,0.9888,-0.3462,-0.0093,4.76,-2.38,11.77
1881,74495442,0.9858,-0.3462,-0.0132,3.90,-2.26,11.10
1882,74500441,0.9907,-0.3481,-0.0073,3.23,-1.89,10.37
1883,74505442,0.9829,-0.3467,-0.0103,2.38,-1.65,9.63
1884,74510442,0.9849,-0.3447,-0.0137,1.65,-1.28,8.78
1885,74515442,0.9819,-0.3472,-0.0166,0.85,-1.04,7.99
1886,74520441,0.9771,-0.3413,-0.0166,0.12,-0.85,7.20
1887,74525442,0.9702,-0.3423,-0.0195,-0.61,-0.55,6.59
1888,74530442,0.9609,-0.3408,-0.0132,-1.34,0.00,5.91
1889,74535441,0.9487,-0.3364,-0.0044,-2.01,0.43,5.06
1890,74540442,0.9365,-0.3369,-0.0049,-2.56,0.79,4.51
1891,74545441,0.9185,-0.3364,-0.0024,-3.17,1.22,3.84
1892,74550442,0.9048,-0.3389,-0.0024,-3.84,1.77,3.17
1893,74555441,0.8828,-0.3438,0.0010,-4.63,2.44,2.80
1894,74560442,0.8677,-0.3438,0.0049,-5.43,3.11,2.50
1895,74565441,0.8584,-0.3467,0.0151,-6.52,3.78,2.26
1896,74570442,0.8511,-0.3550,0.0078,-7.68,4.57,2.01
1897,74575441,0.8535,-0.3525,0.0083,-9.15,5.18,1.65
1898,74580690,0.8594,-0.3545,0.0083,-10.67,5.79,1.34
1899,74585441,0.8721,-0.3496,0.0103,-12.62,6.40,0.98
1900,74590440,0.8853,-0.3472,0.0044,-14.63,6.95,0.55
1901,74595792,0.8926,-0.3511,0.0005,-16.46,7.44,0.06
1902,74600442,0.8999,-0.3555,0.0078,-18.35,7.87,-0.30
1903,74605441,0.9028,-0.3643,0.0015,-19.88,8.05,-0.85
1904,74610443,0.9102,-0.3672,0.0083,-21.22,8.41,-1.22
1905,74615441,0.9131,-0.3701,0.0112,-21.95,8.90,-1.46
1906,74620442,0.9233,-0.3828,0.0146,-22.38,9.21,-1.83
1907,74625441,0.9395,-0.3833,0.0137,-22.32,9.70,-2.01
1908,74630442,0.9521,-0.3833,0.0176,-21.95,10.06,-2.26
1909,74635442,0.9639,-0.3838,0.0146,-21.34,10.43,-2.50
1910,74640442,0.9805,-0.3828,0.0088,-20.55,11.04,-2.87
1911,74645441,0.9961,-0.3843,0.0151,-19.76,11.16,-3.41
1912,74650442,1.0083,-0.3838,0.0127,-18.41,11.40,-3.72
1913,74655441,1.0181,-0.3794,0.0107,-17.20,11.52,-4.21
1914,74660442,1.0288,-0.3745,0.0107,-15.61,11.59,-4.88
1915,74665484,1.0352,-0.3711,0.0171,-13.90,11.59,-5.55
1916,74670442,1.0376,-0.3691,0.0137,-11.95,11.52,-6.16
1917,74675441,1.0371,-0.3687,0.0200,-9.70,11.65,-6.95
1918,74680442,1.0347,-0.3628,0.0239,-7.13,11.71,-7.50
1919,74685441,1.0269,-0.3594,0.0259,-4.39,11.77,-8.05
1920,74690440,1.0190,-0.3540,0.0283,-1.40,11.95,-8.78
1921,74695440,1.0068,-0.3418,0.0269,1.83,11.95,-9.15
1922,74700442,0.9912,-0.3408,0.0303,5.12,12.13,-9.63
1923,74705441,0.9736,-0.3306,0.0332,8.72,12.32,-9.94
1924,74710442,0.9648,-0.3242,0.0361,12.38,12.56,-10.24
1925,74715441,0.9521,-0.3145,0.0420,15.98,12.74,-10.55
1926,74720442,0.9385,-0.3076,0.0493,19.27,13.05,-10.91
1927,74725441,0.9287,-0.2993,0.0464,21.95,13.48,-10.98
1928,74730442,0.9243,-0.2905,0.0522,24.70,13.84,-11.16
1929,74735442,0.9165,-0.2832,0.0557,27.20,14.09,-11.40
1930,74740442,0.9155,-0.2705,0.0518,29.09,14.63,-11.59
1931,74745441,0.9180,-0.2651,0.0605,30.30,15.24,-11.83
1932,74750442,0.9214,-0.2515,0.0630,31.04,15.67,-12.07
1933,74755441,0.9268,-0.2451,0.0688,31.10,16.34,-12.32
1934,74760442,0.9272,-0.2393,0.0762,30.61,16.65,-12.68
1935,74765441,0.9365,-0.2349,0.0767,29.39,17.32,-12.87
1936,74770442,0.9419,-0.2236,0.0762,27.93,17.80,-13.17
1937,74775441,0.9502,-0.2158,0.0869,26.04,18.54,-13.48
1938,74780442,0.9531,-0.2139,0.0859,23.72,18.96,-13.78
1939,74785441,0.9614,-0.2036,0.0903,21.34,19.39,-14.02
1940,74790443,0.9707,-0.1997,0.0923,18.90,19.82,-14.27
1941,74795575,0.9785,-0.1909,0.0981,16.28,20.30,-14.63
1942,74800442,0.9810,-0.1821,0.0986,13.78,20.73,-14.88
1943,74805441,0.9932,-0.1768,0.1001,11.52,20.98,-15.18
1944,74810442,0.9922,-0.1636,0.1045,9.33,21.40,-15.43
1945,74815441,1.0010,-0.1562,0.1055,7.44,21.77,-15.73
1946,74820442,1.0049,-0.1514,0.1104,5.91,21.83,-15.91
1947,74825441,1.0078,-0.1475,0.1094,4.57,22.07,-16.10
1948,74830444,1.0068,-0.1396,0.1133,3.72,22.26,-16.10
1949,74835441,1.0029,-0.1328,0.1133,3.35,22.50,-16.22
1950,74840442,0.9980,-0.1274,0.1245,3.29,22.38,-16.16
1951,74845441,0.9995,-0.1206,0.1274,3.48,22.56,-16.10
1952,74850445,0.9976,-0.1138,0.1274,4.15,22.62,-16.04
1953,74855441,0.9902,-0.1099,0.1343,4.82,22.62,-15.85
1954,74860442,0.9912,-0.1011,0.1436,5.79,22.68,-15.61
1955,74865441,0.9810,-0.0947,0.1445,6.77,22.74,-15.43
1956,74870442,0.9727,-0.0928,0.1440,7.62,22.68,-15.06
1957,74875442,0.9697,-0.0869,0.1421,8.54,22.50,-14.82
1958,74880442,0.9600,-0.0864,0.1479,9.21,22.38,-14.45
1959,74885442,0.9561,-0.0801,0.1523,9.94,22.32,-14.09
1960,74890442,0.9502,-0.0742,0.1577,10.61,22.20,-13.60
1961,74895441,0.9492,-0.0737,0.1577,11.04,21.95,-13.17
1962,74900440,0.9443,-0.0688,0.1597,11.34,21.89,-12.62
1963,74905442,0.9434,-0.0654,0.1636,11.77,21.52,-12.20
1964,74910442,0.9414,-0.0605,0.1655,11.89,21.40,-11.77
1965,74915442,0.9409,-0.0596,0.1636,11.95,21.10,-11.22
1966,74920442,0.9429,-0.0596,0.1685,11.83,20.85,-10.73
1967,74925442,0.9360,-0.0581,0.1704,11.59,20.55,-10.24
1968,74930442,0.9346,-0.0586,0.1729,11.28,20.12,-9.63
1969,74935442,0.9346,-0.0640,0.1763,10.91,19.94,-9.02
1970,74940442,0.9365,-0.0615,0.1753,10.67,19.39,-8.41
1971,74945442,0.9404,-0.0620,0.1738,10.37,19.09,-7.74
1972,74950442,0.9458,-0.0649,0.1768,10.06,18.60,-7.20
1973,74955442,0.9468,-0.0630,0.1802,9.94,18.05,-6.46
1974,74960443,0.9473,-0.0669,0.1855,9.94,17.62,-5.85
1975,74965444,0.9512,-0.0679,0.1851,10.06,17.26,-5.24
1976,74970442,0.9648,-0.0625,0.1782,10.30,16.89,-4.57
1977,74975442,0.9678,-0.0679,0.1899,10.67,16.52,-4.15
1978,74980442,0.9756,-0.0698,0.1895,11.10,16.04,-3.66
1979,74985442,0.9800,-0.0737,0.1865,11.59,15.49,-3.05
1980,74990442,0.9878,-0.0781,0.1885,12.07,15.24,-2.62
1981,74995442,0.9922,-0.0767,0.1948,12.50,14.76,-2.20
1982,75000625,0.9995,-0.0781,0.1982,12.80,14.33,-1.65
1983,75005442,1.0010,-0.0776,0.1968,13.11,13.90,-1.16
1984,75010442,1.0015,-0.0869,0.1992,13.41,13.48,-0.73
1985,75015442,1.0024,-0.0889,0.2007,13.90,13.11,-0.18
1986,75020442,1.0059,-0.0898,0.2051,13.96,12.56,0.37
1987,75025442,1.0054,-0.0918,0.2109,14.45,12.07,0.85
1988,75030442,1.0063,-0.0986,0.2139,14.70,11.77,1.46
1989,75035442,1.0103,-0.0972,0.2104,14.94,11.34,1.89
1990,75040442,1.0112,-0.0991,0.2173,15.30,10.91,2.20
1991,75045442,1.0137,-0.0996,0.2173,15.61,10.61,2.68
1992,75050442,1.0146,-0.1069,0.2236,15.98,10.18,3.17
1993,75055443,1.0107,-0.1069,0.2256,16.16,9.88,3.60
1994,75060442,1.0098,-0.1055,0.2202,16.34,9.63,4.02
1995,75065442,1.0112,-0.1099,0.2285,16.59,9.33,4.57
1996,75070442,1.0107,-0.1113,0.2334,16.52,8.96,4.94
1997,75075443,1.0132,-0.1152,0.2324,16.46,8.54,5.30
1998,75080442,1.0098,-0.1157,0.2285,16.40,8.29,5.67
1999,75085442,1.0068,-0.1177,0.2378,16.16,8.11,6.22
2000,75090442,1.0063,-0.1211,0.2388,15.85,7.93,6.52
2001,75095442,1.0054,-0.1279,0.2407,15.43,7.56,6.89
2002,75100857,1.0034,-0.1294,0.2397,15.00,7.32,7.32
2003,75105442,1.0024,-0.1289,0.2461,14.51,7.07,7.68
2004,75110442,1.0039,-0.1279,0.2529,14.02,6.77,7.99
2005,75115442,1.0034,-0.1284,0.2476,13.35,6.59,8.29
2006,75120443,1.0044,-0.1299,0.2500,12.87,6.22,8.48
2007,75125442,1.0059,-0.1323,0.2515,12.32,6.04,8.78
2008,75130442,1.0068,-0.1357,0.2549,11.65,5.73,8.96
2009,75135442,1.0034,-0.1411,0.2554,11.10,5.55,9.15
2010,75140442,0.9995,-0.1396,0.2583,10.30,5.43,9.33
2011,75145442,0.9951,-0.1396,0.2549,9.45,5.06,9.51
2012,75150442,0.9961,-0.1411,0.2593,8.78,4.94,9.82
2013,75155442,0.9961,-0.1436,0.2612,8.05,4.70,9.88
2014,75160442,0.9932,-0.1465,0.2642,7.38,4.39,10.06
2015,75165442,0.9897,-0.1494,0.2544,6.59,4.21,10.18
2016,75170442,0.9873,-0.1499,0.2661,5.98,3.96,10.43
2017,75175442,0.9888,-0.1514,0.2593,5.24,3.72,10.43
2018,75180442,0.9897,-0.1533,0.2656,4.45,3.54,10.55
2019,75185443,0.9858,-0.1523,0.2612,3.72,3.29,10.61
2020,75190441,0.9839,-0.1577,0.2646,3.23,2.99,10.55
2021,75195446,0.9858,-0.1641,0.2642,2.62,2.62,10.73
2022,75200442,0.9814,-0.1626,0.2637,2.07,2.44,10.67
2023,75205442,0.9790,-0.1621,0.2617,1.59,2.38,10.73
2024,75210442,0.9819,-0.1611,0.2612,1.34,2.07,10.67
2025,75215442,0.9800,-0.1675,0.2588,0.98,1.95,10.67
2026,75220442,0.9775,-0.1704,0.2568,0.49,1.77,10.67
2027,75225442,0.9736,-0.1714,0.2505,0.06,1.52,10.55
2028,75230442,0.9663,-0.1733,0.2612,-0.18,1.40,10.49
2029,75235442,0.9673,-0.1792,0.2539,-0.67,1.16,10.49
2030,75240442,0.9727,-0.1738,0.2554,-0.98,0.98,10.49
2031,75245442,0.9653,-0.1782,0.2534,-1.28,0.79,10.30
2032,75250442,0.9629,-0.1821,0.2544,-1.71,0.43,10.12
2033,75255442,0.9619,-0.1831,0.2510,-1.95,0.30,10.00
2034,75260442,0.9575,-0.1870,0.2466,-2.20,0.24,9.94
2035,75265442,0.9585,-0.1870,0.2456,-2.26,0.06,9.82
2036,75270442,0.9595,-0.1914,0.2446,-2.56,-0.43,9.70
2037,75275442,0.9595,-0.1919,0.2437,-2.62,-0.49,9.63
2038,75280443,0.9634,-0.1890,0.2417,-2.74,-0.55,9.27
2039,75285442,0.9604,-0.1943,0.2427,-2.80,-0.73,9.15
2040,75290442,0.9614,-0.1963,0.2393,-3.05,-0.98,8.90
2041,75295442,0.9614,-0.2007,0.2349,-3.11,-1.22,8.60
2042,75300442,0.9614,-0.2002,0.2378,-3.29,-1.34,8.35
2043,75305443,0.9644,-0.2080,0.2368,-3.48,-1.46,8.23
2044,75310440,0.9619,-0.2031,0.2383,-3.60,-1.71,7.93
2045,75315442,0.9609,-0.2100,0.2319,-3.54,-1.89,7.56
2046,75320442,0.9644,-0.2100,0.2305,-3.60,-1.89,7.38
2047,75325442,0.9624,-0.2124,0.2334,-3.54,-2.20,7.01
2048,75330442,0.9600,-0.2148,0.2310,-3.35,-2.32,6.83
2049,75335442,0.9624,-0.2202,0.2329,-3.48,-2.62,6.59
2050,75340442,0.9609,-0.2188,0.2329,-3.35,-2.68,6.28
2051,75345442,0.9609,-0.2246,0.2334,-3.23,-2.87,6.10
2052,75350442,0.9580,-0.2256,0.2295,-2.99,-2.87,5.79
2053,75355442,0.9590,-0.2236,0.2290,-2.93,-3.11,5.49
2054,75360442,0.9639,-0.2271,0.2295,-2.80,-3.23,5.24
2055,75365442,0.9683,-0.2300,0.2231,-2.56,-3.48,4.94
2056,75370442,0.9673,-0.2300,0.2236,-2.26,-3.72,4.63
2057,75375442,0.9688,-0.2354,0.2290,-2.07,-4.02,4.39
2058,75380442,0.9717,-0.2310,0.2251,-1.52,-4.02,4.15
2059,75385442,0.9658,-0.2368,0.2212,-1.28,-4.15,3.84
2060,75390442,0.9692,-0.2354,0.2231,-0.91,-4.39,3.66
2061,75395442,0.9663,-0.2339,0.2251,-0.49,-4.39,3.29
2062,75400442,0.9707,-0.2363,0.2202,-0.37,-4.45,3.05
2063,75405442,0.9707,-0.2378,0.2222,0.00,-4.63,2.80
2064,75410442,0.9658,-0.2383,0.2192,0.37,-4.76,2.56
2065,75415442,0.9712,-0.2422,0.2246,0.67,-4.88,2.20
2066,75420442,0.9668,-0.2422,0.2188,1.04,-4.88,1.95
2067,75425442,0.9683,-0.2393,0.2202,0.91,-5.12,1.71
2068,75430442,0.9688,-0.2451,0.2163,1.04,-5.06,1.40
2069,75435442,0.9648,-0.2456,0.2139,1.10,-5.18,1.22
2070,75440442,0.9653,-0.2446,0.2124,1.22,-5.37,0.98
2071,75445442,0.9663,-0.2383,0.2158,1.10,-5.43,0.73
2072,75450442,0.9702,-0.2417,0.2188,1.28,-5.61,0.49
2073,75455442,0.9702,-0.2383,0.2153,1.22,-5.61,0.18
2074,75460442,0.9717,-0.2402,0.2183,1.10,-5.79,-0.24
2075,75465442,0.9722,-0.2407,0.2173,1.04,-5.79,-0.43
2076,75470442,0.9692,-0.2427,0.2212,1.04,-5.91,-0.67
2077,75475442,0.9658,-0.2383,0.2153,0.98,-6.16,-0.91
2078,75480442,0.9673,-0.2358,0.2158,0.91,-6.10,-1.10
2079,75485443,0.9668,-0.2349,0.2153,0.85,-6.16,-1.22
2080,75490442,0.9658,-0.2368,0.2153,0.98,-6.40,-1.34
2081,75495442,0.9619,-0.2378,0.2168,0.85,-6.59,-1.52
2082,75500440,0.9668,-0.2354,0.2188,0.91,-6.59,-1.65
2083,75505440,0.9678,-0.2344,0.2148,1.04,-6.71,-1.77
2084,75510441,0.9644,-0.2295,0.2148,1.16,-7.01,-1.89
2085,75515953,0.9673,-0.2271,0.2090,1.22,-7.07,-1.95
2086,75520442,0.9741,-0.2275,0.2065,1.28,-7.20,-2.07
2087,75525441,0.9722,-0.2256,0.2119,1.46,-7.38,-2.26
2088,75530442,0.9727,-0.2251,0.2051,1.52,-7.38,-2.26
2089,75535441,0.9741,-0.2212,0.2031,1.65,-7.50,-2.38
2090,75540442,0.9751,-0.2217,0.2007,1.71,-7.80,-2.44
2091,75545442,0.9736,-0.2183,0.2104,1.77,-7.93,-2.50
2092,75550442,0.9731,-0.2183,0.2085,2.07,-7.93,-2.44
2093,75555441,0.9766,-0.2134,0.1973,1.89,-8.11,-2.56
2094,75560442,0.9712,-0.2144,0.2061,2.07,-8.41,-2.56
2095,75565441,0.9678,-0.2144,0.1987,1.95,-8.54,-2.50
2096,75570579,0.9673,-0.2104,0.2036,2.13,-8.60,-2.56
2097,75575442,0.9717,-0.2070,0.1934,2.20,-8.84,-2.56
2098,75580442,0.9697,-0.2109,0.1958,1.95,-8.90,-2.44
2099,75585441,0.9668,-0.2065,0.1978,1.89,-9.09,-2.50
2100,75590442,0.9697,-0.2021,0.1904,1.83,-9.27,-2.50
2101,75595441,0.9702,-0.2002,0.1943,1.65,-9.57,-2.38
2102,75600442,0.9775,-0.1987,0.1865,1.65,-9.70,-2.32
2103,75605442,0.9741,-0.2007,0.1875,1.59,-9.94,-2.38
2104,75610443,0.9702,-0.1978,0.1899,1.59,-10.00,-2.32
2105,75615441,0.9722,-0.1953,0.1880,1.71,-10.12,-2.50
2106,75620442,0.9731,-0.1934,0.1914,1.65,-10.49,-2.26
2107,75625441,0.9766,-0.1904,0.1865,1.71,-10.55,-2.32
2108,75630442,0.9766,-0.1890,0.1880,1.71,-10.73,-2.44
2109,75635442,0.9731,-0.1914,0.1855,1.83,-10.85,-2.32
2110,75640442,0.9731,-0.1890,0.1797,1.95,-11.04,-2.13
2111,75645441,0.9707,-0.1846,0.1812,2.07,-11.10,-2.13
2112,75650442,0.9712,-0.1846,0.1816,2.32,-11.22,-2.01
2113,75655441,0.9712,-0.1880,0.1733,2.38,-11.22,-1.95
2114,75660442,0.9683,-0.1831,0.1753,2.38,-11.52,-1.83
2115,75665441,0.9712,-0.1855,0.1724,2.50,-11.46,-1.71
2116,75670442,0.9697,-0.1816,0.1724,2.50,-11.71,-1.65
2117,75675441,0.9766,-0.1826,0.1738,2.62,-11.59,-1.52
2118,75680442,0.9741,-0.1841,0.1694,2.62,-11.77,-1.46
2119,75685441,0.9756,-0.1792,0.1660,2.74,-11.95,-1.28
2120,75690444,0.9761,-0.1816,0.1655,2.74,-12.07,-1.28
2121,75695441,0.9771,-0.1807,0.1665,2.87,-12.20,-1.28
2122,75700442,0.9785,-0.1802,0.1602,2.93,-12.26,-1.10
2123,75705441,0.9829,-0.1777,0.1616,2.93,-12.26,-1.04
2124,75710442,0.9834,-0.1816,0.1602,3.05,-12.26,-0.85
2125,75715441,0.9834,-0.1841,0.1582,3.05,-12.20,-0.79
2126,75720440,0.9824,-0.1812,0.1592,3.23,-12.26,-0.67
2127,75725442,0.9785,-0.1802,0.1523,3.29,-12.44,-0.43
2128,75730442,0.9795,-0.1816,0.1577,3.35,-12.32,-0.30
2129,75735442,0.9785,-0.1807,0.1567,3.35,-12.32,-0.30
2130,75740441,0.9775,-0.1841,0.1528,3.48,-12.38,-0.06
2131,75745442,0.9727,-0.1831,0.1548,3.48,-12.20,0.06
2132,75750442,0.9741,-0.1826,0.1528,3.41,-12.13,0.30
2133,75755442,0.9727,-0.1807,0.1484,3.35,-12.13,0.43
2134,75760441,0.9746,-0.1846,0.1475,3.41,-12.07,0.67
2135,75765442,0.9707,-0.1885,0.1465,3.35,-12.01,0.79
2136,75770442,0.9731,-0.1851,0.1494,3.29,-11.77,1.04
2137,75775442,0.9688,-0.1875,0.1499,3.17,-11.71,1.22
2138,75780726,0.9727,-0.1899,0.1470,3.05,-11.65,1.40
2139,75785442,0.9727,-0.1899,0.1392,2.87,-11.59,1.65
2140,75790875,0.9741,-0.1919,0.1494,2.50,-11.52,1.83
2141,75795442,0.9731,-0.1899,0.1504,2.44,-11.40,1.89
2142,75800441,0.9756,-0.1929,0.1489,2.07,-11.22,2.13
2143,75805442,0.9771,-0.1968,0.1392,1.77,-11.04,2.13
2144,75810441,0.9805,-0.1929,0.1455,1.34,-11.04,2.44
2145,75815443,0.9780,-0.1987,0.1406,1.16,-10.85,2.50
2146,75820442,0.9829,-0.1948,0.1460,0.79,-10.73,2.68
2147,75825442,0.9780,-0.1992,0.1411,0.43,-10.73,2.80
2148,75830442,0.9780,-0.2026,0.1436,0.30,-10.61,2.93
2149,75835441,0.9849,-0.1997,0.1475,0.00,-10.49,2.93
2150,75840442,0.9756,-0.2036,0.1455,-0.37,-10.37,3.11
2151,75845441,0.9849,-0.2075,0.1406,-0.49,-10.37,3.29
2152,75850442,0.9834,-0.2061,0.1436,-0.67,-10.24,3.41
2153,75855441,0.9849,-0.2051,0.1426,-0.91,-10.12,3.60
2154,75860442,0.9844,-0.2085,0.1382,-0.98,-10.18,3.72
2155,75865441,0.9849,-0.2085,0.1396,-1.16,-10.00,3.84
2156,75870442,0.9839,-0.2109,0.1426,-1.16,-9.88,3.90
2157,75875441,0.9834,-0.2104,0.1396,-1.28,-9.76,4.02
2158,75880442,0.9873,-0.2095,0.1416,-1.22,-9.76,4.09
2159,75885441,0.9863,-0.2090,0.1353,-1.22,-9.70,4.21
2160,75890442,0.9863,-0.2124,0.1362,-1.34,-9.70,4.33
2161,75895442,0.9878,-0.2119,0.1338,-1.34,-9.63,4.45
2162,75900442,0.9863,-0.2139,0.1333,-1.34,-9.57,4.51
2163,75905441,0.9829,-0.2144,0.1338,-1.34,-9.57,4.51
2164,75910442,0.9858,-0.2139,0.1289,-1.40,-9.51,4.57
2165,75915442,0.9814,-0.2134,0.1284,-1.52,-9.51,4.63
2166,75920442,0.9795,-0.2139,0.1230,-1.59,-9.57,4.70
2167,75925441,0.9780,-0.2163,0.1284,-1.59,-9.51,4.70
2168,75930442,0.9771,-0.2163,0.1206,-1.52,-9.51,4.70
2169,75935442,0.9751,-0.2148,0.1284,-1.40,-9.63,4.70
2170,75940442,0.9766,-0.2104,0.1196,-1.46,-9.51,4.70
2171,75945441,0.9766,-0.2139,0.1157,-1.40,-9.57,4.76
2172,75950442,0.9756,-0.2139,0.1157,-1.28,-9.51,4.76
2173,75955441,0.9707,-0.2163,0.1182,-1.16,-9.51,4.76
2174,75960442,0.9717,-0.2158,0.1113,-0.91,-9.45,4.76
2175,75965441,0.9688,-0.2192,0.1118,-0.91,-9.39,4.76
2176,75970442,0.9624,-0.2202,0.1035,-0.67,-9.39,4.88
2177,75975441,0.9634,-0.2139,0.1045,-0.55,-9.33,4.94
2178,75980442,0.9595,-0.2163,0.1074,-0.43,-9.21,4.94
2179,75985442,0.9624,-0.2100,0.0991,-0.24,-9.21,5.00
2180,75991884,0.9624,-0.2148,0.0996,-0.12,-9.21,5.00
2181,75995523,0.9590,-0.2134,0.0938,-0.06,-9.09,5.06
2182,76000443,0.9585,-0.2158,0.0933,0.00,-8.84,5.06
2183,76005442,0.9595,-0.2148,0.0894,0.18,-8.84,5.06
2184,76010442,0.9551,-0.2192,0.0908,0.24,-8.66,5.06
2185,76015442,0.9580,-0.2202,0.0933,0.37,-8.66,5.18
2186,76020442,0.9556,-0.2202,0.0786,0.55,-8.48,5.12
2187,76025442,0.9580,-0.2168,0.0869,0.73,-8.29,5.30
2188,76030442,0.9619,-0.2188,0.0781,0.67,-8.17,5.37
2189,76035442,0.9585,-0.2236,0.0796,0.79,-7.93,5.43
2190,76040442,0.9619,-0.2222,0.0850,0.91,-7.87,5.43
2191,76045442,0.9575,-0.2197,0.0815,1.04,-7.62,5.30
2192,76050442,0.9595,-0.2241,0.0869,1.22,-7.38,5.43
2193,76055442,0.9590,-0.2212,0.0820,1.28,-7.01,5.30
2194,76060442,0.9604,-0.2275,0.0850,1.34,-6.89,5.43
2195,76065443,0.9565,-0.2266,0.0776,1.34,-6.65,5.49
2196,76070442,0.9629,-0.2280,0.0796,1.40,-6.34,5.18
2197,76075441,0.9600,-0.2275,0.0752,1.46,-6.22,5.24
2198,76080526,0.9590,-0.2275,0.0762,1.46,-5.85,5.18
2199,76085441,0.9614,-0.2319,0.0830,1.40,-5.73,5.24
2200,76090440,0.9614,-0.2344,0.0854,1.52,-5.55,5.12
2201,76095440,0.9614,-0.2383,0.0850,1.65,-5.12,5.18
2202,76100444,0.9663,-0.2393,0.0869,1.83,-5.06,5.12
2203,76105441,0.9644,-0.2373,0.0850,1.83,-4.63,5.12
2204,76110442,0.9653,-0.2397,0.0884,2.01,-4.33,5.06
2205,76115441,0.9722,-0.2427,0.0869,2.13,-4.15,5.12
2206,76120444,0.9717,-0.2437,0.0903,2.13,-3.78,5.00
2207,76125441,0.9756,-0.2427,0.0913,2.07,-3.54,4.88
2208,76130442,0.9756,-0.2476,0.0884,2.20,-3.29,4.82
2209,76135441,0.9727,-0.2446,0.0962,2.13,-3.05,4.76
2210,76140442,0.9736,-0.2471,0.0957,2.07,-2.80,4.57
2211,76145442,0.9780,-0.2476,0.1001,2.07,-2.56,4.51
2212,76150442,0.9766,-0.2466,0.0986,2.07,-2.38,4.33
2213,76155441,0.9746,-0.2500,0.1011,2.13,-2.07,4.27
2214,76160442,0.9697,-0.2515,0.0986,2.13,-1.83,4.09
2215,76165442,0.9707,-0.2510,0.1011,2.20,-1.59,4.02
2216,76170442,0.9697,-0.2510,0.1050,2.13,-1.46,3.90
2217,76175441,0.9727,-0.2549,0.1138,2.26,-1.22,3.72
2218,76180442,0.9756,-0.2554,0.1084,2.20,-1.10,3.78
2219,76185441,0.9736,-0.2563,0.1118,2.32,-1.04,3.54
2220,76190443,0.9766,-0.2539,0.1089,2.26,-0.73,3.41
2221,76195442,0.9761,-0.2544,0.1108,2.13,-0.61,3.23
2222,76200440,0.9780,-0.2524,0.1191,2.13,-0.43,3.11
2223,76205442,0.9790,-0.2529,0.1177,1.89,-0.43,2.87
2224,76210442,0.9785,-0.2524,0.1167,1.83,-0.18,2.62
2225,76215443,0.9766,-0.2529,0.1177,1.71,-0.24,2.44
2226,76220442,0.9746,-0.2520,0.1221,1.52,-0.12,2.20
2227,76225442,0.9727,-0.2505,0.1167,1.34,-0.06,2.01
2228,76230440,0.9736,-0.2539,0.1143,1.16,0.00,1.65
2229,76235442,0.9663,-0.2495,0.1177,0.98,0.12,1.46
2230,76240442,0.9644,-0.2510,0.1177,0.85,0.30,1.16
2231,76245441,0.9663,-0.2529,0.1162,0.85,0.37,1.04
2232,76250442,0.9619,-0.2563,0.1138,0.73,0.43,0.73
2233,76255441,0.9546,-0.2573,0.1162,0.67,0.37,0.49
2234,76260442,0.9531,-0.2524,0.1187,0.85,0.18,0.30
2235,76265442,0.9482,-0.2544,0.1172,0.91,0.37,0.12
2236,76270442,0.9487,-0.2529,0.1128,0.98,0.37,-0.18
2237,76275441,0.9453,-0.2539,0.1128,1.16,0.43,-0.43
2238,76280442,0.9507,-0.2520,0.1133,1.22,0.43,-0.67
2239,76285441,0.9463,-0.2505,0.1113,1.40,0.43,-1.04
2240,76290442,0.9570,-0.2515,0.1123,1.71,0.55,-1.16
2241,76295441,0.9551,-0.2480,0.1133,1.83,0.43,-1.46
2242,76300442,0.9561,-0.2500,0.1152,2.01,0.49,-1.83
