# skilleye imu stream v1
# device=xiao_esp32c6 imu=mpu6050 addr=0x68
# rate_hz=200 accel_range_g=16 gyro_range_dps=2000 dlpf_hz=94
# units: accel in g, gyro in deg/s, t_us in microseconds since boot (monotonic)
# no shared clock with the camera -- tap the racket once before each take
# so both recordings share a spike to align on
seq,t_us,ax,ay,az,gx,gy,gz
0,212004794,0.9141,-0.3687,0.1182,5.98,-3.35,-5.79
1,212009791,0.9155,-0.3677,0.1211,5.98,-3.23,-5.61
2,212014786,0.9160,-0.3677,0.1235,5.73,-3.23,-5.18
3,212019843,0.9116,-0.3726,0.1191,5.49,-2.74,-4.94
4,212026064,0.9116,-0.3701,0.1230,5.43,-2.68,-4.33
5,212029787,0.9121,-0.3716,0.1230,5.49,-2.44,-4.15
6,212034787,0.9150,-0.3696,0.1201,5.43,-2.01,-3.54
7,212039788,0.9121,-0.3735,0.1162,5.30,-1.65,-3.05
8,212044786,0.9121,-0.3721,0.1235,5.06,-1.59,-2.62
9,212049787,0.9097,-0.3770,0.1187,4.88,-1.40,-2.20
10,212054785,0.9048,-0.3716,0.1255,4.57,-1.10,-1.77
11,212059787,0.9097,-0.3740,0.1255,4.21,-0.98,-1.28
12,212064787,0.9126,-0.3735,0.1245,4.09,-0.73,-1.04
13,212069787,0.9106,-0.3726,0.1235,3.60,-0.49,-0.67
14,212074787,0.9165,-0.3745,0.1211,3.35,-0.37,-0.12
15,212079787,0.9175,-0.3730,0.1274,3.11,-0.30,0.18
16,212084789,0.9194,-0.3750,0.1260,2.87,-0.24,0.43
17,212090115,0.9204,-0.3726,0.1289,2.56,-0.37,0.61
18,212094787,0.9238,-0.3726,0.1279,2.38,-0.18,0.98
19,212099787,0.9253,-0.3730,0.1226,2.32,-0.18,1.16
20,212104819,0.9268,-0.3750,0.1313,2.20,-0.37,1.40
21,212109786,0.9282,-0.3770,0.1289,2.13,-0.37,1.46
22,212114787,0.9233,-0.3813,0.1323,2.20,-0.43,1.46
23,212119787,0.9243,-0.3838,0.1392,2.44,-0.55,1.52
24,212124787,0.9224,-0.3828,0.1392,2.50,-0.43,1.52
25,212129787,0.9185,-0.3833,0.1396,2.56,-0.49,1.40
26,212134787,0.9194,-0.3833,0.1382,2.68,-0.49,1.65
27,212139787,0.9141,-0.3838,0.1372,2.87,-0.61,1.46
28,212144787,0.9121,-0.3853,0.1396,2.93,-0.67,1.34
29,212149787,0.9136,-0.3804,0.1318,3.05,-0.61,1.34
30,212154787,0.9092,-0.3833,0.1411,3.23,-0.79,1.34
31,212159981,0.9058,-0.3828,0.1372,3.35,-0.91,1.22
32,212164787,0.9038,-0.3823,0.1382,3.54,-0.67,1.28
33,212169787,0.9077,-0.3799,0.1426,3.72,-0.73,1.34
34,212174787,0.9097,-0.3823,0.1406,3.78,-0.98,1.28
35,212179786,0.9077,-0.3853,0.1406,3.90,-0.91,1.46
36,212184787,0.9131,-0.3809,0.1416,4.15,-0.91,1.59
37,212190260,0.9155,-0.3823,0.1426,4.39,-0.79,1.89
38,212194789,0.9170,-0.3794,0.1382,4.51,-0.67,2.20
39,212199787,0.9194,-0.3833,0.1367,4.76,-0.49,2.38
40,212204788,0.9209,-0.3794,0.1426,4.94,-0.37,2.74
41,212209785,0.9194,-0.3804,0.1411,5.06,-0.24,3.11
42,212214787,0.9199,-0.3804,0.1362,5.24,-0.06,3.48
43,212219786,0.9209,-0.3833,0.1416,5.55,0.37,3.78
44,212224786,0.9253,-0.3838,0.1382,5.67,0.73,4.02
45,212229787,0.9312,-0.3843,0.1421,6.04,1.10,4.27
46,212234786,0.9321,-0.3823,0.1396,6.22,1.52,4.63
47,212239916,0.9360,-0.3862,0.1406,6.52,2.20,4.82
48,212244787,0.9414,-0.3882,0.1421,6.71,2.44,5.00
49,212249888,0.9395,-0.3892,0.1509,7.07,2.99,5.06
50,212254787,0.9453,-0.3848,0.1460,7.20,3.48,5.12
51,212259787,0.9487,-0.3882,0.1494,7.44,3.96,5.06
52,212264785,0.9624,-0.3916,0.1460,7.62,4.45,4.94
53,212269786,0.9702,-0.3931,0.1499,7.93,4.94,4.88
54,212274788,0.9609,-0.3921,0.1514,8.23,5.49,4.76
55,212279787,0.9575,-0.3892,0.1606,8.29,5.98,4.51
56,212284788,0.9541,-0.3887,0.1606,8.54,6.46,4.09
57,212289785,0.9731,-0.3936,0.1587,8.60,7.01,3.78
58,212294785,0.9795,-0.3921,0.1592,8.54,7.50,3.48
59,212299787,0.9692,-0.3774,0.1616,8.60,7.99,3.17
60,212304785,0.9556,-0.3726,0.1514,8.48,8.60,2.68
61,212309845,0.9819,-0.3760,0.1621,8.29,8.90,2.26
62,212314788,0.9697,-0.3599,0.1611,7.93,9.39,1.95
63,212319786,0.9414,-0.3506,0.1641,7.50,10.00,1.40
64,212324787,0.9546,-0.3389,0.1577,6.89,10.55,0.91
65,212329787,0.9478,-0.3276,0.1621,6.22,10.91,0.49
66,212334787,0.9229,-0.3086,0.1606,5.37,11.40,0.00
67,212339787,0.9395,-0.3081,0.1680,4.45,11.65,-0.30
68,212344788,0.9346,-0.2954,0.1714,3.60,11.95,-0.61
69,212349786,0.9067,-0.2847,0.1685,2.68,12.13,-0.73
70,212354787,0.9219,-0.3013,0.1768,1.89,12.56,-0.79
71,212360136,0.8955,-0.2886,0.1758,1.04,12.80,-0.55
72,212364787,0.8950,-0.2974,0.1743,0.37,12.87,-0.43
73,212369829,0.8975,-0.2974,0.1812,-0.12,12.93,-0.18
74,212374787,0.8809,-0.2939,0.1836,-0.67,13.05,0.30
75,212379786,0.8877,-0.3062,0.1880,-1.16,13.17,0.79
76,212384787,0.8872,-0.3091,0.1943,-1.59,13.17,1.40
77,212389787,0.8770,-0.3018,0.1948,-1.83,13.35,1.77
78,212394787,0.8804,-0.3062,0.2007,-2.20,13.35,2.13
79,212399787,0.8857,-0.2974,0.1997,-2.50,13.35,2.56
80,212404787,0.8711,-0.2881,0.2041,-2.99,13.60,2.68
81,212409787,0.8701,-0.2837,0.2119,-3.41,13.41,2.50
82,212414787,0.8750,-0.2808,0.2173,-3.84,13.41,2.20
83,212419786,0.8672,-0.2769,0.2192,-4.45,13.41,1.40
84,212424787,0.8672,-0.2769,0.2246,-4.76,13.29,0.61
85,212429786,0.8687,-0.2764,0.2163,-5.37,13.29,-0.49
86,212434786,0.8652,-0.2822,0.2212,-5.85,12.80,-1.83
87,212439787,0.8525,-0.2964,0.1978,-6.16,12.13,-3.35
88,212444786,0.8589,-0.3066,0.1997,-6.65,11.04,-4.88
89,212449787,0.8657,-0.3232,0.2100,-7.01,10.06,-6.22
90,212454787,0.8765,-0.3408,0.2158,-7.13,8.72,-7.62
91,212459787,0.8765,-0.3530,0.2109,-7.32,7.07,-8.66
92,212464788,0.8589,-0.3560,0.2178,-7.62,5.55,-9.63
93,212469785,0.8320,-0.3618,0.2344,-7.68,3.84,-10.24
94,212474787,0.8813,-0.3745,0.2212,-7.93,2.26,-10.37
95,212479787,0.9092,-0.3955,0.1641,-8.48,0.55,-10.49
96,212484787,0.9062,-0.3931,0.1221,-9.70,-1.46,-10.30
97,212489787,0.8809,-0.3667,0.1421,-11.46,-3.35,-9.94
98,212494786,0.8481,-0.3506,0.1895,-13.41,-4.76,-9.63
99,212499789,0.8237,-0.3589,0.1978,-15.43,-5.85,-9.15
100,212504786,0.8208,-0.3921,0.2144,-17.87,-6.71,-8.54
101,212509785,0.8179,-0.3867,0.1802,-20.30,-7.56,-7.50
102,212515139,0.8364,-0.3696,0.1406,-23.17,-8.35,-6.71
103,212519788,0.8521,-0.3579,0.0859,-26.16,-9.33,-5.91
104,212524786,0.8379,-0.3506,0.0859,-29.51,-10.55,-5.12
105,212529804,0.8657,-0.3652,0.1079,-32.68,-11.34,-4.33
106,212534785,0.8691,-0.3682,0.0952,-35.67,-12.32,-3.48
107,212539787,0.8711,-0.3823,0.0791,-38.41,-13.35,-2.38
108,212544786,0.8804,-0.4082,0.0859,-41.04,-14.33,-1.34
109,212549789,0.8896,-0.4277,0.0991,-43.72,-15.18,-0.24
110,212554786,0.9033,-0.4365,0.0811,-46.28,-16.10,0.91
111,212559787,0.8965,-0.4365,0.0688,-48.90,-17.20,2.20
112,212564787,0.9370,-0.4302,0.0684,-51.46,-18.05,3.41
113,212569785,0.9668,-0.4370,0.0645,-54.09,-19.02,4.70
114,212574857,0.9746,-0.4473,0.0513,-56.71,-19.94,6.22
115,212579787,0.9800,-0.4619,0.0376,-59.21,-20.73,7.74
116,212584787,0.9736,-0.4775,0.0459,-61.95,-21.77,9.27
117,212589787,0.9697,-0.4849,0.0576,-64.51,-22.50,11.04
118,212594786,0.9575,-0.4912,0.0459,-67.26,-23.17,12.87
119,212599897,0.9688,-0.4824,0.0410,-69.94,-23.96,14.76
120,212604787,0.9878,-0.4692,0.0259,-72.62,-24.33,16.65
121,212609787,1.0024,-0.4692,0.0356,-75.67,-24.94,18.54
122,212614788,0.9995,-0.4722,0.0361,-78.54,-25.30,20.61
123,212619786,0.9990,-0.4805,0.0400,-81.52,-25.43,22.87
124,212624787,0.9985,-0.4790,0.0425,-84.45,-25.67,25.18
125,212629787,1.0010,-0.4805,0.0464,-87.26,-25.73,27.68
126,212634788,1.0029,-0.4771,0.0342,-90.00,-25.61,30.24
127,212639786,0.9961,-0.4785,0.0137,-92.87,-25.37,32.93
128,212644787,0.9902,-0.4746,0.0166,-95.55,-25.18,35.49
129,212649787,0.9858,-0.4814,0.0034,-98.11,-24.88,38.35
130,212654787,0.9780,-0.4868,-0.0029,-100.49,-24.63,41.34
131,212659786,0.9697,-0.4971,-0.0186,-102.93,-24.27,44.21
132,212664787,0.9580,-0.5073,-0.0259,-104.82,-23.96,47.32
133,212669786,0.9443,-0.5210,-0.0327,-106.77,-23.72,50.55
134,212674785,0.9385,-0.5283,-0.0396,-108.17,-23.48,53.66
135,212679789,0.9263,-0.5396,-0.0430,-109.57,-23.17,56.77
136,212684786,0.9189,-0.5479,-0.0449,-110.55,-22.80,60.18
137,212689787,0.9082,-0.5552,-0.0474,-111.59,-22.68,63.41
138,212694788,0.8931,-0.5640,-0.0581,-112.44,-22.62,66.65
139,212699789,0.8716,-0.5786,-0.0542,-113.17,-22.20,69.94
140,212704786,0.8247,-0.5952,-0.0615,-113.72,-22.07,73.17
141,212709787,0.8442,-0.5913,-0.0640,-114.27,-21.89,76.65
142,212714787,0.8672,-0.5894,-0.0684,-114.39,-21.95,80.06
143,212719801,0.8804,-0.5815,-0.0664,-114.51,-21.77,83.23
144,212724787,0.8696,-0.5859,-0.0620,-114.51,-21.71,85.79
145,212729786,0.8403,-0.5889,-0.0640,-114.27,-21.65,88.84
146,212734785,0.8120,-0.6006,-0.0596,-113.48,-21.34,92.20
147,212739787,0.7871,-0.6167,-0.0664,-112.50,-21.28,95.24
148,212744826,0.7695,-0.6240,-0.0737,-111.34,-21.34,98.41
149,212749787,0.7583,-0.6260,-0.0850,-109.70,-21.22,101.34
150,212754787,0.7505,-0.6318,-0.0986,-107.74,-21.40,104.27
151,212759785,0.7388,-0.6333,-0.1030,-105.61,-21.40,107.26
152,212764787,0.7354,-0.6279,-0.1138,-103.41,-21.59,110.12
153,212770040,0.7202,-0.6240,-0.1191,-100.98,-21.89,112.99
154,212774787,0.7085,-0.6270,-0.1304,-98.35,-21.83,115.79
155,212779787,0.6997,-0.6343,-0.1313,-95.55,-22.01,118.54
156,212784787,0.6919,-0.6401,-0.1348,-93.35,-22.20,120.79
157,212789786,0.6831,-0.6489,-0.1304,-90.24,-22.20,123.60
158,212794788,0.6733,-0.6587,-0.1392,-86.77,-22.44,126.34
159,212799787,0.6675,-0.6660,-0.1421,-83.41,-22.44,129.15
160,212804787,0.6562,-0.6699,-0.1450,-79.82,-22.44,131.95
161,212809786,0.6426,-0.6724,-0.1558,-76.40,-22.38,134.82
162,212814787,0.6377,-0.6709,-0.1763,-73.17,-22.32,137.68
163,212819787,0.6333,-0.6733,-0.1899,-69.94,-22.13,140.43
164,212824787,0.6245,-0.6772,-0.2065,-66.89,-21.89,143.17
165,212829787,0.6235,-0.6743,-0.2031,-64.33,-21.65,145.79
166,212834786,0.6035,-0.6826,-0.2109,-62.07,-21.40,148.41
167,212839787,0.5981,-0.7021,-0.2217,-60.30,-21.04,150.91
168,212844786,0.5820,-0.7285,-0.2178,-59.21,-20.61,153.41
169,212849787,0.5562,-0.7334,-0.2188,-58.96,-20.24,156.10
170,212854786,0.5278,-0.7134,-0.2144,-59.94,-19.57,158.41
171,212859789,0.5122,-0.6943,-0.2085,-62.13,-19.09,160.67
172,212864786,0.5029,-0.6768,-0.2119,-65.18,-18.29,162.56
173,212869787,0.4951,-0.6733,-0.2031,-68.84,-17.50,164.15
174,212874786,0.4844,-0.6758,-0.2114,-72.93,-17.07,165.79
175,212879942,0.4731,-0.6948,-0.2153,-77.80,-16.34,167.50
176,212884787,0.4692,-0.7285,-0.2168,-80.67,-15.98,168.72
177,212889976,0.4478,-0.7637,-0.2114,-84.51,-15.12,170.55
178,212894791,0.4272,-0.7744,-0.2192,-86.46,-14.57,171.77
179,212900012,0.4238,-0.7793,-0.2446,-88.66,-14.09,173.66
180,212904788,0.4219,-0.7910,-0.2651,-89.39,-13.84,174.82
181,212909787,0.4170,-0.7925,-0.2710,-89.82,-13.54,176.34
182,212914787,0.4209,-0.7246,-0.2583,-89.82,-13.11,177.62
183,212919786,0.3999,-0.6738,-0.2891,-89.02,-12.68,178.48
184,212924788,0.3833,-0.6587,-0.3389,-87.50,-12.56,179.09
185,212929787,0.3647,-0.6753,-0.3232,-85.06,-12.32,179.45
186,212934787,0.3218,-0.6943,-0.3022,-81.89,-11.95,179.76
187,212939785,0.4463,-0.3687,0.0776,-77.01,-7.74,177.26
188,212944785,0.4985,0.0059,0.7119,-67.80,9.94,166.04
189,212949787,0.4697,-0.4917,-0.2656,-53.90,27.13,152.68
190,212954786,0.3647,-0.7632,-0.4800,-38.66,33.48,145.37
191,212959787,0.3154,-0.7778,-0.3110,-23.29,38.11,141.16
192,212964786,0.3062,-0.7700,-0.2490,-7.93,43.17,137.26
193,212969787,0.3262,-0.7383,-0.3628,6.77,47.07,133.35
194,212974786,0.3125,-0.7427,-0.4399,19.82,50.00,129.15
195,212979787,0.3140,-0.7549,-0.3696,31.52,52.80,125.00
196,212984786,0.3032,-0.7969,-0.3232,41.52,55.49,120.85
197,212989787,0.2725,-0.8496,-0.3457,49.76,57.74,116.71
198,212994786,0.2583,-0.8711,-0.3701,56.10,59.63,112.87
199,212999787,0.1836,-0.8809,-0.3696,61.16,61.10,109.21
200,213004786,0.1611,-0.8999,-0.3516,63.96,62.38,105.91
201,213009787,0.1323,-0.9121,-0.4009,64.33,62.68,102.68
202,213014786,0.1245,-0.9058,-0.4277,62.32,62.20,99.39
203,213019787,0.1226,-0.9438,-0.3916,58.17,61.34,95.91
204,213024787,0.1201,-0.9897,-0.3643,52.93,60.79,92.87
205,213029787,0.1421,-1.0205,-0.3521,46.28,60.37,89.88
206,213034890,0.1841,-1.0332,-0.3003,39.09,60.79,86.71
207,213039787,0.2178,-1.0288,-0.2349,31.04,62.74,85.85
208,213044786,0.2568,-1.0322,-0.2358,22.87,66.04,82.80
209,213049787,0.2749,-1.0342,-0.3149,15.06,69.39,80.24
210,213054787,0.2725,-1.0400,-0.4028,7.93,71.65,77.44
211,213059787,0.2627,-1.0664,-0.4141,2.01,72.44,74.33
212,213064786,0.3091,-1.1201,-0.3369,-2.62,73.05,71.16
213,213069787,0.3223,-1.1387,-0.3281,-6.16,73.90,68.23
214,213074786,0.3447,-1.1289,-0.3022,-8.29,74.88,65.12
215,213080200,0.3149,-1.0991,-0.2686,-9.63,76.28,61.34
216,213084787,0.2681,-1.0991,-0.2578,-10.37,77.20,57.32
217,213089787,0.2412,-1.1230,-0.2441,-10.61,77.68,53.29
218,213094786,0.1841,-1.1304,-0.2178,-10.73,77.99,49.51
219,213099787,0.1929,-1.1372,-0.2236,-10.49,77.99,45.61
220,213104786,0.2134,-1.1777,-0.2646,-10.55,77.87,42.32
221,213109787,0.2261,-1.1948,-0.3032,-10.43,77.56,39.70
222,213114786,0.2319,-1.2153,-0.3213,-10.30,77.38,37.56
223,213119790,0.2314,-1.2168,-0.3091,-9.82,77.32,35.73
224,213124786,0.2402,-1.2158,-0.2915,-9.09,77.87,34.27
225,213129787,0.2588,-1.2090,-0.2783,-8.17,78.72,33.17
226,213134786,0.2676,-1.1987,-0.2734,-7.50,79.82,32.13
227,213139801,0.2671,-1.1826,-0.2729,-6.83,81.22,31.22
228,213144877,0.2563,-1.1748,-0.2749,-6.52,82.32,30.24
229,213149786,0.2500,-1.1670,-0.2583,-6.16,83.78,29.33
230,213154787,0.2563,-1.1660,-0.2534,-5.73,84.15,28.48
231,213159787,0.3008,-1.1670,-0.2529,-5.24,85.61,27.62
232,213164788,0.2905,-1.1719,-0.2510,-4.63,85.73,26.59
233,213169787,0.3389,-1.2026,-0.2222,-4.27,85.73,25.85
234,213174786,0.3745,-1.2119,-0.2168,-3.54,85.73,25.06
235,213179785,0.3545,-1.2061,-0.2129,-2.62,85.73,24.33
236,213184785,0.4590,-1.1699,-0.1875,-1.71,85.73,23.54
237,213189787,0.4722,-1.1475,-0.1704,-0.98,87.99,22.74
238,213194789,0.4517,-1.1577,-0.1611,0.18,89.02,21.83
239,213199787,0.4268,-1.1538,-0.1787,1.59,90.12,21.10
240,213204787,0.3755,-1.1426,-0.1523,3.35,91.46,20.12
241,213209787,0.3345,-1.1553,-0.1216,5.24,93.05,19.21
242,213214786,0.2871,-1.1099,-0.1323,6.65,94.39,18.29
243,213219787,0.2920,-1.0522,-0.1533,7.62,95.37,16.89
244,213224786,0.3467,-1.0537,-0.1826,8.23,95.85,15.37
245,213229787,0.3921,-1.0703,-0.1865,7.93,96.46,13.90
246,213234786,0.4106,-1.0981,-0.2002,6.52,96.77,12.62
247,213239991,0.4219,-1.1362,-0.2036,4.51,96.65,11.65
248,213244786,0.4272,-1.1543,-0.1846,2.44,96.59,10.79
249,213249787,0.4399,-1.1670,-0.1616,-0.12,96.40,10.12
250,213254786,0.4795,-1.1816,-0.1621,-2.80,96.34,9.45
251,213259787,0.4854,-1.1865,-0.1768,-5.67,95.85,8.90
252,213264786,0.4727,-1.1909,-0.1567,-8.66,95.12,8.29
253,213269787,0.4893,-1.2017,-0.1265,-11.52,94.63,7.56
254,213274787,0.4766,-1.1826,-0.1211,-14.63,93.96,6.71
255,213279787,0.4712,-1.1606,-0.1226,-17.50,93.11,5.37
256,213284785,0.4639,-1.1367,-0.1089,-20.24,92.01,3.41
257,213289969,0.6436,-1.1255,-0.1221,-22.38,90.85,1.28
258,213294787,0.6450,-1.1196,-0.1411,-23.05,89.57,-1.46
259,213299787,0.5806,-1.1138,-0.0840,-21.46,88.60,-4.21
260,213304787,0.5625,-1.1265,0.0220,-19.02,88.17,-7.62
261,213309786,0.5635,-1.1313,0.0684,-15.85,86.77,-11.34
262,213314787,0.5742,-1.1245,0.0825,-12.26,87.01,-15.37
263,213319787,0.5977,-1.1094,0.0928,-8.35,87.20,-19.51
264,213324787,0.6309,-1.0889,0.0972,-4.15,87.44,-23.90
265,213329786,0.6597,-1.0835,0.1025,0.06,86.89,-28.23
266,213334788,0.6714,-1.0913,0.0903,5.30,87.50,-32.62
267,213339786,0.7236,-1.0752,0.1084,10.61,85.43,-36.83
268,213344787,0.7017,-1.0864,0.1865,15.91,85.49,-41.04
269,213349786,0.6221,-1.0928,0.2095,22.01,85.61,-45.06
270,213354789,0.4927,-1.1411,0.1797,29.15,85.55,-48.72
271,213359787,0.3394,-1.1924,0.1333,36.22,85.24,-51.28
272,213364787,0.2563,-1.1846,0.1489,42.99,84.70,-53.41
273,213369786,0.2275,-1.1426,0.1221,49.33,82.38,-55.30
274,213374787,0.2373,-1.0854,0.1182,54.63,80.73,-57.56
275,213379787,0.2925,-1.0469,0.1001,58.84,79.21,-59.88
276,213384785,0.3330,-1.0518,0.0986,61.83,77.80,-61.83
277,213389785,0.3345,-1.0522,0.0942,64.94,76.04,-64.15
278,213394786,0.3066,-1.0557,0.0947,68.17,73.78,-66.52
279,213399787,0.2803,-1.0659,0.1304,69.70,72.56,-67.68
280,213404786,0.2490,-1.0327,0.1475,71.40,71.04,-68.72
281,213409787,0.2500,-1.0020,0.1753,72.93,69.63,-69.88
282,213414786,0.2842,-0.9663,0.2056,73.96,68.48,-71.04
283,213419785,0.3281,-0.9473,0.2349,74.82,67.38,-72.13
284,213424787,0.3652,-0.9189,0.2500,75.79,66.22,-73.17
285,213429787,0.3789,-0.8818,0.2529,77.20,65.18,-74.33
286,213434846,0.3599,-0.8574,0.2554,79.51,63.78,-75.43
287,213439786,0.3306,-0.8374,0.2515,82.50,62.13,-76.34
288,213444787,0.3042,-0.8262,0.2446,86.10,60.12,-77.07
289,213449786,0.2866,-0.8071,0.2334,90.06,57.87,-77.44
290,213454787,0.2788,-0.7754,0.2290,94.33,55.61,-77.62
291,213459787,0.2759,-0.7441,0.2456,98.48,53.05,-77.87
292,213464786,0.2939,-0.7158,0.2490,102.38,50.61,-77.68
293,213469787,0.2891,-0.6890,0.2769,105.49,48.60,-77.38
294,213474786,0.2778,-0.6562,0.3042,107.99,46.40,-76.77
295,213479787,0.2720,-0.6157,0.3267,109.70,44.51,-75.67
296,213484787,0.2705,-0.5718,0.3481,110.37,42.56,-74.51
297,213489785,0.2759,-0.5391,0.3628,110.06,40.73,-73.17
298,213494837,0.2788,-0.5024,0.3838,108.84,38.78,-70.91
299,213499787,0.2788,-0.4751,0.3848,107.80,37.32,-69.27
300,213504786,0.2886,-0.4473,0.3931,106.46,35.55,-66.83
301,213509787,0.2871,-0.4097,0.3950,105.12,33.54,-64.45
302,213514786,0.2710,-0.3872,0.3965,104.02,31.59,-61.65
303,213519787,0.2612,-0.3574,0.3970,103.35,29.33,-58.72
304,213524786,0.2979,-0.3228,0.4321,102.68,27.32,-55.79
305,213529787,0.3247,-0.2900,0.4546,101.77,25.30,-52.68
306,213534786,0.3384,-0.2578,0.4468,100.67,23.60,-49.15
307,213539785,0.2383,-0.2500,0.4194,99.70,22.44,-45.67
308,213544788,0.1567,-0.2280,0.4243,95.98,20.49,-41.77
309,213550305,0.1895,-0.1753,0.4092,92.20,19.02,-37.20
310,213554787,0.2056,-0.1279,0.4204,89.51,18.17,-34.27
311,213559786,0.1904,-0.1128,0.4243,85.79,17.26,-30.49
312,213564787,0.2236,-0.1187,0.3921,81.65,16.34,-26.46
313,213569787,0.2734,-0.1455,0.4507,78.11,15.61,-22.68
314,213574787,0.1855,-0.1411,0.3994,75.55,15.00,-18.78
315,213579786,0.1035,-0.1221,0.3579,72.44,14.39,-14.88
316,213584787,0.1201,-0.1191,0.3877,69.15,14.27,-10.79
317,213589786,0.1436,-0.1191,0.3853,66.22,14.21,-6.71
318,213594785,0.1479,-0.1265,0.3594,63.60,14.15,-2.50
319,213599786,0.1279,-0.1294,0.3633,61.65,14.15,1.77
320,213604787,0.1221,-0.1294,0.3755,60.12,14.45,6.28
321,213609788,0.1245,-0.1279,0.3599,59.09,14.94,11.04
322,213614787,0.1191,-0.1367,0.3540,58.17,15.24,15.61
323,213619786,0.1182,-0.1426,0.3599,57.87,15.85,20.30
324,213624787,0.1074,-0.1455,0.3579,57.74,16.40,25.24
325,213629787,0.1074,-0.1523,0.3521,57.62,17.20,30.18
326,213634787,0.0986,-0.1602,0.3511,57.68,17.87,35.30
327,213639787,0.0840,-0.1685,0.3501,57.62,18.84,40.37
328,213644787,0.0742,-0.1797,0.3506,57.38,19.76,45.73
329,213649786,0.0625,-0.1890,0.3457,56.83,20.91,51.10
330,213654787,0.0610,-0.2080,0.3545,56.04,22.20,56.83
331,213659786,0.0532,-0.2227,0.3511,54.94,23.54,62.62
332,213664786,0.0454,-0.2378,0.3555,53.48,25.18,68.54
333,213669787,0.0415,-0.2539,0.3589,51.89,26.71,74.70
334,213674786,0.0381,-0.2686,0.3574,50.24,28.41,81.16
335,213679787,0.0312,-0.2905,0.3560,48.84,30.24,86.89
336,213684786,0.0308,-0.3101,0.3530,47.62,32.07,94.21
337,213689787,0.0312,-0.3320,0.3521,46.46,33.90,101.16
338,213694785,0.0259,-0.3521,0.3491,45.43,35.73,108.23
339,213699817,0.0156,-0.3647,0.3433,44.51,37.56,115.49
340,213704787,0.0010,-0.3862,0.3433,43.78,39.39,122.56
341,213709787,-0.0234,-0.3999,0.3384,43.23,40.85,129.70
342,213714787,-0.0474,-0.4229,0.3301,42.68,42.56,136.83
343,213719806,-0.0640,-0.4395,0.3291,42.20,44.09,143.90
344,213724787,-0.0791,-0.4595,0.3291,41.95,45.43,151.04
345,213729786,-0.0938,-0.4814,0.3306,41.65,47.01,158.17
346,213734787,-0.1021,-0.5122,0.3306,41.34,48.66,165.49
347,213739787,-0.1235,-0.5454,0.3374,41.16,50.12,172.80
348,213744788,-0.1392,-0.5830,0.3345,41.10,51.77,180.43
349,213749786,-0.1592,-0.6196,0.3467,41.16,53.29,187.87
350,213754787,-0.1748,-0.6533,0.3467,40.91,54.76,195.55
351,213759786,-0.1934,-0.6821,0.3462,40.37,56.04,203.11
352,213764787,-0.2183,-0.7134,0.3501,39.21,57.50,210.67
353,213769789,-0.2480,-0.7480,0.3594,37.20,58.48,217.93
354,213774786,-0.2881,-0.7974,0.3696,34.51,59.57,225.06
355,213779787,-0.3359,-0.8301,0.3955,30.73,60.73,232.13
356,213784786,-0.3711,-0.8623,0.4155,26.04,62.07,238.96
357,213789787,-0.3975,-0.9028,0.4307,20.12,63.35,245.61
358,213794785,-0.4258,-0.9355,0.4570,13.35,64.51,252.01
359,213799785,-0.4531,-0.9741,0.4756,5.67,65.67,257.99
360,213804787,-0.4902,-1.0225,0.4897,-2.87,66.59,263.78
361,213809787,-0.5444,-1.0674,0.5054,-12.44,67.20,269.45
362,213814786,-0.5977,-1.1167,0.5303,-22.99,67.93,274.57
363,213819787,-0.6450,-1.1768,0.5425,-34.27,68.05,279.57
364,213824786,-0.6953,-1.2324,0.5620,-46.83,68.05,284.45
365,213829787,-0.7461,-1.2773,0.5781,-60.06,67.68,288.72
366,213834786,-0.8071,-1.3247,0.5894,-74.51,66.77,292.62
367,213839787,-0.8589,-1.3579,0.5977,-89.82,65.24,295.67
368,213844815,-0.8813,-1.3970,0.6084,-105.91,63.35,298.17
369,213849788,-0.8926,-1.4385,0.5996,-122.80,60.85,300.24
370,213854786,-0.9072,-1.4800,0.6084,-139.88,57.87,301.65
371,213859787,-0.9150,-1.5239,0.6074,-157.32,54.57,302.87
372,213864785,-0.9194,-1.5723,0.6069,-174.82,50.73,303.54
373,213869787,-0.9351,-1.6182,0.6021,-192.32,46.46,304.09
374,213874786,-0.9575,-1.6714,0.6035,-209.45,42.26,304.51
375,213879787,-0.9854,-1.7158,0.5889,-226.22,37.56,304.45
376,213884786,-1.0171,-1.7656,0.5674,-241.83,32.80,304.02
377,213889787,-1.0508,-1.8022,0.5337,-255.91,27.62,303.41
378,213894786,-1.0815,-1.8467,0.4912,-267.99,22.32,302.56
379,213899978,-1.1084,-1.8901,0.4609,-277.80,16.83,301.34
380,213904787,-1.1377,-1.9229,0.4224,-285.37,11.40,300.00
381,213909787,-1.1641,-1.9658,0.3706,-290.55,5.85,298.48
382,213914787,-1.1855,-1.9995,0.3301,-293.78,0.43,296.34
383,213919786,-1.2480,-2.0356,0.3066,-294.94,-4.51,294.21
384,213924787,-1.2769,-2.0166,0.2095,-293.78,-9.02,291.89
385,213929787,-1.2593,-2.0352,0.1406,-290.61,-13.35,288.90
386,213934787,-1.2588,-2.0542,0.0767,-285.67,-17.32,285.79
387,213939786,-1.2588,-2.0669,0.0078,-280.18,-20.49,282.07
388,213944787,-1.2529,-2.0688,-0.0308,-274.45,-22.68,278.11
389,213949787,-1.2432,-2.0776,-0.0781,-269.27,-23.54,273.84
390,213954786,-1.2466,-2.0972,-0.1440,-264.15,-23.60,269.39
391,213959787,-1.2256,-2.0996,-0.1987,-259.39,-22.50,265.12
392,213964786,-1.2603,-2.1050,-0.2622,-254.57,-20.55,260.85
393,213969788,-1.2710,-2.1011,-0.3271,-249.76,-17.62,256.65
394,213974787,-1.2476,-2.0938,-0.3979,-244.94,-13.96,252.32
395,213979787,-1.2314,-2.0493,-0.4551,-240.85,-10.67,248.96
396,213984786,-1.2285,-2.1050,-0.5391,-235.37,-6.16,244.94
397,213989787,-1.2197,-2.0688,-0.5415,-229.76,-0.98,240.85
398,213994786,-1.2227,-2.0195,-0.5830,-223.90,5.06,236.46
399,213999785,-1.2124,-1.9795,-0.6626,-218.11,11.34,232.26
400,214004785,-1.2036,-1.9355,-0.6841,-211.59,18.41,227.99
401,214009788,-1.2080,-1.9116,-0.7158,-204.45,26.10,223.72
402,214014786,-1.2217,-1.8921,-0.7720,-196.52,34.09,219.45
403,214019787,-1.2461,-1.8647,-0.7905,-188.17,42.32,215.37
404,214024786,-1.2603,-1.8320,-0.8115,-179.02,51.22,211.10
405,214029787,-1.2456,-1.8188,-0.8359,-169.27,60.49,207.32
406,214034786,-1.2310,-1.8081,-0.8511,-158.96,70.67,203.78
407,214039787,-1.2090,-1.7871,-0.8608,-148.60,81.59,200.37
408,214044786,-1.1880,-1.7632,-0.8765,-138.23,91.46,197.13
409,214049787,-1.1670,-1.7402,-0.8892,-127.99,102.62,194.02
410,214054789,-1.1353,-1.7153,-0.9014,-118.11,114.21,190.85
411,214059786,-1.1162,-1.6841,-0.9072,-108.60,125.73,187.68
412,214064787,-1.1035,-1.6519,-0.9150,-99.94,137.50,184.33
413,214069786,-1.0835,-1.6206,-0.9160,-91.89,149.15,180.73
414,214074787,-1.0601,-1.5854,-0.9160,-84.63,161.04,177.13
415,214079787,-1.0449,-1.5566,-0.9209,-77.87,172.62,173.29
416,214084787,-1.0435,-1.5254,-0.9077,-71.89,184.09,169.27
417,214089839,-1.0410,-1.5000,-0.8921,-66.65,195.49,165.30
418,214094787,-1.0376,-1.4795,-0.8823,-62.13,206.46,161.40
419,214099787,-1.0386,-1.4604,-0.8804,-58.23,217.20,157.32
420,214104787,-1.0386,-1.4414,-0.8677,-54.82,227.56,153.23
421,214109785,-1.0430,-1.4336,-0.8379,-52.01,237.80,149.15
422,214114789,-1.0566,-1.4165,-0.8213,-49.21,247.56,144.94
423,214119787,-1.0566,-1.3979,-0.8057,-46.59,257.07,140.49
424,214124787,-1.0454,-1.3779,-0.7905,-43.48,266.16,135.85
425,214129787,-1.0361,-1.3652,-0.7798,-40.37,274.63,131.04
426,214134787,-1.0312,-1.3462,-0.7622,-37.56,282.62,126.10
427,214139787,-1.0244,-1.3311,-0.7354,-35.49,290.37,120.98
428,214144788,-1.0146,-1.3110,-0.7061,-34.39,297.62,115.79
429,214149787,-1.0068,-1.2939,-0.6826,-34.45,304.76,110.61
430,214154787,-1.0034,-1.2754,-0.6479,-35.85,312.68,104.21
431,214159794,-0.9990,-1.2612,-0.6299,-37.50,317.99,100.06
432,214164785,-0.9868,-1.2476,-0.6016,-40.00,323.78,94.70
433,214169855,-0.9829,-1.2378,-0.5688,-42.87,329.57,89.88
434,214174787,-0.9922,-1.2256,-0.5420,-46.04,335.00,84.76
435,214179787,-0.9946,-1.2139,-0.5112,-49.15,340.06,79.09
436,214184786,-0.9741,-1.2021,-0.4810,-51.83,345.00,73.72
437,214189786,-0.9492,-1.1841,-0.4585,-54.27,349.45,68.29
438,214194789,-0.9312,-1.1562,-0.4307,-55.91,353.96,62.62
439,214199788,-0.9165,-1.1338,-0.4048,-56.89,357.93,56.89
440,214204788,-0.8979,-1.1152,-0.3809,-57.26,361.52,50.73
441,214209785,-0.8794,-1.1001,-0.3560,-57.13,365.00,44.45
442,214214787,-0.8691,-1.0825,-0.3213,-56.65,368.41,37.93
443,214219787,-0.8555,-1.0654,-0.2949,-55.61,371.52,31.34
444,214224786,-0.8516,-1.0513,-0.2773,-54.15,374.57,24.39
445,214229785,-0.8359,-1.0425,-0.2510,-52.26,377.13,17.50
446,214234789,-0.8271,-1.0288,-0.2280,-49.76,379.76,10.24
447,214239787,-0.8354,-1.0210,-0.2104,-46.83,381.95,3.11
448,214244787,-0.8389,-1.0117,-0.1875,-43.35,383.78,-4.21
449,214249787,-0.8657,-1.0088,-0.1704,-39.21,385.00,-11.65
450,214254788,-0.8682,-0.9941,-0.1450,-34.70,386.22,-19.33
451,214259787,-0.8667,-0.9839,-0.1279,-29.57,387.01,-27.20
452,214264787,-0.8672,-0.9688,-0.1162,-23.72,387.50,-34.94
453,214269787,-0.8662,-0.9585,-0.1064,-17.38,387.26,-43.05
454,214274785,-0.8691,-0.9517,-0.0947,-10.61,386.83,-51.34
455,214279852,-0.8506,-0.9385,-0.0845,-3.29,385.73,-59.63
456,214284786,-0.8320,-0.9287,-0.0830,4.27,383.72,-68.05
457,214289787,-0.8115,-0.9092,-0.0825,11.95,381.40,-76.71
458,214294786,-0.7935,-0.8931,-0.0815,19.02,378.48,-85.24
459,214299787,-0.7563,-0.8701,-0.0645,25.00,375.18,-94.09
460,214304786,-0.7134,-0.8433,-0.0562,30.00,371.28,-103.05
461,214310269,-0.6704,-0.8208,-0.0552,33.54,367.20,-112.01
462,214314787,-0.6270,-0.7988,-0.0522,35.37,362.68,-120.91
463,214319787,-0.5869,-0.7764,-0.0415,35.30,357.74,-130.06
464,214324785,-0.5527,-0.7534,-0.0195,33.41,352.62,-138.96
465,214329787,-0.5044,-0.7344,-0.0220,29.51,347.50,-147.93
466,214334787,-0.4800,-0.7153,-0.0127,23.78,342.38,-156.46
467,214339785,-0.4580,-0.6860,0.0073,16.59,337.26,-164.76
468,214344787,-0.4165,-0.6787,0.0117,8.54,332.13,-172.74
469,214349786,-0.3882,-0.6562,0.0435,0.24,327.38,-180.00
470,214354787,-0.3428,-0.6323,0.0562,-7.80,322.87,-186.71
471,214359787,-0.2832,-0.6099,0.0522,-15.30,318.17,-192.99
472,214364787,-0.2104,-0.5801,0.0493,-21.77,313.54,-198.78
473,214369801,-0.1504,-0.5503,0.0439,-27.32,308.54,-204.09
474,214374787,-0.0952,-0.5244,0.0420,-32.20,303.23,-209.21
475,214379795,-0.0503,-0.4907,0.0410,-36.89,297.99,-214.15
476,214384788,-0.0142,-0.4707,0.0522,-41.77,292.56,-218.84
477,214389787,0.0107,-0.4463,0.0693,-47.20,287.32,-223.54
478,214394787,0.0273,-0.4268,0.0913,-53.66,282.26,-228.35
479,214399787,0.0342,-0.4067,0.1128,-60.98,277.50,-232.99
480,214404787,0.0239,-0.3892,0.1299,-69.15,273.11,-237.50
481,214409785,0.0181,-0.3760,0.1465,-77.87,269.09,-242.07
482,214414785,-0.0029,-0.3608,0.1548,-86.28,265.12,-246.34
483,214419787,-0.0273,-0.3398,0.1699,-94.09,261.40,-250.49
484,214424787,-0.0317,-0.3228,0.1914,-100.43,258.05,-254.57
485,214429785,-0.0337,-0.2954,0.2090,-104.94,254.63,-258.41
486,214434788,-0.0205,-0.2720,0.2188,-107.13,251.46,-262.13
487,214439787,0.0049,-0.2446,0.2134,-107.07,247.99,-265.79
488,214444787,0.0269,-0.2251,0.2188,-104.57,244.57,-269.45
489,214449787,0.0396,-0.1963,0.2344,-100.24,240.73,-273.17
490,214454786,0.0449,-0.1753,0.2310,-94.39,236.77,-276.95
491,214459789,0.0410,-0.1509,0.2412,-87.56,232.56,-281.04
492,214464787,0.0239,-0.1255,0.2563,-79.76,228.60,-285.06
493,214469787,0.0112,-0.1040,0.2695,-71.71,224.39,-289.70
494,214474788,-0.0078,-0.0908,0.2759,-63.23,220.43,-294.27
495,214479785,-0.0396,-0.0762,0.2910,-55.06,216.46,-298.84
496,214484787,-0.0664,-0.0620,0.3066,-46.95,212.68,-303.72
497,214489787,-0.1060,-0.0552,0.3071,-39.15,208.96,-308.48
498,214494787,-0.1567,-0.0400,0.3081,-31.22,205.37,-313.23
499,214499785,-0.1938,-0.0190,0.3164,-23.11,201.77,-317.99
500,214504789,-0.2119,0.0107,0.3276,-14.63,198.17,-322.74
501,214509787,-0.2139,0.0361,0.3154,-5.30,194.82,-327.62
502,214514787,-0.2119,0.0742,0.3052,4.70,190.79,-332.50
503,214519785,-0.2129,0.1069,0.2949,15.49,186.89,-337.56
504,214524789,-0.2358,0.1313,0.2808,26.89,182.56,-342.87
505,214529787,-0.2788,0.1562,0.2939,38.60,178.29,-347.99
506,214534786,-0.3213,0.1797,0.3003,48.17,174.76,-352.26
507,214539787,-0.3867,0.2070,0.3086,62.62,169.63,-358.60
508,214544786,-0.4170,0.2314,0.3042,72.56,165.98,-362.74
509,214549787,-0.4448,0.2720,0.2969,87.93,160.37,-368.60
510,214554786,-0.4609,0.2983,0.2871,98.66,156.40,-372.44
511,214559787,-0.4878,0.3423,0.2715,112.20,150.79,-377.32
512,214564786,-0.5220,0.3828,0.2490,124.82,144.33,-382.32
513,214569788,-0.5625,0.4150,0.2290,136.95,137.32,-387.20
514,214574863,-0.6138,0.4473,0.2192,149.57,128.23,-392.68
515,214579787,-0.6357,0.4834,0.2007,156.46,121.59,-396.16
516,214584787,-0.6812,0.5127,0.2246,163.17,113.35,-400.43
517,214589787,-0.7202,0.5547,0.2041,167.56,105.00,-404.82
518,214594786,-0.7490,0.5820,0.1987,169.76,96.65,-408.84
519,214599785,-0.7778,0.5938,0.2153,169.39,87.62,-412.44
520,214604789,-0.8081,0.6104,0.2202,166.77,81.04,-415.55
521,214609786,-0.8252,0.6270,0.2129,161.83,73.29,-418.41
522,214614785,-0.8462,0.6333,0.1924,154.63,66.34,-420.67
523,214619787,-0.8682,0.6455,0.1797,145.49,59.45,-422.50
524,214624787,-0.8906,0.6572,0.1592,135.00,52.87,-423.78
525,214629787,-0.8945,0.6646,0.1465,123.11,46.77,-424.45
526,214634786,-0.9102,0.6665,0.1216,109.57,41.16,-424.51
527,214639789,-0.9185,0.6680,0.1108,95.24,35.91,-424.02
528,214644786,-0.8979,0.6733,0.1099,80.61,31.46,-422.80
529,214649787,-0.9141,0.6816,0.0713,65.79,27.38,-421.34
530,214654786,-0.9180,0.6724,0.0835,50.91,23.96,-419.39
531,214659787,-0.9424,0.6865,0.0806,36.34,21.28,-417.26
532,214664787,-1.0083,0.6929,0.0659,22.62,19.09,-415.12
533,214669788,-0.9878,0.6743,0.0527,10.06,17.20,-412.56
534,214674786,-0.9790,0.6685,0.0532,-1.10,15.85,-409.63
535,214679787,-1.0000,0.6445,0.0454,-10.37,14.63,-406.40
536,214684787,-1.0186,0.6372,0.0347,-17.74,13.84,-402.80
537,214689788,-1.0024,0.6265,0.0254,-22.99,12.99,-399.09
538,214694787,-1.0547,0.6255,0.0127,-25.79,12.32,-395.06
539,214699787,-1.0669,0.5923,0.0073,-26.10,11.46,-390.67
540,214704787,-1.0518,0.5664,0.0166,-24.21,10.61,-385.91
541,214709785,-1.0708,0.5537,0.0088,-20.43,9.51,-380.85
542,214714787,-1.0874,0.5352,-0.0122,-14.63,8.11,-375.67
543,214719787,-1.1187,0.5254,-0.0171,-7.50,6.28,-370.43
544,214724787,-1.1523,0.5088,-0.0181,0.43,4.27,-365.12
545,214729785,-1.1797,0.4961,-0.0225,8.60,2.26,-359.88
546,214734787,-1.2114,0.4771,-0.0273,16.52,-0.24,-354.63
547,214739787,-1.2524,0.4614,-0.0312,23.90,-2.68,-349.57
548,214744786,-1.2881,0.4429,-0.0381,30.67,-5.30,-344.63
549,214749785,-1.3252,0.4238,-0.0552,36.40,-8.05,-339.76
550,214754789,-1.3555,0.4004,-0.0620,41.16,-11.04,-334.94
551,214759787,-1.3848,0.3755,-0.0771,45.06,-14.09,-330.18
552,214764786,-1.4023,0.3481,-0.0840,47.80,-17.26,-325.06
553,214769787,-1.4189,0.3208,-0.0913,49.57,-20.37,-319.94
554,214774786,-1.4312,0.2969,-0.1025,50.06,-23.48,-314.76
555,214779785,-1.4468,0.2686,-0.1104,49.21,-26.71,-309.70
556,214784787,-1.4697,0.2480,-0.1172,46.95,-29.70,-304.39
557,214789872,-1.4922,0.2373,-0.1279,43.35,-32.87,-299.39
558,214794788,-1.5200,0.2192,-0.1450,38.66,-35.73,-294.57
559,214799787,-1.5610,0.2026,-0.1606,33.29,-38.48,-290.00
560,214804787,-1.6147,0.1875,-0.1743,27.44,-41.46,-285.67
561,214809787,-1.6719,0.1694,-0.1909,21.40,-44.33,-281.46
562,214814787,-1.7471,0.1455,-0.2031,14.82,-47.07,-277.56
563,214819787,-1.8354,0.1230,-0.2090,8.11,-49.63,-273.78
564,214824787,-1.9414,0.1001,-0.2183,1.34,-52.07,-270.37
565,214829788,-2.0576,0.0801,-0.2231,-5.49,-54.09,-266.95
566,214834787,-2.1753,0.0645,-0.2402,-12.26,-55.98,-263.66
567,214839787,-2.2969,0.0601,-0.2573,-19.27,-57.44,-260.73
568,214844787,-2.4155,0.0640,-0.2651,-26.52,-58.72,-258.23
569,214849787,-2.5234,0.0728,-0.2739,-34.21,-59.51,-256.22
570,214854788,-2.6353,0.0835,-0.2798,-42.32,-59.88,-254.82
571,214859785,-2.7739,0.0972,-0.2896,-52.68,-60.00,-253.66
572,214864787,-2.8545,0.1094,-0.3042,-59.51,-59.82,-253.11
573,214869787,-2.9375,0.1299,-0.3188,-68.17,-59.27,-252.87
574,214874787,-3.0059,0.1431,-0.3516,-76.83,-58.66,-252.68
575,214879785,-3.0620,0.1489,-0.3652,-85.06,-57.87,-252.62
576,214884789,-3.1079,0.1587,-0.3857,-93.35,-56.83,-252.32
577,214889786,-3.1333,0.1733,-0.4004,-101.89,-55.43,-251.89
578,214894787,-3.1450,0.1948,-0.4077,-111.10,-53.78,-251.34
579,214899787,-3.1543,0.2163,-0.4141,-121.65,-51.59,-250.61
580,214904786,-3.1489,0.2402,-0.4102,-133.60,-48.66,-249.76
581,214909789,-3.1309,0.2598,-0.4106,-147.56,-45.49,-248.72
582,214914786,-3.1094,0.2876,-0.4077,-162.87,-41.65,-247.44
583,214919785,-3.0845,0.3062,-0.4253,-179.51,-37.32,-245.67
584,214924785,-3.0547,0.3311,-0.4346,-196.89,-32.62,-243.54
585,214929787,-3.0103,0.3579,-0.4536,-214.82,-27.62,-240.91
586,214934786,-2.9619,0.3652,-0.4648,-232.44,-22.20,-237.56
587,214939787,-2.9150,0.3745,-0.4697,-249.63,-16.59,-233.29
588,214944786,-2.8711,0.3916,-0.4614,-266.34,-10.67,-228.05
589,214949787,-2.8062,0.3989,-0.4614,-282.26,-4.27,-221.77
590,214954786,-2.7515,0.4126,-0.4380,-297.50,2.32,-214.51
591,214959785,-2.6890,0.4194,-0.4170,-311.89,9.09,-206.22
592,214964788,-2.6240,0.4116,-0.3843,-325.85,15.98,-196.95
593,214969787,-2.5601,0.4521,-0.3657,-338.66,23.17,-186.52
594,214974787,-2.5474,0.4902,-0.3525,-350.24,30.37,-175.91
595,214979787,-2.5122,0.4922,-0.3428,-360.79,37.26,-164.70
596,214984787,-2.4702,0.4985,-0.3291,-370.67,43.72,-152.80
597,214989787,-2.4395,0.5044,-0.3096,-379.39,50.00,-140.18
598,214995094,-2.4219,0.5103,-0.3018,-387.38,55.55,-126.59
599,214999787,-2.4023,0.5063,-0.2896,-394.63,60.91,-112.50
600,215004787,-2.3882,0.5010,-0.2598,-402.01,65.55,-97.74
601,215010224,-2.3691,0.5029,-0.2188,-410.06,69.76,-82.32
602,215014787,-2.3604,0.5010,-0.1699,-418.78,73.84,-66.40
603,215019787,-2.3540,0.5127,-0.1167,-428.78,77.50,-49.94
604,215024787,-2.3276,0.5112,-0.0508,-439.63,81.16,-33.05
605,215029785,-2.2983,0.5137,-0.0034,-450.91,84.88,-15.55
606,215034787,-2.2642,0.5063,0.0503,-461.77,86.22,2.62
607,215039788,-2.2285,0.4937,0.1035,-471.46,88.66,21.77
608,215044787,-2.2061,0.4907,0.1455,-478.90,90.12,41.59
609,215049785,-2.1914,0.4805,0.1826,-483.54,90.98,61.95
610,215055023,-2.1948,0.4775,0.2227,-485.00,90.91,82.20
611,215059790,-2.1953,0.4775,0.2559,-483.66,89.82,103.66
612,215064786,-2.1987,0.4829,0.2866,-479.51,87.68,124.57
613,215069787,-2.2036,0.4761,0.3198,-473.78,85.30,145.18
614,215074786,-2.1963,0.4629,0.3589,-466.83,81.16,165.91
615,215079789,-2.1782,0.4521,0.3965,-459.45,76.40,186.65
616,215084785,-2.1567,0.4375,0.4502,-451.65,71.04,207.26
617,215089786,-2.1260,0.4185,0.5103,-444.21,65.49,227.93
618,215094785,-2.1011,0.3989,0.5640,-436.52,59.82,248.54
619,215100184,-2.0845,0.3892,0.6230,-428.54,53.54,269.09
620,215104787,-2.0713,0.3862,0.6621,-419.51,47.13,289.51
621,215109787,-2.0625,0.3784,0.6978,-408.78,40.37,309.33
622,215114787,-2.0552,0.3706,0.7231,-396.77,32.99,328.84
623,215119788,-2.0508,0.3657,0.7529,-383.17,25.24,347.93
624,215124787,-2.0405,0.3691,0.7690,-371.46,18.72,362.87
625,215129785,-2.0527,0.3770,0.7993,-352.56,8.84,384.27
626,215134789,-2.0615,0.3809,0.8091,-336.04,0.12,401.28
627,215139787,-2.0610,0.3735,0.8193,-318.72,-8.66,417.50
628,215145699,-2.0508,0.3633,0.8384,-301.10,-17.32,433.17
629,215149790,-2.0303,0.3447,0.8403,-286.89,-24.33,445.18
630,215154787,-2.0088,0.3130,0.8521,-268.78,-32.68,459.88
631,215160027,-1.9761,0.2661,0.8550,-247.20,-42.74,477.20
632,215164787,-1.9614,0.2373,0.8516,-229.45,-50.61,491.28
633,215169789,-1.9624,0.2217,0.8467,-215.73,-56.77,502.07
634,215174786,-1.9849,0.2119,0.8384,-199.02,-64.27,514.88
635,215179787,-2.0146,0.2012,0.8350,-183.17,-71.34,526.71
636,215184786,-2.0420,0.1914,0.8149,-168.29,-77.62,537.38
637,215189785,-2.0835,0.1704,0.7944,-154.21,-83.84,547.01
638,215194789,-2.1260,0.1597,0.7720,-140.91,-89.33,555.61
639,215199787,-2.1611,0.1470,0.7456,-128.23,-94.70,563.17
640,215204787,-2.1860,0.1333,0.7231,-116.59,-99.57,569.57
641,215209787,-2.2007,0.0991,0.7036,-106.22,-103.90,575.18
642,215214786,-2.2031,0.0547,0.7173,-97.38,-107.50,580.24
643,215219787,-2.2046,0.0088,0.7192,-89.94,-110.37,584.70
644,215224786,-2.1987,-0.0396,0.7148,-83.78,-112.99,588.96
645,215229785,-2.1924,-0.0918,0.6899,-78.35,-115.12,592.80
646,215234785,-2.1875,-0.1450,0.6709,-72.99,-117.01,596.46
647,215239787,-2.1880,-0.1958,0.6465,-67.87,-118.78,600.12
648,215244787,-2.1909,-0.2373,0.6313,-62.50,-120.49,602.99
649,215249787,-2.2261,-0.2817,0.6055,-56.77,-122.01,605.61
650,215254786,-2.2612,-0.3159,0.5830,-50.73,-123.23,607.44
651,215260051,-2.2979,-0.3604,0.5552,-43.48,-124.70,608.60
652,215264787,-2.3276,-0.3774,0.5366,-38.48,-125.98,608.84
653,215269787,-2.3779,-0.3901,0.5137,-32.07,-127.13,607.74
654,215274787,-2.4077,-0.4106,0.5059,-25.18,-128.17,605.61
655,215279785,-2.4390,-0.4468,0.5073,-18.41,-129.02,602.62
656,215284789,-2.4712,-0.4863,0.5103,-12.01,-129.39,598.54
657,215289889,-2.4990,-0.5361,0.5171,-5.91,-129.63,594.09
658,215294787,-2.5034,-0.6064,0.5234,1.22,-129.39,589.15
659,215299787,-2.5083,-0.6738,0.5137,9.02,-129.33,583.84
660,215304789,-2.4951,-0.7100,0.4893,17.56,-129.27,578.29
661,215309792,-2.4575,-0.7529,0.4653,26.40,-128.96,572.01
662,215314785,-2.3770,-0.8008,0.4570,35.98,-129.15,565.24
663,215320026,-2.3770,-0.8765,0.4292,45.49,-129.33,558.29
664,215324787,-2.4346,-0.9517,0.4067,54.70,-129.88,551.40
665,215329786,-2.4453,-0.9844,0.3716,63.35,-130.91,544.94
666,215334787,-2.4170,-1.0405,0.3521,71.34,-132.38,538.11
667,215339787,-2.3755,-1.1021,0.3716,78.96,-133.96,531.40
668,215344787,-2.3481,-1.1567,0.3779,85.00,-135.73,524.88
669,215349789,-2.3276,-1.1792,0.3750,88.48,-137.62,518.05
670,215354786,-2.3228,-1.2163,0.3784,88.96,-139.33,510.98
671,215359787,-2.3418,-1.2544,0.3945,87.26,-141.22,503.35
672,215364786,-2.3511,-1.2920,0.4204,82.99,-143.23,494.94
673,215369787,-2.3569,-1.3291,0.4307,75.00,-145.61,485.91
674,215374786,-2.3623,-1.3721,0.4507,63.84,-148.11,476.52
675,215379789,-2.3613,-1.4131,0.4751,50.61,-150.61,466.83
676,215384786,-2.3496,-1.4858,0.5029,35.49,-153.78,457.07
677,215389865,-2.3306,-1.5542,0.5298,18.48,-157.20,447.32
678,215394787,-2.3018,-1.6099,0.5347,0.06,-161.34,437.56
679,215399786,-2.2612,-1.6538,0.5283,-18.29,-166.46,428.11
680,215404787,-2.2114,-1.6919,0.5269,-35.24,-172.38,418.72
681,215409785,-2.1748,-1.7148,0.5293,-50.73,-179.21,409.27
682,215414787,-2.1440,-1.7368,0.5112,-64.57,-187.13,399.45
683,215419786,-2.1182,-1.7422,0.5068,-75.79,-196.10,389.33
684,215424789,-2.0757,-1.7500,0.4917,-83.23,-205.73,378.90
685,215429787,-2.0234,-1.7319,0.4712,-87.20,-215.79,368.11
686,215434787,-1.9946,-1.6958,0.4478,-87.87,-226.28,357.07
687,215439785,-2.0054,-1.6689,0.4370,-85.61,-236.95,345.61
688,215444787,-2.0293,-1.6401,0.4399,-81.16,-247.38,333.96
689,215449788,-2.0493,-1.6270,0.4307,-75.55,-257.68,322.07
690,215454787,-2.0537,-1.6094,0.4092,-69.70,-267.56,310.61
691,215459786,-2.0654,-1.5977,0.3853,-63.35,-277.50,299.51
692,215464787,-2.1055,-1.5869,0.3428,-56.77,-287.32,289.02
693,215469788,-2.1396,-1.5762,0.3145,-50.67,-296.89,279.21
694,215474787,-2.1626,-1.5610,0.2896,-46.04,-306.34,270.00
695,215479785,-2.1641,-1.5464,0.2759,-42.56,-315.00,261.59
696,215484787,-2.1514,-1.5435,0.2402,-39.57,-323.48,254.02
697,215489849,-2.1484,-1.5381,0.1729,-37.07,-331.71,247.44
698,215494787,-2.1724,-1.5425,0.1416,-34.27,-340.06,242.07
699,215499785,-2.1748,-1.5356,0.1011,-31.40,-348.11,237.74
700,215504787,-2.1523,-1.5347,0.0591,-28.35,-356.04,234.27
701,215509786,-2.1416,-1.5269,0.0200,-25.37,-363.66,231.65
702,215514787,-2.1763,-1.5171,-0.0088,-21.95,-371.28,229.51
703,215519865,-2.2544,-1.5049,-0.0425,-18.41,-378.78,228.17
704,215524787,-2.3423,-1.4971,-0.0659,-14.70,-385.91,227.26
705,215529786,-2.4238,-1.4971,-0.0645,-10.67,-392.44,226.59
706,215534787,-2.5063,-1.4824,-0.0718,-6.34,-398.41,226.22
707,215539788,-2.5806,-1.4785,-0.0703,-1.77,-403.78,226.10
708,215544787,-2.6284,-1.4849,-0.0684,3.17,-408.60,225.91
709,215549786,-2.6294,-1.4995,-0.0640,8.41,-412.62,225.55
710,215554787,-2.6206,-1.5332,-0.0894,13.90,-416.46,225.55
711,215559787,-2.6318,-1.5864,-0.1152,19.57,-420.43,226.16
712,215564787,-2.6694,-1.6328,-0.1606,25.73,-424.63,227.01
713,215569888,-2.7275,-1.6772,-0.1812,32.26,-428.90,228.11
714,215574787,-2.7837,-1.7168,-0.1909,38.29,-433.60,229.45
715,215579787,-2.8364,-1.7568,-0.1968,43.84,-437.80,230.49
716,215584787,-2.9009,-1.7930,-0.1846,48.66,-442.13,231.34
717,215589786,-2.9658,-1.8257,-0.1924,52.56,-446.16,231.46
718,215594787,-3.0137,-1.8442,-0.1836,55.18,-450.00,230.98
719,215599800,-3.0562,-1.8760,-0.1509,56.28,-453.60,229.94
720,215604785,-3.0967,-1.9160,-0.1226,55.18,-456.52,228.23
721,215609785,-3.1294,-1.9517,-0.0991,52.13,-459.33,225.91
722,215614787,-3.1553,-1.9844,-0.0674,47.68,-461.52,223.23
723,215619787,-3.1660,-2.0103,-0.0581,42.50,-463.72,220.12
724,215624786,-3.1523,-2.0474,-0.0459,37.01,-466.04,216.34
725,215630137,-3.1357,-2.0742,-0.0444,31.59,-468.41,212.20
726,215634788,-3.1338,-2.1050,-0.0400,25.98,-470.91,207.44
727,215639786,-3.1479,-2.1396,-0.0396,19.63,-473.48,201.71
728,215644785,-3.1597,-2.1636,-0.0298,12.26,-475.98,195.00
729,215649838,-3.1665,-2.1973,-0.0005,3.35,-478.05,187.20
730,215654787,-3.1865,-2.2485,0.0186,-7.38,-479.70,178.48
731,215659787,-3.2041,-2.2798,0.0410,-19.82,-480.79,168.72
732,215664785,-3.2241,-2.3145,0.0732,-34.15,-481.34,157.93
733,215669789,-3.2441,-2.3521,0.1143,-50.43,-479.33,146.04
734,215674786,-3.2622,-2.3809,0.1177,-67.44,-480.73,133.48
735,215679785,-3.2861,-2.4141,0.1245,-85.12,-480.30,120.18
736,215684787,-3.3164,-2.4531,0.1348,-102.44,-479.63,106.10
737,215689786,-3.3540,-2.4922,0.1255,-118.05,-479.02,91.34
738,215694789,-3.3716,-2.5103,0.0786,-131.46,-478.96,77.50
739,215699786,-3.4028,-2.5752,0.0898,-141.40,-479.27,62.93
740,215704787,-3.3579,-2.5718,0.0488,-148.60,-479.63,48.35
741,215709787,-3.3916,-2.6753,-0.0518,-153.60,-480.37,33.90
742,215714787,-3.5771,-2.6152,-0.0195,-155.24,-481.28,18.60
743,215719787,-3.7114,-2.7100,-0.1113,-154.94,-481.71,2.56
744,215724787,-3.7690,-2.7197,-0.1294,-153.35,-482.26,-13.60
745,215729788,-3.7695,-2.8145,-0.1440,-151.04,-482.13,-30.12
746,215734787,-3.8022,-2.8413,-0.1953,-148.29,-481.59,-46.34
747,215739786,-3.8394,-2.8296,-0.2549,-145.55,-480.73,-60.06
748,215744785,-3.8672,-2.8188,-0.2612,-142.44,-479.39,-77.87
749,215749786,-3.9170,-2.8081,-0.2695,-141.28,-476.89,-96.52
750,215754787,-3.9438,-2.7920,-0.2759,-142.87,-473.35,-115.55
751,215759787,-3.9404,-2.7700,-0.2612,-148.29,-468.11,-135.00
752,215764787,-3.9438,-2.7539,-0.2627,-156.83,-461.77,-154.70
753,215769786,-3.9878,-2.7217,-0.2803,-167.93,-454.45,-174.88
754,215774787,-4.0171,-2.6792,-0.3213,-181.16,-446.40,-195.37
755,215779786,-4.0522,-2.6504,-0.3516,-195.85,-437.68,-215.98
756,215784788,-4.0942,-2.6060,-0.3789,-211.40,-428.23,-236.71
757,215789787,-4.1348,-2.5552,-0.3970,-227.62,-417.99,-257.26
758,215794787,-4.1567,-2.5083,-0.4180,-243.72,-406.77,-277.62
759,215799786,-4.1567,-2.4570,-0.4448,-259.70,-394.33,-297.26
760,215804788,-4.1670,-2.4082,-0.4336,-275.06,-380.91,-316.16
761,215809786,-4.1914,-2.3540,-0.4292,-290.18,-365.85,-334.21
762,215814786,-4.1943,-2.3047,-0.4487,-304.15,-349.94,-351.16
763,215819787,-4.1753,-2.2515,-0.4385,-316.52,-332.80,-366.59
764,215824786,-4.1479,-2.2041,-0.4326,-326.77,-314.76,-380.85
765,215829787,-4.1167,-2.1514,-0.4287,-334.82,-296.10,-393.60
766,215834786,-4.0679,-2.0898,-0.4385,-340.61,-276.95,-404.94
767,215839787,-4.0122,-2.0410,-0.4429,-343.72,-257.80,-415.06
768,215844785,-3.9292,-1.9834,-0.4409,-344.39,-238.72,-423.90
769,215850272,-3.9502,-1.8452,-0.6416,-342.80,-216.34,-433.11
770,215854788,-4.0132,-1.7559,-0.6777,-341.59,-202.38,-438.90
771,215859787,-3.9258,-1.7505,-0.5947,-339.45,-185.00,-445.18
772,215864787,-3.8560,-1.7534,-0.5269,-335.43,-167.50,-450.43
773,215869786,-3.9590,-1.6616,-0.6143,-328.60,-150.91,-454.57
774,215874787,-4.0879,-1.4072,-0.7524,-321.34,-137.62,-459.82
775,215880321,-3.8628,-1.4463,-0.6675,-315.55,-123.90,-465.98
776,215884788,-3.8154,-1.4126,-0.6377,-312.74,-114.27,-468.84
777,215889787,-3.7822,-1.3730,-0.5962,-309.02,-101.59,-471.65
778,215894787,-3.6221,-1.3667,-0.5645,-303.96,-88.90,-474.09
779,215899788,-3.4614,-1.3433,-0.5068,-296.95,-76.10,-475.98
780,215904787,-3.3633,-1.3320,-0.4282,-286.71,-62.68,-477.20
781,215909786,-3.3027,-1.3594,-0.3711,-273.29,-49.02,-477.38
782,215914787,-3.2173,-1.2964,-0.3804,-256.16,-35.55,-476.77
783,215919786,-3.1235,-1.2207,-0.3809,-235.85,-22.93,-475.91
784,215924785,-2.9966,-1.1719,-0.3706,-214.27,-11.22,-474.70
785,215929787,-2.9160,-1.1069,-0.3389,-192.32,-0.67,-473.05
786,215934787,-2.8540,-1.0684,-0.3477,-170.79,8.90,-471.04
787,215939787,-2.7759,-1.0000,-0.3374,-150.18,17.26,-468.41
788,215944787,-2.6948,-0.9341,-0.3135,-130.85,24.57,-465.67
789,215949785,-2.6338,-0.8794,-0.3120,-112.93,30.91,-462.93
790,215954787,-2.6030,-0.8242,-0.2993,-96.46,36.59,-459.76
791,215959789,-2.5479,-0.7773,-0.2754,-80.67,41.77,-456.40
792,215964786,-2.4463,-0.7158,-0.2686,-65.73,46.10,-452.62
793,215969787,-2.3169,-0.6553,-0.2617,-51.40,49.76,-448.41
794,215974786,-2.1782,-0.5894,-0.2529,-37.56,52.68,-443.90
795,215979785,-2.0352,-0.5273,-0.2397,-23.90,55.12,-439.15
796,215984787,-1.9092,-0.4746,-0.2368,-10.91,56.95,-434.45
797,215989787,-1.7983,-0.4224,-0.2280,1.52,58.17,-429.45
798,215994787,-1.6938,-0.3530,-0.2212,13.29,58.96,-424.45
799,215999789,-1.5820,-0.2983,-0.2188,24.15,59.02,-419.51
800,216004786,-1.4902,-0.2642,-0.2158,34.51,58.60,-414.51
801,216009785,-1.3774,-0.2373,-0.2031,44.02,58.17,-409.21
802,216014785,-1.2207,-0.2109,-0.2124,52.01,57.44,-403.54
803,216019787,-1.0483,-0.1812,-0.1802,57.68,56.52,-397.74
804,216024786,-0.9810,-0.1226,-0.0898,61.16,56.04,-391.83
805,216029789,-0.9478,-0.1304,-0.1201,62.56,56.16,-385.91
806,216034786,-0.8691,-0.1216,-0.1489,62.62,55.85,-379.15
807,216039787,-0.7368,-0.0928,-0.1616,61.16,55.18,-371.77
808,216044786,-0.6226,0.0352,-0.1133,58.54,54.88,-364.39
809,216049785,-0.5513,0.0933,-0.2031,56.89,53.84,-357.56
810,216054786,-0.5054,0.1372,-0.2246,56.46,52.44,-351.04
811,216059789,-0.4429,0.2329,-0.1919,56.65,50.79,-344.76
812,216064788,-0.3477,0.2778,-0.1885,56.89,49.15,-339.02
813,216069789,-0.2554,0.3042,-0.2334,56.46,47.38,-332.80
814,216074786,-0.2168,0.3062,-0.1499,54.88,46.16,-325.79
815,216080231,-0.1758,0.3599,-0.1748,51.77,45.30,-318.90
816,216084787,-0.1328,0.4326,-0.2036,47.01,44.45,-312.13
817,216089787,-0.0918,0.4678,-0.1919,41.16,43.78,-305.67
818,216094787,-0.0396,0.5098,-0.1919,34.02,43.35,-298.84
819,216099786,0.0088,0.5034,-0.1895,26.34,43.11,-291.77
820,216104787,0.0435,0.5396,-0.2217,18.11,43.05,-284.51
821,216109786,0.0972,0.5713,-0.2183,10.00,43.17,-276.89
822,216114789,0.1650,0.5894,-0.2119,2.07,43.48,-268.84
823,216119916,0.2344,0.6226,-0.2290,-5.61,44.09,-260.43
824,216124787,0.3403,1.2783,0.0010,-14.02,45.00,-251.10
825,216130022,0.6841,3.2622,0.7705,-32.93,45.06,-238.11
826,216134787,1.6724,7.0288,2.0225,-86.40,41.59,-210.06
827,216139787,1.4639,6.1401,1.7119,-181.83,31.52,-154.57
828,216144787,-0.6172,3.1455,0.9751,-245.79,19.57,-79.82
829,216149785,-0.0220,2.1265,0.2080,-246.10,13.05,-35.00
830,216154785,0.7559,1.3315,-0.2251,-216.77,6.83,-14.88
831,216159785,0.6812,0.5698,-0.2852,-175.37,0.18,-1.77
832,216164789,0.3091,0.0981,-0.3232,-129.09,-7.32,11.34
833,216169786,0.1602,-0.0293,-0.4517,-82.56,-15.43,25.37
834,216174787,0.1323,0.0649,-0.3789,-38.17,-22.01,37.38
835,216179786,0.0923,0.1416,-0.2080,1.65,-25.91,46.65
836,216184787,0.0210,0.1592,-0.2417,35.67,-28.54,53.90
837,216189787,-0.0181,0.1582,-0.2646,63.11,-30.30,60.06
838,216194788,-0.0122,0.1626,-0.1631,84.15,-30.49,65.37
839,216199788,0.0347,0.1753,-0.1318,99.02,-29.21,69.63
840,216204788,0.1074,0.1904,-0.1865,108.11,-27.26,73.11
841,216209787,0.1763,0.1963,-0.1631,111.89,-25.06,76.10
842,216214788,0.2471,0.1875,-0.1396,111.16,-22.50,78.72
843,216219785,0.3076,0.1631,-0.1680,106.46,-19.51,81.52
844,216224786,0.3696,0.1357,-0.1953,99.15,-16.77,84.45
845,216229787,0.4424,0.1016,-0.2095,89.82,-14.02,87.26
846,216234786,0.5010,0.0747,-0.2427,79.15,-11.46,91.34
847,216239787,0.5444,0.0649,-0.2749,67.50,-9.21,95.12
848,216244786,0.5508,0.0640,-0.2861,55.43,-7.26,98.96
849,216249787,0.5469,0.0557,-0.2920,43.41,-5.12,102.68
850,216254785,0.5464,0.0571,-0.3022,31.77,-3.05,105.98
851,216259785,0.5459,0.0576,-0.3130,20.85,-0.85,109.15
852,216264787,0.5532,0.0581,-0.3164,10.98,1.16,112.01
853,216269789,0.5728,0.0581,-0.3223,2.74,2.99,114.51
854,216274786,0.5962,0.0542,-0.3262,-4.09,4.82,116.89
855,216279787,0.6206,0.0532,-0.3062,-9.33,6.89,119.09
856,216284786,0.6440,0.0479,-0.2339,-12.62,9.39,120.85
857,216289787,0.7056,0.0488,-0.1323,-13.84,12.93,122.62
858,216294786,0.7622,0.0693,-0.0234,-12.80,17.56,123.84
859,216299789,0.8315,0.0610,0.0229,-8.90,23.11,124.82
860,216304786,0.8657,0.0381,-0.0684,-1.89,28.54,125.91
861,216309788,0.8433,-0.0020,-0.1748,7.99,32.07,127.32
862,216314786,0.7725,-0.0396,-0.3047,19.15,34.21,129.15
863,216319789,0.6729,-0.0693,-0.3257,28.29,35.37,130.73
864,216324785,0.5898,-0.1050,-0.3281,38.78,36.89,132.56
865,216329787,0.5742,-0.1055,-0.3525,47.38,38.54,134.76
866,216334787,0.5801,-0.1045,-0.3643,53.90,40.18,136.59
867,216339787,0.5850,-0.1240,-0.3389,58.72,41.77,138.17
868,216344798,0.6016,-0.1309,-0.3286,61.28,43.60,139.82
869,216349786,0.6128,-0.1416,-0.3242,62.26,45.67,141.22
870,216354785,0.6167,-0.1689,-0.3081,61.89,47.87,142.74
871,216359785,0.6167,-0.1860,-0.2988,60.18,49.76,144.33
872,216364785,0.6250,-0.2036,-0.2856,58.17,52.01,146.10
873,216369785,0.6240,-0.2236,-0.2759,55.85,54.15,148.05
874,216374787,0.6255,-0.2461,-0.2627,53.90,56.34,149.94
875,216379787,0.6143,-0.2612,-0.2485,52.68,58.29,152.32
876,216384822,0.6055,-0.2827,-0.2437,52.20,60.37,154.63
877,216389786,0.5859,-0.2974,-0.2222,52.80,62.32,157.32
878,216395065,0.5703,-0.3130,-0.2114,54.82,64.51,160.73
879,216399788,0.5591,-0.3208,-0.2070,57.07,65.98,163.23
880,216404786,0.5605,-0.3394,-0.2065,60.43,67.38,166.16
881,216409787,0.5591,-0.3481,-0.2070,64.27,68.72,169.09
882,216414787,0.5449,-0.3550,-0.2017,68.05,70.06,171.95
883,216419788,0.5010,-0.3613,-0.1865,71.10,71.16,174.70
884,216424785,0.4512,-0.3789,-0.1616,73.17,72.38,177.13
885,216429787,0.4214,-0.4067,-0.1475,74.27,73.78,179.63
886,216435013,0.3926,-0.4165,-0.1392,74.51,75.61,182.50
887,216439787,0.3745,-0.4429,-0.1445,74.09,76.40,184.09
888,216444787,0.3403,-0.4517,-0.1299,72.68,77.56,186.10
889,216449787,0.3066,-0.4658,-0.1201,70.24,78.78,187.93
890,216454787,0.2612,-0.4814,-0.1167,67.20,79.88,189.57
891,216459787,0.2109,-0.4937,-0.1035,63.29,80.98,191.16
892,216464785,0.1519,-0.5200,-0.0820,58.17,82.26,192.87
893,216469787,0.1211,-0.5264,-0.0757,54.57,82.99,194.15
894,216474787,0.0986,-0.5420,-0.0713,50.18,85.30,195.49
895,216479787,0.0830,-0.5439,-0.0825,45.73,85.85,196.71
896,216484790,0.0957,-0.5522,-0.0723,41.71,85.79,197.68
897,216489788,0.1172,-0.5693,-0.0664,37.50,85.73,198.66
898,216494787,0.1260,-0.5972,-0.0640,33.84,85.73,199.51
899,216499787,0.1216,-0.6245,-0.0498,29.82,86.65,200.37
900,216504787,0.1030,-0.6567,-0.0405,25.61,87.93,201.04
901,216509787,0.0947,-0.6851,-0.0308,21.28,89.09,201.83
902,216514787,0.0854,-0.7168,-0.0322,16.65,89.70,202.62
903,216519787,0.0791,-0.7529,-0.0190,12.01,90.24,203.41
904,216524786,0.0703,-0.7852,-0.0137,7.20,90.61,204.33
905,216529787,0.0557,-0.8110,-0.0190,2.20,90.85,205.00
906,216534787,0.0190,-0.8394,-0.0151,-2.93,91.04,205.55
907,216539787,-0.0146,-0.8823,-0.0093,-8.05,90.85,205.91
908,216544785,-0.0552,-0.8975,0.0127,-13.35,90.73,206.40
909,216549785,-0.0898,-0.9097,0.0122,-18.66,90.67,206.46
910,216554787,-0.1201,-0.9287,0.0024,-24.02,90.37,206.28
911,216559785,-0.1426,-0.9434,0.0122,-29.33,89.94,206.10
912,216564785,-0.1475,-0.9565,0.0259,-34.57,89.57,205.49
913,216569789,-0.1387,-0.9771,0.0391,-39.51,88.96,204.82
914,216574787,-0.1187,-1.0020,0.0396,-44.15,88.78,204.09
915,216579786,-0.1099,-1.0327,0.0493,-48.29,88.48,203.29
916,216584787,-0.1108,-1.0591,0.0664,-51.95,88.05,202.38
917,216589786,-0.1250,-1.0918,0.0713,-55.24,85.91,201.34
918,216594787,-0.1230,-1.1240,0.0820,-58.05,85.37,200.37
919,216599852,-0.1265,-1.1572,0.0820,-60.24,85.49,199.33
920,216604789,-0.1265,-1.1880,0.1006,-62.13,85.37,198.29
921,216609786,-0.1357,-1.2168,0.1094,-63.41,85.18,197.07
922,216615022,-0.1323,-1.2559,0.1113,-64.15,83.05,195.79
923,216619787,-0.1411,-1.2627,0.1211,-64.21,82.13,194.27
924,216624788,-0.1484,-1.2734,0.1172,-63.60,80.55,192.62
925,216629787,-0.1504,-1.2798,0.1255,-62.44,78.96,190.49
926,216634787,-0.1602,-1.3081,0.1323,-60.55,77.50,188.29
927,216639787,-0.1616,-1.3252,0.1475,-57.99,75.79,186.16
928,216644870,-0.1626,-1.3442,0.1431,-54.82,74.02,183.96
929,216649788,-0.1577,-1.3623,0.1479,-51.22,72.07,181.83
930,216654787,-0.1548,-1.3750,0.1528,-47.44,70.00,179.70
931,216659787,-0.1528,-1.3843,0.1450,-43.41,67.87,177.74
932,216664785,-0.1543,-1.3994,0.1514,-39.51,65.49,175.85
933,216670186,-0.1616,-1.4082,0.1484,-35.73,62.74,173.84
934,216674787,-0.1675,-1.4121,0.1514,-32.50,60.06,171.89
935,216679786,-0.1650,-1.4160,0.1543,-29.88,57.13,169.94
936,216684787,-0.1660,-1.4170,0.1582,-27.87,54.15,167.99
937,216689786,-0.1670,-1.4126,0.1602,-26.65,51.22,165.85
938,216694787,-0.1694,-1.4087,0.1719,-26.16,48.41,163.72
939,216699786,-0.1685,-1.4009,0.1763,-26.71,45.49,161.46
940,216704787,-0.1548,-1.4038,0.1846,-27.99,42.74,159.33
941,216709786,-0.1445,-1.4082,0.1909,-29.82,40.24,157.07
942,216715187,-0.1455,-1.4111,0.1899,-31.95,38.05,154.76
943,216719787,-0.1519,-1.4224,0.1987,-34.39,35.73,152.50
944,216724787,-0.1602,-1.4243,0.2109,-36.95,33.78,150.30
945,216729788,-0.1602,-1.4326,0.2075,-39.51,31.83,148.29
946,216734785,-0.1582,-1.4346,0.2021,-42.13,29.94,146.22
947,216739787,-0.1562,-1.4395,0.2090,-44.70,28.05,144.33
948,216744796,-0.1567,-1.4438,0.2090,-47.32,26.46,142.56
949,216749787,-0.1548,-1.4531,0.2095,-50.00,24.94,140.79
950,216754785,-0.1499,-1.4487,0.2139,-52.62,23.66,139.27
951,216759787,-0.1416,-1.4443,0.2153,-55.24,22.26,137.74
952,216764787,-0.1343,-1.4399,0.2144,-57.50,20.91,136.40
953,216769787,-0.1323,-1.4336,0.2104,-59.88,19.70,135.06
954,216774788,-0.1182,-1.4429,0.2139,-62.01,18.48,133.54
955,216779787,-0.1250,-1.4355,0.1963,-64.02,17.26,132.26
956,216784787,-0.1426,-1.4224,0.2090,-66.16,16.10,130.79
957,216789787,-0.1611,-1.4092,0.2158,-68.48,14.88,128.84
958,216794787,-0.1768,-1.4053,0.1982,-70.73,13.54,127.01
959,216799787,-0.1963,-1.3965,0.1953,-72.87,12.32,124.82
960,216804787,-0.2197,-1.3823,0.1958,-74.57,11.04,122.68
961,216809838,-0.2188,-1.3877,0.1807,-75.79,9.45,120.43
962,216814787,-0.2451,-1.3770,0.1846,-76.89,7.99,118.23
963,216819787,-0.2710,-1.3662,0.1787,-77.56,6.46,115.85
964,216824787,-0.2812,-1.3584,0.1748,-77.93,5.12,113.54
965,216829788,-0.3027,-1.3433,0.1714,-78.11,3.54,110.98
966,216834785,-0.3208,-1.3306,0.1733,-78.35,2.26,108.29
967,216839787,-0.3296,-1.3130,0.1655,-78.41,0.79,105.73
968,216844787,-0.3291,-1.2993,0.1558,-78.29,-0.55,102.99
969,216849787,-0.3223,-1.2817,0.1523,-77.93,-1.59,100.18
970,216854787,-0.3242,-1.2598,0.1460,-77.13,-2.74,97.38
971,216859787,-0.3188,-1.2407,0.1377,-76.34,-3.84,94.45
972,216864787,-0.3193,-1.2236,0.1382,-75.18,-4.70,91.52
973,216869787,-0.3179,-1.2100,0.1318,-73.90,-5.43,87.93
974,216874787,-0.3145,-1.1924,0.1211,-72.50,-5.98,86.22
975,216879787,-0.3071,-1.1753,0.1138,-70.91,-6.77,83.23
976,216885223,-0.3091,-1.1582,0.1074,-69.21,-6.95,80.24
977,216889792,-0.3096,-1.1445,0.1025,-67.44,-7.07,77.32
978,216894785,-0.3052,-1.1357,0.0962,-65.79,-7.07,74.94
979,216899787,-0.3018,-1.1196,0.0869,-63.60,-6.95,71.71
980,216904842,-0.2959,-1.1016,0.0801,-61.52,-6.83,68.90
981,216909786,-0.2896,-1.0923,0.0801,-59.76,-6.34,66.71
982,216914787,-0.2891,-1.0796,0.0742,-57.44,-5.91,64.09
983,216919786,-0.2891,-1.0737,0.0664,-54.76,-5.24,61.46
984,216924787,-0.2935,-1.0659,0.0571,-51.65,-4.57,59.15
985,216929786,-0.2881,-1.0596,0.0454,-48.05,-3.60,56.83
986,216934992,-0.2861,-1.0547,0.0405,-43.05,-2.68,54.21
987,216939787,-0.2881,-1.0488,0.0298,-39.21,-1.89,52.56
988,216944787,-0.2949,-1.0391,0.0298,-34.15,-1.22,50.55
989,216949787,-0.2983,-1.0361,0.0225,-28.41,-0.18,48.78
990,216954787,-0.2954,-1.0278,0.0127,-22.38,0.85,47.20
991,216959787,-0.2993,-1.0234,0.0054,-16.04,2.01,45.49
992,216964787,-0.3003,-1.0186,-0.0010,-9.45,2.93,44.15
993,216969787,-0.3037,-1.0103,-0.0029,-3.11,3.78,42.68
994,216974785,-0.3071,-1.0039,-0.0010,3.54,4.88,41.28
995,216979789,-0.3179,-1.0054,-0.0005,9.82,5.91,39.94
996,216984787,-0.3188,-0.9980,-0.0034,15.85,7.01,38.66
997,216989787,-0.3242,-0.9907,-0.0088,21.71,8.35,37.50
998,216994787,-0.3306,-0.9902,-0.0073,27.56,9.27,36.16
999,216999787,-0.3340,-0.9888,-0.0029,32.87,10.49,35.00
1000,217004787,-0.3345,-0.9912,-0.0029,38.17,11.22,33.78
1001,217009787,-0.3374,-0.9912,-0.0093,43.17,12.32,32.62
1002,217014789,-0.3452,-0.9902,-0.0107,47.80,13.23,31.52
1003,217019787,-0.3628,-0.9917,-0.0078,52.01,13.84,30.43
1004,217024788,-0.3672,-0.9941,0.0000,55.85,14.51,29.27
1005,217029786,-0.3770,-0.9946,-0.0142,59.39,15.30,28.35
1006,217034789,-0.3765,-0.9858,-0.0054,62.62,15.73,27.26
1007,217039786,-0.3813,-0.9941,-0.0063,65.37,16.22,26.04
1008,217044787,-0.3853,-0.9888,-0.0054,67.62,16.46,24.88
1009,217049786,-0.3936,-0.9854,-0.0020,69.39,16.71,23.66
1010,217054787,-0.3970,-0.9810,0.0039,70.79,16.83,22.44
1011,217059787,-0.3979,-0.9839,0.0020,71.52,17.01,21.16
1012,217064787,-0.4033,-0.9824,-0.0034,71.71,17.13,20.06
1013,217069786,-0.4097,-0.9790,0.0024,71.77,17.20,18.72
1014,217074787,-0.4170,-0.9849,0.0107,71.10,16.77,17.56
1015,217079786,-0.4214,-0.9888,0.0093,70.24,16.65,16.28
1016,217084787,-0.4204,-0.9849,0.0122,69.15,16.34,15.06
1017,217089786,-0.4302,-0.9893,0.0176,67.93,16.10,13.90
1018,217094787,-0.4229,-0.9902,0.0161,66.59,15.67,12.87
1019,217099786,-0.4287,-0.9990,0.0156,65.06,15.24,11.89
1020,217104789,-0.4375,-1.0000,0.0200,63.35,14.63,10.98
1021,217109786,-0.4380,-0.9990,0.0220,61.77,13.96,10.30
1022,217114787,-0.4434,-0.9980,0.0176,59.94,13.23,9.51
1023,217119787,-0.4458,-0.9971,0.0210,57.99,12.62,8.96
1024,217124787,-0.4517,-0.9946,0.0239,55.98,11.89,8.29
1025,217129786,-0.4458,-0.9849,0.0220,53.84,11.22,7.87
1026,217134785,-0.4453,-0.9805,0.0273,51.65,10.61,7.20
1027,217139867,-0.4375,-0.9751,0.0308,49.45,10.00,6.71
1028,217144787,-0.4346,-0.9707,0.0347,47.13,9.21,6.28
1029,217149786,-0.4316,-0.9639,0.0381,44.82,8.72,5.91
1030,217154787,-0.4385,-0.9644,0.0376,42.56,8.17,5.43
1031,217159786,-0.4395,-0.9580,0.0435,40.37,7.68,5.24
1032,217164787,-0.4321,-0.9575,0.0381,38.60,7.26,5.00
1033,217169786,-0.4404,-0.9565,0.0366,36.89,6.89,4.82
1034,217174787,-0.4497,-0.9521,0.0332,35.18,6.28,4.70
1035,217179786,-0.4624,-0.9536,0.0391,33.78,5.91,4.76
1036,217184789,-0.4668,-0.9521,0.0371,32.20,5.43,4.63
1037,217189785,-0.4692,-0.9448,0.0317,30.55,4.88,4.76
1038,217195167,-0.4673,-0.9395,0.0322,28.90,4.63,4.57
1039,217199787,-0.4653,-0.9351,0.0356,27.20,4.27,4.33
1040,217204786,-0.4707,-0.9287,0.0391,25.06,4.02,4.02
1041,217209788,-0.4678,-0.9180,0.0376,22.93,3.84,3.78
1042,217214787,-0.4683,-0.9141,0.0425,20.67,3.84,3.41
1043,217219787,-0.4683,-0.9082,0.0439,18.48,4.02,2.99
1044,217225178,-0.4668,-0.9014,0.0405,16.22,4.15,2.62
1045,217229787,-0.4653,-0.8979,0.0483,14.27,4.15,2.26
1046,217234786,-0.4683,-0.8994,0.0376,12.50,4.57,1.95
1047,217239787,-0.4688,-0.8896,0.0430,11.04,4.94,1.59
1048,217244787,-0.4663,-0.8872,0.0415,10.00,5.49,1.34
1049,217249787,-0.4590,-0.8799,0.0420,9.39,5.91,1.04
1050,217254787,-0.4531,-0.8794,0.0386,9.70,6.28,0.85
1051,217259787,-0.4541,-0.8789,0.0376,9.88,6.83,0.79
1052,217264786,-0.4463,-0.8779,0.0347,10.91,7.32,0.73
1053,217269787,-0.4448,-0.8779,0.0381,12.07,7.87,0.73
1054,217274787,-0.4478,-0.8755,0.0332,13.72,8.54,0.98
1055,217279787,-0.4434,-0.8765,0.0391,15.37,8.96,1.04
1056,217284787,-0.4370,-0.8726,0.0298,17.32,9.57,1.28
1057,217289973,-0.4351,-0.8711,0.0298,19.33,10.18,1.34
1058,217294787,-0.4263,-0.8682,0.0303,21.59,10.98,1.65
1059,217299786,-0.4233,-0.8701,0.0254,23.72,11.46,1.89
1060,217304787,-0.4209,-0.8696,0.0283,26.04,12.07,2.20
1061,217309786,-0.4199,-0.8755,0.0254,28.17,12.80,2.56
1062,217314787,-0.4175,-0.8701,0.0195,30.37,13.35,2.93
1063,217319789,-0.4058,-0.8735,0.0195,32.68,13.90,3.35
1064,217324785,-0.4028,-0.8760,0.0181,34.82,14.33,3.84
1065,217329787,-0.4014,-0.8765,0.0059,36.71,14.94,4.33
1066,217334788,-0.4004,-0.8784,0.0137,38.60,15.55,4.63
1067,217339786,-0.4004,-0.8823,0.0083,40.06,15.79,5.06
1068,217344789,-0.3994,-0.8809,0.0103,41.16,16.28,5.37
1069,217349786,-0.3999,-0.8828,0.0083,41.89,16.65,5.79
1070,217354785,-0.4004,-0.8804,0.0137,42.38,17.01,5.98
1071,217359927,-0.3989,-0.8882,0.0088,42.50,17.32,6.04
1072,217364870,-0.3965,-0.8828,0.0054,42.13,17.56,6.28
1073,217369787,-0.4023,-0.8867,0.0117,41.46,17.93,6.46
1074,217375162,-0.4023,-0.8848,0.0107,40.49,18.11,6.40
1075,217379788,-0.3999,-0.8877,0.0088,39.33,18.41,6.52
1076,217384785,-0.3989,-0.8867,0.0098,38.05,18.72,6.46
1077,217389835,-0.3975,-0.8872,0.0127,36.46,19.02,6.52
1078,217394785,-0.4019,-0.8896,0.0151,34.94,19.02,6.46
1079,217399787,-0.4033,-0.8906,0.0161,33.48,19.33,6.46
1080,217404785,-0.4058,-0.8906,0.0122,31.71,19.39,6.46
1081,217409785,-0.4087,-0.8911,0.0146,30.12,19.63,6.40
1082,217414785,-0.4053,-0.8921,0.0161,28.29,19.51,6.34
1083,217419785,-0.4106,-0.8921,0.0088,26.71,19.94,6.16
1084,217424785,-0.4082,-0.8901,0.0181,25.06,20.12,6.04
1085,217429787,-0.4072,-0.8950,0.0210,23.48,20.18,5.91
1086,217434787,-0.4111,-0.8892,0.0220,22.07,20.24,5.79
1087,217439786,-0.4102,-0.8882,0.0186,20.98,20.30,5.61
1088,217444785,-0.4116,-0.8833,0.0190,20.18,20.55,5.43
1089,217449787,-0.4106,-0.8784,0.0215,19.63,20.85,5.37
1090,217454787,-0.4121,-0.8774,0.0205,19.21,21.16,5.24
1091,217459788,-0.4082,-0.8770,0.0132,19.27,21.40,5.06
1092,217464803,-0.4053,-0.8760,0.0112,19.45,21.77,5.06
1093,217469787,-0.4033,-0.8770,0.0117,19.88,22.07,5.00
1094,217474787,-0.4106,-0.8789,0.0166,20.30,22.50,5.12
1095,217479787,-0.4102,-0.8760,0.0132,20.67,22.93,5.30
1096,217484785,-0.4097,-0.8770,0.0132,21.04,23.29,5.37
1097,217489785,-0.4072,-0.8843,0.0083,21.95,23.84,5.67
1098,217494787,-0.4058,-0.8818,0.0107,22.74,24.27,5.98
1099,217499787,-0.4116,-0.8828,0.0083,23.41,24.45,6.22
1100,217504785,-0.4087,-0.8838,0.0039,24.39,24.88,6.59
1101,217509787,-0.4126,-0.8838,0.0176,25.18,25.30,6.95
1102,217515190,-0.4106,-0.8911,0.0137,26.16,25.91,7.44
1103,217519787,-0.4131,-0.8862,0.0166,26.83,26.16,7.74
1104,217524787,-0.4131,-0.8813,0.0166,27.38,26.52,8.29
1105,217529787,-0.4126,-0.8921,0.0181,28.11,26.95,8.78
1106,217534786,-0.4146,-0.8916,0.0176,28.84,27.32,9.21
1107,217539787,-0.4175,-0.8936,0.0200,29.39,27.74,9.63
1108,217544786,-0.4258,-0.8940,0.0200,30.12,27.99,10.18
1109,217549787,-0.4243,-0.8950,0.0244,30.73,28.23,10.73
1110,217554786,-0.4233,-0.8970,0.0312,31.16,28.48,11.22
1111,217559787,-0.4238,-0.8921,0.0312,31.65,28.66,11.52
1112,217564787,-0.4233,-0.8916,0.0327,32.01,28.84,12.01
1113,217569898,-0.4282,-0.8926,0.0376,32.07,28.84,12.26
1114,217574786,-0.4375,-0.8955,0.0347,32.07,28.96,12.62
1115,217579787,-0.4399,-0.8960,0.0444,31.83,29.02,12.80
1116,217584786,-0.4399,-0.8901,0.0449,31.46,28.96,12.99
1117,217589785,-0.4443,-0.8896,0.0391,30.98,29.02,13.11
1118,217594787,-0.4482,-0.8896,0.0527,30.49,28.90,13.17
1119,217599787,-0.4463,-0.8872,0.0508,29.70,28.84,13.29
1120,217604787,-0.4473,-0.8882,0.0508,28.90,28.66,13.23
1121,217609785,-0.4492,-0.8896,0.0557,28.05,28.54,13.29
1122,217614786,-0.4570,-0.8887,0.0605,27.20,28.35,13.29
1123,217619787,-0.4585,-0.8911,0.0591,26.16,28.11,13.17
1124,217624787,-0.4648,-0.8857,0.0601,25.37,27.80,13.05
1125,217629786,-0.4639,-0.8896,0.0605,24.27,27.56,12.87
1126,217634785,-0.4639,-0.8896,0.0635,23.11,27.07,12.74
1127,217639785,-0.4634,-0.8848,0.0688,22.01,26.65,12.44
1128,217644785,-0.4683,-0.8813,0.0659,20.73,26.46,12.20
1129,217649787,-0.4707,-0.8853,0.0684,19.51,26.04,11.83
1130,217654787,-0.4736,-0.8809,0.0737,18.11,25.61,11.65
1131,217659787,-0.4790,-0.8765,0.0732,16.71,25.30,11.40
1132,217664785,-0.4795,-0.8789,0.0762,15.49,25.00,11.10
1133,217669787,-0.4688,-0.8740,0.0781,14.33,24.82,10.91
1134,217674788,-0.4644,-0.8706,0.0771,13.23,24.45,10.91
1135,217679787,-0.4590,-0.8721,0.0737,12.26,24.27,10.73
1136,217684786,-0.4648,-0.8711,0.0742,11.40,24.02,10.67
1137,217689787,-0.4673,-0.8784,0.0796,10.85,23.84,10.79
1138,217694785,-0.4702,-0.8711,0.0801,10.24,23.72,10.91
1139,217699786,-0.4683,-0.8726,0.0820,10.24,23.48,11.16
1140,217704787,-0.4658,-0.8691,0.0737,10.30,23.41,11.40
1141,217709787,-0.4653,-0.8667,0.0786,10.85,23.17,11.52
1142,217714799,-0.4629,-0.8696,0.0811,11.40,22.99,11.89
1143,217719787,-0.4692,-0.8667,0.0815,12.07,22.93,12.07
1144,217724787,-0.4658,-0.8711,0.0869,12.68,22.80,12.44
1145,217729786,-0.4702,-0.8716,0.0859,13.23,22.62,12.68
1146,217734787,-0.4741,-0.8682,0.0879,13.96,22.56,12.93
1147,217739786,-0.4751,-0.8687,0.0825,14.63,22.38,13.23
1148,217744786,-0.4751,-0.8711,0.0830,15.24,22.13,13.41
1149,217749785,-0.4810,-0.8672,0.0820,15.98,21.95,13.60
1150,217754789,-0.4844,-0.8682,0.0913,16.40,21.59,13.66
1151,217759786,-0.4814,-0.8677,0.0913,16.89,21.46,13.72
1152,217764787,-0.4873,-0.8657,0.0894,17.44,21.16,13.72
1153,217769786,-0.4878,-0.8652,0.0972,17.50,20.79,13.90
1154,217774787,-0.4917,-0.8687,0.0952,17.80,20.67,13.90
1155,217779786,-0.4976,-0.8726,0.1011,17.80,20.24,13.90
1156,217784787,-0.5015,-0.8672,0.1021,17.80,20.06,13.78
1157,217789786,-0.5063,-0.8774,0.0952,17.74,19.45,13.78
1158,217794787,-0.5044,-0.8726,0.0972,17.74,19.15,13.78
1159,217799785,-0.5054,-0.8677,0.0947,17.74,18.72,13.54
1160,217804964,-0.5098,-0.8677,0.1060,17.56,18.05,13.35
1161,217809787,-0.5083,-0.8672,0.1040,17.26,17.68,13.11
1162,217814786,-0.5103,-0.8687,0.1084,16.95,17.13,12.93
1163,217819787,-0.5146,-0.8701,0.1089,16.65,16.83,12.68
1164,217824787,-0.5156,-0.8696,0.1104,16.10,16.40,12.44
1165,217829787,-0.5156,-0.8662,0.1113,15.55,15.98,12.38
1166,217834786,-0.5137,-0.8662,0.1084,15.06,15.43,12.07
1167,217839787,-0.5127,-0.8638,0.1118,14.51,14.94,11.89
1168,217844787,-0.5117,-0.8589,0.1118,14.02,14.27,11.71
1169,217849787,-0.5098,-0.8584,0.1138,13.41,13.96,11.65
1170,217854855,-0.5107,-0.8560,0.1133,12.68,13.41,11.46
1171,217859785,-0.5098,-0.8525,0.1167,11.89,12.99,11.40
1172,217864787,-0.5024,-0.8477,0.1230,11.16,12.50,11.28
1173,217869786,-0.5083,-0.8511,0.1182,10.43,12.13,11.34
1174,217874787,-0.5054,-0.8462,0.1191,9.82,11.89,11.46
1175,217879786,-0.5098,-0.8438,0.1157,9.09,11.28,11.52
1176,217885033,-0.5068,-0.8423,0.1138,8.48,10.91,11.65
1177,217889787,-0.5049,-0.8462,0.1182,7.99,10.61,11.83
1178,217894785,-0.5063,-0.8423,0.1211,7.32,10.00,12.01
1179,217899786,-0.5073,-0.8389,0.1206,6.65,9.76,12.20
1180,217904787,-0.5024,-0.8325,0.1216,5.79,9.45,12.32
1181,217909786,-0.5010,-0.8306,0.1147,5.06,9.09,12.38
1182,217915171,-0.4980,-0.8306,0.1162,4.15,8.84,12.68
1183,217919787,-0.4990,-0.8286,0.1240,3.41,8.60,12.80
1184,217924848,-0.4995,-0.8281,0.1187,2.62,8.35,13.11
1185,217929787,-0.5010,-0.8247,0.1167,1.95,7.99,13.29
1186,217934786,-0.4990,-0.8252,0.1182,1.46,7.68,13.66
1187,217939787,-0.4985,-0.8232,0.1230,0.98,7.32,13.90
1188,217944787,-0.4980,-0.8179,0.1226,0.67,7.20,14.21
1189,217949787,-0.4956,-0.8184,0.1152,0.37,7.13,14.51
1190,217954786,-0.4937,-0.8159,0.1216,0.24,6.71,14.94
1191,217959788,-0.4941,-0.8135,0.1235,0.18,6.59,15.30
1192,217964787,-0.4951,-0.8154,0.1201,0.30,6.40,15.61
1193,217969787,-0.5015,-0.8184,0.1196,0.30,6.16,16.10
1194,217974786,-0.4990,-0.8188,0.1177,0.43,5.98,16.59
1195,217979787,-0.5034,-0.8164,0.1177,0.79,5.85,16.95
1196,217984787,-0.5049,-0.8213,0.1187,1.16,5.61,17.26
1197,217989787,-0.5054,-0.8232,0.1250,1.59,5.30,17.68
1198,217994785,-0.5034,-0.8198,0.1147,2.07,4.88,17.93
1199,217999785,-0.5029,-0.8267,0.1172,2.44,4.76,18.17
1200,218004787,-0.5049,-0.8262,0.1274,2.80,4.57,18.41
1201,218009787,-0.5024,-0.8291,0.1216,3.05,4.27,18.66
1202,218014787,-0.5078,-0.8286,0.1235,3.23,3.90,18.96
1203,218019786,-0.5083,-0.8262,0.1255,3.60,3.78,19.09
1204,218024787,-0.5098,-0.8237,0.1230,3.66,3.48,19.09
1205,218029786,-0.5103,-0.8311,0.1206,3.78,3.35,19.15
1206,218034785,-0.5117,-0.8306,0.1250,3.84,3.05,19.27
1207,218039789,-0.5122,-0.8291,0.1270,4.02,2.87,19.33
1208,218044786,-0.5146,-0.8330,0.1255,4.02,2.50,19.21
1209,218049786,-0.5244,-0.8350,0.1289,4.15,2.20,19.39
1210,218054826,-0.5254,-0.8320,0.1196,4.21,2.01,19.33
1211,218059789,-0.5210,-0.8291,0.1221,4.27,1.71,19.27
1212,218064786,-0.5239,-0.8345,0.1182,4.45,1.46,19.21
1213,218069786,-0.5225,-0.8330,0.1245,4.76,1.10,19.21
1214,218074787,-0.5269,-0.8403,0.1260,5.06,0.73,19.02
1215,218079786,-0.5269,-0.8403,0.1216,5.12,0.43,18.96
1216,218084787,-0.5308,-0.8374,0.1274,5.49,0.06,18.78
1217,218089786,-0.5327,-0.8398,0.1201,5.49,-0.37,18.66
1218,218094785,-0.5332,-0.8423,0.1250,5.49,-0.79,18.41
1219,218099785,-0.5371,-0.8447,0.1226,5.24,-1.16,18.23
1220,218104787,-0.5366,-0.8452,0.1187,4.94,-1.46,17.87
1221,218109786,-0.5366,-0.8379,0.1260,4.51,-1.95,17.56
1222,218114787,-0.5371,-0.8428,0.1260,3.90,-2.26,17.26
1223,218119787,-0.5386,-0.8384,0.1187,3.17,-2.62,16.89
1224,218124787,-0.5435,-0.8403,0.1250,2.38,-2.99,16.46
1225,218129786,-0.5449,-0.8413,0.1216,1.46,-3.29,15.98
1226,218134787,-0.5425,-0.8442,0.1221,0.79,-3.78,15.73
1227,218139786,-0.5469,-0.8452,0.1216,0.06,-4.09,15.30
1228,218144787,-0.5469,-0.8438,0.1182,-0.43,-4.45,14.88
1229,218149786,-0.5469,-0.8457,0.1123,-0.85,-4.70,14.57
1230,218155004,-0.5542,-0.8442,0.1104,-1.22,-5.30,14.09
1231,218159787,-0.5537,-0.8452,0.1108,-1.46,-5.67,13.84
1232,218164787,-0.5518,-0.8403,0.1157,-1.71,-5.98,13.66
1233,218169786,-0.5513,-0.8423,0.1167,-1.89,-6.46,13.17
1234,218174787,-0.5552,-0.8413,0.1172,-2.26,-6.71,12.93
1235,218179786,-0.5566,-0.8428,0.1079,-2.32,-7.01,12.56
1236,218184788,-0.5552,-0.8428,0.1099,-2.38,-7.38,12.26
1237,218189785,-0.5581,-0.8398,0.1099,-2.13,-7.74,12.20
1238,218194790,-0.5586,-0.8374,0.1040,-1.89,-8.05,11.89
1239,218199785,-0.5581,-0.8418,0.1060,-1.46,-8.29,11.65
1240,218204785,-0.5571,-0.8384,0.1064,-1.16,-8.78,11.40
1241,218209787,-0.5537,-0.8398,0.1055,-0.49,-8.96,11.34
1242,218214788,-0.5562,-0.8379,0.1006,0.06,-9.39,11.16
1243,218219787,-0.5586,-0.8354,0.1011,0.67,-9.57,11.04
1244,218224786,-0.5542,-0.8350,0.0962,1.22,-9.82,10.91
1245,218229787,-0.5557,-0.8359,0.1025,1.65,-10.18,10.85
1246,218234787,-0.5586,-0.8330,0.0991,2.20,-10.37,10.85
1247,218239787,-0.5581,-0.8325,0.0898,2.56,-10.55,10.73
1248,218244786,-0.5542,-0.8311,0.0986,2.87,-10.61,10.67
1249,218249787,-0.5513,-0.8271,0.0933,3.41,-10.91,10.55
1250,218254787,-0.5483,-0.8252,0.0923,3.90,-11.10,10.55
1251,218259787,-0.5508,-0.8276,0.0918,4.15,-11.28,10.43
1252,218264786,-0.5518,-0.8208,0.0869,4.33,-11.40,10.37
1253,218269787,-0.5552,-0.8228,0.0859,4.33,-11.46,10.37
1254,218274881,-0.5542,-0.8184,0.0942,4.27,-11.46,10.30
1255,218279787,-0.5552,-0.8179,0.0913,4.15,-11.65,10.18
1256,218284786,-0.5566,-0.8164,0.0933,3.90,-11.77,10.06
1257,218289787,-0.5532,-0.8154,0.0918,3.54,-11.77,9.88
1258,218294787,-0.5571,-0.8188,0.0864,3.23,-11.83,9.70
1259,218299787,-0.5562,-0.8120,0.0850,2.93,-11.89,9.57
1260,218304785,-0.5562,-0.8115,0.0850,2.62,-11.95,9.51
1261,218309787,-0.5630,-0.8120,0.0898,2.26,-12.07,9.45
1262,218314789,-0.5649,-0.8169,0.0908,2.07,-12.07,9.27
1263,218319787,-0.5615,-0.8174,0.0864,1.89,-12.13,9.27
1264,218324785,-0.5601,-0.8169,0.0806,1.77,-12.20,9.21
1265,218329787,-0.5620,-0.8174,0.0811,1.83,-12.13,9.09
1266,218334786,-0.5610,-0.8174,0.0845,1.77,-12.13,8.90
1267,218339787,-0.5698,-0.8179,0.0820,1.71,-12.26,8.90
1268,218344786,-0.5742,-0.8169,0.0830,1.83,-12.32,8.90
1269,218349787,-0.5693,-0.8110,0.0825,1.95,-12.20,8.84
1270,218354786,-0.5674,-0.8145,0.0835,2.13,-12.26,8.72
1271,218359788,-0.5664,-0.8169,0.0737,2.38,-12.38,8.66
1272,218364786,-0.5669,-0.8159,0.0742,2.56,-12.32,8.54
1273,218369789,-0.5703,-0.8140,0.0737,2.74,-12.38,8.54
1274,218374786,-0.5684,-0.8159,0.0723,2.87,-12.20,8.54
1275,218380085,-0.5732,-0.8110,0.0737,2.87,-12.26,8.48
1276,218384787,-0.5708,-0.8169,0.0718,2.68,-12.26,8.48
1277,218389787,-0.5742,-0.8149,0.0757,2.50,-12.20,8.35
1278,218394787,-0.5698,-0.8135,0.0786,2.32,-12.01,8.29
1279,218399785,-0.5708,-0.8110,0.0703,1.95,-12.07,8.17
1280,218404785,-0.5693,-0.8105,0.0669,1.59,-12.13,7.99
1281,218409785,-0.5762,-0.8135,0.0630,1.28,-11.89,7.80
1282,218414787,-0.5762,-0.8140,0.0674,0.98,-11.83,7.80
1283,218419789,-0.5781,-0.8164,0.0645,0.49,-11.83,7.87
1284,218424786,-0.5723,-0.8140,0.0684,0.18,-11.83,7.68
1285,218429787,-0.5742,-0.8105,0.0688,-0.12,-11.52,7.74
1286,218434786,-0.5752,-0.8057,0.0723,-0.43,-11.40,7.62
1287,218439789,-0.5757,-0.8086,0.0649,-0.79,-11.46,7.50
1288,218444786,-0.5757,-0.8110,0.0649,-0.91,-11.16,7.38
1289,218449787,-0.5776,-0.8066,0.0693,-1.04,-11.04,7.44
1290,218454786,-0.5796,-0.8086,0.0654,-1.10,-10.79,7.32
1291,218459789,-0.5845,-0.8096,0.0645,-1.16,-10.61,7.13
1292,218464786,-0.5811,-0.8086,0.0659,-0.98,-10.55,7.07
1293,218469785,-0.5811,-0.8076,0.0615,-0.73,-10.37,7.01
1294,218474785,-0.5845,-0.8066,0.0615,-0.43,-10.12,6.83
1295,218480202,-0.5845,-0.8062,0.0562,0.00,-10.00,6.77
1296,218484787,-0.5874,-0.8081,0.0547,0.55,-9.88,6.71
1297,218489787,-0.5825,-0.8062,0.0586,1.22,-9.63,6.65
1298,218494788,-0.5903,-0.8052,0.0527,1.95,-9.45,6.59
1299,218499787,-0.5835,-0.8057,0.0591,2.93,-9.27,6.40
1300,218504787,-0.5781,-0.8037,0.0615,3.72,-9.33,6.34
1301,218509785,-0.5776,-0.8062,0.0640,4.57,-8.90,6.34
1302,218514787,-0.5889,-0.8052,0.0552,5.24,-8.78,6.10
1303,218519787,-0.5977,-0.8052,0.0635,5.98,-8.60,6.04
1304,218524786,-0.5977,-0.8032,0.0576,6.71,-8.48,5.91
1305,218529787,-0.5947,-0.8003,0.0630,7.38,-8.23,5.61
1306,218534786,-0.5879,-0.8042,0.0649,8.23,-8.17,5.30
1307,218539785,-0.5874,-0.7998,0.0610,8.78,-7.80,5.24
1308,218544787,-0.5845,-0.8032,0.0669,9.39,-7.56,5.06
1309,218549788,-0.5864,-0.8018,0.0610,9.88,-7.56,4.76
1310,218554787,-0.5869,-0.8013,0.0586,10.43,-7.26,4.57
1311,218559787,-0.5923,-0.8008,0.0645,10.91,-6.95,4.33
1312,218564787,-0.5913,-0.8057,0.0605,11.34,-6.83,4.09
1313,218569788,-0.5869,-0.8062,0.0596,11.65,-6.52,3.78
1314,218574787,-0.5898,-0.8022,0.0610,11.95,-6.46,3.48
1315,218579787,-0.5952,-0.8037,0.0659,12.13,-6.16,3.17
1316,218584787,-0.5972,-0.8086,0.0669,12.50,-5.91,2.93
1317,218589787,-0.5947,-0.8052,0.0620,12.56,-5.79,2.62
1318,218594788,-0.5962,-0.8052,0.0649,12.74,-5.55,2.44
1319,218599787,-0.5957,-0.8076,0.0728,12.93,-5.30,2.01
1320,218604787,-0.5977,-0.8076,0.0654,12.99,-5.06,1.95
1321,218609785,-0.5942,-0.8086,0.0630,13.35,-4.82,1.89
1322,218614785,-0.5977,-0.8091,0.0640,13.60,-4.70,1.65
1323,218619789,-0.5981,-0.8110,0.0654,14.02,-4.45,1.40
1324,218624786,-0.5981,-0.8052,0.0605,14.57,-4.27,1.40
1325,218629787,-0.5947,-0.8062,0.0659,14.88,-4.09,1.22
1326,218634786,-0.5962,-0.8057,0.0732,15.55,-3.90,1.04
1327,218639787,-0.5996,-0.8032,0.0757,15.98,-3.84,0.79
1328,218644786,-0.6011,-0.8047,0.0781,16.34,-3.84,0.79
1329,218649787,-0.5933,-0.8008,0.0728,16.65,-3.48,0.49
1330,218654786,-0.5986,-0.8027,0.0718,16.95,-3.41,0.49
1331,218659787,-0.6021,-0.7988,0.0771,17.44,-3.17,0.24
1332,218664787,-0.5967,-0.7988,0.0752,17.62,-3.11,0.00
1333,218669874,-0.5967,-0.7939,0.0776,18.23,-2.99,-0.12
1334,218674786,-0.5923,-0.7964,0.0825,18.60,-2.80,-0.30
1335,218679900,-0.5903,-0.7974,0.0815,19.09,-2.62,-0.55
1336,218684787,-0.5918,-0.7935,0.0859,19.39,-2.44,-0.67
1337,218689788,-0.5898,-0.7852,0.0908,19.94,-2.26,-0.85
1338,218694787,-0.5928,-0.7871,0.0859,20.30,-1.95,-0.98
1339,218699787,-0.5811,-0.7773,0.0859,20.79,-1.77,-1.16
1340,218704787,-0.5830,-0.7788,0.0845,21.28,-1.46,-1.40
1341,218709785,-0.5840,-0.7769,0.0889,21.77,-1.22,-1.52
1342,218714787,-0.5801,-0.7729,0.0928,22.32,-0.91,-1.71
1343,218719787,-0.5796,-0.7686,0.0908,22.93,-0.55,-1.89
1344,218724787,-0.5757,-0.7700,0.0942,23.54,-0.43,-2.01
1345,218729787,-0.5713,-0.7627,0.0942,24.51,0.00,-2.20
1346,218734787,-0.5615,-0.7598,0.0972,25.30,0.18,-2.26
1347,218739787,-0.5522,-0.7593,0.0972,26.28,0.55,-2.32
1348,218744787,-0.5508,-0.7632,0.1011,27.26,0.91,-2.44
1349,218749785,-0.5571,-0.7617,0.0986,28.23,1.40,-2.38
1350,218754788,-0.5537,-0.7617,0.1025,29.02,1.59,-2.38
1351,218759798,-0.5547,-0.7617,0.1069,29.94,2.13,-2.26
1352,218764787,-0.5576,-0.7607,0.1118,30.61,2.44,-2.20
1353,218769787,-0.5615,-0.7676,0.1069,31.28,2.93,-2.07
1354,218774787,-0.5596,-0.7725,0.1123,31.83,3.17,-1.71
1355,218779785,-0.5620,-0.7734,0.1143,32.38,3.72,-1.59
1356,218784787,-0.5649,-0.7729,0.1138,32.62,4.09,-1.16
1357,218789786,-0.5669,-0.7769,0.1084,32.93,4.51,-0.91
1358,218794789,-0.5664,-0.7832,0.1177,33.11,4.94,-0.55
1359,218799787,-0.5752,-0.7812,0.1147,32.93,5.12,-0.24
1360,218804786,-0.5767,-0.7876,0.1235,32.74,5.49,0.24
1361,218809787,-0.5796,-0.7896,0.1270,32.26,5.85,0.67
1362,218814786,-0.5845,-0.7949,0.1279,31.46,6.16,1.04
1363,218819785,-0.5898,-0.7988,0.1211,30.55,6.59,1.40
1364,218824787,-0.5981,-0.7974,0.1289,29.57,6.95,1.71
1365,218829787,-0.6030,-0.8032,0.1299,28.48,7.38,2.07
1366,218834787,-0.6060,-0.8101,0.1357,27.13,7.74,2.50
1367,218839787,-0.6118,-0.8130,0.1338,25.79,8.17,2.68
1368,218844787,-0.6177,-0.8154,0.1392,24.33,8.48,3.05
1369,218849787,-0.6187,-0.8208,0.1411,22.87,8.60,3.17
1370,218854786,-0.6226,-0.8237,0.1440,21.40,8.84,3.35
1371,218859787,-0.6265,-0.8281,0.1450,20.12,9.21,3.66
1372,218864786,-0.6289,-0.8291,0.1450,18.54,9.51,3.78
1373,218869789,-0.6323,-0.8345,0.1484,17.20,9.70,3.66
1374,218874786,-0.6396,-0.8384,0.1489,15.85,9.76,3.66
1375,218879785,-0.6445,-0.8374,0.1543,14.51,9.82,3.41
1376,218884785,-0.6494,-0.8369,0.1514,13.11,9.94,3.17
1377,218889787,-0.6514,-0.8359,0.1572,11.77,10.06,2.80
1378,218894786,-0.6479,-0.8340,0.1650,10.55,10.24,2.32
1379,218899808,-0.6528,-0.8423,0.1572,9.45,10.37,1.83
1380,218904786,-0.6499,-0.8394,0.1626,8.41,10.49,1.22
1381,218909787,-0.6528,-0.8413,0.1655,7.50,10.55,0.61
1382,218914786,-0.6504,-0.8359,0.1646,6.95,10.61,0.18
1383,218919785,-0.6475,-0.8369,0.1660,6.34,10.73,-0.61
1384,218924787,-0.6416,-0.8350,0.1626,6.22,10.67,-1.22
1385,218929789,-0.6392,-0.8359,0.1685,6.04,10.79,-1.89
1386,218934786,-0.6396,-0.8330,0.1738,6.04,10.91,-2.44
1387,218939787,-0.6343,-0.8281,0.1704,6.22,10.98,-3.17
1388,218944786,-0.6299,-0.8267,0.1733,6.46,11.16,-3.84
1389,218949789,-0.6279,-0.8232,0.1714,6.95,11.22,-4.45
1390,218954786,-0.6206,-0.8262,0.1729,7.44,11.40,-5.12
1391,218959787,-0.6162,-0.8228,0.1777,7.87,11.65,-5.79
1392,218964786,-0.6069,-0.8213,0.1782,8.48,11.83,-6.34
1393,218969789,-0.6030,-0.8208,0.1787,8.90,12.01,-6.95
1394,218974786,-0.6001,-0.8149,0.1846,9.27,12.26,-7.44
1395,218979787,-0.5918,-0.8140,0.1748,9.57,12.56,-7.93
1396,218984786,-0.5918,-0.8135,0.1758,9.82,12.62,-8.48
1397,218989787,-0.5830,-0.8096,0.1738,9.94,12.80,-8.90
1398,218994786,-0.5776,-0.8066,0.1743,9.76,12.93,-9.27
1399,218999787,-0.5762,-0.8037,0.1792,9.33,12.87,-9.63
1400,219004786,-0.5757,-0.8047,0.1689,8.84,12.93,-10.00
1401,219009787,-0.5684,-0.8013,0.1763,8.17,12.87,-10.30
1402,219014786,-0.5659,-0.7998,0.1743,7.38,12.87,-10.61
1403,219019787,-0.5654,-0.7949,0.1694,6.28,12.56,-10.91
1404,219024786,-0.5669,-0.7954,0.1714,5.12,12.32,-11.10
1405,219029789,-0.5645,-0.7944,0.1694,3.78,11.95,-11.40
1406,219034786,-0.5640,-0.7944,0.1704,2.26,11.83,-11.46
1407,219039787,-0.5601,-0.7910,0.1699,0.73,11.46,-11.59
1408,219044786,-0.5557,-0.7896,0.1719,-0.85,11.10,-11.65
1409,219049787,-0.5542,-0.7935,0.1787,-2.32,10.79,-11.52
1410,219054786,-0.5508,-0.7944,0.1724,-3.78,10.30,-11.52
1411,219059787,-0.5547,-0.7910,0.1719,-4.88,9.82,-11.46
1412,219064786,-0.5591,-0.7910,0.1733,-6.04,9.27,-11.22
1413,219069939,-0.5566,-0.7925,0.1660,-6.71,8.78,-11.04
1414,219074788,-0.5547,-0.7920,0.1694,-7.32,8.23,-10.73
1415,219080249,-0.5508,-0.7915,0.1621,-7.74,7.44,-10.49
1416,219084787,-0.5557,-0.7896,0.1670,-7.68,6.89,-10.06
1417,219089787,-0.5503,-0.7939,0.1680,-7.56,6.34,-9.70
1418,219094787,-0.5508,-0.7881,0.1597,-7.20,5.79,-9.15
1419,219099787,-0.5522,-0.7920,0.1646,-6.59,5.12,-8.72
1420,219104787,-0.5498,-0.7925,0.1665,-5.61,4.45,-8.29
1421,219109787,-0.5469,-0.7905,0.1631,-4.76,3.90,-7.62
1422,219114788,-0.5444,-0.7900,0.1636,-3.72,3.29,-7.07
1423,219119787,-0.5386,-0.7900,0.1611,-2.68,2.62,-6.46
1424,219124787,-0.5400,-0.7871,0.1567,-1.71,2.20,-5.98
1425,219129788,-0.5366,-0.7891,0.1567,-0.73,1.65,-5.43
1426,219134787,-0.5347,-0.7891,0.1611,0.37,1.22,-4.76
1427,219139787,-0.5293,-0.7886,0.1592,1.22,0.73,-4.27
1428,219144787,-0.5269,-0.7871,0.1582,1.77,0.18,-3.66
1429,219149787,-0.5259,-0.7891,0.1558,2.44,-0.06,-3.17
1430,219154788,-0.5283,-0.7905,0.1597,2.68,-0.43,-2.56
1431,219159787,-0.5293,-0.7910,0.1567,2.87,-0.73,-2.07
1432,219164787,-0.5288,-0.7935,0.1523,2.68,-0.98,-1.71
1433,219169787,-0.5303,-0.7891,0.1577,2.44,-1.16,-1.28
1434,219174787,-0.5249,-0.7891,0.1538,2.07,-1.34,-0.91
1435,219179785,-0.5244,-0.7930,0.1553,1.46,-1.59,-0.55
1436,219184788,-0.5239,-0.7886,0.1592,0.79,-1.59,-0.12
1437,219189786,-0.5225,-0.7891,0.1553,-0.12,-1.89,0.06
1438,219194790,-0.5259,-0.7881,0.1543,-0.98,-1.95,0.30
1439,219199787,-0.5239,-0.7886,0.1553,-1.89,-2.01,0.49
1440,219204787,-0.5200,-0.7891,0.1572,-2.93,-2.07,0.79
1441,219209787,-0.5210,-0.7866,0.1602,-3.84,-2.01,0.91
1442,219214787,-0.5264,-0.7886,0.1558,-4.76,-2.13,1.04
1443,219219787,-0.5283,-0.7876,0.1577,-5.61,-2.07,1.28
1444,219224790,-0.5332,-0.7925,0.1582,-6.34,-2.07,1.46
1445,219229792,-0.5415,-0.7954,0.1572,-7.07,-2.20,1.52
1446,219234785,-0.5444,-0.7944,0.1499,-7.44,-2.20,1.65
1447,219239785,-0.5439,-0.7935,0.1538,-7.80,-2.32,1.83
1448,219244785,-0.5498,-0.7954,0.1562,-8.11,-2.38,1.95
1449,219249787,-0.5537,-0.7969,0.1523,-8.17,-2.38,2.01
1450,219254786,-0.5566,-0.7993,0.1509,-8.23,-2.50,2.07
1451,219259787,-0.5586,-0.7974,0.1494,-8.05,-2.56,2.32
1452,219264786,-0.5645,-0.7983,0.1528,-7.80,-2.68,2.32
1453,219269785,-0.5693,-0.7998,0.1523,-7.56,-2.80,2.44
1454,219274787,-0.5723,-0.7993,0.1455,-7.26,-3.05,2.50
1455,219279788,-0.5762,-0.8013,0.1475,-6.83,-3.17,2.56
1456,219284786,-0.5757,-0.7969,0.1475,-6.34,-3.29,2.62
1457,219289786,-0.5762,-0.8018,0.1426,-5.85,-3.35,2.62
1458,219294787,-0.5771,-0.7988,0.1475,-5.49,-3.48,2.74
1459,219299787,-0.5786,-0.7993,0.1436,-4.94,-3.72,2.80
1460,219304786,-0.5791,-0.8047,0.1450,-4.33,-3.78,2.80
1461,219309785,-0.5801,-0.8037,0.1426,-4.02,-3.66,2.93
1462,219314787,-0.5815,-0.7993,0.1392,-3.66,-3.96,3.17
1463,219319789,-0.5854,-0.8008,0.1411,-3.29,-3.84,3.23
1464,219324787,-0.5850,-0.7998,0.1362,-3.17,-3.96,3.29
1465,219329787,-0.5830,-0.8003,0.1362,-3.05,-4.02,3.54
1466,219334788,-0.5806,-0.7925,0.1343,-2.99,-3.90,3.54
1467,219339788,-0.5771,-0.7998,0.1318,-3.05,-3.96,3.78
1468,219344787,-0.5771,-0.7935,0.1333,-3.23,-4.02,3.78
1469,219349787,-0.5781,-0.7871,0.1274,-3.41,-3.78,3.96
1470,219354787,-0.5781,-0.7886,0.1313,-3.72,-3.66,4.02
1471,219359787,-0.5771,-0.7812,0.1304,-4.15,-3.54,4.09
1472,219364787,-0.5776,-0.7808,0.1309,-4.63,-3.60,4.15
1473,219369787,-0.5815,-0.7812,0.1274,-5.12,-3.29,4.15
1474,219374787,-0.5825,-0.7808,0.1240,-5.37,-3.29,4.15
1475,219379787,-0.5796,-0.7744,0.1299,-5.91,-3.05,4.33
1476,219384787,-0.5786,-0.7739,0.1221,-6.34,-3.05,4.39
1477,219389787,-0.5825,-0.7695,0.1211,-6.59,-2.87,4.39
1478,219394845,-0.5840,-0.7681,0.1230,-6.77,-2.62,4.45
1479,219399789,-0.5879,-0.7695,0.1138,-7.01,-2.62,4.63
1480,219404786,-0.5908,-0.7642,0.1147,-7.20,-2.50,4.63
1481,219409787,-0.5962,-0.7642,0.1089,-7.20,-2.26,4.76
1482,219414786,-0.6040,-0.7598,0.0991,-7.07,-2.20,4.88
1483,219419787,-0.6104,-0.7583,0.0972,-6.95,-2.13,5.12
1484,219424786,-0.6021,-0.7520,0.0938,-6.83,-1.89,5.12
1485,219429787,-0.5991,-0.7505,0.0903,-6.83,-1.65,5.49
1486,219434786,-0.5947,-0.7456,0.0903,-6.71,-1.34,5.61
1487,219439789,-0.5942,-0.7422,0.0845,-6.71,-0.98,5.91
1488,219444786,-0.5898,-0.7378,0.0830,-6.65,-0.55,6.28
1489,219449787,-0.5835,-0.7334,0.0820,-6.34,-0.12,6.65
1490,219454786,-0.5850,-0.7266,0.0771,-6.10,0.43,7.01
1491,219459787,-0.5820,-0.7280,0.0728,-5.61,0.98,7.50
1492,219464786,-0.5801,-0.7256,0.0679,-5.12,1.65,7.99
1493,219469785,-0.5840,-0.7188,0.0591,-4.57,2.07,8.54
1494,219474787,-0.5898,-0.7188,0.0562,-4.27,2.80,9.09
1495,219479788,-0.5894,-0.7144,0.0479,-3.84,3.60,9.63
1496,219484787,-0.5879,-0.7080,0.0444,-4.02,4.45,10.12
1497,219489787,-0.5820,-0.7026,0.0361,-4.33,5.30,10.73
1498,219494787,-0.5776,-0.6924,0.0308,-4.76,6.22,11.34
1499,219500013,-0.5771,-0.6919,0.0254,-5.37,7.20,12.01
1500,219504788,-0.5767,-0.6895,0.0254,-5.98,8.29,12.62
1501,219509787,-0.5781,-0.6860,0.0156,-6.52,9.39,13.29
1502,219514787,-0.5801,-0.6836,0.0098,-6.83,10.49,14.02
1503,219519787,-0.5830,-0.6763,0.0044,-7.32,11.52,14.82
1504,219524787,-0.5830,-0.6777,-0.0044,-7.07,12.68,15.37
1505,219529787,-0.5928,-0.6738,-0.0024,-7.13,13.72,16.22
1506,219534820,-0.5918,-0.6753,-0.0068,-6.71,14.76,16.83
1507,219539787,-0.5942,-0.6719,-0.0195,-6.40,15.79,17.62
1508,219544786,-0.5991,-0.6724,-0.0205,-5.91,16.89,18.35
1509,219549787,-0.6055,-0.6699,-0.0352,-5.49,17.87,18.84
1510,219554786,-0.6079,-0.6709,-0.0405,-5.24,18.90,19.51
1511,219559787,-0.6147,-0.6704,-0.0459,-5.30,20.06,20.06
1512,219564786,-0.6230,-0.6733,-0.0459,-5.49,20.91,20.49
1513,219569787,-0.6362,-0.6724,-0.0562,-6.04,21.83,20.91
1514,219574786,-0.6436,-0.6743,-0.0610,-7.01,22.68,21.16
1515,219579785,-0.6582,-0.6787,-0.0708,-8.35,23.60,21.46
1516,219584787,-0.6548,-0.6772,-0.0708,-9.88,24.51,21.83
1517,219589786,-0.6606,-0.6787,-0.0825,-11.71,25.49,22.01
1518,219594789,-0.6665,-0.6782,-0.0903,-13.54,26.46,22.20
1519,219599785,-0.6738,-0.6782,-0.0913,-15.12,27.44,22.50
1520,219604787,-0.6768,-0.6797,-0.0898,-16.40,28.35,22.80
1521,219609787,-0.6782,-0.6812,-0.0991,-17.44,29.39,23.11
1522,219614787,-0.6753,-0.6792,-0.0894,-18.17,30.37,23.54
1523,219619787,-0.6782,-0.6797,-0.1011,-18.48,31.22,24.02
1524,219624787,-0.6748,-0.6772,-0.1104,-18.54,32.01,24.51
1525,219629787,-0.6729,-0.6802,-0.1143,-17.99,32.74,25.00
1526,219634787,-0.6733,-0.6787,-0.1099,-17.50,33.29,25.37
1527,219639787,-0.6787,-0.6738,-0.1074,-16.83,33.84,26.28
1528,219644787,-0.6821,-0.6743,-0.1108,-16.10,34.76,26.89
1529,219649787,-0.6841,-0.6689,-0.1143,-15.37,35.49,27.50
1530,219654787,-0.6758,-0.6719,-0.1050,-14.57,35.91,28.23
1531,219659788,-0.6787,-0.6685,-0.1128,-13.96,36.65,28.90
1532,219664787,-0.6826,-0.6660,-0.1157,-13.29,37.26,29.76
1533,219669787,-0.6836,-0.6646,-0.1152,-12.56,37.74,30.43
1534,219674787,-0.6816,-0.6553,-0.1177,-11.95,38.48,31.22
1535,219679787,-0.6787,-0.6567,-0.1147,-11.28,39.02,31.83
1536,219684895,-0.6797,-0.6528,-0.1182,-10.85,39.76,32.56
1537,219689787,-0.6777,-0.6489,-0.1099,-10.12,40.24,33.29
1538,219694787,-0.6826,-0.6479,-0.1133,-9.63,40.91,33.96
1539,219699786,-0.6865,-0.6460,-0.1084,-8.96,41.65,34.63
1540,219704787,-0.6890,-0.6460,-0.1094,-7.93,42.20,35.24
1541,219709787,-0.6914,-0.6455,-0.1064,-7.13,42.93,35.79
1542,219714786,-0.6938,-0.6421,-0.1069,-5.98,43.48,36.59
1543,219719789,-0.6934,-0.6426,-0.1079,-4.33,44.09,37.20
1544,219724786,-0.6943,-0.6421,-0.1030,-2.50,44.57,37.80
1545,219729787,-0.6987,-0.6436,-0.0996,-0.49,45.18,38.48
1546,219734786,-0.7036,-0.6450,-0.0962,1.83,45.79,39.15
1547,219739785,-0.7031,-0.6460,-0.0981,4.51,46.34,39.94
1548,219744787,-0.7002,-0.6416,-0.1011,7.50,46.89,40.73
1549,219749788,-0.7041,-0.6377,-0.0981,10.61,47.26,41.46
1550,219754787,-0.7046,-0.6309,-0.0967,13.96,47.62,42.13
1551,219759787,-0.7046,-0.6323,-0.0962,17.13,47.99,42.74
1552,219764787,-0.7051,-0.6338,-0.0884,20.37,48.48,43.23
1553,219769787,-0.7046,-0.6284,-0.0835,23.41,49.09,43.90
1554,219774787,-0.7002,-0.6221,-0.0894,26.16,49.51,44.27
1555,219779787,-0.7017,-0.6206,-0.0801,29.09,50.12,44.76
1556,219784787,-0.7031,-0.6167,-0.0786,31.71,50.67,45.18
1557,219789788,-0.6953,-0.6162,-0.0698,34.39,51.22,45.55
1558,219794787,-0.6914,-0.6157,-0.0713,36.89,51.83,46.04
1559,219799785,-0.6943,-0.6162,-0.0679,39.45,52.44,46.52
1560,219804787,-0.6865,-0.6108,-0.0576,42.01,52.87,46.83
1561,219809789,-0.6816,-0.6011,-0.0498,44.51,53.41,47.38
1562,219814786,-0.6328,-0.5767,-0.0264,46.16,53.96,47.50
1563,219819785,-0.6265,-0.6030,-0.0327,47.80,54.76,48.05
1564,219824787,-0.6641,-0.6162,-0.0376,49.39,55.55,48.90
1565,219829787,-0.7148,-0.6064,-0.0190,51.28,56.40,49.70
1566,219834786,-0.7300,-0.6069,-0.0396,53.66,57.07,50.43
1567,219839785,-0.7285,-0.6113,-0.0459,56.46,57.62,51.40
1568,219845095,-0.7285,-0.6074,-0.0356,60.18,58.23,52.68
1569,219849787,-0.7305,-0.6016,-0.0283,63.05,58.60,53.41
1570,219854787,-0.7295,-0.6006,-0.0249,66.83,58.96,54.45
1571,219859788,-0.7261,-0.5977,-0.0205,70.79,59.27,55.43
1572,219864787,-0.7310,-0.5918,0.0005,74.63,59.76,56.52
1573,219869785,-0.7446,-0.5869,0.0088,78.78,60.24,57.44
1574,219874787,-0.7515,-0.5806,0.0098,82.68,60.67,58.48
1575,219879787,-0.7529,-0.5776,0.0195,86.59,61.34,59.45
1576,219884787,-0.7583,-0.5747,0.0366,90.61,61.83,60.61
1577,219889787,-0.7666,-0.5713,0.0381,94.33,62.32,61.77
1578,219894787,-0.7720,-0.5649,0.0371,98.60,62.80,62.80
1579,219899787,-0.7803,-0.5630,0.0474,102.62,63.17,63.90
1580,219904788,-0.7783,-0.5640,0.0542,106.65,63.72,65.00
1581,219910241,-0.7827,-0.5571,0.0532,111.65,63.96,66.22
1582,219914787,-0.7832,-0.5566,0.0630,114.94,64.45,67.20
1583,219919787,-0.7803,-0.5479,0.0737,119.09,64.94,68.11
1584,219924787,-0.7686,-0.5264,0.0737,123.41,65.24,69.09
1585,219929787,-0.7466,-0.5537,0.0796,128.78,65.49,70.12
1586,219934787,-0.7559,-0.5322,0.0845,131.10,65.91,71.28
1587,219939785,-0.7451,-0.5215,0.0840,136.10,66.40,72.07
1588,219944787,-0.7407,-0.5303,0.1025,140.37,66.83,73.23
1589,219949787,-0.7769,-0.5190,0.1201,144.15,67.44,74.33
1590,219954786,-0.8276,-0.4590,0.1289,147.80,68.29,75.00
1591,219959787,-0.7578,-0.5483,0.0991,152.01,68.90,75.73
