# skilleye imu stream v1
# device=xiao_esp32c6 imu=mpu6050 addr=0x68
# rate_hz=200 accel_range_g=16 gyro_range_dps=2000 dlpf_hz=94
# units: accel in g, gyro in deg/s, t_us in microseconds since boot (monotonic)
# no shared clock with the camera -- tap the racket once before each take
# so both recordings share a spike to align on
seq,t_us,ax,ay,az,gx,gy,gz
0,246862499,-0.8652,-0.1475,-0.3994,15.91,-17.13,22.32
1,246867499,-0.8613,-0.1445,-0.3901,15.73,-16.71,22.01
2,246872501,-0.8657,-0.1445,-0.3989,15.61,-16.28,21.59
3,246877627,-0.8599,-0.1396,-0.3984,15.37,-15.98,21.16
4,246882592,-0.8569,-0.1401,-0.3999,15.24,-15.49,20.73
5,246887667,-0.8555,-0.1382,-0.4038,15.18,-15.12,20.37
6,246892499,-0.8608,-0.1357,-0.4023,15.06,-14.76,19.82
7,246897499,-0.8594,-0.1382,-0.4058,14.88,-14.27,19.27
8,246902499,-0.8589,-0.1396,-0.3994,14.70,-13.90,18.66
9,246907499,-0.8555,-0.1372,-0.3979,14.51,-13.60,18.11
10,246912499,-0.8555,-0.1367,-0.3979,14.15,-13.17,17.62
11,246917574,-0.8545,-0.1401,-0.4062,13.96,-12.80,17.01
12,246922499,-0.8540,-0.1396,-0.3955,13.60,-12.44,16.34
13,246927499,-0.8545,-0.1353,-0.3989,13.29,-12.07,15.79
14,246932514,-0.8516,-0.1372,-0.3960,12.93,-11.59,15.24
15,246937500,-0.8486,-0.1401,-0.3989,12.62,-11.34,14.70
16,246942499,-0.8481,-0.1338,-0.4009,12.26,-10.85,14.15
17,246947663,-0.8467,-0.1377,-0.3979,11.89,-10.61,13.48
18,246952499,-0.8423,-0.1353,-0.3970,11.46,-10.24,12.93
19,246957499,-0.8477,-0.1377,-0.4014,11.22,-9.88,12.44
20,246962499,-0.8491,-0.1372,-0.3882,10.67,-9.45,11.83
21,246967499,-0.8472,-0.1377,-0.3989,10.24,-9.21,11.28
22,246972499,-0.8457,-0.1357,-0.3955,9.63,-8.84,10.67
23,246977499,-0.8491,-0.1362,-0.4048,9.02,-8.60,10.18
24,246982739,-0.8491,-0.1396,-0.3926,8.48,-8.17,9.51
25,246987499,-0.8486,-0.1387,-0.3975,7.80,-7.80,9.02
26,246992499,-0.8516,-0.1353,-0.3955,7.13,-7.38,8.48
27,246997717,-0.8545,-0.1367,-0.4048,6.46,-7.20,7.80
28,247002499,-0.8540,-0.1401,-0.3960,5.79,-6.89,7.26
29,247007499,-0.8545,-0.1367,-0.4009,5.06,-6.65,6.65
30,247012499,-0.8560,-0.1333,-0.4004,4.51,-6.22,6.16
31,247017498,-0.8564,-0.1353,-0.3994,3.84,-5.91,5.61
32,247022499,-0.8501,-0.1309,-0.3955,3.29,-5.67,5.06
33,247027497,-0.8530,-0.1328,-0.4023,2.93,-5.30,4.51
34,247032499,-0.8525,-0.1289,-0.4004,2.44,-4.94,4.02
35,247037547,-0.8496,-0.1353,-0.3936,2.13,-4.76,3.48
36,247042497,-0.8516,-0.1313,-0.3945,1.71,-4.51,2.99
37,247047500,-0.8569,-0.1328,-0.3965,1.34,-4.02,2.50
38,247052500,-0.8535,-0.1279,-0.3989,0.98,-3.72,2.20
39,247057825,-0.8589,-0.1294,-0.3965,0.61,-3.66,1.71
40,247062499,-0.8555,-0.1279,-0.3911,0.24,-3.23,1.34
41,247067601,-0.8521,-0.1299,-0.3896,-0.06,-3.11,0.98
42,247072498,-0.8550,-0.1304,-0.3906,-0.37,-2.74,0.67
43,247077501,-0.8550,-0.1289,-0.3950,-0.73,-2.50,0.30
44,247082622,-0.8555,-0.1279,-0.3936,-1.04,-2.32,-0.12
45,247087498,-0.8530,-0.1289,-0.3867,-1.40,-1.95,-0.37
46,247092499,-0.8550,-0.1279,-0.3921,-1.71,-1.71,-0.73
47,247097831,-0.8545,-0.1245,-0.3862,-2.13,-1.40,-1.10
48,247102499,-0.8530,-0.1240,-0.3882,-2.56,-1.22,-1.28
49,247107499,-0.8550,-0.1235,-0.3892,-2.93,-0.85,-1.65
50,247112499,-0.8521,-0.1260,-0.3882,-3.17,-0.61,-1.89
51,247117834,-0.8550,-0.1245,-0.3955,-3.72,-0.37,-2.26
52,247122499,-0.8560,-0.1216,-0.3916,-4.15,-0.06,-2.50
53,247127499,-0.8584,-0.1221,-0.3848,-4.51,0.12,-2.80
54,247132875,-0.8521,-0.1201,-0.3882,-4.88,0.18,-3.11
55,247137499,-0.8584,-0.1172,-0.3853,-5.24,0.61,-3.41
56,247142497,-0.8511,-0.1162,-0.3853,-5.55,0.79,-3.60
57,247147802,-0.8530,-0.1157,-0.3853,-6.04,1.04,-3.96
58,247152499,-0.8569,-0.1118,-0.3843,-6.34,1.46,-4.09
59,247157831,-0.8579,-0.1143,-0.3862,-6.71,1.59,-4.45
60,247162499,-0.8613,-0.1147,-0.3911,-7.26,1.77,-4.76
61,247167499,-0.8618,-0.1152,-0.3833,-7.62,2.01,-5.00
62,247172501,-0.8569,-0.1118,-0.3804,-8.11,2.26,-5.37
63,247177885,-0.8545,-0.1084,-0.3770,-8.60,2.50,-5.49
64,247182499,-0.8545,-0.1074,-0.3799,-9.21,2.68,-5.91
65,247187499,-0.8560,-0.1079,-0.3833,-9.57,3.05,-6.16
66,247192498,-0.8594,-0.1064,-0.3813,-10.06,3.41,-6.46
67,247197794,-0.8613,-0.1045,-0.3853,-10.49,3.54,-6.83
68,247202499,-0.8594,-0.1060,-0.3804,-10.85,3.72,-7.07
69,247207815,-0.8613,-0.1064,-0.3818,-11.34,3.90,-7.44
70,247212499,-0.8618,-0.1094,-0.3857,-11.83,4.27,-7.62
71,247217499,-0.8599,-0.1074,-0.3921,-12.20,4.27,-7.93
72,247222499,-0.8589,-0.1079,-0.3950,-12.50,4.45,-8.11
73,247227673,-0.8594,-0.1060,-0.3843,-12.93,4.51,-8.29
74,247232499,-0.8589,-0.1069,-0.3896,-13.11,4.82,-8.48
75,247237499,-0.8594,-0.1060,-0.3960,-13.48,4.82,-8.72
76,247242499,-0.8696,-0.1099,-0.4082,-13.66,4.76,-8.90
77,247247512,-0.8755,-0.1123,-0.4033,-13.96,4.94,-9.09
78,247252499,-0.8804,-0.1133,-0.4038,-14.09,5.06,-9.21
79,247257499,-0.8730,-0.1025,-0.4053,-14.33,5.06,-9.39
80,247262810,-0.8496,-0.0977,-0.3916,-14.33,4.94,-9.63
81,247267499,-0.7959,-0.1255,-0.4600,-13.11,5.06,-9.94
82,247272775,-0.8628,-0.1084,-0.4180,-12.01,4.51,-10.30
83,247277499,-0.9141,-0.1230,-0.4072,-11.71,4.33,-10.37
84,247282499,-0.7812,-0.1284,-0.4067,-11.71,4.21,-10.43
85,247287499,-0.8018,-0.0859,-0.3892,-12.50,4.45,-10.30
86,247292499,-0.8413,-0.1230,-0.4233,-13.66,4.33,-10.61
87,247297513,-0.8169,-0.1387,-0.4067,-14.82,4.33,-10.73
88,247302500,-0.8462,-0.1592,-0.4141,-16.04,4.27,-10.61
89,247307503,-0.8892,-0.1367,-0.4233,-17.32,4.21,-10.61
90,247312502,-0.9287,-0.1143,-0.4165,-18.29,4.33,-10.85
91,247317499,-0.9453,-0.1040,-0.4326,-18.96,5.12,-11.10
92,247322501,-0.9414,-0.0962,-0.4253,-19.94,5.73,-11.52
93,247327500,-0.9580,-0.1074,-0.4326,-20.61,6.34,-12.07
94,247332499,-0.9839,-0.1128,-0.4546,-21.34,7.01,-12.74
95,247337498,-0.9990,-0.1216,-0.4512,-21.95,7.74,-13.29
96,247342499,-0.9956,-0.1201,-0.4521,-22.80,8.66,-13.90
97,247347499,-0.9761,-0.1206,-0.4526,-23.54,9.45,-14.57
98,247352500,-0.9541,-0.1089,-0.4746,-24.33,10.24,-15.18
99,247357497,-0.9502,-0.1104,-0.4736,-25.12,10.85,-15.98
100,247362497,-0.9541,-0.1089,-0.4834,-25.98,11.52,-16.71
101,247367499,-0.9609,-0.1104,-0.4990,-26.83,12.32,-17.38
102,247372501,-0.9668,-0.1147,-0.5063,-27.50,13.29,-18.05
103,247377498,-0.9473,-0.1035,-0.4951,-28.17,14.27,-18.90
104,247382499,-0.8794,-0.0854,-0.4517,-28.41,15.73,-19.82
105,247387499,-0.8906,-0.0791,-0.5376,-27.99,16.71,-20.61
106,247392499,-0.9248,-0.1074,-0.5171,-27.93,17.80,-21.28
107,247397499,-0.9546,-0.1191,-0.4946,-28.11,19.39,-21.71
108,247402499,-0.9448,-0.1206,-0.4932,-28.72,21.40,-21.89
109,247407498,-0.9072,-0.1265,-0.5024,-29.57,23.35,-22.07
110,247412499,-0.8760,-0.1235,-0.5063,-30.37,25.24,-22.07
111,247417499,-0.8599,-0.1221,-0.4946,-31.04,27.20,-21.83
112,247422499,-0.8535,-0.1235,-0.5073,-31.46,29.02,-21.59
113,247427640,-0.8599,-0.1313,-0.5127,-31.71,30.67,-21.16
114,247432499,-0.8706,-0.1323,-0.5220,-31.65,32.38,-20.67
115,247437499,-0.8760,-0.1270,-0.5347,-31.34,34.02,-20.06
116,247442499,-0.8833,-0.1265,-0.5479,-30.73,35.49,-19.57
117,247447499,-0.8896,-0.1201,-0.5552,-29.82,37.01,-19.15
118,247452917,-0.9087,-0.1118,-0.5669,-28.90,38.48,-18.78
119,247457500,-0.9229,-0.1040,-0.5757,-27.62,40.12,-18.48
120,247462499,-0.9390,-0.1006,-0.5933,-26.22,41.71,-18.23
121,247467892,-0.9326,-0.0928,-0.5908,-24.70,43.35,-18.11
122,247472499,-0.9009,-0.0708,-0.5698,-22.50,45.06,-18.05
123,247477499,-0.8931,-0.0820,-0.6436,-20.00,46.52,-17.87
124,247482648,-0.8809,-0.1133,-0.6187,-17.74,47.99,-17.68
125,247487499,-0.9170,-0.0977,-0.6030,-16.16,50.24,-17.07
126,247492499,-0.9834,-0.0977,-0.6592,-14.94,52.07,-16.46
127,247497966,-1.0059,-0.1455,-0.6396,-13.90,54.09,-15.79
128,247502499,-1.0078,-0.1475,-0.6504,-12.93,56.40,-14.33
129,247507500,-0.9971,-0.1304,-0.6440,-12.07,58.96,-12.99
130,247512499,-0.9551,-0.1348,-0.6494,-10.61,61.40,-11.59
131,247517499,-0.9121,-0.1353,-0.6562,-8.96,64.15,-10.18
132,247522499,-0.8965,-0.1309,-0.6514,-6.83,66.83,-8.60
133,247527499,-0.8906,-0.1328,-0.6558,-4.51,69.33,-7.07
134,247532500,-0.8970,-0.1387,-0.6631,-1.95,72.07,-5.49
135,247537498,-0.9053,-0.1387,-0.6694,0.49,74.76,-3.96
136,247542501,-0.9131,-0.1421,-0.6670,2.80,77.50,-2.50
137,247547497,-0.9170,-0.1440,-0.6816,4.82,80.37,-0.91
138,247552499,-0.9209,-0.1489,-0.6880,6.59,83.23,0.61
139,247557500,-0.9297,-0.1548,-0.6997,8.05,86.16,2.01
140,247562499,-0.9341,-0.1646,-0.7129,9.33,88.78,3.35
141,247567628,-0.9336,-0.1641,-0.7280,10.43,91.71,4.82
142,247572499,-0.9321,-0.1714,-0.7500,11.46,94.63,6.04
143,247577896,-0.9370,-0.1733,-0.7529,12.68,97.50,7.44
144,247582514,-0.9453,-0.1821,-0.7642,14.21,100.55,8.66
145,247587498,-0.9409,-0.1846,-0.7754,15.98,103.41,9.94
146,247592791,-0.9282,-0.1885,-0.7817,18.29,106.46,11.22
147,247597499,-0.9136,-0.1919,-0.7798,21.10,109.57,12.44
148,247602499,-0.9058,-0.1953,-0.7964,24.57,112.44,13.72
149,247607779,-0.8979,-0.2041,-0.7954,28.54,115.43,14.82
150,247612499,-0.8877,-0.2104,-0.7881,33.11,118.54,15.98
151,247617689,-0.8745,-0.2173,-0.7905,38.11,121.52,17.01
152,247622499,-0.8584,-0.2241,-0.7837,43.66,124.39,18.17
153,247627498,-0.8447,-0.2329,-0.7812,49.57,127.20,19.09
154,247632497,-0.8345,-0.2354,-0.7861,55.85,129.82,20.00
155,247637499,-0.8276,-0.2437,-0.7876,62.50,132.38,20.91
156,247642501,-0.8169,-0.2471,-0.7896,69.45,134.76,21.71
157,247647499,-0.8110,-0.2520,-0.7881,76.77,136.83,22.32
158,247652499,-0.7935,-0.2539,-0.7861,84.21,138.84,22.87
159,247657500,-0.7812,-0.2563,-0.7876,91.59,140.55,23.41
160,247662499,-0.7690,-0.2549,-0.7852,99.02,142.32,23.54
161,247667499,-0.7612,-0.2563,-0.7793,106.04,143.96,23.48
162,247672499,-0.7490,-0.2593,-0.7764,112.74,145.37,23.41
163,247677844,-0.7407,-0.2637,-0.7744,119.09,146.89,23.05
164,247682499,-0.7241,-0.2705,-0.7754,124.76,148.17,22.50
165,247687499,-0.7192,-0.2764,-0.7744,130.30,149.33,21.71
166,247692499,-0.7104,-0.2793,-0.7725,134.51,150.67,20.79
167,247697499,-0.7002,-0.2798,-0.7627,138.60,151.89,19.63
168,247702499,-0.6924,-0.2783,-0.7529,142.38,153.23,18.11
169,247707498,-0.6792,-0.2803,-0.7515,145.79,154.21,16.34
170,247712499,-0.6714,-0.2925,-0.7441,148.84,155.43,14.27
171,247717787,-0.6665,-0.2964,-0.7432,151.59,156.52,12.20
172,247722499,-0.6558,-0.3135,-0.7412,154.21,157.13,9.94
173,247727529,-0.6509,-0.3188,-0.7451,156.83,157.80,7.74
174,247732499,-0.6426,-0.3311,-0.7495,159.27,158.11,5.37
175,247737810,-0.6406,-0.3364,-0.7524,161.59,158.29,2.99
176,247742499,-0.6313,-0.3442,-0.7549,163.96,158.11,0.49
177,247747844,-0.6206,-0.3472,-0.7588,165.91,157.68,-1.95
178,247752499,-0.6035,-0.3447,-0.7578,167.74,157.07,-4.51
179,247757499,-0.5889,-0.3491,-0.7554,168.96,156.40,-7.13
180,247762500,-0.5762,-0.3560,-0.7544,169.57,155.91,-9.82
181,247767499,-0.5620,-0.3628,-0.7520,169.33,155.06,-12.68
182,247772500,-0.5522,-0.3804,-0.7422,168.35,154.45,-15.49
183,247777499,-0.5454,-0.3774,-0.7378,166.95,153.54,-18.05
184,247782497,-0.5371,-0.3818,-0.7310,164.94,152.74,-20.67
185,247787497,-0.5264,-0.3936,-0.7236,162.74,151.95,-23.23
186,247792501,-0.5093,-0.3979,-0.7207,160.49,151.16,-25.73
187,247797497,-0.4868,-0.4087,-0.7197,158.17,150.06,-28.11
188,247802499,-0.4673,-0.4282,-0.7251,155.73,148.96,-30.43
189,247807498,-0.4590,-0.4443,-0.7241,153.23,147.74,-32.62
190,247812728,-0.4536,-0.4517,-0.7261,150.79,146.34,-34.76
191,247817499,-0.4414,-0.4648,-0.7261,148.35,145.06,-36.71
192,247822499,-0.4307,-0.4819,-0.7144,145.91,143.78,-38.66
193,247827499,-0.4141,-0.4849,-0.7100,143.35,142.44,-40.55
194,247832500,-0.3945,-0.4883,-0.6899,140.91,141.10,-42.50
195,247837590,-0.3726,-0.4990,-0.6821,138.66,139.82,-44.27
196,247842498,-0.3506,-0.5000,-0.6841,136.22,138.54,-46.28
197,247847499,-0.3340,-0.5020,-0.6753,133.78,137.26,-48.11
198,247852501,-0.3125,-0.4990,-0.6807,131.59,135.98,-49.88
199,247857498,-0.3018,-0.4980,-0.6689,130.24,134.51,-51.83
200,247862499,-0.2866,-0.4868,-0.6646,128.84,133.29,-53.84
201,247867628,-0.2725,-0.4785,-0.6650,126.95,131.65,-55.91
202,247872499,-0.2500,-0.4858,-0.6606,125.73,130.30,-57.99
203,247877964,-0.2295,-0.4771,-0.6621,124.39,128.78,-60.12
204,247882499,-0.2163,-0.4824,-0.6621,122.93,127.13,-62.26
205,247887499,-0.2017,-0.4863,-0.6636,121.46,125.73,-64.39
206,247892499,-0.1865,-0.4966,-0.6592,119.94,124.27,-66.40
207,247897501,-0.1787,-0.5010,-0.6704,118.41,122.99,-68.35
208,247902497,-0.1626,-0.5078,-0.6616,117.13,121.46,-70.12
209,247907499,-0.1387,-0.5083,-0.6567,116.16,120.18,-71.95
210,247912499,-0.1191,-0.5132,-0.6606,115.18,118.48,-73.78
211,247917501,-0.0854,-0.5244,-0.6538,114.27,117.07,-75.55
212,247922498,-0.0503,-0.5381,-0.6919,113.23,115.43,-77.20
213,247927497,-0.0293,-0.5435,-0.6709,111.40,113.54,-78.84
214,247932497,-0.0142,-0.5522,-0.6738,109.15,112.07,-80.49
215,247937497,-0.0010,-0.5625,-0.6948,106.52,110.61,-81.83
216,247942497,0.0137,-0.5820,-0.7104,103.29,108.84,-83.17
217,247947562,0.0361,-0.5903,-0.7017,99.45,107.13,-84.57
218,247952667,0.0503,-0.6016,-0.7271,95.37,105.91,-85.79
219,247957499,0.0596,-0.6011,-0.7383,90.85,104.76,-86.77
220,247962499,0.0723,-0.6064,-0.7441,86.34,103.29,-87.99
221,247967500,0.0781,-0.5845,-0.8115,81.46,102.50,-89.02
222,247972781,0.1143,-0.3872,-1.1470,76.89,101.71,-90.00
223,247977499,0.1768,-0.3369,-1.1074,74.39,100.73,-91.28
224,247982499,0.1265,-0.4814,-1.0698,72.13,102.62,-91.40
225,247987499,0.0405,-0.5791,-1.0703,67.80,104.02,-91.34
226,247992499,0.0093,-0.6572,-0.8838,61.59,104.94,-91.22
227,247997501,0.0195,-0.7100,-0.7480,55.12,105.30,-91.40
228,248002499,0.0498,-0.7407,-0.7554,49.39,105.91,-91.83
229,248007501,0.0693,-0.7378,-0.7368,45.24,106.34,-92.38
230,248012499,0.0674,-0.7461,-0.6860,43.05,105.61,-93.23
231,248017501,0.0469,-0.7607,-0.6782,42.50,105.06,-94.45
232,248022639,0.0337,-0.7690,-0.7075,43.11,104.33,-95.73
233,248027499,0.0205,-0.7778,-0.6953,44.21,103.48,-97.07
234,248032499,0.0200,-0.7939,-0.6753,45.91,102.62,-98.54
235,248037499,0.0205,-0.8062,-0.6875,47.56,101.71,-99.82
236,248042499,0.0293,-0.8193,-0.7168,49.21,100.98,-100.91
237,248047499,0.0356,-0.8218,-0.7153,51.40,100.24,-102.01
238,248052499,0.0337,-0.8184,-0.7354,53.90,99.33,-103.17
239,248057499,0.0347,-0.8115,-0.7627,57.07,98.66,-104.39
240,248062499,0.0337,-0.8032,-0.7827,60.85,98.05,-105.55
241,248067500,0.0273,-0.8027,-0.7788,65.00,97.26,-106.89
242,248072499,0.0298,-0.8052,-0.7554,69.57,96.40,-108.11
243,248077507,0.0317,-0.8081,-0.7285,74.57,95.61,-109.33
244,248082498,0.0317,-0.8120,-0.6978,79.94,94.76,-110.67
245,248087497,0.0210,-0.8179,-0.6602,85.73,93.72,-111.95
246,248092499,0.0068,-0.8105,-0.6436,92.07,92.44,-113.11
247,248097500,-0.0034,-0.7974,-0.6099,98.84,91.16,-114.39
248,248102499,-0.0098,-0.7734,-0.5776,105.55,89.45,-115.73
249,248107500,-0.0146,-0.7466,-0.5415,111.89,87.99,-116.95
250,248112499,-0.0190,-0.7217,-0.5146,117.38,85.49,-118.11
251,248117501,-0.0234,-0.7075,-0.4775,121.65,84.33,-118.90
252,248122559,-0.0225,-0.6968,-0.4609,124.33,81.77,-119.45
253,248127865,-0.0181,-0.6924,-0.4204,125.61,79.39,-119.70
254,248132499,-0.0146,-0.6895,-0.4082,125.24,77.38,-119.76
255,248137499,-0.0049,-0.6924,-0.3999,123.54,75.49,-119.39
256,248142499,0.0176,-0.7114,-0.3896,120.55,73.41,-118.78
257,248147815,0.0337,-0.7300,-0.3789,116.71,71.83,-118.17
258,248152499,0.0371,-0.7495,-0.3682,112.56,70.61,-117.32
259,248157500,0.0356,-0.7573,-0.3604,108.78,69.39,-116.40
260,248162499,0.0488,-0.7617,-0.3423,105.85,68.72,-115.43
261,248167856,0.0610,-0.7656,-0.3359,104.09,68.11,-114.76
262,248172500,0.0742,-0.7646,-0.3301,103.66,67.50,-114.02
263,248177499,0.0972,-0.7603,-0.3164,104.63,66.46,-113.29
264,248182499,0.1260,-0.7593,-0.3013,106.46,65.49,-112.56
265,248187645,0.1602,-0.7593,-0.2842,109.09,64.33,-112.01
266,248192498,0.1807,-0.7568,-0.2642,111.22,63.23,-111.34
267,248197501,0.2007,-0.7617,-0.2539,114.45,61.65,-110.61
268,248202501,0.2178,-0.7754,-0.2358,116.77,60.12,-109.82
269,248207704,0.2412,-0.7808,-0.2212,118.78,58.78,-109.02
270,248212499,0.2568,-0.7891,-0.2031,120.12,57.26,-108.41
271,248217499,0.2725,-0.7949,-0.1890,121.52,56.04,-107.62
272,248222498,0.2876,-0.7954,-0.1870,122.50,55.12,-107.26
273,248227499,0.3179,-0.8003,-0.1821,123.90,53.60,-106.59
274,248232499,0.3511,-0.7988,-0.1758,125.12,52.26,-106.10
275,248237498,0.3833,-0.7983,-0.1660,126.16,51.16,-105.79
276,248242497,0.4287,-0.7866,-0.1543,128.05,49.51,-105.49
277,248247498,0.4678,-0.7729,-0.1470,129.02,48.11,-105.37
278,248252499,0.5132,-0.7549,-0.1191,130.12,46.40,-105.24
279,248257685,0.5508,-0.7397,-0.1089,132.13,44.57,-105.24
280,248262499,0.5688,-0.7329,-0.0996,133.23,43.17,-105.18
281,248267498,0.6094,-0.7231,-0.0845,134.63,40.85,-105.12
282,248272499,0.6123,-0.7231,-0.0552,135.06,39.45,-104.94
283,248277500,0.6108,-0.6992,-0.0293,135.49,37.50,-104.70
284,248282499,0.6172,-0.6885,-0.0332,135.43,36.10,-104.39
285,248287498,0.6001,-0.6738,0.0103,134.88,34.09,-103.90
286,248292499,0.5791,-0.6514,0.0332,134.63,32.74,-103.23
287,248297497,0.5664,-0.6289,0.0269,134.51,31.71,-102.93
288,248302499,0.5474,-0.5811,0.0415,134.70,30.00,-102.26
289,248307499,0.5244,-0.5400,0.0664,135.24,28.66,-101.77
290,248312498,0.4790,-0.4980,0.0898,136.10,27.44,-101.34
291,248317499,0.5034,-0.4541,0.0400,137.44,25.79,-100.98
292,248322721,0.5112,-0.4204,0.0879,138.66,23.90,-100.37
293,248327499,0.5117,-0.4033,0.1108,139.76,22.80,-99.88
294,248332780,0.4907,-0.3599,0.1182,140.91,20.79,-99.09
295,248337499,0.4824,-0.3350,0.1138,141.46,19.33,-98.29
296,248342550,0.4819,-0.2812,0.1431,142.07,17.32,-96.89
297,248347499,0.4893,-0.2378,0.1816,142.07,16.04,-95.49
298,248352497,0.4873,-0.1963,0.1909,141.83,15.37,-94.39
299,248357521,0.4546,-0.1489,0.2061,140.61,13.96,-92.44
300,248362714,0.4282,-0.1001,0.2153,138.84,13.17,-90.73
301,248367499,0.4028,-0.0640,0.2393,136.59,12.32,-88.72
302,248372499,0.3794,-0.0293,0.2402,133.78,11.71,-86.34
303,248377501,0.3638,0.0083,0.2417,130.18,11.16,-83.60
304,248382677,0.3418,0.0508,0.2500,127.93,10.67,-80.79
305,248387499,0.3232,0.0952,0.2485,125.06,10.12,-78.29
306,248392500,0.2964,0.1724,0.2397,120.61,9.21,-74.51
307,248397662,0.2559,0.2300,0.2080,116.65,8.05,-71.46
308,248402499,0.2583,0.2593,0.2319,113.66,6.95,-68.78
309,248407501,0.2812,0.3296,0.2305,108.05,5.43,-64.51
310,248412497,0.2837,0.3794,0.2231,101.77,4.02,-60.67
311,248417499,0.2856,0.4092,0.2070,93.84,2.38,-56.77
312,248422827,0.2856,0.4473,0.2104,84.27,0.85,-52.56
313,248427499,0.2827,0.4800,0.2109,75.30,-0.79,-48.90
314,248432499,0.2773,0.5298,0.2163,60.00,-2.62,-43.11
315,248437499,0.2852,0.5659,0.2041,45.24,-4.39,-38.11
316,248442499,0.2866,0.5762,0.2124,32.26,-5.55,-33.90
317,248447499,0.2891,0.5938,0.2183,10.55,-7.13,-26.71
318,248452498,0.2905,0.5903,0.2139,-4.88,-8.23,-21.71
319,248457497,0.2827,0.5957,0.2144,-25.12,-9.33,-14.76
320,248462499,0.3130,0.6011,0.2197,-49.88,-10.61,-5.67
321,248467500,0.3267,0.6055,0.2100,-70.30,-11.83,2.44
322,248472506,0.3452,0.6138,0.1895,-90.00,-13.29,10.91
323,248477499,0.3760,0.6104,0.1948,-104.82,-14.76,17.99
324,248482498,0.4233,0.6206,0.1963,-121.04,-16.95,27.07
325,248487499,0.4644,0.6235,0.1992,-137.20,-19.76,38.17
326,248492497,0.4951,0.6216,0.2036,-145.79,-22.01,45.85
327,248497499,0.5332,0.6035,0.2017,-153.66,-25.00,55.37
328,248502499,0.5698,0.5684,0.1919,-158.35,-28.23,65.12
329,248507501,0.6279,0.5317,0.1714,-159.88,-32.68,77.07
330,248512497,0.6724,0.4790,0.1558,-157.62,-36.46,87.38
331,248517499,0.7231,0.4209,0.1294,-152.38,-40.30,97.56
332,248522499,0.7476,0.3633,0.1074,-146.22,-43.35,105.98
333,248527497,0.7754,0.2822,0.0898,-136.95,-47.13,116.95
334,248532497,0.8047,0.1904,0.0586,-125.55,-50.43,128.17
335,248537497,0.8457,0.0986,0.0166,-112.93,-53.72,139.63
336,248542498,0.9038,0.0161,-0.0098,-99.45,-56.34,151.46
337,248547497,0.9688,-0.0688,-0.0386,-85.30,-58.72,163.11
338,248552499,2.3037,-2.8335,0.5830,-78.84,-63.90,166.46
339,248557497,2.2705,-3.4497,-0.2153,-79.76,-62.56,160.18
340,248562498,3.3599,-2.6421,-1.0088,-121.46,-51.83,136.16
341,248567500,0.4761,-0.1855,-1.6616,-180.06,-27.68,104.94
342,248572498,0.7158,-0.1001,-1.8599,-157.26,-33.23,98.41
343,248577499,1.4136,-1.2388,1.2412,-127.44,-67.38,96.71
344,248582498,1.7788,-1.5947,-1.8193,-114.09,-26.40,96.95
345,248587731,2.0059,-1.2388,-2.4302,-96.40,-10.24,96.22
346,248592499,1.6958,-1.2539,-0.2603,-83.78,-14.70,97.38
347,248597499,1.3892,-0.9048,-0.1177,-71.65,-41.71,97.99
348,248602499,1.1206,-1.0854,-1.1694,-57.50,-24.51,97.74
349,248607500,1.0610,-0.6440,-0.5869,-48.35,-5.61,95.73
350,248612499,1.0796,-1.0078,0.1895,-36.65,-17.13,93.84
351,248617498,1.1777,-1.2188,-0.3291,-24.88,-9.82,89.76
352,248622499,1.1128,-1.4517,-1.1191,-20.37,8.17,86.46
353,248627904,1.0083,-1.2441,-0.7773,-16.83,14.51,80.18
354,248632499,1.2075,-1.2817,-0.4849,-16.65,11.46,76.04
355,248637499,1.0605,-1.3315,-0.8306,-18.66,21.10,68.72
356,248642499,0.9331,-1.0664,-0.8564,-21.71,30.91,63.41
357,248647499,0.8457,-1.0703,-0.5620,-25.79,33.35,56.59
358,248652499,0.8545,-1.0977,-0.6279,-32.38,39.94,47.93
359,248657499,0.8887,-1.2129,-0.8535,-37.68,46.46,41.65
360,248662872,0.8833,-1.1963,-0.7319,-44.51,52.62,31.71
361,248667499,0.8486,-1.2788,-0.5996,-48.60,54.09,25.18
362,248672498,0.8052,-1.2505,-0.7051,-55.37,58.54,16.65
363,248677499,0.7852,-1.1973,-0.6724,-64.02,63.11,7.80
364,248682499,0.7671,-1.1968,-0.6074,-77.44,66.95,-2.62
365,248687499,0.7505,-1.1714,-0.5552,-91.22,69.94,-11.46
366,248692499,0.7456,-1.1777,-0.5967,-103.90,73.48,-18.29
367,248697498,0.7256,-1.1797,-0.5381,-120.85,77.26,-26.40
368,248702499,0.6987,-1.1514,-0.4946,-141.46,81.52,-35.43
369,248707499,0.6758,-1.1299,-0.5005,-154.15,85.06,-41.16
370,248712501,0.6450,-1.0781,-0.4888,-168.23,88.17,-48.17
371,248717499,0.6206,-1.0352,-0.4565,-182.20,92.99,-56.16
372,248722499,0.6118,-1.0000,-0.4219,-189.76,95.43,-60.98
373,248727499,0.5957,-0.9727,-0.3857,-199.21,99.63,-67.44
374,248732499,0.5859,-0.9517,-0.3647,-204.09,102.26,-71.04
375,248737619,0.5752,-0.9102,-0.3120,-209.45,105.98,-75.61
376,248742714,0.5649,-0.8853,-0.2783,-212.13,108.66,-78.66
377,248747499,0.5654,-0.8564,-0.2573,-213.41,110.85,-80.67
378,248752499,0.5669,-0.8311,-0.2144,-214.39,113.35,-82.50
379,248757624,0.5679,-0.8052,-0.1646,-215.00,116.10,-83.84
380,248762858,0.5713,-0.7759,-0.1260,-215.18,118.41,-84.33
381,248767499,0.5791,-0.7573,-0.0996,-215.24,120.00,-84.27
382,248772500,0.5825,-0.7241,-0.0518,-215.12,122.26,-83.84
383,248777499,0.5815,-0.7124,-0.0210,-214.82,123.84,-83.05
384,248782501,0.5840,-0.6831,0.0083,-214.45,125.67,-81.77
385,248787558,0.5874,-0.6528,0.0459,-213.78,127.56,-79.76
386,248792564,0.5894,-0.6343,0.0781,-213.17,129.15,-77.80
387,248797744,0.5908,-0.6133,0.0928,-212.44,130.61,-75.55
388,248802499,0.5947,-0.6060,0.1079,-211.77,131.59,-73.48
389,248807499,0.5566,-0.6221,0.1318,-210.79,133.11,-70.55
390,248812499,0.4946,-0.6299,0.1509,-209.15,134.09,-67.01
391,248817498,0.4976,-0.5820,0.1606,-206.83,135.43,-63.60
392,248822499,0.5161,-0.5410,0.1831,-203.35,137.07,-59.57
393,248827497,0.4956,-0.5161,0.1880,-200.91,138.35,-57.13
394,248832497,0.4546,-0.4873,0.1875,-196.95,140.00,-53.48
395,248837499,0.3999,-0.4893,0.1641,-194.21,140.85,-50.98
396,248842498,0.3252,-0.5298,0.0259,-190.91,141.71,-47.56
397,248847499,0.3374,-0.4336,-0.2632,-186.83,141.34,-43.54
398,248852499,0.4756,-0.3828,-0.2476,-182.62,140.85,-41.77
399,248857499,0.6484,-0.2935,-0.1318,-174.57,143.48,-39.70
400,248862833,0.7041,-0.2505,-0.0562,-167.93,147.38,-38.11
401,248867499,0.6934,-0.2764,-0.0503,-163.48,150.30,-36.34
402,248872499,0.6064,-0.3521,0.0166,-158.11,154.70,-32.44
403,248877500,0.5288,-0.3555,0.0957,-155.12,157.44,-29.09
404,248882498,0.4517,-0.3359,0.1699,-151.16,160.91,-24.57
405,248887499,0.3774,-0.2852,0.2441,-147.26,164.51,-20.06
406,248892499,0.3218,-0.2803,0.3013,-142.62,168.96,-14.76
407,248897499,0.2998,-0.2900,0.3174,-139.70,171.46,-10.73
408,248902828,0.2876,-0.3188,0.3145,-135.06,174.76,-4.27
409,248907499,0.2949,-0.3179,0.3130,-131.65,176.89,0.18
410,248912631,0.2822,-0.3379,0.3384,-125.73,179.51,7.44
411,248917499,0.2549,-0.3369,0.3618,-121.22,181.28,12.32
412,248922708,0.2124,-0.3213,0.3511,-114.27,183.60,19.57
413,248927499,0.1821,-0.3101,0.3389,-109.63,184.88,24.27
414,248932894,0.1475,-0.2866,0.3521,-103.11,186.59,30.98
415,248937499,0.1401,-0.2637,0.3711,-99.09,187.56,35.30
416,248942923,0.1484,-0.2427,0.3901,-93.72,189.27,41.34
417,248947499,0.1597,-0.2305,0.4048,-89.88,190.43,46.28
418,248952499,0.1670,-0.2188,0.4160,-87.20,191.46,50.06
419,248957635,0.1660,-0.2090,0.4336,-83.60,192.87,55.79
420,248962499,0.1606,-0.2100,0.4253,-81.46,193.78,59.33
421,248967499,0.1489,-0.2119,0.4312,-78.41,195.06,65.06
422,248972499,0.1401,-0.2124,0.4521,-76.46,195.85,68.90
423,248977500,0.1387,-0.2168,0.4595,-73.90,196.83,73.60
424,248982499,0.1460,-0.2241,0.4697,-70.67,198.05,79.09
425,248987499,0.1475,-0.2104,0.4917,-68.23,198.96,82.99
426,248992498,0.1553,-0.2080,0.5166,-64.39,200.18,86.95
427,248997536,0.1187,-0.2432,0.5171,-59.02,201.34,92.56
428,249002603,0.0898,-0.2603,0.5254,-54.39,202.38,97.26
429,249007891,0.0679,-0.2881,0.5420,-49.63,203.29,101.95
430,249012499,0.0679,-0.3120,0.5605,-46.04,203.96,105.85
431,249017500,0.0732,-0.3340,0.5693,-42.20,204.57,110.91
432,249022499,0.0918,-0.3423,0.6074,-39.21,204.88,115.79
433,249027905,0.0752,-0.4028,0.6855,-36.89,205.37,122.13
434,249032499,0.0693,-0.4141,0.6680,-36.22,205.73,126.59
435,249037498,0.0410,-0.4209,0.6641,-35.98,205.37,131.89
436,249042499,-0.0049,-0.4438,0.6704,-36.83,204.51,138.66
437,249047499,-0.0112,-0.4282,0.6816,-37.62,203.66,143.05
438,249052545,-0.0127,-0.4146,0.7271,-38.78,202.20,149.39
439,249057498,-0.0249,-0.4302,0.7661,-40.00,200.85,154.63
440,249062499,-0.0308,-0.4189,0.8047,-41.10,199.70,158.54
441,249067497,-0.0371,-0.4146,0.8452,-42.32,198.17,163.29
442,249072499,-0.0581,-0.4092,0.8965,-42.99,196.40,168.23
443,249077499,-0.0801,-0.4131,0.9443,-42.99,194.70,172.87
444,249082498,-0.1089,-0.4263,0.9780,-42.32,192.44,177.62
445,249087499,-0.1411,-0.4458,0.9976,-41.16,190.06,182.20
446,249092499,-0.1704,-0.4595,1.0396,-38.84,186.89,187.87
447,249097499,-0.1880,-0.4702,1.0713,-36.71,184.39,191.89
448,249102844,-0.2393,-0.5015,1.1011,-32.99,180.12,197.87
449,249107499,-0.2803,-0.5181,1.1138,-30.12,177.07,201.89
450,249112795,-0.3047,-0.5396,1.1421,-25.37,172.26,208.05
451,249117500,-0.3257,-0.5552,1.1714,-22.20,169.02,212.20
452,249122498,-0.3579,-0.5708,1.1885,-18.41,164.39,217.20
453,249127499,-0.3960,-0.5879,1.2046,-14.94,159.63,222.32
454,249132498,-0.4224,-0.5903,1.2358,-11.65,154.45,227.38
455,249137500,-0.4482,-0.6089,1.2871,-8.54,148.84,232.50
456,249142497,-0.4673,-0.6353,1.3242,-5.30,142.93,237.80
457,249147499,-0.5386,-0.6436,1.3433,-2.20,136.40,243.11
458,249152499,-0.5620,-0.6455,1.3516,1.22,129.02,248.29
459,249157498,-0.5498,-0.6860,1.4365,5.55,119.09,254.33
460,249162499,-0.6387,-0.7437,1.4780,8.11,112.56,258.54
461,249167816,-0.7231,-0.8232,1.5605,11.89,103.05,265.79
462,249172499,-0.7568,-0.8213,1.5757,14.33,96.46,270.67
463,249177802,-0.8013,-0.8291,1.6323,18.29,86.89,277.50
464,249182499,-0.8477,-0.8740,1.6562,20.85,79.21,282.07
465,249187500,-0.9106,-0.9072,1.7056,25.06,67.74,288.90
466,249192499,-0.9111,-0.9175,1.7666,28.35,59.63,293.29
467,249197501,-1.0498,-0.9438,1.7739,32.68,49.39,298.23
468,249202877,-1.0757,-0.9849,1.8496,38.17,35.49,304.09
469,249207500,-1.1055,-0.9844,1.8950,42.20,26.65,307.50
470,249212973,-1.1831,-1.0723,1.9346,48.78,11.95,312.26
471,249217499,-1.2041,-1.1309,1.9536,53.11,1.59,315.43
472,249222501,-1.2378,-1.1768,1.9819,58.41,-11.89,319.39
473,249227498,-1.2681,-1.2266,1.9961,63.05,-26.22,323.11
474,249232499,-1.2886,-1.2578,2.0332,66.28,-40.85,326.40
475,249237499,-1.2661,-1.2769,2.0767,67.87,-55.91,329.27
476,249242499,-1.3716,-1.3564,2.0659,67.93,-73.48,332.20
477,249247499,-1.3369,-1.3779,2.0986,66.83,-85.85,334.21
478,249252498,-1.4121,-1.3633,2.1348,64.57,-100.61,336.16
479,249257696,-1.4854,-1.4028,2.1304,60.85,-118.90,337.68
480,249262499,-1.5142,-1.4160,2.1470,57.80,-131.28,338.60
481,249267499,-1.5781,-1.4492,2.1621,53.11,-149.88,339.82
482,249272499,-1.6255,-1.4795,2.1572,49.94,-162.38,340.61
483,249277499,-1.6973,-1.5361,2.1538,45.24,-181.40,341.71
484,249282499,-1.7427,-1.5796,2.1719,42.32,-194.45,342.56
485,249287499,-1.7925,-1.6465,2.1558,38.17,-214.21,344.09
486,249292499,-1.8267,-1.7021,2.1484,35.91,-227.50,344.94
487,249298009,-1.8818,-1.7783,2.1201,32.99,-248.17,346.46
488,249302499,-1.9023,-1.8213,2.1045,31.52,-262.32,347.20
489,249307499,-1.9312,-1.8638,2.0952,31.28,-279.88,347.56
490,249312679,-1.9731,-1.8936,2.1006,33.84,-300.73,346.71
491,249317500,-2.0137,-1.9277,2.1045,37.99,-314.63,345.49
492,249322498,-2.0918,-2.0010,2.0898,46.40,-331.83,343.29
493,249327499,-2.1558,-2.0610,2.1104,58.60,-348.54,340.91
494,249332497,-2.2324,-2.1318,2.1445,76.89,-367.68,337.50
495,249337587,-2.3193,-2.1982,2.1616,93.72,-382.80,334.51
496,249342498,-2.4004,-2.2617,2.1841,107.56,-394.45,331.95
497,249347738,-2.5049,-2.3389,2.2256,128.66,-410.43,328.05
498,249352499,-2.5522,-2.4126,2.2461,141.65,-420.18,325.73
499,249357499,-2.5854,-2.5117,2.2549,157.56,-431.52,323.23
500,249362499,-2.6206,-2.5796,2.2788,172.38,-442.07,321.16
501,249367498,-2.6729,-2.5815,2.2905,185.85,-451.89,319.09
502,249372499,-2.7271,-2.5942,2.3115,197.50,-460.73,316.46
503,249377499,-2.7881,-2.5938,2.3550,206.77,-469.15,313.54
504,249382499,-2.8286,-2.5986,2.3745,214.94,-478.11,309.21
505,249387500,-2.8228,-2.5967,2.3809,218.96,-484.70,304.63
506,249392499,-2.8242,-2.6123,2.3613,220.30,-489.57,300.73
507,249397499,-2.8320,-2.6328,2.3379,220.06,-495.06,295.55
508,249402501,-2.8242,-2.6450,2.3159,218.05,-500.06,290.24
509,249407895,-2.8032,-2.6646,2.2598,212.44,-505.61,283.54
510,249412499,-2.7793,-2.6748,2.2036,207.32,-508.90,278.78
511,249417499,-2.7524,-2.7139,2.1396,200.43,-513.23,272.68
512,249422499,-2.7373,-2.7505,2.0195,193.66,-517.62,266.46
513,249427499,-2.7090,-2.7812,1.9126,187.32,-521.71,260.00
514,249432497,-2.6494,-2.8066,1.8086,181.95,-526.10,252.93
515,249437497,-2.5869,-2.8169,1.6895,177.68,-530.18,245.06
516,249442497,-2.5342,-2.8120,1.6011,174.45,-533.90,236.34
517,249447526,-2.4985,-2.8091,1.5205,172.01,-537.38,227.01
518,249452499,-2.4595,-2.7480,1.4209,170.24,-540.12,217.07
519,249457499,-2.4282,-2.7236,1.3228,168.54,-541.83,206.40
520,249462708,-2.3828,-2.6968,1.1396,167.20,-543.29,193.17
521,249467499,-2.3472,-2.6899,1.0371,167.20,-543.66,184.57
522,249472499,-2.3047,-2.6987,0.8740,168.54,-542.99,174.21
523,249477692,-2.2227,-2.6821,0.7124,171.95,-540.91,162.26
524,249482499,-2.1748,-2.6528,0.6123,174.63,-538.41,154.63
525,249487919,-2.1099,-2.6001,0.4731,177.13,-532.26,142.80
526,249492501,-2.0586,-2.5459,0.3687,176.71,-526.77,134.82
527,249497498,-2.0049,-2.4878,0.2495,172.56,-519.15,124.63
528,249502499,-1.9365,-2.4268,0.1270,164.09,-510.85,114.09
529,249507646,-1.8584,-2.3369,0.0195,148.23,-500.00,100.91
530,249512499,-1.8247,-2.2861,-0.0420,134.88,-492.56,91.77
531,249517498,-1.7358,-2.2173,-0.1152,116.04,-482.44,79.88
532,249522499,-1.6738,-2.1509,-0.1846,96.22,-472.26,67.56
533,249527498,-1.6250,-2.0176,-0.2290,75.79,-461.28,54.63
534,249532499,-1.5571,-1.9058,-0.2852,55.18,-450.49,40.91
535,249537775,-1.4658,-1.7915,-0.3462,30.24,-436.65,23.96
536,249542501,-1.3984,-1.7256,-0.4033,14.09,-427.07,12.68
537,249547497,-1.2983,-1.6597,-0.4385,-4.82,-415.18,-1.28
538,249552498,-1.1895,-1.5283,-0.5200,-25.00,-399.88,-17.38
539,249557499,-1.1167,-1.4521,-0.5820,-36.52,-389.51,-27.74
540,249562499,-1.0269,-1.3408,-0.6333,-50.85,-373.60,-42.62
541,249567499,-0.9600,-1.2788,-0.6602,-58.66,-362.87,-51.89
542,249572498,-0.8926,-1.2026,-0.7109,-66.59,-349.21,-62.32
543,249577499,-0.8320,-1.1357,-0.7437,-72.38,-335.55,-71.89
544,249582499,-0.7671,-1.0664,-0.7563,-76.22,-321.89,-80.24
545,249587501,-0.6914,-0.9961,-0.7817,-78.11,-305.91,-88.60
546,249592501,-0.6265,-0.9351,-0.8022,-77.56,-292.68,-94.51
547,249597520,-0.5776,-0.9038,-0.8384,-76.10,-282.26,-98.17
548,249602499,-0.5166,-0.8394,-0.8398,-72.56,-269.82,-102.13
549,249607498,-0.4497,-0.7861,-0.8682,-67.32,-257.44,-105.18
550,249612501,-0.3984,-0.7300,-0.8994,-60.49,-245.37,-107.32
551,249617499,-0.3081,-0.6719,-0.9146,-50.61,-231.34,-109.02
552,249622499,-0.2876,-0.6499,-0.9126,-43.54,-222.01,-109.51
553,249627648,-0.2363,-0.5879,-0.9414,-31.83,-208.35,-109.21
554,249632589,-0.1772,-0.5347,-0.9536,-22.68,-197.20,-108.72
555,249637570,-0.1738,-0.4912,-0.9170,-14.15,-186.34,-107.56
556,249642499,-0.1470,-0.4385,-0.9629,-7.99,-177.68,-106.16
557,249647498,-0.0669,-0.3794,-0.9458,-2.01,-167.56,-104.39
558,249652499,-0.0610,-0.3457,-0.8804,1.77,-157.38,-102.13
559,249657499,-0.0376,-0.3032,-0.8979,3.90,-147.50,-99.76
560,249662499,0.0244,-0.2710,-0.8540,3.23,-136.16,-96.40
561,249667499,0.0366,-0.2456,-0.8359,1.16,-129.09,-93.84
562,249672498,0.0845,-0.2231,-0.7817,-3.29,-120.24,-90.85
563,249677827,0.1587,-0.1826,-0.7563,-10.37,-110.24,-86.83
564,249682499,0.1709,-0.1636,-0.7979,-15.91,-103.78,-84.02
565,249687498,0.2056,-0.1265,-0.7822,-23.78,-96.22,-80.43
566,249692499,0.2432,-0.1128,-0.6802,-31.77,-88.48,-76.83
567,249698023,0.3066,-0.0942,-0.6807,-40.67,-79.70,-72.26
568,249702499,0.3135,-0.0913,-0.7280,-45.85,-74.09,-69.02
569,249707500,0.3535,-0.0708,-0.6880,-51.10,-67.38,-64.94
570,249712498,0.3779,-0.0576,-0.6475,-55.30,-60.61,-60.73
571,249717499,0.3867,-0.0430,-0.6729,-57.87,-54.15,-56.59
572,249722499,0.4097,-0.0342,-0.6655,-59.02,-48.41,-52.32
573,249727651,0.4238,-0.0264,-0.6318,-58.78,-41.95,-47.44
574,249732500,0.4326,-0.0337,-0.6030,-57.62,-37.87,-44.15
575,249737498,0.4468,-0.0229,-0.5869,-55.00,-32.56,-39.15
576,249742499,0.4614,-0.0176,-0.5747,-52.80,-29.51,-35.91
577,249747501,0.4819,-0.0059,-0.5420,-49.94,-26.04,-32.01
578,249752499,0.4995,-0.0039,-0.5308,-47.07,-22.93,-28.35
579,249757737,0.5181,-0.0054,-0.5142,-44.09,-19.57,-23.96
580,249762499,0.5337,-0.0034,-0.4937,-42.38,-17.68,-21.16
581,249767568,0.5479,0.0020,-0.4648,-40.55,-15.24,-17.13
582,249772499,0.5625,0.0029,-0.4644,-39.70,-13.72,-14.63
583,249777498,0.5669,0.0073,-0.4434,-39.15,-11.83,-11.65
584,249782629,0.5728,0.0073,-0.4189,-38.96,-9.63,-8.35
585,249787499,0.5791,0.0049,-0.3975,-39.09,-8.17,-6.22
586,249792575,0.5908,0.0010,-0.3818,-39.63,-5.98,-3.23
587,249797498,0.6001,0.0000,-0.3823,-40.12,-4.39,-1.28
588,249802499,0.6055,-0.0044,-0.3652,-40.79,-2.68,1.16
589,249807560,0.6289,-0.0024,-0.3545,-41.52,-0.61,3.90
590,249812737,0.6411,-0.0137,-0.3398,-42.26,1.28,6.16
591,249817499,0.6523,-0.0234,-0.3389,-42.74,2.62,7.87
592,249822499,0.6636,-0.0264,-0.3252,-43.48,4.21,10.06
593,249827498,0.6753,-0.0400,-0.3125,-44.33,5.73,12.38
594,249832499,0.7041,-0.0815,-0.2920,-45.61,7.13,14.70
595,249837499,0.7148,-0.0522,-0.3086,-47.74,8.41,16.95
596,249842498,0.6851,-0.0508,-0.2944,-50.18,9.21,19.15
597,249847499,0.6816,-0.0742,-0.2617,-52.62,10.30,21.28
598,249852497,0.6958,-0.0986,-0.2407,-55.06,11.28,23.78
599,249857499,0.7080,-0.0952,-0.2397,-57.93,12.26,26.04
600,249862499,0.7095,-0.1030,-0.2358,-60.73,12.68,28.29
601,249867499,0.7129,-0.1240,-0.2153,-64.88,13.54,31.10
602,249872499,0.7139,-0.1426,-0.1943,-68.05,13.96,32.93
603,249877555,0.7085,-0.1572,-0.1763,-72.50,14.70,35.37
604,249882975,0.7017,-0.1660,-0.1489,-78.48,15.61,38.41
605,249887499,0.6953,-0.1572,-0.1270,-82.68,15.98,40.43
606,249892499,0.6875,-0.1597,-0.1055,-87.87,16.77,42.74
607,249897816,0.6890,-0.1743,-0.0845,-93.66,17.74,45.67
608,249902499,0.6914,-0.1846,-0.0674,-97.20,18.29,47.62
609,249907499,0.7026,-0.1919,-0.0522,-102.01,18.84,50.49
610,249912499,0.7046,-0.2012,-0.0493,-105.06,19.09,52.32
611,249917498,0.7061,-0.2075,-0.0527,-108.29,19.39,54.76
612,249922686,0.7065,-0.2173,-0.0464,-111.65,19.21,57.50
613,249927500,0.7017,-0.2183,-0.0293,-113.60,19.09,59.39
614,249932499,0.7085,-0.2402,-0.0327,-115.98,18.48,61.77
615,249937499,0.7119,-0.2510,-0.0410,-117.80,17.93,64.09
616,249942670,0.7119,-0.2559,-0.0356,-119.82,17.01,67.07
617,249947498,0.7148,-0.2700,-0.0425,-120.85,16.22,69.02
618,249952499,0.7373,-0.3057,-0.0542,-122.44,15.24,71.46
619,249957500,0.6611,-0.2954,-0.0444,-124.33,14.33,74.02
620,249962501,0.6650,-0.2734,-0.0361,-125.55,13.35,76.34
621,249967768,0.6694,-0.2549,-0.0254,-126.83,12.32,78.66
622,249972499,0.6899,-0.2568,-0.0347,-127.50,11.77,80.30
623,249977499,0.7007,-0.2710,-0.0054,-128.29,11.16,82.26
624,249982499,0.7017,-0.2935,-0.0039,-129.33,10.43,84.39
625,249987580,0.6978,-0.3179,-0.0142,-130.43,9.82,86.22
626,249992499,0.6865,-0.3413,-0.0063,-131.95,9.27,87.99
627,249997536,0.6709,-0.3623,0.0229,-133.90,8.66,90.73
628,250002500,0.6606,-0.3823,0.0137,-136.22,8.17,93.05
629,250007499,0.6382,-0.4053,0.0049,-139.09,7.62,95.85
630,250012500,0.6211,-0.4302,0.0278,-142.26,6.95,98.54
631,250017499,0.5967,-0.4429,0.0435,-145.67,6.46,101.46
632,250022499,0.5747,-0.4492,0.0396,-149.02,5.91,104.39
633,250027814,0.5703,-0.4424,0.0391,-152.68,5.18,107.80
634,250032499,0.5757,-0.4380,0.0518,-154.63,4.82,109.94
635,250037790,0.6045,-0.4351,0.0400,-156.71,4.09,112.93
636,250042500,0.6279,-0.4341,0.0298,-157.38,3.54,114.82
637,250047808,0.6411,-0.4380,0.0112,-157.38,2.50,117.38
638,250052499,0.6470,-0.4541,0.0200,-156.95,1.71,119.09
639,250057500,0.6479,-0.4727,0.0137,-155.91,0.49,121.10
640,250062839,0.6416,-0.4961,-0.0093,-154.27,-0.85,123.48
641,250067499,0.6372,-0.5186,-0.0122,-152.56,-1.83,125.18
642,250072834,0.6294,-0.5430,-0.0112,-150.00,-3.05,127.44
643,250077499,0.6118,-0.5596,-0.0171,-148.35,-3.54,129.02
644,250082498,0.5757,-0.5747,-0.0229,-146.46,-4.33,130.79
645,250087499,0.5283,-0.6035,-0.0229,-144.82,-4.76,132.56
646,250093156,0.4746,-0.6328,-0.0234,-143.05,-5.00,134.88
647,250097499,0.4438,-0.6411,-0.0215,-142.01,-5.06,136.40
648,250102499,0.4141,-0.6450,-0.0249,-140.55,-5.00,138.29
649,250107499,0.4126,-0.6396,-0.0132,-138.90,-5.06,140.06
650,250112500,0.4316,-0.6304,-0.0083,-137.01,-5.06,141.59
651,250118007,0.4478,-0.6050,-0.0073,-133.78,-4.63,143.17
652,250122499,0.4600,-0.5918,-0.0132,-131.28,-4.57,144.09
653,250127499,0.4727,-0.5757,-0.0166,-127.38,-4.57,145.00
654,250132499,0.4873,-0.5771,-0.0249,-123.23,-4.57,145.73
655,250137497,0.5015,-0.5796,-0.0312,-118.96,-4.88,146.65
656,250142501,0.5010,-0.5874,-0.0342,-114.70,-5.12,147.68
657,250147497,0.5034,-0.5928,-0.0430,-110.67,-5.30,148.72
658,250152499,0.5063,-0.6064,-0.0454,-107.13,-5.37,149.70
659,250157499,0.5024,-0.6143,-0.0542,-104.27,-5.79,150.67
660,250162499,0.4985,-0.6260,-0.0649,-102.07,-5.91,151.65
661,250167862,0.5000,-0.6436,-0.0713,-100.43,-6.04,152.74
662,250172631,0.4897,-0.6567,-0.0825,-99.70,-6.16,153.60
663,250177499,0.4771,-0.6733,-0.0908,-99.51,-6.28,154.21
664,250182499,0.4624,-0.6836,-0.1035,-99.70,-6.28,154.94
665,250187499,0.4536,-0.6987,-0.1123,-100.18,-6.22,155.67
666,250192498,0.4434,-0.7021,-0.1094,-100.85,-5.98,156.28
667,250197501,0.4346,-0.7031,-0.1182,-101.71,-5.55,156.95
668,250202851,0.4185,-0.7017,-0.1250,-102.38,-4.82,157.87
669,250207499,0.4150,-0.6982,-0.1299,-102.62,-4.21,158.48
670,250212499,0.4199,-0.6924,-0.1304,-102.68,-3.54,159.21
671,250217499,0.4272,-0.6792,-0.1396,-102.32,-2.80,159.82
672,250222500,0.4463,-0.6758,-0.1475,-101.77,-2.01,160.61
673,250227914,0.4702,-0.6748,-0.1538,-100.79,-1.28,161.71
674,250232499,0.4829,-0.6797,-0.1489,-100.30,-0.85,162.50
675,250237597,0.4844,-0.6831,-0.1567,-99.82,0.00,164.09
676,250242635,0.4810,-0.7012,-0.1514,-100.12,0.61,165.55
677,250247499,0.4849,-0.7095,-0.1543,-100.91,0.91,167.01
678,250252499,0.4814,-0.7300,-0.1479,-103.41,1.10,169.51
679,250257499,0.4873,-0.7412,-0.1470,-105.79,1.40,171.22
680,250262499,0.5024,-0.7754,-0.1426,-110.37,1.40,174.27
681,250267499,0.5171,-0.8008,-0.1333,-113.78,1.52,176.52
682,250272701,0.5088,-0.8213,-0.1411,-118.66,1.52,180.30
683,250277499,0.4873,-0.8340,-0.1436,-120.98,1.40,182.93
684,250282499,0.4614,-0.8379,-0.1577,-122.87,1.40,186.34
685,250287499,0.4395,-0.8418,-0.1602,-122.93,1.40,189.76
686,250292502,0.4136,-0.8452,-0.1694,-120.61,1.46,193.72
687,250297499,0.4028,-0.8506,-0.1792,-117.56,1.52,196.46
688,250302502,0.3926,-0.8555,-0.1899,-110.98,1.59,200.43
689,250307499,0.3804,-0.8560,-0.1919,-105.61,1.95,203.11
690,250312499,0.3696,-0.8535,-0.2017,-97.44,2.20,206.40
691,250317549,0.3530,-0.8511,-0.2134,-88.35,2.74,209.63
692,250322815,0.3218,-0.8384,-0.2222,-76.28,3.41,213.23
693,250327501,0.3057,-0.8350,-0.2207,-67.93,3.90,215.37
694,250332501,0.3071,-0.8223,-0.2222,-54.94,4.88,218.48
695,250337500,0.3125,-0.8101,-0.2109,-46.16,5.79,220.43
696,250342498,0.3145,-0.8003,-0.2114,-35.43,6.77,222.44
697,250347497,0.3057,-0.7871,-0.2158,-25.18,7.87,224.33
698,250352498,0.2935,-0.7842,-0.2202,-15.73,9.02,226.04
699,250357500,0.2778,-0.7935,-0.2202,-7.56,10.06,227.74
700,250362698,0.2603,-0.8110,-0.2173,-0.06,11.34,229.45
701,250367499,0.2510,-0.8188,-0.2148,3.35,12.32,230.61
702,250372499,0.2271,-0.8281,-0.2085,6.04,13.96,232.13
703,250377499,0.2065,-0.8384,-0.2007,6.22,15.18,233.05
704,250382985,0.1709,-0.8364,-0.1948,4.45,16.89,233.96
705,250387499,0.1440,-0.8394,-0.2021,2.07,18.29,234.45
706,250392547,0.1138,-0.8369,-0.2153,-1.77,19.39,234.94
707,250397500,0.0972,-0.8452,-0.2183,-6.46,20.37,235.18
708,250402499,0.0854,-0.8457,-0.2212,-11.71,21.04,235.18
709,250407694,0.0645,-0.8452,-0.2285,-18.17,21.59,235.24
710,250412499,0.0522,-0.8569,-0.2368,-22.68,21.71,235.24
711,250417499,0.0356,-0.8804,-0.2476,-28.35,21.52,235.30
712,250422643,0.0220,-0.9209,-0.2515,-35.91,20.91,235.67
713,250427498,0.0166,-0.9526,-0.2617,-42.87,20.24,236.28
714,250432499,0.0044,-0.9736,-0.2651,-48.72,19.70,236.89
715,250437498,-0.0103,-0.9878,-0.2656,-55.91,18.90,237.87
716,250442497,-0.0244,-0.9907,-0.2705,-62.56,18.05,238.90
717,250447499,-0.0396,-0.9810,-0.2710,-68.23,17.13,239.82
718,250452499,-0.0552,-0.9683,-0.2710,-72.99,16.16,240.55
719,250457674,-0.0674,-0.9604,-0.2827,-77.38,14.70,241.52
720,250462499,-0.0801,-0.9512,-0.2817,-79.76,13.72,242.01
721,250467499,-0.1016,-0.9404,-0.2837,-82.50,12.26,242.68
722,250472503,-0.1279,-0.9351,-0.2803,-84.76,10.61,243.17
723,250477842,-0.1548,-0.9282,-0.2920,-86.95,8.84,243.72
724,250482499,-0.1680,-0.9282,-0.2939,-88.05,7.50,244.02
725,250487499,-0.1812,-0.9453,-0.3110,-89.45,5.67,244.51
726,250492499,-0.1929,-0.9785,-0.3301,-91.40,3.41,245.00
727,250497499,-0.2026,-0.9966,-0.3296,-93.29,1.83,245.43
728,250502875,-0.2344,-1.0220,-0.3447,-96.59,-0.12,245.98
729,250507499,-0.2637,-1.0376,-0.3506,-99.39,-1.89,246.59
730,250512499,-0.2856,-1.0493,-0.3604,-101.28,-3.05,247.01
731,250517499,-0.3091,-1.0557,-0.3765,-102.68,-4.51,247.38
732,250522499,-0.3379,-1.0581,-0.3857,-102.56,-5.85,247.50
733,250527497,-0.3623,-1.0498,-0.4072,-100.98,-7.20,247.50
734,250532499,-0.3853,-1.0337,-0.4106,-97.93,-8.60,247.44
735,250537498,-0.4121,-1.0181,-0.4209,-93.48,-10.00,247.20
736,250542499,-0.4243,-0.9932,-0.4302,-88.05,-11.46,246.83
737,250547499,-0.4429,-0.9722,-0.4277,-81.89,-12.80,246.46
738,250552499,-0.4639,-0.9702,-0.4385,-75.61,-14.39,246.16
739,250557801,-0.4966,-0.9668,-0.4438,-68.23,-16.04,246.16
740,250562499,-0.5176,-0.9702,-0.4507,-63.78,-17.32,246.34
741,250567499,-0.5415,-0.9824,-0.4609,-59.39,-18.60,246.46
742,250572746,-0.5605,-1.0029,-0.4683,-55.79,-20.30,247.07
743,250577499,-0.5757,-1.0190,-0.4893,-54.63,-21.52,247.74
744,250582761,-0.6084,-1.0474,-0.5088,-54.51,-23.29,248.96
745,250587499,-0.6396,-1.0591,-0.5181,-55.37,-24.39,249.94
746,250592499,-0.6694,-1.0684,-0.5171,-57.32,-25.73,251.40
747,250597838,-0.7061,-1.0669,-0.5327,-60.30,-27.44,253.23
748,250602499,-0.7280,-1.0625,-0.5303,-62.38,-28.54,254.51
749,250607890,-0.7563,-1.0596,-0.5464,-65.49,-30.30,256.46
750,250612499,-0.7803,-1.0479,-0.5396,-67.38,-31.34,257.56
751,250617842,-0.8096,-1.0308,-0.5488,-69.82,-33.29,259.33
752,250622868,-0.8379,-1.0132,-0.5488,-71.04,-34.82,260.67
753,250627499,-0.8569,-0.9990,-0.5430,-71.40,-36.10,261.65
754,250632499,-0.8779,-0.9756,-0.5366,-71.10,-37.87,263.05
755,250637529,-0.8999,-0.9619,-0.5435,-70.00,-39.76,264.39
756,250642534,-0.9370,-0.9521,-0.5493,-68.35,-41.77,265.61
757,250647499,-0.9639,-0.9409,-0.5522,-66.04,-43.72,266.83
758,250652499,-0.9731,-0.9336,-0.5601,-63.41,-45.49,268.05
759,250657499,-0.9819,-0.9287,-0.5645,-60.79,-46.83,268.90
760,250662501,-0.9863,-0.9160,-0.5620,-58.05,-47.68,269.09
761,250667498,-0.9946,-0.9014,-0.5669,-55.06,-48.05,268.84
762,250672535,-0.9941,-0.8848,-0.5635,-51.77,-47.87,268.29
763,250677724,-1.0493,-0.8306,-0.5830,-47.13,-47.32,266.83
764,250682499,-1.0737,-0.8320,-0.5913,-43.35,-46.83,265.55
765,250687499,-1.1460,-0.7822,-0.6211,-36.40,-45.91,263.35
766,250692499,-1.1841,-0.7603,-0.6201,-30.67,-45.18,261.46
767,250697929,-1.2051,-0.7163,-0.6299,-20.98,-44.09,258.35
768,250702499,-1.2153,-0.6899,-0.6406,-13.84,-43.29,256.10
769,250707922,-1.2271,-0.6636,-0.6270,-2.68,-41.95,252.56
770,250712499,-1.2363,-0.6460,-0.6265,4.94,-40.79,250.06
771,250717500,-1.2471,-0.6353,-0.6201,14.63,-39.51,247.13
772,250722498,-1.2393,-0.6211,-0.6040,24.21,-38.11,244.02
773,250727497,-1.2266,-0.6152,-0.5898,33.41,-36.65,241.10
774,250732501,-1.2090,-0.6045,-0.5630,42.13,-35.00,238.54
775,250737497,-1.2075,-0.6035,-0.5576,50.00,-32.99,235.79
776,250742499,-1.2129,-0.6040,-0.5474,57.01,-31.16,233.60
777,250747498,-1.2153,-0.6069,-0.5469,63.11,-29.21,231.34
778,250752499,-1.2246,-0.6021,-0.5449,68.66,-27.26,229.27
779,250757499,-1.2349,-0.5991,-0.5439,73.60,-25.24,227.44
780,250762497,-1.1865,-0.6040,-0.5269,78.29,-23.23,225.37
781,250767530,-1.2031,-0.5635,-0.5381,82.01,-20.61,223.29
782,250772500,-1.1958,-0.5767,-0.5347,85.12,-18.35,221.10
783,250777498,-1.2412,-0.5737,-0.5493,88.05,-15.43,218.29
784,250782499,-1.2949,-0.5698,-0.5645,89.57,-13.35,216.52
785,250787813,-1.3491,-0.5566,-0.5591,91.71,-10.55,213.72
786,250792499,-1.3691,-0.5498,-0.5693,92.68,-8.23,211.65
787,250797499,-1.3945,-0.5503,-0.5811,94.02,-5.55,209.45
788,250802499,-1.4048,-0.5479,-0.5845,95.00,-2.99,207.38
789,250807793,-1.4038,-0.5474,-0.5835,96.10,0.12,204.76
790,250812499,-1.4072,-0.5508,-0.5928,96.71,2.13,203.05
791,250817962,-1.4062,-0.5444,-0.5859,97.68,5.30,200.43
792,250822499,-1.3916,-0.5391,-0.5791,98.84,7.87,198.54
793,250827499,-1.3701,-0.5273,-0.5645,100.18,10.00,196.77
794,250832498,-1.3398,-0.5288,-0.5615,102.62,12.87,194.76
795,250837502,-1.2979,-0.5127,-0.5435,106.83,16.59,192.20
796,250843020,-1.2593,-0.5024,-0.5239,111.22,19.51,189.94
797,250847499,-1.2266,-0.4995,-0.5039,115.37,21.95,188.11
798,250852500,-1.1812,-0.4990,-0.4937,121.10,25.24,185.98
799,250857498,-1.1333,-0.5054,-0.4922,127.07,28.60,183.66
800,250862548,-1.0913,-0.5015,-0.4863,133.90,31.52,181.52
801,250867656,-1.0513,-0.5044,-0.4824,142.44,34.82,178.90
802,250872499,-1.0259,-0.5005,-0.4839,148.29,37.07,177.07
803,250877499,-0.9839,-0.5059,-0.4829,157.44,39.82,174.45
804,250882499,-0.9575,-0.4927,-0.4849,163.84,41.46,172.62
805,250887499,-0.9194,-0.4863,-0.4761,171.65,43.29,170.61
806,250892500,-0.8872,-0.4697,-0.4756,181.46,45.30,167.80
807,250897499,-0.8643,-0.4639,-0.4702,188.29,46.52,165.98
808,250902499,-0.8291,-0.4487,-0.4565,196.95,47.87,163.54
809,250907499,-0.7988,-0.4189,-0.4565,205.73,48.96,160.98
810,250912661,-0.7622,-0.4033,-0.4482,216.34,50.24,157.80
811,250917499,-0.7461,-0.4072,-0.4185,223.05,50.85,155.43
812,250922865,-0.7373,-0.4146,-0.4614,231.83,51.83,152.20
813,250927499,-0.7676,-0.4424,-0.5127,236.71,51.77,150.49
814,250932719,-0.8018,-0.3696,-0.4551,243.84,51.59,147.07
815,250937499,-0.8120,-0.3325,-0.4141,248.54,51.46,144.45
816,250942942,-0.8135,-0.3237,-0.4277,255.55,51.89,140.06
817,250947499,-0.8125,-0.2983,-0.4375,259.76,51.77,137.07
818,250952949,-0.7998,-0.3066,-0.4102,265.06,51.52,132.62
819,250957499,-0.7856,-0.3281,-0.4004,267.93,51.52,129.70
820,250962500,-0.7622,-0.3652,-0.4121,270.12,51.34,126.34
821,250967498,-0.7549,-0.3799,-0.3979,271.10,50.67,123.29
822,250972684,-0.7476,-0.3691,-0.3848,271.04,49.94,119.63
823,250977499,-0.7490,-0.3481,-0.3867,270.24,49.33,117.20
824,250982499,-0.7437,-0.3389,-0.3848,269.02,48.29,114.09
825,250987819,-0.7471,-0.3369,-0.3755,266.95,47.13,110.37
826,250992499,-0.7378,-0.3354,-0.3687,265.18,46.22,107.87
827,250997880,-0.7368,-0.3330,-0.3623,261.71,44.88,104.39
828,251002499,-0.7354,-0.3496,-0.3657,259.02,43.66,102.07
829,251007499,-0.7437,-0.3511,-0.3599,254.27,42.26,98.66
830,251012499,-0.7441,-0.3613,-0.3511,250.55,41.22,96.59
831,251017983,-0.7427,-0.3672,-0.3418,244.88,39.76,93.54
832,251022499,-0.7437,-0.3589,-0.3389,240.79,38.54,91.59
833,251027501,-0.7388,-0.3628,-0.3311,235.30,37.26,89.15
834,251032498,-0.7388,-0.3682,-0.3296,229.57,35.79,86.83
835,251037499,-0.7378,-0.3750,-0.3359,223.72,34.51,84.39
836,251042497,-0.7378,-0.3853,-0.3311,217.50,33.11,82.32
837,251047499,-0.7432,-0.3867,-0.3296,211.16,31.59,80.18
838,251052499,-0.7451,-0.3828,-0.3159,204.70,30.18,78.17
839,251058004,-0.7539,-0.3853,-0.3179,197.13,28.54,75.61
840,251062499,-0.7593,-0.3794,-0.3179,192.01,27.38,73.84
841,251067499,-0.7642,-0.3877,-0.3066,184.27,25.91,71.52
842,251072499,-0.7710,-0.3896,-0.3008,179.21,24.94,69.82
843,251077499,-0.7783,-0.3950,-0.3086,172.80,23.60,67.87
844,251082499,-0.7749,-0.4004,-0.3086,166.52,22.44,66.04
845,251087499,-0.7817,-0.4150,-0.3130,160.30,20.91,64.27
846,251092817,-0.7822,-0.4390,-0.3237,152.87,19.15,62.50
847,251097499,-0.7773,-0.4258,-0.3154,147.80,17.87,61.34
848,251102499,-0.7773,-0.4180,-0.3159,141.89,16.28,59.82
849,251107499,-0.7881,-0.4150,-0.3218,135.49,14.45,57.80
850,251112499,-0.7988,-0.4194,-0.3232,131.95,13.29,56.46
851,251117500,-0.7988,-0.4287,-0.3364,126.65,11.34,54.45
852,251122499,-0.7935,-0.4292,-0.3472,123.60,10.06,53.17
853,251127500,-0.7905,-0.4194,-0.3359,120.37,8.35,51.52
854,251132563,-0.7817,-0.4106,-0.3389,117.80,6.59,49.70
855,251137499,-0.7783,-0.4019,-0.3242,115.43,4.82,47.32
856,251142499,-0.7773,-0.3970,-0.3301,114.33,3.66,45.73
857,251147833,-0.7739,-0.3936,-0.3130,113.29,2.01,43.17
858,251152499,-0.7720,-0.3960,-0.3145,112.74,1.04,41.40
859,251157499,-0.7734,-0.4014,-0.3140,112.38,-0.43,38.78
860,251162499,-0.7686,-0.4053,-0.3105,112.13,-1.46,37.07
861,251167637,-0.7705,-0.4072,-0.3169,111.95,-2.56,34.82
862,251172499,-0.7656,-0.4077,-0.3115,111.83,-3.66,32.68
