# skilleye imu stream v1
# device=xiao_esp32c6 imu=mpu6050 addr=0x68
# rate_hz=200 accel_range_g=16 gyro_range_dps=2000 dlpf_hz=94
# units: accel in g, gyro in deg/s, t_us in microseconds since boot (monotonic)
# no shared clock with the camera -- tap the racket once before each take
# so both recordings share a spike to align on
seq,t_us,ax,ay,az,gx,gy,gz
0,601643297,-0.6304,-0.6997,-0.3203,7.01,2.50,-2.32
1,601648295,-0.6123,-0.6885,-0.3125,7.32,2.01,-3.11
2,601653294,-0.6221,-0.6890,-0.3232,7.44,1.46,-4.15
3,601658294,-0.6226,-0.6851,-0.3140,7.38,1.10,-5.00
4,601663294,-0.6191,-0.6812,-0.3208,7.01,0.49,-5.79
5,601668294,-0.6172,-0.6802,-0.3145,6.71,0.18,-6.59
6,601673431,-0.6157,-0.6821,-0.3110,6.16,-0.30,-7.38
7,601678299,-0.6152,-0.6748,-0.3159,5.30,-0.73,-8.17
8,601683296,-0.6167,-0.6748,-0.3218,4.45,-1.16,-8.90
9,601688468,-0.6143,-0.6709,-0.3228,3.29,-1.59,-9.70
10,601693651,-0.6216,-0.6670,-0.3174,2.07,-2.07,-10.49
11,601698296,-0.6030,-0.6665,-0.3223,1.04,-2.44,-11.10
12,601703296,-0.6055,-0.6611,-0.3228,-0.37,-2.93,-11.83
13,601708296,-0.5977,-0.6621,-0.3218,-1.28,-3.23,-12.32
14,601713296,-0.5996,-0.6597,-0.3267,-2.74,-3.78,-12.99
15,601718296,-0.6055,-0.6655,-0.3291,-4.09,-4.15,-13.60
16,601723296,-0.5996,-0.6606,-0.3301,-5.49,-4.57,-14.21
17,601728296,-0.5986,-0.6572,-0.3301,-6.83,-5.00,-14.76
18,601733296,-0.6030,-0.6567,-0.3252,-8.60,-5.30,-15.43
19,601738296,-0.5840,-0.6455,-0.3315,-9.76,-5.73,-15.79
20,601743492,-0.5845,-0.6460,-0.3271,-11.16,-6.10,-16.34
21,601748296,-0.5830,-0.6514,-0.3325,-12.50,-6.52,-16.77
22,601753296,-0.5898,-0.6553,-0.3291,-13.66,-6.89,-17.20
23,601758743,-0.5786,-0.6416,-0.3330,-14.94,-7.26,-17.62
24,601763297,-0.5688,-0.6377,-0.3296,-15.85,-7.50,-17.87
25,601768294,-0.5708,-0.6367,-0.3276,-16.59,-7.68,-18.29
26,601773294,-0.5693,-0.6377,-0.3369,-17.32,-7.93,-18.66
27,601778294,-0.5688,-0.6343,-0.3350,-17.80,-8.11,-18.96
28,601783294,-0.5610,-0.6348,-0.3335,-18.35,-8.54,-19.21
29,601788294,-0.5620,-0.6348,-0.3276,-18.60,-8.72,-19.57
30,601793294,-0.5542,-0.6274,-0.3413,-18.84,-9.02,-19.88
31,601798294,-0.5542,-0.6309,-0.3325,-18.78,-8.96,-20.00
32,601803294,-0.5640,-0.6304,-0.3350,-18.90,-9.27,-20.30
33,601808297,-0.5532,-0.6230,-0.3452,-18.54,-9.39,-20.49
34,601813478,-0.5503,-0.6230,-0.3374,-18.29,-9.27,-20.73
35,601818296,-0.5532,-0.6167,-0.3330,-17.99,-9.21,-21.04
36,601823298,-0.5566,-0.6177,-0.3354,-17.50,-9.02,-21.16
37,601828296,-0.5620,-0.6147,-0.3369,-17.07,-9.15,-21.46
38,601833535,-0.5552,-0.6128,-0.3413,-16.34,-9.15,-21.71
39,601838296,-0.5620,-0.6123,-0.3403,-16.04,-8.96,-21.89
40,601843296,-0.5645,-0.6099,-0.3428,-15.37,-8.84,-22.13
41,601848296,-0.5669,-0.6064,-0.3413,-14.88,-8.78,-22.38
42,601853296,-0.5708,-0.6050,-0.3486,-14.39,-8.72,-22.62
43,601858296,-0.5703,-0.6021,-0.3481,-13.90,-8.54,-22.80
44,601863517,-0.5732,-0.6035,-0.3506,-13.35,-8.35,-22.87
45,601868296,-0.5801,-0.6016,-0.3521,-13.23,-8.29,-23.05
46,601873296,-0.5850,-0.6025,-0.3521,-12.74,-8.35,-23.17
47,601878353,-0.5903,-0.6011,-0.3540,-12.56,-8.17,-23.23
48,601883296,-0.5918,-0.6021,-0.3589,-12.56,-8.23,-23.48
49,601888740,-0.5972,-0.5991,-0.3540,-12.50,-8.17,-23.41
50,601893296,-0.5879,-0.5977,-0.3535,-12.50,-8.11,-23.54
51,601898296,-0.5889,-0.5986,-0.3608,-12.62,-8.17,-23.48
52,601903296,-0.5894,-0.5977,-0.3623,-12.87,-8.11,-23.54
53,601908296,-0.6006,-0.6025,-0.3574,-13.17,-8.17,-23.48
54,601913328,-0.6040,-0.5977,-0.3623,-13.54,-8.29,-23.35
55,601918297,-0.5952,-0.5991,-0.3604,-13.90,-8.35,-23.35
56,601923296,-0.5835,-0.6001,-0.3574,-14.51,-8.54,-23.23
57,601928296,-0.5903,-0.5991,-0.3574,-15.00,-8.35,-23.11
58,601933295,-0.5962,-0.6016,-0.3574,-15.49,-8.78,-23.05
59,601938297,-0.5894,-0.5996,-0.3579,-15.91,-8.78,-22.80
60,601943296,-0.5840,-0.5933,-0.3643,-16.28,-8.96,-22.68
61,601948355,-0.5723,-0.5923,-0.3579,-16.52,-9.09,-22.68
62,601953295,-0.5718,-0.5908,-0.3662,-16.71,-9.33,-22.50
63,601958295,-0.5835,-0.5967,-0.3574,-16.65,-9.70,-22.44
64,601963294,-0.5728,-0.5977,-0.3604,-16.52,-10.12,-22.26
65,601968294,-0.5767,-0.5991,-0.3696,-16.52,-10.24,-22.20
66,601973426,-0.5791,-0.5972,-0.3726,-16.40,-10.61,-21.95
67,601978296,-0.5669,-0.5957,-0.3828,-16.16,-10.91,-21.83
68,601983296,-0.5620,-0.6016,-0.3760,-15.98,-11.34,-21.65
69,601988296,-0.5732,-0.6021,-0.3735,-15.91,-11.77,-21.59
70,601993296,-0.5728,-0.6040,-0.3779,-15.79,-12.07,-21.34
71,601998296,-0.5708,-0.6074,-0.3809,-15.67,-12.38,-21.16
72,602003296,-0.5791,-0.6147,-0.3833,-15.67,-12.68,-20.91
73,602008295,-0.5781,-0.6108,-0.3813,-15.43,-12.93,-20.61
74,602013296,-0.5811,-0.6152,-0.3843,-15.18,-13.11,-20.55
75,602018296,-0.5840,-0.6182,-0.3828,-14.94,-13.54,-20.30
76,602023296,-0.5840,-0.6211,-0.3936,-14.39,-13.78,-20.06
77,602028298,-0.5850,-0.6230,-0.3931,-13.96,-13.84,-19.82
78,602033296,-0.5991,-0.6235,-0.3955,-13.60,-14.21,-19.45
79,602038296,-0.5972,-0.6255,-0.3901,-12.99,-14.27,-19.09
80,602043296,-0.5918,-0.6357,-0.4033,-12.56,-14.57,-18.90
81,602048296,-0.5957,-0.6362,-0.3960,-12.07,-14.57,-18.41
82,602053296,-0.6011,-0.6436,-0.4028,-11.52,-14.88,-18.05
83,602058296,-0.5996,-0.6426,-0.3916,-11.04,-15.00,-17.68
84,602063294,-0.5806,-0.6440,-0.3960,-10.73,-15.06,-17.20
85,602068294,-0.5864,-0.6509,-0.3955,-10.06,-15.18,-16.95
86,602073294,-0.5845,-0.6445,-0.3921,-9.45,-15.24,-16.65
87,602078294,-0.5830,-0.6445,-0.3887,-8.90,-15.24,-16.34
88,602083294,-0.5718,-0.6455,-0.3892,-7.99,-15.37,-15.91
89,602088294,-0.5605,-0.6406,-0.3950,-7.26,-15.43,-15.73
90,602093294,-0.5552,-0.6411,-0.3916,-6.28,-15.37,-15.49
91,602098298,-0.5522,-0.6489,-0.3921,-5.24,-15.37,-15.37
92,602103298,-0.5562,-0.6489,-0.3882,-4.09,-15.37,-15.18
93,602108658,-0.5552,-0.6489,-0.3965,-2.80,-15.30,-15.12
94,602113319,-0.5562,-0.6533,-0.3955,-1.59,-15.49,-14.88
95,602118297,-0.5557,-0.6558,-0.3970,-0.49,-15.49,-14.82
96,602123296,-0.5645,-0.6660,-0.3975,0.98,-15.61,-14.63
97,602128296,-0.5576,-0.6729,-0.4019,1.52,-15.73,-14.45
98,602133295,-0.5537,-0.6782,-0.4087,2.44,-15.85,-14.15
99,602138296,-0.5591,-0.6851,-0.4048,2.99,-15.98,-13.84
100,602143296,-0.5542,-0.6880,-0.4043,3.54,-16.04,-13.66
101,602148295,-0.5566,-0.6875,-0.4062,4.09,-16.28,-13.35
102,602153553,-0.5591,-0.6895,-0.4077,4.76,-16.22,-13.05
103,602158390,-0.5630,-0.6958,-0.4067,5.49,-16.34,-12.93
104,602163294,-0.5547,-0.6958,-0.4106,6.22,-16.22,-12.68
105,602168294,-0.5664,-0.7002,-0.4131,7.38,-16.16,-12.68
106,602173294,-0.5620,-0.7007,-0.4092,8.60,-16.04,-12.62
107,602178294,-0.5610,-0.6982,-0.4141,10.00,-15.91,-12.62
108,602183294,-0.5620,-0.6978,-0.4077,11.46,-15.79,-12.56
109,602188294,-0.5635,-0.7041,-0.4126,12.93,-15.61,-12.80
110,602193294,-0.5610,-0.7007,-0.4004,14.45,-15.37,-13.05
111,602198294,-0.5625,-0.7017,-0.4058,15.91,-15.12,-13.17
112,602203294,-0.5620,-0.7046,-0.3994,17.44,-14.94,-13.35
113,602208294,-0.5586,-0.7061,-0.4111,18.72,-14.45,-13.66
114,602213294,-0.5547,-0.7075,-0.4126,20.00,-14.45,-13.84
115,602218294,-0.5527,-0.7075,-0.4141,21.16,-14.21,-14.09
116,602223294,-0.5571,-0.7109,-0.4062,22.07,-13.72,-14.39
117,602228294,-0.5601,-0.7207,-0.4062,22.56,-13.60,-14.70
118,602233294,-0.5654,-0.7231,-0.4087,22.62,-13.23,-15.18
119,602238294,-0.5586,-0.7324,-0.4038,22.56,-12.80,-15.55
120,602243294,-0.5576,-0.7324,-0.4058,21.95,-12.44,-15.91
121,602248294,-0.5562,-0.7354,-0.4043,21.52,-11.83,-16.46
122,602253294,-0.5708,-0.7437,-0.3989,20.73,-11.40,-16.89
123,602258294,-0.5610,-0.7417,-0.3984,20.06,-10.91,-17.50
124,602263296,-0.5513,-0.7427,-0.3945,19.33,-10.43,-18.11
125,602268294,-0.5693,-0.7534,-0.3979,18.78,-9.94,-18.90
126,602273294,-0.5679,-0.7500,-0.3936,18.23,-9.45,-19.51
127,602278295,-0.5522,-0.7510,-0.3965,17.56,-8.96,-20.12
128,602283298,-0.5566,-0.7539,-0.3955,16.77,-8.29,-21.10
129,602288296,-0.5596,-0.7593,-0.3955,16.28,-8.05,-21.83
130,602293295,-0.5576,-0.7583,-0.3882,15.55,-7.32,-22.68
131,602298296,-0.5601,-0.7646,-0.3882,15.00,-6.95,-23.41
132,602303296,-0.5630,-0.7661,-0.3882,14.63,-6.59,-24.27
133,602308296,-0.5610,-0.7695,-0.3950,14.27,-6.16,-25.06
134,602313635,-0.5571,-0.7686,-0.3901,13.84,-5.73,-25.73
135,602318296,-0.5591,-0.7773,-0.3843,13.23,-5.49,-26.40
136,602323295,-0.5552,-0.7842,-0.3853,12.68,-5.00,-27.20
137,602328295,-0.5586,-0.7827,-0.3853,11.89,-4.70,-28.05
138,602333294,-0.5557,-0.7900,-0.3877,11.28,-4.39,-28.72
139,602338294,-0.5537,-0.7959,-0.3813,10.55,-4.15,-29.45
140,602343294,-0.5508,-0.8008,-0.3799,10.00,-3.84,-30.30
141,602348294,-0.5464,-0.8022,-0.3784,9.21,-3.60,-31.04
142,602353460,-0.5425,-0.8057,-0.3691,8.72,-3.11,-31.89
143,602358296,-0.5376,-0.8066,-0.3740,8.17,-2.87,-32.68
144,602363297,-0.5386,-0.8066,-0.3706,7.74,-2.68,-33.60
145,602368297,-0.5298,-0.8105,-0.3672,7.56,-2.32,-34.51
146,602373295,-0.5176,-0.8091,-0.3604,7.50,-1.83,-35.24
147,602378295,-0.5166,-0.8110,-0.3618,7.50,-1.89,-36.22
148,602383296,-0.5151,-0.8169,-0.3608,7.74,-1.52,-37.13
149,602388294,-0.5132,-0.8135,-0.3535,7.99,-1.52,-38.11
150,602393294,-0.4971,-0.8120,-0.3564,8.48,-1.46,-38.96
151,602398294,-0.4834,-0.8159,-0.3535,8.90,-1.46,-39.88
152,602403296,-0.4824,-0.8140,-0.3564,9.51,-1.59,-40.85
153,602408296,-0.4878,-0.8208,-0.3530,9.94,-1.77,-41.71
154,602413296,-0.4844,-0.8252,-0.3569,10.37,-1.83,-42.62
155,602418771,-0.4761,-0.8237,-0.3525,10.85,-2.01,-43.48
156,602423296,-0.4844,-0.8350,-0.3501,11.16,-2.32,-44.09
157,602428295,-0.4668,-0.8301,-0.3506,11.34,-2.44,-44.94
158,602433296,-0.4712,-0.8359,-0.3457,11.52,-3.17,-45.67
159,602438294,-0.4658,-0.8369,-0.3452,11.59,-3.54,-46.40
160,602443633,-0.4653,-0.8384,-0.3481,11.65,-3.90,-47.13
161,602448296,-0.4600,-0.8379,-0.3472,11.40,-4.39,-47.93
162,602453296,-0.4487,-0.8320,-0.3452,11.28,-4.76,-48.60
163,602458296,-0.4385,-0.8345,-0.3418,11.16,-5.30,-49.27
164,602463295,-0.4326,-0.8330,-0.3447,10.79,-5.67,-50.00
165,602468295,-0.4321,-0.8389,-0.3398,10.67,-6.10,-50.61
166,602473294,-0.4287,-0.8403,-0.3423,10.37,-6.52,-51.34
167,602478294,-0.4253,-0.8413,-0.3418,10.24,-6.95,-52.20
168,602483294,-0.4175,-0.8379,-0.3394,10.00,-7.38,-52.87
169,602488388,-0.4126,-0.8423,-0.3408,9.94,-7.74,-53.72
170,602493296,-0.4087,-0.8423,-0.3462,9.88,-8.17,-54.51
171,602498296,-0.4141,-0.8428,-0.3462,9.70,-8.66,-55.37
172,602503296,-0.4180,-0.8472,-0.3457,9.51,-9.15,-56.10
173,602508299,-0.4219,-0.8521,-0.3496,9.15,-9.39,-56.89
174,602513296,-0.4194,-0.8521,-0.3521,8.96,-9.94,-57.50
175,602518294,-0.4209,-0.8579,-0.3535,8.41,-10.30,-58.29
176,602523296,-0.4321,-0.8594,-0.3589,7.93,-10.73,-58.96
177,602528744,-0.4268,-0.8589,-0.3516,7.26,-11.10,-59.57
178,602533297,-0.4316,-0.8638,-0.3589,6.71,-11.28,-60.18
179,602538295,-0.4253,-0.8657,-0.3608,5.73,-11.34,-60.91
180,602543296,-0.4248,-0.8594,-0.3613,4.94,-11.46,-61.65
181,602548296,-0.4277,-0.8608,-0.3628,4.21,-11.65,-62.26
182,602553296,-0.4277,-0.8623,-0.3584,3.48,-11.71,-62.99
183,602558756,-0.4331,-0.8657,-0.3608,2.56,-11.65,-63.90
184,602563296,-0.4326,-0.8672,-0.3687,2.07,-11.52,-64.63
185,602568294,-0.4243,-0.8613,-0.3657,1.59,-11.34,-65.24
186,602573294,-0.4238,-0.8677,-0.3687,1.22,-11.16,-65.98
187,602578294,-0.4229,-0.8657,-0.3716,0.85,-11.04,-66.77
188,602583294,-0.4175,-0.8701,-0.3677,0.85,-10.73,-67.56
189,602588294,-0.4146,-0.8701,-0.3672,0.91,-10.61,-68.29
190,602593296,-0.4102,-0.8711,-0.3721,0.98,-10.43,-69.02
191,602598297,-0.4106,-0.8740,-0.3711,1.16,-10.24,-69.57
192,602603684,-0.4023,-0.8794,-0.3701,1.52,-10.06,-70.37
193,602608296,-0.3955,-0.8833,-0.3682,1.71,-9.82,-70.91
194,602613299,-0.3896,-0.8828,-0.3735,1.95,-9.57,-71.52
195,602618300,-0.3853,-0.8877,-0.3721,2.20,-9.45,-72.07
196,602623296,-0.3848,-0.8896,-0.3706,2.13,-9.09,-72.56
197,602628296,-0.3774,-0.8882,-0.3687,2.13,-8.78,-73.05
198,602633295,-0.3672,-0.8843,-0.3662,2.07,-8.48,-73.54
199,602638300,-0.3599,-0.8794,-0.3696,2.01,-8.23,-74.27
200,602643296,-0.3525,-0.8813,-0.3657,2.01,-7.93,-74.70
201,602648295,-0.3472,-0.8833,-0.3682,1.83,-7.68,-75.30
202,602653298,-0.3311,-0.8813,-0.3706,1.59,-7.44,-75.91
203,602658296,-0.3306,-0.8853,-0.3716,1.46,-7.26,-76.28
204,602663296,-0.3184,-0.8813,-0.3716,1.40,-6.95,-76.83
205,602668295,-0.3101,-0.8862,-0.3706,1.40,-6.95,-77.32
206,602673295,-0.3066,-0.8823,-0.3667,1.22,-6.77,-77.68
207,602678294,-0.3032,-0.8848,-0.3691,1.28,-6.59,-78.23
208,602683294,-0.2925,-0.8867,-0.3657,1.22,-6.34,-78.48
209,602688294,-0.2842,-0.8853,-0.3628,1.04,-6.34,-78.78
210,602693294,-0.2793,-0.8911,-0.3662,1.16,-6.10,-79.21
211,602698294,-0.2729,-0.8896,-0.3662,1.10,-6.16,-79.39
212,602703294,-0.2632,-0.8862,-0.3667,1.22,-5.98,-79.76
213,602708295,-0.2607,-0.8945,-0.3711,1.52,-5.91,-80.00
214,602713294,-0.2520,-0.8906,-0.3662,1.83,-5.85,-80.12
215,602718294,-0.2529,-0.8882,-0.3696,2.38,-5.79,-80.30
216,602723298,-0.2402,-0.8911,-0.3677,2.80,-5.73,-80.30
217,602728296,-0.2432,-0.8906,-0.3711,3.35,-5.67,-80.24
218,602733665,-0.2314,-0.8926,-0.3760,4.27,-5.67,-80.24
219,602738296,-0.2290,-0.8892,-0.3789,4.94,-5.49,-80.30
220,602743296,-0.2256,-0.8906,-0.3809,5.61,-5.24,-80.24
221,602748296,-0.2192,-0.8887,-0.3770,6.59,-5.49,-80.24
222,602753697,-0.2178,-0.8896,-0.3765,7.62,-5.37,-80.30
223,602758296,-0.2129,-0.8882,-0.3838,8.11,-5.30,-80.43
224,602763296,-0.2021,-0.8848,-0.3804,9.02,-5.12,-80.30
225,602768296,-0.2026,-0.8828,-0.3838,9.70,-5.06,-80.37
226,602773296,-0.2021,-0.8804,-0.3765,10.37,-5.06,-80.43
227,602778295,-0.1934,-0.8774,-0.3848,11.04,-4.76,-80.49
228,602783294,-0.1841,-0.8745,-0.3809,11.59,-4.76,-80.55
229,602788294,-0.1768,-0.8682,-0.3779,12.07,-4.70,-80.61
230,602793294,-0.1670,-0.8667,-0.3813,12.50,-4.51,-80.79
231,602798294,-0.1724,-0.8638,-0.3833,12.80,-4.45,-80.85
232,602803817,-0.1626,-0.8633,-0.3867,13.17,-4.39,-80.91
233,602808296,-0.1616,-0.8613,-0.3818,13.11,-4.21,-81.04
234,602813296,-0.1519,-0.8589,-0.3833,13.29,-3.96,-81.22
235,602818296,-0.1533,-0.8540,-0.3823,13.35,-3.84,-81.16
236,602823296,-0.1484,-0.8511,-0.3843,13.23,-3.54,-81.28
237,602828296,-0.1431,-0.8496,-0.3789,13.41,-3.29,-81.34
238,602833296,-0.1416,-0.8525,-0.3887,13.29,-2.99,-81.22
239,602838496,-0.1318,-0.8491,-0.3911,13.05,-2.93,-81.22
240,602843296,-0.1265,-0.8472,-0.3921,12.56,-2.62,-81.10
241,602848296,-0.1206,-0.8486,-0.3955,12.20,-2.32,-80.98
242,602853659,-0.1084,-0.8389,-0.3989,11.59,-2.20,-80.85
243,602858296,-0.1016,-0.8354,-0.3989,11.28,-1.77,-80.91
244,602863296,-0.0942,-0.8276,-0.3999,10.79,-1.77,-80.85
245,602868296,-0.0840,-0.8154,-0.4019,10.24,-1.46,-80.67
246,602873296,-0.0835,-0.8159,-0.3970,9.88,-1.16,-80.85
247,602878296,-0.0820,-0.8145,-0.3975,9.21,-0.79,-80.79
248,602883296,-0.0723,-0.8042,-0.3965,8.48,-0.30,-80.85
249,602888699,-0.0684,-0.7710,-0.4067,7.56,-0.30,-80.91
250,602893296,-0.0566,-0.7852,-0.4160,7.07,-0.12,-81.10
251,602898548,-0.0518,-0.7788,-0.3784,6.65,0.30,-81.04
252,602903478,-0.0669,-0.7739,-0.3750,6.16,0.91,-81.10
253,602908385,-0.0610,-0.7896,-0.3794,5.61,1.34,-80.91
254,602913745,-0.0454,-0.7900,-0.3765,5.18,1.89,-80.85
255,602918296,-0.0347,-0.7764,-0.3628,5.06,2.26,-80.67
256,602923296,-0.0337,-0.7793,-0.3643,5.37,2.68,-80.67
257,602928296,-0.0337,-0.7769,-0.3667,6.16,3.48,-80.55
258,602933295,-0.0420,-0.7778,-0.3647,7.01,3.90,-80.49
259,602938296,-0.0342,-0.7817,-0.3579,8.17,4.39,-80.37
260,602943296,-0.0239,-0.7759,-0.3535,9.63,4.88,-80.00
261,602948296,-0.0186,-0.7754,-0.3555,11.59,5.24,-79.82
262,602953616,-0.0171,-0.7759,-0.3604,14.15,5.67,-79.70
263,602958296,-0.0132,-0.7754,-0.3638,17.01,5.55,-79.45
264,602963296,-0.0073,-0.7817,-0.3613,20.30,5.73,-79.15
265,602968296,-0.0063,-0.7832,-0.3628,23.84,5.91,-78.84
266,602973295,0.0054,-0.7803,-0.3633,27.26,5.73,-78.48
267,602978294,0.0156,-0.7817,-0.3633,30.79,5.61,-78.11
268,602983294,0.0215,-0.7769,-0.3584,34.39,5.43,-77.68
269,602988294,0.0225,-0.7764,-0.3564,38.11,5.18,-77.07
270,602993294,0.0264,-0.7715,-0.3423,42.01,4.94,-76.52
271,602998295,0.0249,-0.7715,-0.3467,46.22,4.82,-76.16
272,603003297,0.0347,-0.7715,-0.3408,51.46,4.33,-75.61
273,603008296,0.0366,-0.7700,-0.3394,54.88,4.15,-75.30
274,603013296,0.0596,-0.7646,-0.3413,59.02,3.72,-74.82
275,603018792,0.0552,-0.7603,-0.3354,63.48,3.11,-74.33
276,603023296,0.0698,-0.7568,-0.3359,66.16,2.68,-73.90
277,603028296,0.0752,-0.7529,-0.3330,68.72,2.01,-73.41
278,603033296,0.0781,-0.7559,-0.3276,70.55,1.46,-72.93
279,603038297,0.0835,-0.7534,-0.3247,71.28,0.91,-72.44
280,603043296,0.0894,-0.7539,-0.3184,71.34,0.30,-71.77
281,603048296,0.1074,-0.7544,-0.3027,70.43,-0.18,-71.22
282,603053296,0.1099,-0.7632,-0.2949,69.33,-0.55,-70.79
283,603058296,0.1172,-0.7593,-0.2974,67.32,-1.16,-70.24
284,603063761,0.1284,-0.7642,-0.2925,64.15,-1.89,-69.63
285,603068296,0.1270,-0.7700,-0.2759,61.52,-2.38,-69.15
286,603073296,0.1416,-0.7744,-0.2773,57.87,-3.29,-68.48
287,603078295,0.1616,-0.7759,-0.2856,53.66,-4.15,-67.68
288,603083294,0.1792,-0.7773,-0.2778,49.02,-5.00,-66.95
289,603088294,0.1880,-0.7861,-0.2612,44.15,-5.85,-66.22
290,603093294,0.1934,-0.7876,-0.2568,38.90,-6.52,-65.18
291,603098294,0.1929,-0.7910,-0.2412,33.54,-7.20,-64.39
292,603103294,0.1855,-0.7861,-0.2275,28.60,-7.80,-63.35
293,603108296,0.1943,-0.7827,-0.2036,24.02,-8.29,-62.38
294,603113305,0.2046,-0.7690,-0.1821,19.33,-8.78,-61.34
295,603118297,0.2065,-0.7700,-0.1792,16.59,-8.90,-60.73
296,603123296,0.2075,-0.7617,-0.1650,13.78,-9.39,-59.63
297,603128296,0.2227,-0.7573,-0.1519,11.34,-9.88,-58.60
298,603133438,0.2412,-0.7544,-0.1411,9.09,-10.30,-57.56
299,603138297,0.2490,-0.7568,-0.1294,6.89,-10.85,-56.34
300,603143296,0.2563,-0.7505,-0.1187,4.45,-11.34,-55.12
301,603148296,0.2700,-0.7432,-0.0986,1.59,-11.89,-53.54
302,603153296,0.2852,-0.7402,-0.0928,-1.71,-12.62,-51.77
303,603158475,0.2959,-0.7529,-0.0811,-6.28,-13.41,-49.45
304,603163678,0.3115,-0.7510,-0.0708,-10.43,-14.21,-47.32
305,603168296,0.3213,-0.7549,-0.0640,-13.84,-14.76,-45.49
306,603173296,0.3364,-0.7661,-0.0459,-17.80,-15.24,-43.11
307,603178296,0.3550,-0.7812,-0.0308,-22.07,-15.98,-40.24
308,603183296,0.3696,-0.7881,-0.0293,-24.51,-16.46,-38.23
309,603188298,0.3564,-0.8047,-0.0308,-26.71,-17.01,-35.67
310,603193295,0.3745,-0.8062,-0.0366,-28.17,-17.62,-33.11
311,603198756,0.3789,-0.8145,-0.0347,-29.15,-18.54,-30.30
312,603203296,0.3872,-0.8125,-0.0288,-29.21,-19.27,-28.54
313,603208295,0.4009,-0.8120,-0.0322,-28.54,-19.94,-26.34
314,603213481,0.4097,-0.8208,-0.0205,-26.89,-20.91,-23.78
315,603218461,0.4072,-0.8628,-0.0254,-25.06,-21.71,-21.71
316,603223296,0.4067,-0.8770,-0.0312,-23.54,-22.38,-20.06
317,603228295,0.4253,-0.8584,-0.0444,-21.28,-23.23,-18.29
318,603233294,0.4277,-0.8599,-0.0479,-18.78,-24.33,-16.59
319,603238294,0.4331,-0.8535,-0.0479,-16.16,-25.00,-15.06
320,603243294,0.4268,-0.8413,-0.0513,-13.54,-25.43,-13.96
321,603248294,0.4146,-0.8325,-0.0435,-11.46,-25.55,-12.87
322,603253294,0.3994,-0.8301,-0.0396,-9.63,-25.49,-11.89
323,603258294,0.3921,-0.8218,-0.0381,-8.35,-25.37,-11.22
324,603263294,0.3921,-0.8081,-0.0454,-7.50,-25.12,-10.30
325,603268294,0.3901,-0.7939,-0.0376,-7.20,-24.45,-9.88
326,603273294,0.3916,-0.7832,-0.0381,-7.38,-23.90,-9.33
327,603278294,0.3882,-0.7700,-0.0381,-7.93,-23.17,-8.84
328,603283294,0.3901,-0.7646,-0.0469,-9.02,-22.38,-8.35
329,603288294,0.3892,-0.7671,-0.0566,-10.98,-21.77,-7.80
330,603293294,0.4058,-0.7622,-0.0684,-12.93,-21.10,-7.32
331,603298294,0.4199,-0.7695,-0.0903,-14.94,-20.43,-6.77
332,603303294,0.4321,-0.7778,-0.1006,-17.01,-19.82,-6.22
333,603308294,0.4521,-0.7852,-0.1157,-18.78,-19.15,-5.79
334,603313294,0.4653,-0.7949,-0.1260,-20.06,-18.54,-5.55
335,603318294,0.4897,-0.8110,-0.1475,-20.85,-17.87,-5.18
336,603323299,0.5073,-0.8262,-0.1680,-21.34,-16.95,-4.82
337,603328296,0.5361,-0.8354,-0.1948,-21.46,-16.40,-4.45
338,603333296,0.5654,-0.8511,-0.2158,-21.34,-15.61,-4.21
339,603338296,0.5908,-0.8589,-0.2349,-20.91,-14.70,-3.90
340,603343296,0.6069,-0.8574,-0.2388,-20.49,-13.66,-3.90
341,603348296,0.6147,-0.8364,-0.2417,-19.63,-12.20,-3.78
342,603353296,0.6167,-0.8218,-0.2466,-18.90,-10.85,-3.54
343,603358296,0.6338,-0.8193,-0.2393,-18.48,-9.33,-3.41
344,603363298,0.6426,-0.8247,-0.2383,-18.54,-7.80,-3.11
345,603368295,0.6406,-0.8213,-0.2524,-19.21,-6.16,-2.80
346,603373296,0.6357,-0.8296,-0.2339,-19.57,-4.45,-2.38
347,603378296,0.5928,-0.8325,-0.2363,-20.43,-2.56,-1.89
348,603383371,0.5557,-0.8354,-0.2144,-21.40,-0.73,-1.59
349,603388295,0.5298,-0.8433,-0.1812,-21.83,1.22,-1.22
350,603393760,0.5146,-0.8550,-0.1670,-21.83,3.05,-0.91
351,603398296,0.5156,-0.8574,-0.1455,-21.04,5.00,-0.61
352,603403556,0.5151,-0.8618,-0.1260,-19.39,6.89,-0.30
353,603408296,0.5059,-0.8643,-0.1167,-17.01,8.35,-0.24
354,603413296,0.4956,-0.8711,-0.1182,-14.09,9.94,0.00
355,603418333,0.4956,-0.8760,-0.1177,-10.49,11.40,0.00
356,603423296,0.5005,-0.8745,-0.1167,-6.71,12.80,0.12
357,603428363,0.5146,-0.8755,-0.1177,-2.56,14.27,0.06
358,603433333,0.5225,-0.8691,-0.1289,2.01,15.61,0.06
359,603438295,0.5215,-0.8691,-0.1367,6.40,16.59,-0.06
360,603443296,0.5337,-0.8633,-0.1426,10.73,17.68,-0.12
361,603448316,0.5332,-0.8569,-0.1475,14.57,18.96,-0.30
362,603453297,0.5327,-0.8516,-0.1553,18.17,19.94,-0.49
363,603458296,0.5327,-0.8447,-0.1465,21.28,21.04,-0.55
364,603463295,0.5137,-0.8442,-0.1509,23.90,22.38,-0.79
365,603468296,0.5205,-0.8394,-0.1494,26.10,23.29,-1.04
366,603473295,0.5127,-0.8413,-0.1484,27.99,24.33,-1.28
367,603478296,0.4995,-0.8433,-0.1553,28.66,25.24,-1.52
368,603483296,0.5010,-0.8384,-0.1484,28.96,25.98,-1.89
369,603488295,0.4907,-0.8369,-0.1475,28.54,26.95,-2.44
370,603493295,0.4888,-0.8340,-0.1455,27.50,27.68,-2.74
371,603498294,0.4678,-0.8359,-0.1431,25.85,28.54,-3.29
372,603503294,0.4658,-0.8398,-0.1475,23.84,29.27,-3.84
373,603508294,0.4565,-0.8350,-0.1392,21.52,29.94,-4.45
374,603513294,0.4492,-0.8345,-0.1270,18.96,30.73,-4.94
375,603518298,0.4487,-0.8384,-0.1221,16.52,31.16,-5.73
376,603523296,0.4385,-0.8442,-0.1196,14.21,31.59,-6.28
377,603528615,0.4302,-0.8413,-0.1226,12.01,32.07,-6.83
378,603533723,0.4272,-0.8491,-0.1201,9.94,32.38,-7.56
379,603538296,0.4307,-0.8486,-0.1128,9.02,32.62,-8.05
380,603543296,0.4263,-0.8525,-0.1182,8.17,32.68,-8.66
381,603548296,0.4316,-0.8535,-0.1089,8.05,32.87,-9.15
382,603553299,0.4224,-0.8599,-0.1064,8.54,32.99,-9.76
383,603558296,0.4180,-0.8633,-0.0977,9.21,33.11,-10.12
384,603563369,0.4106,-0.8735,-0.0986,10.37,32.99,-10.24
385,603568296,0.4082,-0.8838,-0.0981,11.77,32.74,-10.30
386,603573294,0.4048,-0.8848,-0.0986,13.41,32.44,-10.24
387,603578294,0.4058,-0.8945,-0.0942,15.00,32.01,-10.06
388,603583294,0.4087,-0.8970,-0.0947,16.77,31.77,-9.63
389,603588295,0.4004,-0.8984,-0.1104,18.90,31.16,-8.96
390,603593294,0.4023,-0.8999,-0.1226,20.85,30.37,-8.35
391,603598294,0.4028,-0.8887,-0.1279,22.80,29.39,-7.80
392,603603295,0.4111,-0.8809,-0.1436,24.45,28.17,-7.13
393,603608301,0.4204,-0.8652,-0.1602,25.91,26.52,-6.22
394,603613296,0.4185,-0.8506,-0.1699,26.46,25.37,-5.73
395,603618296,0.4258,-0.8350,-0.1763,26.71,23.60,-5.18
396,603623296,0.4287,-0.8115,-0.1831,26.34,21.71,-4.76
397,603628296,0.4424,-0.7915,-0.1870,25.55,19.57,-4.39
398,603633432,0.4482,-0.7681,-0.1934,23.96,16.95,-4.02
399,603638705,0.4478,-0.7588,-0.1997,22.44,14.45,-3.78
400,603643296,0.4536,-0.7490,-0.1953,21.04,12.44,-3.66
401,603648296,0.4614,-0.7466,-0.2012,19.21,9.76,-3.35
402,603653296,0.4712,-0.7441,-0.1943,17.38,7.13,-3.23
403,603658296,0.4751,-0.7456,-0.1860,15.24,3.66,-2.93
404,603663296,0.4927,-0.7520,-0.1821,13.90,1.71,-2.87
405,603668296,0.5015,-0.7544,-0.1748,12.62,-1.04,-2.68
406,603673296,0.5098,-0.7544,-0.1714,11.77,-3.66,-2.38
407,603678732,0.5283,-0.7651,-0.1699,11.34,-6.34,-2.50
408,603683296,0.5283,-0.7676,-0.1636,11.40,-8.17,-2.26
409,603688296,0.5439,-0.7705,-0.1548,11.71,-10.61,-2.20
410,603693295,0.5425,-0.7690,-0.1484,12.26,-12.13,-2.26
411,603698295,0.5513,-0.7769,-0.1450,13.11,-13.78,-2.26
412,603703294,0.5625,-0.7803,-0.1475,13.90,-15.49,-2.26
413,603708294,0.5571,-0.7925,-0.1392,14.94,-16.89,-2.26
414,603713294,0.5640,-0.7852,-0.1372,15.73,-18.17,-2.20
415,603718296,0.5586,-0.7910,-0.1313,16.52,-19.76,-2.20
416,603723296,0.5664,-0.8052,-0.1304,16.89,-21.04,-2.07
417,603728296,0.5591,-0.8086,-0.1309,17.32,-22.26,-1.89
418,603733296,0.5518,-0.8188,-0.1372,17.01,-23.35,-1.65
419,603738477,0.5444,-0.8267,-0.1367,16.59,-24.51,-1.34
420,603743769,0.5430,-0.8306,-0.1382,15.61,-25.61,-1.16
421,603748296,0.5381,-0.8359,-0.1479,14.51,-26.65,-0.85
422,603753296,0.5337,-0.8369,-0.1626,13.29,-27.62,-0.43
423,603758296,0.5405,-0.8325,-0.1704,11.89,-28.48,-0.18
424,603763296,0.5449,-0.8296,-0.1787,10.43,-29.33,0.00
425,603768295,0.5513,-0.8218,-0.1899,8.96,-29.94,0.12
426,603773296,0.5469,-0.8154,-0.2017,7.44,-30.43,0.18
427,603778294,0.5483,-0.8125,-0.2046,6.16,-30.67,0.18
428,603783297,0.5400,-0.8071,-0.2178,4.63,-30.91,0.06
429,603788296,0.5356,-0.7998,-0.2236,3.17,-30.85,-0.12
430,603793296,0.5298,-0.7930,-0.2324,2.07,-30.61,-0.30
431,603798296,0.5303,-0.7817,-0.2461,0.98,-30.18,-0.67
432,603803297,0.5195,-0.7734,-0.2485,0.12,-29.82,-1.16
433,603808296,0.5264,-0.7637,-0.2578,-0.43,-29.27,-1.71
434,603813296,0.5229,-0.7588,-0.2578,-0.73,-28.90,-2.26
435,603818781,0.5254,-0.7588,-0.2646,-0.85,-28.35,-2.80
436,603823296,0.5269,-0.7534,-0.2812,-0.49,-27.99,-3.48
437,603828296,0.5283,-0.7520,-0.2847,0.06,-27.50,-3.96
438,603833296,0.5332,-0.7515,-0.2905,0.85,-27.13,-4.57
439,603838296,0.5420,-0.7485,-0.2969,1.77,-26.83,-5.06
440,603843295,0.5640,-0.7505,-0.2949,2.80,-26.34,-5.55
441,603848297,0.5371,-0.7432,-0.3110,3.90,-26.04,-6.16
442,603853296,0.5225,-0.7559,-0.3071,4.94,-25.61,-6.65
443,603858295,0.5205,-0.7671,-0.3062,6.04,-25.18,-7.13
444,603863296,0.5347,-0.7656,-0.2988,7.01,-24.63,-7.80
445,603868296,0.5444,-0.7710,-0.3076,7.87,-24.02,-8.48
446,603873294,0.5234,-0.7832,-0.3066,8.48,-23.23,-9.09
447,603878294,0.5161,-0.7881,-0.3003,9.27,-22.44,-9.82
448,603883294,0.5210,-0.7876,-0.2954,10.00,-21.40,-10.73
449,603888294,0.5195,-0.7939,-0.2974,11.04,-20.55,-11.52
450,603893294,0.5181,-0.7998,-0.2920,12.13,-19.51,-12.44
451,603899618,0.5146,-0.8149,-0.2822,14.09,-18.05,-13.72
452,603903296,0.5024,-0.8232,-0.2793,14.94,-17.38,-14.27
453,603908295,0.5063,-0.8335,-0.2827,16.59,-16.28,-15.00
454,603913296,0.5049,-0.8418,-0.2778,18.23,-15.43,-15.73
455,603918294,0.5083,-0.8516,-0.2798,19.70,-14.63,-16.40
456,603923294,0.5063,-0.8604,-0.2739,21.22,-13.84,-17.01
457,603928294,0.4956,-0.8706,-0.2715,22.68,-13.05,-17.50
458,603933294,0.5000,-0.8696,-0.2642,23.84,-12.50,-17.93
459,603938298,0.4976,-0.8711,-0.2607,25.06,-12.01,-18.35
460,603943403,0.4775,-0.8760,-0.2554,26.04,-11.52,-18.78
461,603948536,0.4766,-0.8750,-0.2510,27.01,-10.91,-19.27
462,603953364,0.4663,-0.8755,-0.2466,27.87,-10.79,-19.63
463,603958295,0.4678,-0.8730,-0.2334,28.29,-10.61,-20.06
464,603963779,0.4629,-0.8696,-0.2349,28.78,-10.37,-20.37
465,603968296,0.4634,-0.8638,-0.2236,28.78,-10.43,-20.67
466,603973296,0.4590,-0.8594,-0.2139,28.84,-10.61,-21.10
467,603978295,0.4565,-0.8560,-0.2046,28.72,-10.85,-21.59
468,603983294,0.4531,-0.8555,-0.1924,28.54,-11.28,-21.95
469,603988294,0.4453,-0.8545,-0.1890,28.35,-11.65,-22.32
470,603993297,0.4502,-0.8560,-0.1777,28.11,-12.44,-22.62
471,603998296,0.4556,-0.8560,-0.1685,28.05,-13.17,-22.87
472,604003296,0.4468,-0.8594,-0.1572,28.17,-14.15,-23.11
473,604008297,0.4575,-0.8564,-0.1519,28.11,-15.24,-23.35
474,604013296,0.4624,-0.8584,-0.1392,28.11,-16.59,-23.60
475,604018707,0.4644,-0.8584,-0.1357,28.05,-18.29,-23.72
476,604023296,0.4590,-0.8682,-0.1294,28.11,-19.51,-23.72
477,604028296,0.4702,-0.8716,-0.1211,28.29,-21.10,-23.90
478,604033296,0.4697,-0.8682,-0.1074,28.41,-22.62,-24.02
479,604038296,0.4761,-0.8682,-0.0977,28.84,-24.45,-24.27
480,604043296,0.4819,-0.8657,-0.0947,29.21,-25.73,-24.39
481,604048296,0.4873,-0.8682,-0.0781,29.21,-27.38,-24.63
482,604053296,0.4858,-0.8701,-0.0674,29.21,-28.72,-24.82
483,604058296,0.4907,-0.8730,-0.0654,28.90,-30.37,-24.94
484,604063296,0.4946,-0.8760,-0.0654,28.35,-31.83,-25.00
485,604068297,0.4858,-0.8823,-0.0635,27.32,-33.41,-25.00
486,604073368,0.4917,-0.8833,-0.0488,26.04,-34.70,-25.00
487,604078296,0.4985,-0.8955,-0.0415,24.45,-35.98,-25.00
488,604083296,0.5049,-0.8984,-0.0361,22.68,-37.13,-24.88
489,604088296,0.5137,-0.9097,-0.0386,20.98,-37.93,-24.88
490,604093296,0.5176,-0.9150,-0.0317,18.90,-38.90,-24.76
491,604098296,0.5229,-0.9219,-0.0269,17.44,-39.39,-24.70
492,604103297,0.5283,-0.9307,-0.0156,15.98,-39.88,-24.63
493,604108295,0.5127,-0.9292,-0.0059,14.33,-40.24,-24.88
494,604113296,0.5225,-0.9224,0.0112,12.80,-40.49,-25.00
495,604118298,0.5166,-0.9263,0.0122,11.04,-40.61,-25.37
496,604123296,0.5239,-0.9180,0.0171,9.76,-40.43,-25.67
497,604128296,0.5288,-0.9160,0.0278,8.35,-40.37,-26.04
498,604133631,0.5244,-0.9136,0.0273,6.59,-40.00,-26.65
499,604138296,0.5146,-0.9141,0.0381,5.49,-39.82,-27.20
500,604143296,0.5225,-0.9087,0.0352,3.96,-39.27,-27.74
501,604148296,0.5239,-0.9141,0.0410,2.87,-38.96,-28.23
502,604153296,0.5190,-0.9165,0.0396,1.95,-38.48,-28.78
503,604158296,0.5205,-0.9224,0.0366,0.98,-37.93,-29.02
504,604163296,0.5264,-0.9272,0.0347,0.00,-37.50,-29.15
505,604168296,0.5327,-0.9297,0.0347,-0.98,-37.26,-29.27
506,604173297,0.5332,-0.9307,0.0244,-1.77,-36.77,-29.15
507,604178294,0.5381,-0.9346,0.0176,-2.74,-36.40,-28.90
508,604183298,0.5444,-0.9380,0.0103,-3.66,-35.98,-28.60
509,604188295,0.5420,-0.9404,0.0024,-4.45,-35.55,-28.17
510,604193294,0.5449,-0.9380,-0.0044,-5.43,-34.88,-27.56
511,604198297,0.5488,-0.9375,-0.0112,-6.28,-34.39,-27.01
512,604203297,0.5674,-0.9258,-0.0225,-6.77,-33.78,-26.59
513,604208294,0.5664,-0.9238,-0.0171,-7.26,-32.99,-26.10
514,604213294,0.5576,-0.9199,-0.0322,-7.62,-31.95,-25.49
515,604218294,0.5537,-0.9111,-0.0400,-7.93,-30.98,-25.18
516,604223294,0.5542,-0.8994,-0.0508,-7.99,-29.82,-24.70
517,604228450,0.5537,-0.8931,-0.0591,-7.87,-28.60,-24.39
518,604233298,0.5469,-0.8813,-0.0596,-7.62,-27.13,-24.02
519,604238295,0.5288,-0.8701,-0.0708,-7.13,-25.91,-23.96
520,604243296,0.5288,-0.8535,-0.0688,-6.28,-24.45,-23.78
521,604248296,0.5288,-0.8438,-0.0781,-5.43,-22.80,-23.60
522,604253735,0.5117,-0.8281,-0.0767,-4.51,-21.22,-23.54
523,604258296,0.5063,-0.8213,-0.0820,-3.41,-19.51,-23.48
524,604263600,0.5146,-0.7998,-0.0791,-1.95,-17.93,-23.60
525,604268296,0.4893,-0.7949,-0.0850,-0.30,-16.28,-23.66
526,604273734,0.5005,-0.7812,-0.0825,1.52,-14.51,-23.90
527,604278296,0.4985,-0.7734,-0.0884,3.60,-13.23,-24.02
528,604283294,0.4844,-0.7622,-0.0835,5.91,-11.71,-24.15
529,604288294,0.4907,-0.7578,-0.0835,8.35,-10.30,-24.39
530,604293294,0.4883,-0.7520,-0.0830,10.91,-9.15,-24.51
531,604298294,0.4829,-0.7422,-0.0762,13.23,-8.23,-24.63
532,604303294,0.4917,-0.7339,-0.0718,15.43,-7.38,-24.82
533,604308294,0.4814,-0.7295,-0.0684,17.44,-6.40,-24.82
534,604313294,0.4829,-0.7173,-0.0664,19.33,-5.73,-24.82
535,604318294,0.4937,-0.7056,-0.0596,20.67,-5.37,-24.94
536,604323294,0.4883,-0.6987,-0.0571,21.95,-4.94,-24.88
537,604328294,0.4756,-0.6943,-0.0542,23.05,-4.76,-24.94
538,604333294,0.4756,-0.6860,-0.0513,23.84,-4.51,-24.88
539,604338294,0.4771,-0.6772,-0.0474,24.27,-4.39,-24.76
540,604343294,0.4858,-0.6660,-0.0464,24.45,-4.33,-24.88
541,604348294,0.4673,-0.6660,-0.0410,24.39,-4.45,-24.70
542,604353294,0.4702,-0.6558,-0.0376,24.27,-4.70,-24.76
543,604358294,0.4600,-0.6582,-0.0439,23.72,-4.94,-24.63
544,604363294,0.4712,-0.6514,-0.0391,23.17,-5.18,-24.57
545,604368294,0.4458,-0.6543,-0.0464,22.26,-5.55,-24.51
546,604373586,0.4697,-0.6445,-0.0601,21.10,-5.98,-24.33
547,604378296,0.4482,-0.6470,-0.0615,19.70,-6.34,-24.09
548,604383296,0.4619,-0.6377,-0.0708,17.93,-7.01,-23.84
549,604388296,0.4487,-0.6431,-0.0854,15.91,-7.50,-23.54
550,604393488,0.4482,-0.6411,-0.0908,13.41,-8.05,-23.11
551,604398296,0.4580,-0.6382,-0.1108,10.49,-8.96,-22.50
552,604403296,0.4556,-0.6392,-0.1250,7.07,-9.51,-22.01
553,604408299,0.4482,-0.6348,-0.1445,2.74,-10.55,-21.22
554,604413336,0.4678,-0.6274,-0.1562,-0.55,-10.98,-20.67
555,604418298,0.4492,-0.6343,-0.1709,-4.76,-11.65,-20.12
556,604423296,0.4629,-0.6274,-0.1938,-9.27,-12.20,-19.15
557,604428296,0.4609,-0.6304,-0.2148,-13.90,-12.80,-18.41
558,604433296,0.4692,-0.6299,-0.2378,-19.88,-13.41,-17.07
559,604438296,0.4731,-0.6255,-0.2505,-24.02,-13.72,-16.28
560,604443567,0.4824,-0.6235,-0.2681,-29.15,-14.15,-15.24
561,604448418,0.4810,-0.6235,-0.2979,-34.33,-14.39,-14.15
562,604453296,0.4736,-0.6265,-0.3120,-39.51,-14.51,-13.17
563,604458296,0.4805,-0.6265,-0.3325,-44.33,-14.45,-12.07
564,604463322,0.4849,-0.6299,-0.3564,-48.84,-14.21,-10.91
565,604468295,0.4844,-0.6260,-0.3906,-53.05,-14.02,-9.88
566,604473294,0.4834,-0.6245,-0.4116,-56.83,-13.60,-8.90
567,604478294,0.4839,-0.6279,-0.4341,-60.06,-12.93,-7.93
568,604483294,0.5112,-0.6548,-0.4624,-62.93,-12.07,-6.95
569,604488294,0.4995,-0.6523,-0.4727,-65.61,-11.28,-5.91
570,604493294,0.4790,-0.6104,-0.5015,-68.35,-10.12,-5.18
571,604498296,0.4453,-0.6230,-0.5171,-70.61,-8.90,-4.51
572,604503296,0.4819,-0.6211,-0.5337,-72.87,-7.38,-3.84
573,604508299,0.5151,-0.6230,-0.5576,-75.12,-5.55,-3.17
574,604513469,0.5029,-0.6274,-0.5850,-76.89,-3.54,-2.50
575,604518295,0.5107,-0.6318,-0.6001,-78.35,-2.01,-1.89
576,604523297,0.4956,-0.6475,-0.6030,-80.79,0.37,-1.10
577,604528296,0.4819,-0.6499,-0.6279,-82.68,2.07,-0.55
578,604533296,0.4863,-0.6587,-0.6455,-84.57,4.45,0.24
579,604538296,0.5020,-0.6758,-0.6597,-86.10,6.83,1.16
580,604543296,0.4883,-0.6982,-0.6763,-87.26,9.21,2.20
581,604548295,0.4507,-0.7261,-0.6875,-87.99,11.71,3.35
582,604553750,0.4453,-0.7485,-0.7393,-88.84,14.88,4.76
583,604558296,0.4585,-0.7495,-0.7573,-89.09,16.83,5.98
584,604563296,0.4805,-0.7563,-0.7827,-88.96,19.45,7.32
585,604568296,0.4951,-0.7764,-0.8145,-88.29,22.13,8.90
586,604573296,0.4878,-0.8008,-0.8613,-86.83,25.49,11.16
587,604578296,0.4697,-0.8047,-0.8950,-85.37,28.29,13.11
588,604583296,0.4707,-0.7988,-0.9312,-83.29,30.98,14.94
589,604588296,0.4868,-0.8022,-0.9424,-81.04,33.96,16.89
590,604593296,0.4849,-0.8032,-0.9746,-78.48,37.07,18.72
591,604598296,0.4609,-0.7979,-0.9863,-75.98,40.37,20.49
592,604603297,0.4565,-0.7866,-0.9839,-73.78,43.48,22.32
593,604608296,0.4634,-0.7769,-0.9873,-71.71,46.83,23.78
594,604613295,0.4507,-0.7734,-0.9907,-69.57,50.43,25.18
595,604618295,0.4302,-0.7700,-0.9858,-67.56,53.90,26.59
596,604623294,0.4419,-0.7573,-0.9780,-65.55,57.68,27.62
597,604628294,0.4243,-0.7588,-0.9658,-63.17,61.52,28.66
598,604633294,0.4121,-0.7529,-0.9668,-60.85,65.43,29.57
599,604638521,0.4165,-0.7441,-0.9556,-58.17,69.57,30.37
600,604643391,0.4126,-0.7446,-0.9517,-55.37,74.02,30.85
601,604648680,0.4009,-0.7358,-0.9443,-52.13,78.35,31.28
602,604653296,0.4009,-0.7324,-0.9248,-48.72,83.78,31.46
603,604658296,0.4004,-0.7241,-0.9106,-44.94,87.13,31.83
604,604663296,0.4126,-0.7188,-0.8911,-41.16,91.83,31.77
605,604668296,0.4053,-0.7183,-0.8584,-37.26,96.52,31.65
606,604673296,0.3955,-0.7178,-0.8384,-33.29,101.22,31.40
607,604678295,0.3984,-0.7075,-0.8135,-29.33,105.98,30.91
608,604683560,0.4009,-0.6963,-0.7871,-25.49,110.79,30.37
609,604688573,0.3926,-0.6904,-0.7534,-21.52,115.12,29.57
610,604693296,0.3950,-0.6812,-0.7109,-17.68,119.51,28.72
611,604698296,0.3911,-0.6675,-0.6802,-13.84,123.72,27.56
612,604703296,0.3848,-0.6631,-0.6392,-10.37,127.80,26.46
613,604708296,0.3818,-0.6519,-0.5986,-6.71,131.83,25.24
614,604713296,0.3857,-0.6436,-0.5518,-3.29,135.55,24.02
615,604718352,0.3799,-0.6250,-0.5122,0.00,139.21,22.56
616,604723297,0.3779,-0.6221,-0.4673,3.35,142.68,21.40
617,604728809,0.3760,-0.6064,-0.4277,6.65,146.16,20.00
618,604733296,0.3696,-0.5986,-0.3818,9.63,149.51,18.72
619,604738296,0.3638,-0.5854,-0.3364,12.26,152.80,17.50
620,604743296,0.3521,-0.5703,-0.2988,14.51,156.28,16.22
621,604748296,0.3418,-0.5552,-0.2563,16.34,159.57,15.06
622,604753296,0.3276,-0.5420,-0.2104,17.62,162.87,13.78
623,604758718,0.3242,-0.5220,-0.1689,18.29,166.22,12.62
624,604763296,0.3115,-0.5059,-0.1201,18.54,169.70,11.77
625,604768296,0.2969,-0.4902,-0.0825,18.66,173.11,10.79
626,604773295,0.2812,-0.4751,-0.0469,18.54,176.71,10.00
627,604778294,0.2710,-0.4507,0.0020,18.48,180.18,9.39
628,604783294,0.2559,-0.4448,0.0376,18.48,183.66,9.02
629,604788297,0.2568,-0.4277,0.0708,18.84,187.26,8.72
630,604793294,0.2480,-0.4126,0.1094,19.39,190.79,8.48
631,604798298,0.2417,-0.4004,0.1440,20.24,194.45,8.48
632,604803295,0.2241,-0.3936,0.1777,21.34,198.05,8.48
633,604808296,0.2026,-0.3784,0.2051,22.74,201.52,8.54
634,604813783,0.1885,-0.3667,0.2485,24.70,205.67,8.72
635,604818296,0.1831,-0.3623,0.2715,26.10,208.29,9.02
636,604823296,0.1558,-0.3623,0.3091,28.17,212.01,9.70
637,604828297,0.1509,-0.3633,0.3384,29.51,214.76,10.00
638,604833296,0.1431,-0.3589,0.3691,31.34,217.56,10.79
639,604838299,0.1191,-0.3486,0.4106,33.66,221.04,11.83
640,604843296,0.1147,-0.3486,0.4395,35.24,223.17,12.32
641,604848299,0.0972,-0.3496,0.4912,38.05,226.10,13.35
642,604853296,0.0771,-0.3462,0.5127,40.24,227.74,13.84
643,604858296,0.0537,-0.3442,0.5371,43.11,229.70,14.51
644,604863786,0.0425,-0.3413,0.5713,47.56,231.59,15.24
645,604868296,0.0591,-0.3452,0.5928,50.67,232.50,15.85
646,604873295,0.0630,-0.4121,0.6211,54.70,233.48,16.77
647,604878294,0.0283,-0.4810,0.6733,58.84,233.96,18.35
648,604883294,0.0547,-0.4902,0.7134,63.17,234.21,20.30
649,604888294,0.0469,-0.5029,0.7456,67.62,233.96,22.38
650,604893294,0.0649,-0.5044,0.7900,71.83,233.23,24.88
651,604898294,0.1108,-0.5396,0.8643,75.61,232.07,27.68
652,604903298,0.0791,-0.5771,0.9160,79.15,230.55,30.67
653,604908296,0.1216,-0.5640,0.9312,81.77,228.60,33.84
654,604913296,0.1465,-0.5576,1.0234,83.78,226.34,36.95
655,604918296,0.0771,-0.5630,1.1392,85.98,223.90,40.24
656,604923349,0.0664,-0.5957,1.1440,87.62,220.98,43.78
657,604928296,0.0259,-0.6421,1.1831,88.78,217.26,47.26
658,604933297,0.0269,-0.6680,1.2856,90.12,213.66,51.04
659,604938296,-0.0410,-0.6694,1.2832,92.87,208.29,55.24
660,604943296,0.0591,-0.6509,1.3511,95.85,204.15,58.17
661,604948296,0.0566,-0.6685,1.4077,99.15,199.02,61.34
662,604953296,0.1313,-0.7056,1.4883,102.32,193.48,64.70
663,604958458,0.1748,-0.7031,1.5483,105.18,186.65,68.72
664,604963478,0.1191,-0.7188,1.5996,107.07,180.24,72.13
665,604968296,0.1162,-0.7417,1.5923,108.05,174.51,74.88
666,604973767,0.0278,-0.7480,1.6846,109.45,165.30,79.02
667,604978296,0.0181,-0.7729,1.7256,109.57,158.90,81.95
668,604983295,0.0278,-0.7920,1.7583,108.84,150.37,86.28
669,604988297,0.0439,-0.8052,1.8281,107.01,141.28,88.23
670,604993296,0.0718,-0.7993,1.9004,104.39,131.77,92.01
671,604998296,0.0356,-0.7988,1.9585,101.52,121.83,95.49
672,605003295,0.0732,-0.7959,1.9741,98.72,111.40,98.84
673,605008526,-0.0029,-0.7935,2.0981,96.16,98.35,102.87
674,605013296,0.0015,-0.8271,2.1973,93.41,86.65,106.10
675,605018296,-0.0098,-0.8672,2.1929,91.22,78.72,108.60
676,605023296,-0.0400,-0.8755,2.2744,89.63,66.95,111.65
677,605028746,-0.0425,-0.9619,2.3657,89.57,52.80,115.43
678,605033296,-0.0571,-0.9233,2.3716,90.43,43.05,118.11
679,605038298,-0.0405,-0.9634,2.4121,93.60,28.23,121.59
680,605043294,-0.0796,-0.9707,2.4961,95.73,18.11,124.09
681,605048294,-0.1108,-0.9995,2.5435,99.33,5.49,127.26
682,605053294,-0.1353,-1.0342,2.5415,103.72,-7.50,130.49
683,605058294,-0.1284,-1.0596,2.5742,109.21,-20.85,133.84
684,605063294,-0.1230,-1.0869,2.6152,116.95,-37.38,137.93
685,605068296,-0.0405,-1.1167,2.6084,124.39,-50.98,141.46
686,605073296,-0.2246,-1.1309,2.6528,131.65,-64.82,145.06
687,605078296,-0.2529,-1.1445,2.6772,137.87,-78.48,148.54
688,605083294,-0.2676,-1.1543,2.6538,142.93,-92.62,152.01
689,605088294,-0.2822,-1.1714,2.6177,147.74,-106.77,155.37
690,605093294,-0.2783,-1.1807,2.6006,151.89,-121.10,158.72
691,605098294,-0.2197,-1.2397,2.6650,156.71,-135.12,162.13
692,605103393,-0.4800,-1.2383,2.5552,160.61,-149.09,165.55
693,605108296,-0.4751,-1.2026,2.4868,161.83,-163.60,168.48
694,605113320,-0.4102,-1.1597,2.5078,161.71,-177.50,170.61
695,605118298,-0.4448,-1.1655,2.4614,160.55,-191.40,172.32
696,605123296,-0.4175,-1.1846,2.2920,158.41,-205.37,174.21
697,605128296,-0.4746,-1.2251,2.3896,156.95,-218.96,176.04
698,605133296,-0.6699,-1.2197,2.3369,153.35,-231.22,177.68
699,605138298,-0.6167,-1.1860,2.1875,147.38,-244.09,178.54
700,605143296,-0.5454,-1.1479,2.1343,140.49,-257.07,178.54
701,605148296,-0.5767,-1.1401,2.1338,133.72,-269.27,178.17
702,605153296,-0.6270,-1.1553,2.0273,127.99,-281.40,177.44
703,605158296,-0.6553,-1.1768,1.9087,121.10,-293.66,176.46
704,605163298,-0.6626,-1.1841,1.8462,115.00,-305.61,175.24
705,605168296,-0.6729,-1.1953,1.7842,109.33,-317.13,173.72
706,605173720,-0.7061,-1.2153,1.6602,103.66,-328.35,172.07
707,605178296,-0.7310,-1.2280,1.5415,97.74,-339.45,170.24
708,605183296,-0.7407,-1.2407,1.4570,91.16,-350.00,168.29
709,605188296,-0.7378,-1.2510,1.3374,84.02,-360.24,166.22
710,605193295,-0.7417,-1.2505,1.1841,75.91,-370.18,164.09
711,605198769,-0.7480,-1.2642,1.0479,66.89,-379.63,161.77
712,605203296,-0.7495,-1.2808,0.9282,56.77,-388.78,159.51
713,605208295,-0.7515,-1.2896,0.7612,45.43,-397.38,157.01
714,605213296,-0.7534,-1.3027,0.5986,33.41,-405.55,154.33
715,605218296,-0.7563,-1.3062,0.4614,20.37,-412.44,151.22
716,605223296,-0.7593,-1.2983,0.3188,6.71,-418.29,147.32
717,605228727,-0.7534,-1.2681,0.1914,-7.20,-422.38,142.44
718,605233296,-0.7681,-1.2036,0.1279,-21.22,-423.29,135.98
719,605238295,-0.7632,-1.1157,0.1011,-34.63,-419.94,127.07
720,605243298,-0.7090,-1.0874,-0.0527,-45.49,-412.13,116.28
721,605248296,-0.7266,-1.1753,-0.2896,-53.29,-401.95,104.57
722,605253296,-0.7822,-1.2690,-0.5063,-57.26,-391.95,93.84
723,605258296,-0.7817,-1.2993,-0.7236,-57.74,-382.68,84.70
724,605263295,-0.7051,-1.2446,-0.8799,-55.73,-373.66,76.10
725,605268294,-0.6865,-1.1626,-0.9707,-51.65,-363.66,67.56
726,605273294,-0.6323,-1.1055,-1.0669,-45.79,-352.44,58.96
727,605278294,-0.6123,-1.1133,-1.1704,-38.72,-340.43,50.79
728,605283294,-0.6123,-1.1182,-1.2363,-31.10,-327.56,43.11
729,605288294,-0.5845,-1.0942,-1.3530,-23.90,-313.96,36.04
730,605293295,-0.5806,-1.0879,-1.4453,-17.07,-299.63,29.45
731,605298298,-0.5596,-1.0928,-1.4888,-10.85,-284.09,23.48
732,605303295,-0.5479,-1.1011,-1.5317,-5.30,-268.05,18.23
733,605308296,-0.5078,-1.1035,-1.5679,-0.06,-251.40,13.48
734,605313731,-0.3760,-1.1094,-1.6055,7.01,-231.28,8.60
735,605318296,-0.4409,-1.0767,-1.5728,12.62,-217.93,5.79
736,605323295,-0.4019,-1.0742,-1.5493,20.18,-201.46,2.56
737,605328295,-0.3081,-1.0708,-1.5391,27.99,-185.43,-0.18
738,605333294,-0.2529,-1.0464,-1.4927,35.79,-170.12,-2.56
739,605338294,-0.2148,-1.0303,-1.4214,43.41,-155.06,-4.70
740,605343294,-0.1704,-1.0024,-1.3838,50.49,-140.91,-6.46
741,605348294,-0.1074,-0.9785,-1.3369,56.77,-127.62,-8.17
742,605353294,-0.0718,-0.9648,-1.2788,61.83,-115.06,-9.76
743,605358294,-0.0347,-0.9487,-1.2168,65.61,-103.54,-11.16
744,605363294,0.0005,-0.9312,-1.1685,67.74,-92.62,-12.50
745,605368295,0.0356,-0.9058,-1.1118,68.17,-82.50,-13.78
746,605373294,0.0718,-0.8955,-1.0659,67.20,-73.35,-15.00
747,605378294,0.1108,-0.8838,-1.0137,65.24,-64.57,-16.22
748,605383294,0.1465,-0.8789,-0.9648,62.44,-56.89,-17.13
749,605388294,0.1631,-0.8691,-0.9165,58.72,-49.94,-17.80
750,605393294,0.1982,-0.8594,-0.8740,54.51,-43.84,-18.35
751,605398294,0.2422,-0.8447,-0.8145,49.76,-38.66,-18.54
752,605403294,0.2686,-0.8315,-0.7686,44.76,-33.96,-18.48
753,605408294,0.2886,-0.8218,-0.7119,39.63,-30.06,-18.23
754,605413463,0.3066,-0.8135,-0.6699,34.70,-26.65,-17.80
755,605418435,0.3359,-0.8047,-0.6245,30.00,-23.90,-16.89
756,605423295,0.3687,-0.7969,-0.5874,25.91,-21.59,-15.85
757,605428296,0.4019,-0.7983,-0.5552,22.38,-19.63,-14.45
758,605433296,0.4233,-0.7993,-0.5195,19.76,-18.05,-12.74
759,605438296,0.4360,-0.7979,-0.4932,17.68,-16.65,-10.79
760,605443298,0.4658,-0.7935,-0.4658,16.10,-14.94,-8.66
761,605448296,0.4736,-0.7974,-0.4409,14.94,-13.48,-6.16
762,605453743,0.5078,-0.7993,-0.4106,13.84,-11.22,-3.05
763,605458296,0.5068,-0.8145,-0.3916,13.35,-9.57,-0.73
764,605463296,0.5269,-0.8184,-0.3633,12.80,-7.44,2.26
765,605468599,0.5400,-0.8223,-0.3311,12.56,-4.94,5.85
766,605473296,0.5615,-0.8296,-0.3120,12.26,-3.17,8.41
767,605478296,0.5693,-0.8301,-0.2910,12.13,-1.22,11.34
768,605483298,0.5752,-0.8428,-0.2607,12.07,0.79,14.88
769,605488568,0.5664,-0.8550,-0.2422,12.01,2.32,17.74
770,605493296,0.5923,-0.8555,-0.2163,11.95,3.35,19.88
771,605498296,0.5967,-0.8628,-0.1875,11.71,4.88,22.93
772,605503296,0.6060,-0.8687,-0.1875,11.16,5.98,25.24
773,605508296,0.6123,-0.8755,-0.1670,10.37,6.95,27.38
774,605513298,0.6133,-0.8818,-0.1533,9.15,7.62,29.21
775,605518295,0.6182,-0.8882,-0.1396,7.56,8.35,30.85
776,605523296,0.6328,-0.8892,-0.1299,5.49,9.09,32.38
777,605528390,0.6357,-0.8945,-0.1260,3.23,10.06,33.66
778,605533295,0.6421,-0.9058,-0.1201,0.79,10.67,34.70
779,605538294,0.6519,-0.9087,-0.1108,-1.77,11.65,35.55
780,605543294,0.6572,-0.9141,-0.1099,-4.27,12.38,36.16
781,605548294,0.6558,-0.9214,-0.0952,-6.46,13.05,36.71
782,605553294,0.6597,-0.9287,-0.0874,-8.72,13.78,37.01
783,605558294,0.6782,-0.9316,-0.0835,-10.30,14.45,37.20
784,605563303,0.6631,-0.9482,-0.0811,-11.89,14.94,37.07
785,605568789,0.6670,-0.9561,-0.0728,-13.35,15.18,37.01
786,605573296,0.6689,-0.9639,-0.0649,-14.63,15.49,36.83
787,605578296,0.6772,-0.9736,-0.0605,-15.73,15.61,36.52
788,605583296,0.6748,-0.9834,-0.0474,-16.83,15.55,36.22
789,605588296,0.6792,-0.9912,-0.0459,-17.80,15.43,35.79
790,605593296,0.6782,-0.9980,-0.0366,-18.72,15.24,35.24
791,605598296,0.6548,-1.0015,-0.0420,-19.57,15.00,34.70
792,605603295,0.6694,-0.9985,-0.0381,-20.37,14.82,33.96
793,605608296,0.6572,-1.0015,-0.0415,-21.10,14.45,33.11
794,605613295,0.6504,-1.0010,-0.0415,-21.77,13.96,32.07
795,605618296,0.6440,-0.9961,-0.0508,-22.38,13.66,30.98
796,605623296,0.6309,-0.9966,-0.0493,-22.74,13.29,29.76
797,605628296,0.6274,-0.9990,-0.0503,-22.99,12.87,28.60
798,605633296,0.6060,-0.9971,-0.0645,-23.17,12.38,27.32
799,605638296,0.5928,-0.9985,-0.0620,-23.29,11.89,26.10
800,605643296,0.5864,-0.9907,-0.0679,-23.11,11.22,24.88
801,605648295,0.5723,-0.9868,-0.0684,-23.11,10.85,23.35
802,605653297,0.5635,-0.9814,-0.0659,-23.11,10.55,21.95
803,605658296,0.5532,-0.9883,-0.0630,-23.35,10.43,20.37
804,605663295,0.5322,-0.9854,-0.0596,-23.48,10.37,18.84
805,605668436,0.5381,-0.9834,-0.0586,-23.84,10.30,17.44
806,605673294,0.5171,-0.9888,-0.0664,-24.33,10.49,16.16
807,605678294,0.5103,-0.9795,-0.0615,-25.12,10.85,14.88
808,605683294,0.5205,-0.9712,-0.0625,-26.10,11.22,13.66
809,605688294,0.5200,-0.9785,-0.0615,-27.07,11.59,12.44
810,605693294,0.5083,-0.9644,-0.0620,-28.11,12.01,11.52
811,605698294,0.5117,-0.9629,-0.0679,-28.66,12.44,10.79
812,605703295,0.4917,-0.9536,-0.0547,-28.84,13.05,10.00
813,605708297,0.4873,-0.9492,-0.0386,-28.90,13.35,9.45
814,605713296,0.4858,-0.9399,-0.0332,-28.72,13.66,9.09
815,605718540,0.4829,-0.9375,-0.0278,-28.54,14.02,8.84
816,605723299,0.4814,-0.9438,-0.0161,-28.05,14.21,8.54
817,605728296,0.4912,-0.9326,-0.0029,-27.56,14.15,8.54
818,605733296,0.4722,-0.8872,-0.0166,-26.83,14.09,8.29
819,605738297,0.4463,-0.8892,0.0000,-25.85,14.09,8.41
820,605743295,0.4248,-0.9009,0.0195,-25.00,14.09,8.48
821,605748294,0.4600,-0.8979,0.0283,-24.21,13.78,8.84
822,605753294,0.4751,-0.9038,0.0410,-23.05,13.54,8.90
823,605758294,0.4692,-0.8989,0.0220,-22.07,13.35,9.33
824,605763419,0.4932,-0.8770,0.0356,-21.04,13.23,9.63
825,605768297,0.4946,-0.9731,0.0562,-20.49,13.23,10.06
826,605773600,0.4629,-0.9541,-0.0400,-23.23,12.99,11.16
827,605778769,0.4170,-0.9092,-0.0493,-28.66,12.87,11.40
828,605783296,0.4175,-0.8569,-0.0430,-32.50,12.87,11.34
829,605788296,0.4390,-0.8242,0.0117,-37.62,13.72,11.16
830,605793296,0.4517,-0.8193,-0.0015,-42.38,14.51,11.16
831,605798296,0.4297,-0.8276,-0.0278,-47.93,15.12,11.34
832,605803296,0.3833,-0.8340,-0.0186,-51.40,15.55,11.59
833,605808296,0.3755,-0.8389,0.0044,-55.61,16.16,11.95
834,605813296,0.3701,-0.8389,0.0010,-59.82,17.01,12.38
835,605818296,0.3569,-0.8452,-0.0215,-62.26,17.68,12.87
836,605823296,0.3384,-0.8491,-0.0093,-64.82,18.35,13.41
837,605828765,0.3188,-0.8359,-0.0029,-68.05,19.57,13.78
838,605833296,0.3228,-0.8530,-0.0542,-70.43,20.30,14.39
839,605838296,0.3169,-0.8237,-0.0669,-73.05,21.22,14.94
840,605843296,0.3096,-0.8022,-0.0337,-75.61,22.50,15.49
841,605848296,0.2964,-0.8027,-0.0518,-77.99,23.96,16.22
842,605853296,0.2910,-0.7988,-0.0894,-80.18,25.12,16.83
843,605858701,0.2817,-0.7866,-0.1030,-82.80,26.95,17.68
844,605863296,0.2798,-0.7954,-0.0801,-84.51,28.23,18.17
845,605868296,0.2676,-0.7837,-0.1201,-86.34,29.94,18.96
846,605873296,0.2705,-0.7705,-0.1479,-87.99,31.59,19.63
847,605878296,0.2598,-0.7549,-0.1401,-88.78,33.11,20.18
848,605883296,0.2676,-0.7588,-0.1357,-89.76,34.94,20.79
849,605888296,0.2749,-0.7544,-0.1533,-90.43,36.95,21.52
850,605893296,0.2690,-0.7583,-0.1694,-90.67,38.35,22.07
851,605898296,0.2671,-0.7612,-0.1587,-91.10,40.18,22.68
852,605903296,0.2617,-0.7612,-0.1592,-91.28,42.01,23.29
853,605908296,0.2583,-0.7534,-0.1709,-91.46,44.02,24.09
854,605913296,0.2627,-0.7480,-0.1816,-91.59,45.30,24.70
855,605918502,0.2412,-0.7427,-0.1748,-91.95,47.32,25.49
856,605923296,0.2588,-0.7490,-0.1548,-92.80,48.78,26.34
857,605928377,0.2891,-0.7310,-0.1709,-94.02,50.30,27.56
858,605933551,0.3130,-0.7173,-0.1704,-95.00,52.01,28.41
859,605938296,0.3096,-0.7231,-0.1675,-95.98,53.35,29.45
860,605943296,0.2876,-0.7354,-0.1606,-97.13,54.94,30.61
861,605948295,0.2920,-0.7300,-0.1787,-98.29,56.16,31.77
862,605953294,0.2915,-0.7310,-0.1719,-99.57,57.38,32.80
863,605958294,0.2827,-0.7251,-0.1724,-101.22,58.78,34.21
864,605963294,0.2954,-0.7295,-0.1592,-103.23,60.12,35.91
865,605968294,0.2954,-0.7319,-0.1768,-105.00,61.59,37.56
866,605973295,0.2852,-0.7324,-0.1655,-106.83,62.74,39.33
867,605978297,0.2969,-0.7271,-0.1636,-108.66,63.96,41.10
868,605983294,0.2842,-0.7280,-0.1665,-110.37,65.18,42.93
869,605988294,0.2778,-0.7349,-0.1733,-111.95,66.40,45.06
870,605993294,0.2861,-0.7305,-0.1670,-113.41,67.44,47.13
871,605998294,0.2534,-0.7339,-0.1675,-114.70,68.90,49.09
872,606003294,0.2578,-0.7300,-0.1709,-115.85,70.00,51.40
873,606008294,0.2559,-0.7266,-0.1719,-116.65,71.16,53.54
874,606013294,0.2334,-0.7349,-0.1641,-117.62,72.20,55.85
875,606019148,0.2456,-0.7271,-0.1650,-118.23,73.41,58.17
876,606023297,0.2227,-0.7319,-0.1772,-119.02,74.45,60.55
877,606028296,0.2163,-0.7324,-0.1694,-119.63,75.49,62.99
878,606033297,0.2080,-0.7271,-0.1709,-120.12,76.46,65.49
879,606038294,0.2134,-0.7231,-0.1738,-120.37,77.38,67.93
880,606043297,0.1870,-0.7227,-0.1709,-120.67,78.11,70.49
881,606048300,0.1890,-0.7178,-0.1694,-120.73,79.15,72.93
882,606053296,0.1592,-0.7231,-0.1748,-120.73,79.63,75.43
883,606058296,0.1675,-0.7192,-0.1792,-120.61,80.49,77.80
884,606063297,0.1465,-0.7212,-0.1787,-120.49,80.98,80.43
885,606068296,0.1440,-0.7153,-0.1807,-120.30,81.52,82.93
886,606073297,0.1377,-0.7158,-0.1797,-120.18,82.56,85.91
887,606078296,0.1265,-0.7271,-0.1812,-120.24,82.80,88.11
888,606083296,0.1025,-0.7319,-0.1821,-120.49,83.54,89.88
889,606088296,0.1064,-0.7368,-0.1816,-120.98,84.76,92.50
890,606093296,0.0903,-0.7422,-0.1880,-121.71,83.72,95.18
891,606098296,0.0645,-0.7661,-0.1973,-122.56,85.43,97.93
892,606103296,0.0747,-0.7744,-0.2002,-123.72,85.67,100.98
893,606108296,0.0615,-0.7896,-0.2021,-125.06,85.73,104.21
894,606113296,0.0386,-0.8125,-0.2061,-126.52,85.67,107.44
895,606118296,0.0566,-0.8164,-0.2036,-127.87,85.67,111.04
896,606123296,0.0278,-0.8262,-0.2026,-129.15,85.67,114.63
897,606128296,0.0396,-0.8330,-0.2036,-130.06,85.67,118.41
898,606133296,0.0259,-0.8369,-0.2114,-130.55,85.61,122.20
899,606138384,0.0352,-0.8389,-0.2075,-130.61,85.61,126.04
900,606143297,0.0137,-0.8438,-0.2109,-130.18,85.55,129.82
901,606148296,0.0229,-0.8364,-0.2075,-129.02,85.61,133.66
902,606153296,0.0146,-0.8359,-0.2139,-127.38,85.55,137.44
903,606158296,0.0176,-0.8330,-0.2109,-124.94,85.55,141.16
904,606163296,-0.0181,-0.8315,-0.2202,-121.65,85.55,144.88
905,606168294,-0.0171,-0.8223,-0.2202,-117.74,85.55,148.29
906,606173294,-0.0142,-0.8135,-0.2275,-112.99,85.55,151.89
907,606178294,-0.0269,-0.8096,-0.2285,-107.62,85.49,155.12
908,606183294,-0.0391,-0.8037,-0.2329,-101.52,85.49,158.35
909,606188341,-0.0654,-0.7969,-0.2354,-94.76,85.55,161.40
910,606193296,-0.0728,-0.7822,-0.2417,-87.68,85.55,164.02
911,606198386,-0.0811,-0.7725,-0.2407,-80.30,85.55,166.65
912,606203620,-0.1113,-0.7622,-0.2510,-72.68,85.67,169.15
913,606208296,-0.1206,-0.7642,-0.2651,-65.06,85.61,171.40
914,606213296,-0.1206,-0.7539,-0.2612,-57.68,85.61,173.54
915,606218297,-0.1348,-0.7671,-0.2642,-50.61,85.67,175.55
916,606223296,-0.1538,-0.7686,-0.2681,-44.33,85.73,177.32
917,606228296,-0.1733,-0.7866,-0.2720,-38.78,85.73,179.15
918,606233296,-0.1802,-0.7920,-0.2725,-34.27,85.79,181.22
919,606238296,-0.1934,-0.8047,-0.2783,-30.67,86.22,183.11
920,606243296,-0.2070,-0.8184,-0.2793,-27.74,87.87,185.00
921,606248296,-0.2227,-0.8232,-0.2700,-25.73,89.82,187.07
922,606253383,-0.2407,-0.8237,-0.2686,-24.39,91.40,189.02
923,606258294,-0.2339,-0.8159,-0.2695,-23.41,93.05,190.79
924,606263298,-0.2656,-0.8169,-0.2686,-22.62,94.63,192.62
925,606268296,-0.2588,-0.8135,-0.2686,-22.01,96.04,194.21
926,606273296,-0.2715,-0.7954,-0.2681,-21.34,97.50,195.67
927,606278296,-0.2803,-0.7896,-0.2695,-20.73,98.90,197.01
928,606283296,-0.2954,-0.7842,-0.2690,-20.06,100.00,198.23
929,606288295,-0.2900,-0.7681,-0.2632,-19.02,101.22,199.63
930,606293294,-0.2871,-0.7666,-0.2769,-18.17,102.20,200.79
931,606298294,-0.2920,-0.7739,-0.2754,-17.32,102.87,202.07
932,606303385,-0.3174,-0.7891,-0.2900,-16.40,103.35,203.29
933,606308455,-0.3467,-0.8027,-0.2920,-15.67,103.72,204.63
934,606313297,-0.3555,-0.8184,-0.2915,-15.37,104.27,205.61
935,606318296,-0.3867,-0.8369,-0.3013,-15.18,104.88,207.20
936,606323296,-0.4175,-0.8652,-0.3071,-15.12,105.30,208.29
937,606328296,-0.4141,-0.8760,-0.3193,-14.88,106.04,209.51
938,606333296,-0.4487,-0.9194,-0.3218,-14.57,106.65,210.85
939,606338295,-0.4600,-0.9370,-0.3242,-14.02,107.50,212.44
940,606343297,-0.5034,-0.9692,-0.3286,-12.80,108.60,213.90
941,606348296,-0.5376,-0.9883,-0.3350,-10.85,109.63,215.67
942,606353296,-0.5420,-0.9912,-0.3340,-7.44,111.04,217.50
943,606358296,-0.5762,-1.0010,-0.3345,-3.41,112.32,219.02
944,606363298,-0.5752,-0.9912,-0.3345,1.83,113.66,220.24
945,606368296,-0.5811,-0.9805,-0.3281,8.11,115.00,221.34
946,606373294,-0.5708,-0.9736,-0.3237,14.02,115.98,222.07
947,606378294,-0.5933,-0.9683,-0.3242,23.72,117.50,223.29
948,606383294,-0.6104,-0.9473,-0.3286,32.44,118.66,224.15
949,606388294,-0.6562,-0.9424,-0.3291,41.28,119.82,224.51
950,606393294,-0.6626,-0.9351,-0.3281,49.88,120.85,224.70
951,606398294,-0.6670,-0.9409,-0.3193,57.68,121.95,224.70
952,606403294,-0.6768,-0.9414,-0.3169,64.45,123.23,224.15
953,606408294,-0.6699,-0.9404,-0.3062,70.43,124.63,223.54
954,606413294,-0.6948,-0.9438,-0.3013,75.24,126.34,222.44
955,606418294,-0.6978,-0.9346,-0.2974,79.45,127.93,221.22
956,606423294,-0.7046,-0.9360,-0.2974,82.99,129.82,219.76
957,606428294,-0.7212,-0.9302,-0.2974,85.85,131.34,218.05
958,606433294,-0.7275,-0.9316,-0.2974,87.74,133.11,216.16
959,606438294,-0.7329,-0.9424,-0.3042,89.27,134.57,214.15
960,606443294,-0.7407,-0.9473,-0.3013,90.18,136.16,212.07
961,606448294,-0.7666,-0.9541,-0.3057,90.61,137.87,209.82
962,606453294,-0.7983,-0.9668,-0.2959,90.67,139.76,207.50
963,606458294,-0.8179,-0.9717,-0.2896,90.61,141.46,204.94
964,606463352,-0.8223,-0.9727,-0.2915,90.24,143.29,202.32
965,606468452,-0.8101,-0.9683,-0.2871,89.76,145.06,199.88
966,606473366,-0.8042,-0.9634,-0.2847,89.51,146.59,197.07
967,606478706,-0.8164,-0.9644,-0.2910,89.21,147.99,194.33
968,606483298,-0.8257,-0.9619,-0.2866,88.96,149.02,191.40
969,606488296,-0.8281,-0.9668,-0.2856,88.11,150.18,188.48
970,606493296,-0.8174,-0.9619,-0.2739,86.83,150.85,185.61
971,606498296,-0.8169,-0.9590,-0.2671,85.12,151.52,182.50
972,606503296,-0.8145,-0.9604,-0.2637,82.99,151.71,179.57
973,606508296,-0.8076,-0.9531,-0.2583,80.49,151.71,176.46
974,606513296,-0.8032,-0.9546,-0.2603,77.68,151.40,173.54
975,606518296,-0.8091,-0.9688,-0.2671,74.45,150.91,170.67
976,606523296,-0.8188,-0.9302,-0.2354,71.16,150.24,167.68
977,606528296,-0.8276,-0.9360,-0.2271,67.87,150.00,164.09
978,606533296,-0.8384,-0.9395,-0.2432,64.63,149.57,160.67
979,606538296,-0.8291,-0.9399,-0.2515,61.59,148.66,157.44
980,606543295,-0.8281,-0.9395,-0.2368,58.66,147.99,154.15
981,606548294,-0.8267,-0.9370,-0.2344,56.22,147.13,150.85
982,606553296,-0.8301,-0.9351,-0.2437,54.33,146.28,147.74
983,606558301,-0.8345,-0.9326,-0.2466,52.68,145.18,144.51
984,606563296,-0.8330,-0.9219,-0.2300,51.71,144.09,141.59
985,606568298,-0.8262,-0.9229,-0.2246,51.52,143.05,138.66
986,606573296,-0.8335,-0.9189,-0.2378,51.40,141.89,136.04
987,606578295,-0.8403,-0.9150,-0.2344,51.65,140.79,133.41
988,606583294,-0.8467,-0.9126,-0.2246,52.20,139.51,130.85
989,606588294,-0.8442,-0.9033,-0.2329,52.50,138.29,128.48
990,606593294,-0.8398,-0.8960,-0.2280,53.17,137.01,125.98
991,606598294,-0.8335,-0.8916,-0.2251,53.90,135.61,123.90
992,606603297,-0.8369,-0.8867,-0.2217,54.57,134.33,121.65
993,606608375,-0.8325,-0.8784,-0.2202,55.30,132.93,119.76
994,606613296,-0.8218,-0.8677,-0.2173,56.22,131.22,117.38
995,606618298,-0.8208,-0.8604,-0.2197,57.01,129.82,116.10
996,606623295,-0.8159,-0.8530,-0.2168,57.80,128.35,114.45
997,606628298,-0.8164,-0.8423,-0.2197,58.66,126.65,113.05
998,606633296,-0.8198,-0.8418,-0.2173,59.45,125.18,111.59
999,606638296,-0.8164,-0.8398,-0.2158,60.43,123.41,110.37
1000,606643295,-0.8120,-0.8345,-0.2114,61.16,121.65,109.45
1001,606648298,-0.8193,-0.8364,-0.2134,62.13,120.06,108.48
1002,606653296,-0.8262,-0.8291,-0.2148,63.11,118.35,107.56
1003,606658296,-0.8223,-0.8252,-0.2109,64.15,116.77,106.77
1004,606663295,-0.8232,-0.8203,-0.2095,64.82,115.30,105.98
1005,606668295,-0.8213,-0.8110,-0.2095,65.67,113.90,105.24
1006,606673294,-0.8271,-0.8066,-0.2036,66.77,112.38,104.45
1007,606678294,-0.8232,-0.8008,-0.1914,68.05,111.16,103.72
1008,606683294,-0.8174,-0.7974,-0.1958,69.33,109.94,103.11
1009,606688568,-0.8232,-0.7896,-0.1860,71.22,108.48,102.13
1010,606693297,-0.8193,-0.7866,-0.1841,72.32,107.56,101.59
1011,606698296,-0.8110,-0.7822,-0.1792,74.27,106.10,100.79
1012,606703296,-0.8003,-0.7754,-0.1763,75.67,105.24,100.18
1013,606708295,-0.7964,-0.7700,-0.1743,77.62,104.21,99.39
1014,606713298,-0.7944,-0.7661,-0.1714,79.51,103.11,98.60
1015,606718296,-0.7871,-0.7612,-0.1646,81.65,101.89,97.87
1016,606723296,-0.7896,-0.7612,-0.1611,83.84,100.79,97.26
1017,606728296,-0.7920,-0.7573,-0.1558,86.04,99.76,96.40
1018,606733295,-0.7803,-0.7539,-0.1519,88.35,98.60,95.73
1019,606738296,-0.7837,-0.7500,-0.1460,90.49,97.26,94.88
1020,606743296,-0.7788,-0.7471,-0.1401,92.50,96.16,94.21
1021,606748296,-0.7769,-0.7432,-0.1357,94.63,94.94,93.29
1022,606753296,-0.7832,-0.7402,-0.1294,96.16,93.72,92.62
1023,606758296,-0.7715,-0.7393,-0.1270,97.93,92.56,91.83
1024,606763296,-0.7632,-0.7378,-0.1172,99.70,91.10,90.91
1025,606768327,-0.7607,-0.7305,-0.1123,100.67,89.88,90.30
1026,606773298,-0.7603,-0.7261,-0.1079,101.77,88.35,89.27
1027,606778302,-0.7622,-0.7334,-0.1011,102.62,86.16,89.09
1028,606783295,-0.7563,-0.7324,-0.1021,103.41,85.24,87.07
1029,606788377,-0.7485,-0.7295,-0.0967,103.96,85.24,86.77
1030,606793750,-0.7515,-0.7314,-0.0889,104.27,83.66,86.77
1031,606798296,-0.7456,-0.7241,-0.0859,104.15,82.13,86.71
1032,606803296,-0.7393,-0.7222,-0.0781,103.96,80.24,86.10
1033,606808296,-0.7324,-0.7031,-0.0708,103.54,78.54,85.12
1034,606813296,-0.7236,-0.7104,-0.0708,102.87,76.65,83.72
1035,606818296,-0.7222,-0.7251,-0.0762,101.83,74.70,83.05
1036,606823760,-0.7163,-0.6934,-0.0420,100.00,72.38,82.20
1037,606828296,-0.7188,-0.6753,-0.0391,98.96,70.79,81.40
1038,606833296,-0.7212,-0.6670,-0.0464,97.50,68.41,80.00
1039,606838296,-0.7158,-0.6826,-0.0347,96.16,66.46,78.96
1040,606843295,-0.6978,-0.7041,-0.0303,94.57,64.15,77.93
1041,606848296,-0.6899,-0.7046,-0.0361,92.62,61.89,77.13
1042,606853298,-0.6963,-0.6826,-0.0269,90.67,59.51,76.16
1043,606858396,-0.6968,-0.6724,-0.0107,88.54,57.26,75.18
1044,606863295,-0.7026,-0.6724,-0.0122,86.46,54.94,73.84
1045,606868295,-0.7031,-0.6758,-0.0107,84.15,52.32,72.74
1046,606873294,-0.7017,-0.6802,-0.0122,81.65,49.94,71.65
1047,606878294,-0.6997,-0.6836,-0.0010,79.27,47.38,70.49
1048,606883294,-0.6982,-0.6890,-0.0054,76.65,44.76,69.45
1049,606888294,-0.7085,-0.6958,-0.0112,74.09,42.13,68.35
1050,606893294,-0.7085,-0.6963,-0.0088,71.28,39.39,67.32
1051,606898294,-0.7095,-0.6914,0.0034,68.66,36.71,66.40
1052,606903294,-0.7075,-0.6846,0.0093,65.73,33.96,65.18
1053,606908297,-0.7153,-0.6792,0.0044,63.17,31.10,63.90
1054,606913299,-0.7139,-0.6855,0.0117,60.49,28.41,62.74
1055,606918714,-0.7148,-0.6899,0.0127,58.05,25.79,61.40
1056,606923296,-0.7222,-0.7017,0.0039,55.49,23.11,60.18
1057,606928411,-0.7222,-0.7036,0.0063,53.05,20.18,58.96
1058,606933296,-0.7271,-0.6953,0.0068,50.55,17.20,57.62
1059,606938296,-0.7319,-0.6875,0.0112,48.23,14.57,56.28
1060,606943296,-0.7368,-0.6846,0.0132,46.16,11.77,54.57
1061,606948295,-0.7368,-0.6846,0.0137,43.90,9.09,53.05
1062,606953758,-0.7368,-0.6934,0.0225,41.89,6.46,51.34
1063,606958296,-0.7314,-0.6973,0.0117,39.82,3.78,49.63
1064,606963296,-0.7393,-0.6968,0.0112,37.93,1.10,47.99
1065,606968779,-0.7495,-0.7080,0.0044,35.85,-1.34,46.34
1066,606973296,-0.7461,-0.7056,0.0083,33.96,-3.96,44.70
1067,606978296,-0.7480,-0.7041,0.0078,32.01,-6.65,42.99
1068,606983298,-0.7471,-0.7065,0.0112,29.94,-9.09,41.22
1069,606988711,-0.7534,-0.7080,0.0039,27.93,-11.52,39.45
1070,606993296,-0.7661,-0.7124,0.0059,25.79,-13.84,37.62
1071,606998296,-0.7603,-0.7139,0.0054,23.78,-16.34,35.79
1072,607003296,-0.7617,-0.7119,-0.0010,21.46,-18.60,33.90
1073,607008296,-0.7686,-0.7173,-0.0010,19.21,-20.73,32.07
1074,607013296,-0.7661,-0.7188,-0.0059,16.65,-23.11,30.24
1075,607018296,-0.7622,-0.7207,0.0000,14.21,-25.30,28.41
1076,607023296,-0.7671,-0.7231,-0.0117,11.52,-27.50,26.59
1077,607028296,-0.7705,-0.7227,-0.0093,8.84,-29.57,24.88
1078,607033296,-0.7671,-0.7231,-0.0034,6.16,-31.59,23.11
1079,607038299,-0.7666,-0.7261,-0.0161,3.54,-33.60,21.28
1080,607043296,-0.7593,-0.7217,-0.0146,0.85,-35.67,19.51
1081,607048296,-0.7661,-0.7222,-0.0176,-1.71,-37.68,17.74
1082,607053296,-0.7612,-0.7207,-0.0220,-3.96,-39.45,16.04
1083,607058314,-0.7578,-0.7188,-0.0249,-6.34,-41.40,14.27
1084,607063334,-0.7666,-0.7183,-0.0278,-8.54,-43.11,12.56
1085,607068591,-0.7612,-0.7168,-0.0317,-10.61,-45.00,10.91
1086,607073459,-0.7627,-0.7202,-0.0337,-12.62,-46.95,9.27
1087,607078294,-0.7603,-0.7168,-0.0454,-14.33,-48.54,7.68
1088,607083294,-0.7549,-0.7168,-0.0386,-16.10,-50.12,5.91
1089,607088294,-0.7563,-0.7129,-0.0396,-17.68,-51.77,4.39
1090,607093352,-0.7612,-0.7158,-0.0439,-19.33,-53.35,2.80
1091,607098296,-0.7637,-0.7183,-0.0518,-20.98,-55.06,1.40
1092,607103440,-0.7627,-0.7144,-0.0635,-22.32,-56.59,-0.12
1093,607108382,-0.7588,-0.7178,-0.0659,-23.60,-58.11,-1.52
1094,607113304,-0.7622,-0.7178,-0.0601,-25.18,-59.57,-3.05
1095,607118320,-0.7593,-0.7168,-0.0659,-26.22,-60.79,-4.02
1096,607123296,-0.7642,-0.7168,-0.0732,-27.26,-62.01,-5.30
1097,607128301,-0.7603,-0.7148,-0.0771,-28.60,-63.54,-6.77
1098,607133296,-0.7642,-0.7153,-0.0835,-29.45,-64.45,-7.68
1099,607138296,-0.7632,-0.7168,-0.0879,-30.12,-65.67,-8.84
1100,607143618,-0.7632,-0.7114,-0.0835,-30.79,-66.77,-9.88
1101,607148296,-0.7651,-0.7080,-0.0957,-31.46,-67.68,-10.91
1102,607153294,-0.7646,-0.7080,-0.0903,-31.95,-68.60,-11.95
1103,607158298,-0.7681,-0.7100,-0.1006,-32.38,-69.63,-12.87
1104,607163295,-0.7598,-0.7061,-0.1069,-32.56,-70.67,-13.72
1105,607168296,-0.7559,-0.7026,-0.1094,-32.87,-71.34,-14.63
1106,607173296,-0.7563,-0.6978,-0.1187,-32.87,-72.32,-15.49
1107,607178294,-0.7607,-0.6938,-0.1230,-32.99,-72.99,-16.28
1108,607183294,-0.7671,-0.6968,-0.1299,-32.93,-73.54,-17.13
1109,607188295,-0.7612,-0.6953,-0.1240,-32.80,-74.27,-17.93
1110,607193294,-0.7622,-0.6890,-0.1333,-32.80,-74.94,-18.66
1111,607198297,-0.7695,-0.6914,-0.1357,-32.68,-75.55,-19.33
1112,607203298,-0.7661,-0.6880,-0.1377,-32.68,-75.91,-20.00
1113,607208296,-0.7700,-0.6938,-0.1460,-32.68,-76.52,-20.67
1114,607213296,-0.7671,-0.6875,-0.1504,-32.62,-76.83,-21.40
1115,607218296,-0.7642,-0.6880,-0.1567,-32.62,-76.95,-21.71
1116,607223296,-0.7666,-0.6826,-0.1597,-32.56,-77.13,-22.20
1117,607228296,-0.7700,-0.6821,-0.1582,-32.62,-77.44,-22.74
1118,607233333,-0.7720,-0.6826,-0.1641,-32.74,-77.32,-23.23
1119,607238451,-0.7734,-0.6763,-0.1680,-32.56,-77.44,-23.66
1120,607243296,-0.7661,-0.6748,-0.1694,-32.56,-77.50,-24.15
1121,607248296,-0.7695,-0.6724,-0.1694,-32.50,-77.44,-24.45
1122,607253295,-0.7666,-0.6714,-0.1812,-32.26,-77.26,-24.88
1123,607258296,-0.7651,-0.6719,-0.1758,-32.13,-77.07,-25.24
1124,607263296,-0.7578,-0.6685,-0.1792,-32.01,-76.95,-25.49
1125,607268296,-0.7651,-0.6714,-0.1826,-31.77,-76.71,-25.91
1126,607273554,-0.7544,-0.6660,-0.1899,-31.59,-76.28,-26.28
1127,607278785,-0.7578,-0.6650,-0.1836,-31.28,-75.91,-26.52
1128,607283407,-0.7515,-0.6621,-0.1914,-31.04,-75.55,-26.89
1129,607288474,-0.7500,-0.6616,-0.1904,-30.73,-75.06,-27.07
1130,607293294,-0.7461,-0.6567,-0.1885,-30.43,-74.70,-27.26
1131,607298294,-0.7490,-0.6553,-0.1909,-30.00,-74.27,-27.32
1132,607303294,-0.7480,-0.6519,-0.1904,-29.63,-73.72,-27.56
1133,607308294,-0.7397,-0.6519,-0.1987,-29.21,-73.29,-27.74
1134,607313294,-0.7427,-0.6445,-0.1997,-28.66,-72.68,-27.87
1135,607318296,-0.7358,-0.6431,-0.1982,-28.17,-72.07,-28.11
1136,607323296,-0.7393,-0.6426,-0.2061,-27.56,-71.40,-28.23
1137,607328296,-0.7412,-0.6445,-0.2070,-27.26,-70.61,-28.29
1138,607333296,-0.7207,-0.6318,-0.1997,-26.77,-70.12,-28.54
1139,607338296,-0.7295,-0.6396,-0.2134,-26.34,-69.45,-28.41
1140,607343512,-0.7271,-0.6353,-0.2095,-25.98,-68.72,-28.35
1141,607348296,-0.7129,-0.6318,-0.2109,-25.67,-68.11,-28.41
1142,607353299,-0.7202,-0.6304,-0.2104,-25.37,-67.44,-28.41
1143,607358296,-0.7100,-0.6304,-0.2046,-25.12,-66.71,-28.29
1144,607363296,-0.7061,-0.6284,-0.2114,-24.94,-66.16,-28.23
1145,607368296,-0.7065,-0.6265,-0.2114,-24.63,-65.30,-28.11
1146,607373296,-0.7046,-0.6221,-0.2231,-24.39,-64.39,-27.87
1147,607378296,-0.7012,-0.6172,-0.2197,-24.15,-63.78,-27.87
1148,607383797,-0.7061,-0.6196,-0.2202,-23.90,-63.29,-27.68
1149,607388296,-0.7026,-0.6157,-0.2192,-23.66,-62.44,-27.50
1150,607393298,-0.6919,-0.6191,-0.2153,-23.48,-61.71,-27.32
1151,607398296,-0.6948,-0.6118,-0.2168,-23.35,-60.85,-27.13
1152,607403296,-0.6899,-0.6118,-0.2231,-23.17,-60.00,-26.83
1153,607408297,-0.6904,-0.6123,-0.2178,-23.05,-59.27,-26.59
1154,607413296,-0.6865,-0.6118,-0.2222,-22.87,-58.35,-26.40
1155,607418567,-0.6812,-0.6094,-0.2202,-22.87,-57.50,-26.22
1156,607423296,-0.6787,-0.6030,-0.2236,-22.74,-56.71,-25.85
1157,607428294,-0.6792,-0.6060,-0.2212,-22.68,-55.79,-25.49
1158,607433294,-0.6846,-0.6050,-0.2280,-22.68,-54.82,-25.24
1159,607438294,-0.6772,-0.6030,-0.2188,-22.80,-53.96,-24.82
1160,607443294,-0.6714,-0.5962,-0.2207,-22.80,-52.99,-24.63
1161,607448294,-0.6748,-0.6030,-0.2227,-22.68,-52.01,-24.27
1162,607453294,-0.6748,-0.6001,-0.2217,-22.56,-51.04,-23.84
1163,607458294,-0.6699,-0.6016,-0.2261,-22.62,-50.00,-23.60
1164,607463294,-0.6694,-0.5986,-0.2246,-22.80,-48.96,-23.11
1165,607468294,-0.6748,-0.5952,-0.2241,-22.93,-47.99,-22.74
1166,607473294,-0.6646,-0.5962,-0.2178,-22.99,-47.01,-22.38
1167,607478294,-0.6704,-0.5957,-0.2227,-23.23,-46.22,-22.01
1168,607483294,-0.6616,-0.5996,-0.2261,-23.35,-45.06,-21.59
1169,607488294,-0.6636,-0.5947,-0.2251,-23.72,-43.90,-21.10
1170,607493294,-0.6494,-0.5918,-0.2231,-23.96,-42.87,-20.73
1171,607498294,-0.6533,-0.5933,-0.2275,-24.33,-41.71,-20.24
1172,607503294,-0.6533,-0.5967,-0.2251,-24.76,-40.61,-19.63
1173,607508294,-0.6401,-0.5933,-0.2266,-25.06,-39.57,-19.09
1174,607513344,-0.6416,-0.5903,-0.2197,-25.30,-38.48,-18.72
1175,607518294,-0.6479,-0.5947,-0.2256,-25.73,-37.32,-17.99
1176,607523294,-0.6445,-0.5938,-0.2290,-25.91,-36.22,-17.50
1177,607528294,-0.6338,-0.5913,-0.2285,-26.16,-34.94,-16.89
1178,607533294,-0.6455,-0.5928,-0.2227,-26.34,-33.96,-16.28
1179,607538294,-0.6460,-0.5947,-0.2319,-26.71,-32.62,-15.79
1180,607543298,-0.6372,-0.5957,-0.2314,-26.77,-31.59,-15.18
1181,607548512,-0.6392,-0.5957,-0.2246,-26.83,-30.37,-14.57
1182,607553558,-0.6382,-0.5986,-0.2285,-26.77,-29.09,-13.84
1183,607558296,-0.6333,-0.5938,-0.2285,-26.83,-27.80,-13.17
1184,607563295,-0.6362,-0.5981,-0.2305,-26.65,-26.59,-12.56
1185,607568298,-0.6313,-0.5952,-0.2329,-26.46,-25.30,-11.77
1186,607573295,-0.6362,-0.5967,-0.2349,-26.28,-24.02,-11.16
1187,607578296,-0.6362,-0.5972,-0.2275,-26.04,-22.50,-10.18
1188,607583297,-0.6436,-0.6035,-0.2314,-25.67,-21.34,-9.63
1189,607588707,-0.6392,-0.6001,-0.2290,-25.43,-20.12,-8.90
1190,607593296,-0.6357,-0.6016,-0.2358,-25.00,-18.84,-8.11
1191,607598716,-0.6377,-0.6035,-0.2280,-24.51,-17.13,-7.26
1192,607603313,-0.6318,-0.6025,-0.2290,-24.15,-15.91,-6.71
1193,607608296,-0.6348,-0.6060,-0.2300,-23.66,-14.63,-5.73
1194,607613297,-0.6382,-0.6079,-0.2305,-22.99,-13.23,-4.88
1195,607618768,-0.6323,-0.6084,-0.2329,-22.13,-11.40,-3.84
1196,607623296,-0.6309,-0.6089,-0.2280,-21.46,-10.37,-3.17
1197,607628452,-0.6338,-0.6094,-0.2275,-20.61,-9.09,-2.26
1198,607633296,-0.6270,-0.6108,-0.2310,-19.63,-7.68,-1.40
1199,607638296,-0.6255,-0.6118,-0.2295,-18.48,-6.10,-0.49
1200,607643296,-0.6348,-0.6118,-0.2300,-17.44,-4.76,0.55
1201,607648295,-0.6323,-0.6157,-0.2261,-16.04,-3.41,1.46
1202,607653296,-0.6265,-0.6138,-0.2285,-14.76,-2.32,2.32
1203,607658295,-0.6304,-0.6147,-0.2178,-13.35,-1.04,3.29
1204,607663296,-0.6343,-0.6187,-0.2236,-11.95,0.37,4.27
1205,607668783,-0.6318,-0.6133,-0.2207,-9.88,1.71,5.43
1206,607673296,-0.6250,-0.6157,-0.2217,-8.84,2.74,6.22
1207,607678417,-0.6240,-0.6196,-0.2178,-7.13,4.02,7.13
1208,607683296,-0.6328,-0.6211,-0.2207,-5.24,5.43,8.35
1209,607688296,-0.6353,-0.6240,-0.2217,-4.09,6.22,9.09
1210,607693556,-0.6348,-0.6235,-0.2153,-2.26,7.50,10.30
1211,607698300,-0.6353,-0.6235,-0.2173,-0.73,8.72,11.22
1212,607703296,-0.6343,-0.6250,-0.2119,0.43,9.51,12.07
1213,607708296,-0.6377,-0.6240,-0.2114,1.71,10.61,12.87
1214,607713296,-0.6362,-0.6250,-0.2061,2.93,11.71,13.90
1215,607718296,-0.6279,-0.6211,-0.2129,4.45,12.80,15.06
1216,607723296,-0.6343,-0.6270,-0.2085,5.43,13.54,15.73
1217,607728296,-0.6396,-0.6255,-0.2070,6.71,14.63,16.65
1218,607733296,-0.6362,-0.6274,-0.2021,8.05,15.67,17.74
1219,607738296,-0.6318,-0.6240,-0.2041,8.90,16.40,18.41
1220,607743296,-0.6406,-0.6270,-0.1978,10.06,17.38,19.21
1221,607748296,-0.6475,-0.6299,-0.2056,11.10,18.17,20.00
1222,607753295,-0.6538,-0.6318,-0.2012,12.20,19.09,20.91
1223,607758294,-0.6533,-0.6309,-0.2041,13.41,20.12,21.65
1224,607763298,-0.6587,-0.6323,-0.2065,14.02,20.73,22.38
1225,607768295,-0.6616,-0.6338,-0.2002,15.06,21.59,23.11
1226,607773294,-0.6602,-0.6294,-0.2002,15.79,22.32,23.72
1227,607778294,-0.6675,-0.6323,-0.2007,16.40,23.11,24.51
1228,607783296,-0.6763,-0.6333,-0.1953,17.07,24.02,25.24
1229,607788295,-0.6748,-0.6338,-0.1973,17.62,24.76,25.79
1230,607793294,-0.6807,-0.6362,-0.1997,18.23,25.37,26.40
1231,607798294,-0.6821,-0.6401,-0.1924,18.72,26.16,27.01
1232,607803294,-0.6855,-0.6416,-0.1919,19.15,26.89,27.74
1233,607808349,-0.6802,-0.6431,-0.1938,19.57,27.80,28.29
1234,607813295,-0.6870,-0.6426,-0.1812,19.94,28.54,28.78
1235,607818297,-0.6860,-0.6450,-0.1802,20.49,29.27,29.27
1236,607823294,-0.6909,-0.6426,-0.1821,20.91,29.82,29.70
1237,607828296,-0.7012,-0.6479,-0.1865,21.52,30.73,30.00
1238,607833295,-0.7021,-0.6509,-0.1777,22.01,31.40,30.30
1239,607838397,-0.6938,-0.6450,-0.1743,22.56,31.95,30.67
1240,607843297,-0.6963,-0.6479,-0.1709,23.23,32.74,30.79
1241,607848296,-0.7046,-0.6494,-0.1758,23.66,33.35,31.04
1242,607853296,-0.7017,-0.6548,-0.1680,24.15,33.90,31.34
1243,607858296,-0.6992,-0.6519,-0.1665,24.63,34.51,31.46
1244,607863296,-0.7036,-0.6558,-0.1689,25.00,35.06,31.65
1245,607868296,-0.7021,-0.6519,-0.1611,25.43,35.61,31.83
1246,607873296,-0.7109,-0.6567,-0.1616,25.79,36.04,31.89
1247,607878296,-0.7148,-0.6582,-0.1631,25.98,36.40,32.07
1248,607883296,-0.7153,-0.6548,-0.1592,26.28,36.71,32.13
1249,607888756,-0.7100,-0.6562,-0.1538,26.59,37.20,32.07
1250,607893296,-0.7119,-0.6597,-0.1572,26.71,37.62,32.13
1251,607898298,-0.7173,-0.6602,-0.1484,26.89,37.68,32.07
1252,607903295,-0.7002,-0.6606,-0.1489,26.95,38.11,32.01
1253,607908296,-0.7061,-0.6572,-0.1431,27.01,38.23,31.83
1254,607913296,-0.7104,-0.6641,-0.1426,27.01,38.66,31.71
1255,607918451,-0.7124,-0.6602,-0.1411,27.26,38.84,31.65
1256,607923473,-0.7139,-0.6602,-0.1411,27.26,38.84,31.40
1257,607928775,-0.7173,-0.6636,-0.1392,27.26,39.09,31.10
1258,607933296,-0.7168,-0.6616,-0.1396,27.32,39.15,30.85
1259,607938296,-0.7217,-0.6621,-0.1357,27.32,39.27,30.49
1260,607943296,-0.7266,-0.6665,-0.1353,27.20,39.33,30.24
1261,607948481,-0.7207,-0.6665,-0.1323,27.13,39.39,30.00
1262,607953296,-0.7300,-0.6675,-0.1362,27.07,39.27,29.70
1263,607958296,-0.7256,-0.6680,-0.1299,26.77,39.27,29.33
1264,607963295,-0.7334,-0.6675,-0.1255,26.65,39.15,28.96
1265,607968296,-0.7319,-0.6704,-0.1294,26.34,38.96,28.54
1266,607973709,-0.7349,-0.6719,-0.1279,26.04,38.66,28.11
1267,607978296,-0.7446,-0.6738,-0.1206,25.79,38.66,27.68
1268,607983296,-0.7363,-0.6733,-0.1294,25.49,38.41,27.32
1269,607988296,-0.7456,-0.6753,-0.1216,25.12,38.17,26.65
1270,607993296,-0.7402,-0.6738,-0.1250,24.82,38.05,26.22
1271,607998296,-0.7476,-0.6729,-0.1221,24.39,37.87,25.79
1272,608003295,-0.7500,-0.6753,-0.1182,23.90,37.62,25.06
1273,608008298,-0.7471,-0.6733,-0.1172,23.60,37.50,24.51
1274,608013295,-0.7524,-0.6787,-0.1138,23.05,37.26,23.84
1275,608018296,-0.7559,-0.6743,-0.1133,22.68,36.89,23.23
1276,608023294,-0.7593,-0.6777,-0.1118,22.32,36.89,22.44
1277,608028294,-0.7593,-0.6821,-0.1138,21.83,36.52,21.83
1278,608033294,-0.7568,-0.6782,-0.1064,21.40,36.34,21.16
1279,608038294,-0.7573,-0.6772,-0.1050,21.16,35.85,20.30
1280,608043294,-0.7651,-0.6797,-0.1074,20.79,35.73,19.57
1281,608048317,-0.7612,-0.6772,-0.1128,20.43,35.37,18.78
1282,608053608,-0.7622,-0.6836,-0.1060,20.18,35.06,18.05
1283,608058296,-0.7651,-0.6792,-0.1045,19.82,34.70,17.26
1284,608063295,-0.7598,-0.6831,-0.1089,19.51,34.21,16.40
1285,608068296,-0.7490,-0.6787,-0.1016,19.39,33.78,15.67
1286,608073294,-0.7471,-0.6758,-0.0996,19.15,33.41,14.82
1287,608078294,-0.7593,-0.6782,-0.1011,18.84,32.93,13.96
1288,608083294,-0.7544,-0.6802,-0.1025,18.78,32.38,12.99
1289,608088294,-0.7539,-0.6763,-0.0972,18.60,31.89,12.26
1290,608093297,-0.7612,-0.6763,-0.0972,18.41,31.28,11.28
1291,608098294,-0.7578,-0.6768,-0.1011,18.35,30.67,10.49
1292,608103298,-0.7627,-0.6772,-0.0962,18.11,30.12,9.63
1293,608108295,-0.7544,-0.6787,-0.0928,18.05,29.51,8.78
1294,608113532,-0.7505,-0.6758,-0.0928,17.74,28.78,7.93
1295,608118538,-0.7529,-0.6665,-0.0859,17.56,28.11,7.13
1296,608123501,-0.7476,-0.6665,-0.0889,17.38,27.38,6.22
1297,608128296,-0.7495,-0.6689,-0.0952,17.26,26.65,5.49
1298,608133296,-0.7505,-0.6709,-0.0967,17.07,25.79,4.70
1299,608138420,-0.7529,-0.6680,-0.0864,16.77,25.18,3.84
1300,608143296,-0.7544,-0.6646,-0.0894,16.46,24.21,2.99
1301,608148298,-0.7559,-0.6675,-0.0884,16.10,23.23,2.13
1302,608153296,-0.7554,-0.6670,-0.0933,15.79,22.62,1.52
1303,608158296,-0.7544,-0.6626,-0.0859,15.30,21.77,0.79
1304,608163295,-0.7554,-0.6665,-0.0913,14.82,20.98,0.00
1305,608168296,-0.7573,-0.6670,-0.0933,14.27,20.12,-0.67
1306,608173294,-0.7549,-0.6631,-0.0918,13.72,19.27,-1.40
1307,608178296,-0.7549,-0.6626,-0.0854,12.99,18.23,-1.89
1308,608183296,-0.7500,-0.6587,-0.0913,12.26,17.44,-2.62
1309,608188296,-0.7520,-0.6592,-0.0820,11.22,16.16,-3.29
1310,608193296,-0.7363,-0.6562,-0.0894,10.73,15.73,-3.72
1311,608198295,-0.7407,-0.6587,-0.0913,9.88,14.76,-4.27
1312,608203296,-0.7305,-0.6528,-0.0869,9.02,13.78,-4.70
1313,608208294,-0.7373,-0.6523,-0.0913,7.99,12.93,-5.18
1314,608213294,-0.7319,-0.6475,-0.0879,7.20,12.13,-5.49
1315,608218294,-0.7319,-0.6494,-0.0923,6.22,11.22,-6.04
1316,608223383,-0.7314,-0.6514,-0.0938,5.43,10.37,-6.34
1317,608228294,-0.7300,-0.6494,-0.0869,4.57,9.45,-6.71
1318,608233296,-0.7285,-0.6479,-0.0908,3.78,8.66,-6.95
1319,608238468,-0.7266,-0.6455,-0.0913,2.93,7.62,-7.32
1320,608243327,-0.7280,-0.6440,-0.0859,2.32,7.01,-7.44
1321,608248493,-0.7246,-0.6470,-0.0942,1.65,6.16,-7.74
1322,608253303,-0.7305,-0.6489,-0.0952,1.16,5.55,-7.93
1323,608258296,-0.7300,-0.6460,-0.0957,0.55,4.63,-7.99
1324,608263453,-0.7314,-0.6431,-0.0967,0.12,3.66,-8.17
1325,608268296,-0.7344,-0.6421,-0.1001,-0.24,2.99,-8.35
1326,608273724,-0.7275,-0.6426,-0.1006,-0.43,2.38,-8.48
1327,608278296,-0.7275,-0.6416,-0.1045,-0.67,1.71,-8.48
1328,608283295,-0.7344,-0.6377,-0.1030,-0.61,1.16,-8.54
1329,608288296,-0.7314,-0.6421,-0.1035,-0.61,0.61,-8.60
1330,608293294,-0.7305,-0.6392,-0.1050,-0.61,-0.06,-8.72
1331,608298660,-0.7266,-0.6348,-0.1016,-0.49,-0.49,-8.66
1332,608303296,-0.7290,-0.6348,-0.1035,-0.55,-0.85,-8.66
1333,608308299,-0.7261,-0.6328,-0.1045,-0.18,-1.40,-8.78
1334,608313298,-0.7280,-0.6357,-0.1113,0.00,-1.77,-8.72
1335,608318295,-0.7197,-0.6362,-0.1074,0.18,-2.32,-8.72
1336,608323736,-0.7178,-0.6299,-0.1069,0.55,-2.62,-8.54
1337,608328296,-0.7197,-0.6299,-0.1182,0.79,-3.05,-8.54
1338,608333296,-0.7192,-0.6304,-0.1172,0.91,-3.54,-8.54
1339,608338296,-0.7231,-0.6323,-0.1147,1.40,-3.78,-8.41
1340,608343296,-0.7168,-0.6260,-0.1191,1.77,-4.27,-8.29
1341,608348296,-0.7129,-0.6270,-0.1196,2.13,-4.57,-8.05
1342,608353296,-0.7178,-0.6250,-0.1138,2.38,-4.82,-8.05
1343,608358296,-0.7119,-0.6255,-0.1152,2.74,-5.12,-7.93
1344,608363296,-0.7134,-0.6226,-0.1235,2.93,-5.55,-7.68
1345,608368296,-0.7134,-0.6230,-0.1187,3.29,-5.61,-7.50
1346,608373295,-0.7148,-0.6260,-0.1235,3.54,-5.91,-7.32
1347,608378294,-0.7065,-0.6235,-0.1274,3.72,-6.28,-7.13
1348,608383294,-0.7090,-0.6177,-0.1172,4.02,-6.40,-6.89
1349,608388294,-0.7124,-0.6187,-0.1191,4.09,-6.59,-6.77
1350,608393294,-0.7168,-0.6187,-0.1221,4.21,-6.65,-6.59
1351,608398294,-0.7100,-0.6187,-0.1294,4.33,-6.83,-6.40
1352,608403295,-0.7075,-0.6133,-0.1226,4.33,-6.89,-6.22
1353,608408810,-0.7129,-0.6177,-0.1270,4.57,-7.13,-5.98
1354,608413311,-0.7124,-0.6182,-0.1279,4.45,-7.32,-5.67
1355,608418295,-0.7109,-0.6123,-0.1270,4.57,-7.38,-5.55
1356,608423294,-0.7065,-0.6089,-0.1309,4.51,-7.50,-5.37
1357,608428294,-0.7056,-0.6089,-0.1201,4.45,-7.56,-5.06
1358,608433294,-0.6982,-0.6152,-0.1328,4.39,-7.87,-4.82
1359,608438294,-0.7085,-0.6157,-0.1299,4.21,-7.87,-4.57
1360,608443298,-0.7119,-0.6162,-0.1309,3.96,-7.99,-4.21
1361,608448296,-0.7134,-0.6138,-0.1284,3.72,-7.99,-4.02
1362,608453764,-0.7100,-0.6133,-0.1348,3.54,-8.11,-3.72
1363,608458296,-0.7046,-0.6162,-0.1348,3.35,-8.29,-3.41
1364,608463296,-0.7031,-0.6152,-0.1377,3.17,-8.41,-3.11
1365,608468296,-0.7002,-0.6094,-0.1377,2.99,-8.41,-2.68
1366,608473295,-0.7031,-0.6162,-0.1343,2.80,-8.60,-2.38
1367,608478294,-0.6973,-0.6147,-0.1343,2.68,-8.78,-1.89
1368,608483294,-0.6934,-0.6108,-0.1426,2.62,-8.78,-1.59
1369,608488294,-0.7031,-0.6089,-0.1348,2.56,-8.84,-1.34
1370,608493294,-0.7026,-0.6123,-0.1372,2.74,-8.78,-0.85
1371,608498294,-0.6968,-0.6118,-0.1367,2.87,-8.78,-0.55
1372,608503294,-0.7046,-0.6143,-0.1372,2.80,-9.02,-0.18
1373,608508294,-0.6997,-0.6133,-0.1396,3.05,-8.96,0.24
1374,608513294,-0.6963,-0.6147,-0.1367,3.11,-8.90,0.61
1375,608518294,-0.7012,-0.6123,-0.1382,3.35,-9.02,1.04
1376,608523294,-0.7046,-0.6123,-0.1372,3.66,-9.21,1.28
1377,608528294,-0.6997,-0.6167,-0.1421,3.78,-9.33,1.77
1378,608533294,-0.6987,-0.6147,-0.1440,4.27,-9.33,2.20
1379,608538294,-0.7075,-0.6172,-0.1436,4.70,-9.39,2.62
1380,608543294,-0.7061,-0.6177,-0.1484,4.94,-9.57,3.11
1381,608548294,-0.6997,-0.6128,-0.1499,5.43,-9.70,3.41
1382,608553294,-0.6987,-0.6133,-0.1406,5.98,-9.76,3.72
1383,608558294,-0.7007,-0.6172,-0.1440,6.40,-10.00,4.21
1384,608563297,-0.7002,-0.6162,-0.1460,6.83,-9.94,4.63
1385,608568298,-0.7012,-0.6167,-0.1484,7.20,-10.24,4.88
1386,608573295,-0.7090,-0.6182,-0.1479,7.38,-10.18,5.18
1387,608578296,-0.7017,-0.6162,-0.1450,7.56,-10.24,5.55
1388,608583294,-0.6973,-0.6152,-0.1489,7.74,-10.37,5.79
1389,608588299,-0.6943,-0.6191,-0.1509,7.80,-10.37,6.10
1390,608593298,-0.6987,-0.6211,-0.1479,7.68,-10.43,6.52
1391,608598296,-0.6987,-0.6211,-0.1504,7.62,-10.55,6.71
1392,608603300,-0.6919,-0.6226,-0.1499,7.50,-10.55,7.20
1393,608608299,-0.6968,-0.6240,-0.1499,7.13,-10.73,7.56
1394,608613296,-0.6953,-0.6274,-0.1455,6.95,-10.49,7.68
1395,608618328,-0.6924,-0.6216,-0.1465,6.89,-10.55,7.99
1396,608623347,-0.6924,-0.6250,-0.1479,6.40,-10.61,8.35
1397,608628453,-0.6938,-0.6284,-0.1455,6.52,-10.55,8.54
1398,608633359,-0.7007,-0.6333,-0.1479,6.40,-10.49,8.78
1399,608638437,-0.6997,-0.6304,-0.1431,6.34,-10.49,9.09
1400,608643596,-0.6948,-0.6313,-0.1416,6.40,-10.30,9.33
1401,608648475,-0.6909,-0.6299,-0.1401,6.52,-10.49,9.51
1402,608653329,-0.6934,-0.6274,-0.1494,6.59,-10.30,9.70
1403,608658343,-0.6953,-0.6270,-0.1475,6.77,-10.24,9.82
1404,608663508,-0.7031,-0.6343,-0.1494,7.13,-10.18,10.00
1405,608668296,-0.6929,-0.6328,-0.1406,7.20,-10.06,10.12
1406,608673297,-0.6934,-0.6309,-0.1450,7.38,-9.94,10.18
1407,608678296,-0.6987,-0.6333,-0.1445,7.68,-10.06,10.30
1408,608683294,-0.7046,-0.6338,-0.1479,7.80,-10.06,10.30
1409,608688294,-0.7046,-0.6372,-0.1519,7.87,-9.82,10.37
1410,608693294,-0.7031,-0.6357,-0.1460,7.80,-9.70,10.30
1411,608698294,-0.7021,-0.6382,-0.1431,7.87,-9.76,10.24
1412,608703396,-0.6919,-0.6392,-0.1436,7.87,-9.57,10.37
1413,608708296,-0.6934,-0.6401,-0.1460,7.68,-9.51,10.24
1414,608713296,-0.6870,-0.6338,-0.1416,7.44,-9.39,10.12
1415,608718294,-0.6919,-0.6396,-0.1499,7.32,-9.33,10.00
1416,608723294,-0.6865,-0.6411,-0.1440,6.95,-9.15,10.00
1417,608728294,-0.6934,-0.6372,-0.1421,6.65,-9.02,9.76
1418,608733294,-0.6924,-0.6396,-0.1392,6.22,-8.90,9.57
1419,608738297,-0.6953,-0.6431,-0.1387,5.91,-8.60,9.45
1420,608743296,-0.6929,-0.6416,-0.1401,5.30,-8.35,9.33
1421,608748295,-0.6938,-0.6353,-0.1362,4.76,-8.05,9.02
1422,608753296,-0.6924,-0.6426,-0.1421,4.33,-7.93,8.78
1423,608758296,-0.6938,-0.6377,-0.1411,3.90,-7.74,8.54
1424,608763296,-0.6997,-0.6387,-0.1338,3.41,-7.32,8.29
1425,608768716,-0.6987,-0.6411,-0.1396,2.93,-7.38,7.93
1426,608773296,-0.7012,-0.6382,-0.1426,2.44,-7.01,7.68
1427,608778296,-0.6973,-0.6406,-0.1455,2.01,-6.71,7.26
1428,608783296,-0.7036,-0.6436,-0.1455,1.52,-6.65,7.01
1429,608788296,-0.7056,-0.6450,-0.1494,1.10,-6.52,6.65
1430,608793296,-0.7104,-0.6465,-0.1450,0.55,-6.34,6.40
1431,608798296,-0.7129,-0.6509,-0.1421,0.18,-6.16,6.10
1432,608803296,-0.7119,-0.6504,-0.1470,-0.55,-5.98,5.67
1433,608808296,-0.7183,-0.6475,-0.1450,-0.98,-5.79,5.43
1434,608813767,-0.7261,-0.6509,-0.1460,-1.59,-5.67,5.12
1435,608818296,-0.7236,-0.6504,-0.1489,-2.07,-5.49,4.70
1436,608823296,-0.7202,-0.6528,-0.1421,-2.62,-5.43,4.51
1437,608828297,-0.7212,-0.6548,-0.1450,-2.93,-5.37,4.33
1438,608833296,-0.7246,-0.6567,-0.1460,-3.54,-5.18,4.02
1439,608838296,-0.7197,-0.6562,-0.1484,-3.96,-5.00,3.72
1440,608843296,-0.7168,-0.6562,-0.1411,-4.39,-4.88,3.48
1441,608848296,-0.7231,-0.6562,-0.1509,-4.63,-4.51,3.23
1442,608853296,-0.7109,-0.6548,-0.1382,-4.82,-4.57,3.05
1443,608858471,-0.7163,-0.6533,-0.1440,-4.88,-4.21,2.62
1444,608863296,-0.7163,-0.6548,-0.1426,-4.88,-4.15,2.44
1445,608868296,-0.7095,-0.6543,-0.1416,-4.76,-4.09,2.32
1446,608873296,-0.7114,-0.6558,-0.1445,-4.70,-3.96,1.95
1447,608878295,-0.7153,-0.6572,-0.1426,-4.51,-3.90,1.77
1448,608883296,-0.7090,-0.6543,-0.1392,-4.21,-3.90,1.65
1449,608888295,-0.7114,-0.6562,-0.1367,-4.09,-3.78,1.34
1450,608893296,-0.7134,-0.6611,-0.1392,-3.84,-3.90,1.16
1451,608898296,-0.7095,-0.6538,-0.1401,-3.48,-3.78,1.04
1452,608903296,-0.7075,-0.6582,-0.1353,-3.23,-4.02,0.91
1453,608908294,-0.7012,-0.6558,-0.1396,-2.93,-4.21,0.67
1454,608913296,-0.7031,-0.6572,-0.1353,-2.56,-4.15,0.61
1455,608918294,-0.7070,-0.6567,-0.1436,-2.26,-4.27,0.49
1456,608923294,-0.7026,-0.6533,-0.1416,-1.89,-4.39,0.43
1457,608928294,-0.7139,-0.6553,-0.1367,-1.52,-4.33,0.37
1458,608933294,-0.7061,-0.6538,-0.1396,-1.04,-4.70,0.12
1459,608938297,-0.7104,-0.6514,-0.1411,-0.67,-4.88,0.00
1460,608943743,-0.7041,-0.6519,-0.1416,-0.30,-4.94,0.06
1461,608948296,-0.7124,-0.6494,-0.1431,0.06,-5.12,-0.18
1462,608953296,-0.7104,-0.6489,-0.1421,0.24,-5.30,-0.24
1463,608958778,-0.7139,-0.6509,-0.1431,0.43,-5.61,-0.30
1464,608963296,-0.7061,-0.6450,-0.1377,0.73,-5.67,-0.49
1465,608968296,-0.7090,-0.6455,-0.1362,0.67,-5.85,-0.67
1466,608973295,-0.7124,-0.6450,-0.1445,0.67,-5.85,-0.73
1467,608978294,-0.7036,-0.6445,-0.1416,0.49,-6.10,-0.79
1468,608983294,-0.7100,-0.6494,-0.1450,0.37,-6.22,-1.04
1469,608988294,-0.7065,-0.6465,-0.1396,0.00,-6.22,-1.22
1470,608993294,-0.7002,-0.6445,-0.1426,-0.43,-6.28,-1.28
1471,608998294,-0.7090,-0.6440,-0.1445,-0.67,-6.34,-1.28
1472,609003297,-0.7109,-0.6440,-0.1455,-1.22,-6.46,-1.34
1473,609008296,-0.7031,-0.6406,-0.1421,-1.71,-6.40,-1.52
1474,609013565,-0.7070,-0.6460,-0.1504,-2.32,-6.46,-1.52
1475,609018780,-0.7095,-0.6450,-0.1470,-2.68,-6.52,-1.71
1476,609023296,-0.7139,-0.6470,-0.1465,-3.17,-6.59,-1.77
1477,609028300,-0.7065,-0.6411,-0.1465,-3.41,-6.34,-1.83
1478,609033296,-0.7095,-0.6465,-0.1494,-3.90,-6.40,-1.95
1479,609038296,-0.7061,-0.6455,-0.1431,-4.09,-6.22,-2.01
1480,609043297,-0.7134,-0.6455,-0.1460,-4.21,-6.16,-2.20
1481,609048296,-0.7070,-0.6431,-0.1543,-4.39,-5.98,-2.26
1482,609053296,-0.7109,-0.6479,-0.1470,-4.39,-5.73,-2.38
1483,609058677,-0.7100,-0.6470,-0.1523,-4.27,-5.67,-2.50
1484,609063296,-0.7061,-0.6421,-0.1470,-4.02,-5.55,-2.56
1485,609068296,-0.7051,-0.6406,-0.1494,-3.84,-5.37,-2.62
1486,609073296,-0.7046,-0.6421,-0.1528,-3.78,-5.18,-2.68
1487,609078296,-0.7104,-0.6411,-0.1445,-3.48,-5.12,-2.68
1488,609083294,-0.7129,-0.6431,-0.1475,-3.17,-4.82,-2.68
1489,609088294,-0.7148,-0.6401,-0.1455,-2.74,-4.63,-2.68
1490,609093294,-0.7134,-0.6401,-0.1499,-2.32,-4.39,-2.87
1491,609098294,-0.7070,-0.6426,-0.1484,-1.89,-4.27,-2.87
1492,609103296,-0.7095,-0.6396,-0.1509,-1.46,-4.02,-2.99
1493,609108294,-0.7090,-0.6362,-0.1577,-1.10,-3.84,-2.99
1494,609113297,-0.7129,-0.6362,-0.1533,-0.43,-3.66,-2.99
1495,609118297,-0.7090,-0.6343,-0.1523,-0.12,-3.48,-3.05
1496,609123294,-0.7124,-0.6353,-0.1538,0.30,-3.29,-3.05
1497,609128299,-0.7104,-0.6377,-0.1509,0.55,-3.05,-3.11
1498,609133294,-0.7090,-0.6338,-0.1519,0.85,-2.87,-3.11
1499,609138294,-0.7144,-0.6382,-0.1538,1.04,-2.56,-3.05
1500,609143294,-0.7095,-0.6328,-0.1548,1.04,-2.44,-3.17
1501,609148298,-0.7163,-0.6353,-0.1538,1.22,-2.20,-3.11
1502,609153617,-0.7065,-0.6313,-0.1479,1.34,-2.01,-3.05
1503,609158581,-0.7075,-0.6348,-0.1499,1.40,-1.83,-3.05
1504,609163335,-0.7095,-0.6333,-0.1484,1.34,-1.71,-2.93
1505,609168416,-0.7061,-0.6270,-0.1450,1.28,-1.46,-3.11
1506,609173407,-0.7104,-0.6323,-0.1504,1.34,-1.40,-2.99
1507,609178296,-0.7061,-0.6299,-0.1523,1.22,-1.28,-2.99
1508,609183295,-0.7070,-0.6289,-0.1450,1.16,-1.10,-2.87
1509,609188425,-0.7056,-0.6270,-0.1528,1.10,-0.91,-2.74
1510,609193316,-0.7007,-0.6260,-0.1460,0.98,-0.85,-2.80
1511,609198635,-0.7036,-0.6294,-0.1445,1.10,-0.91,-2.56
1512,609203296,-0.7017,-0.6260,-0.1416,0.85,-0.79,-2.50
1513,609208296,-0.6987,-0.6265,-0.1484,1.04,-0.79,-2.38
1514,609213295,-0.7036,-0.6250,-0.1460,1.16,-0.67,-2.32
1515,609218296,-0.7051,-0.6270,-0.1489,1.28,-0.73,-2.32
1516,609223296,-0.7017,-0.6201,-0.1523,1.34,-0.61,-2.32
1517,609228296,-0.7036,-0.6187,-0.1470,1.59,-0.73,-2.20
1518,609233364,-0.7100,-0.6221,-0.1509,1.59,-0.55,-2.13
1519,609238603,-0.7031,-0.6177,-0.1504,1.59,-0.61,-2.13
1520,609243615,-0.7007,-0.6162,-0.1494,1.71,-0.61,-2.01
1521,609248606,-0.7031,-0.6143,-0.1494,1.59,-0.61,-2.13
1522,609253377,-0.7031,-0.6191,-0.1479,1.34,-0.55,-2.07
1523,609258296,-0.7036,-0.6211,-0.1533,0.85,-0.55,-1.95
1524,609263496,-0.7056,-0.6211,-0.1484,0.37,-0.61,-1.89
1525,609268395,-0.6992,-0.6216,-0.1460,-0.30,-0.67,-1.83
1526,609273297,-0.7007,-0.6196,-0.1406,-0.98,-0.67,-1.65
1527,609278417,-0.6987,-0.6206,-0.1475,-1.71,-0.30,-1.65
1528,609283296,-0.6997,-0.6235,-0.1470,-2.56,-0.30,-1.52
1529,609288296,-0.6958,-0.6221,-0.1465,-3.35,-0.18,-1.34
1530,609293296,-0.7036,-0.6216,-0.1411,-4.09,0.00,-1.28
1531,609298296,-0.6992,-0.6235,-0.1387,-4.94,0.12,-1.16
1532,609303295,-0.7026,-0.6230,-0.1431,-5.61,0.43,-1.04
1533,609308756,-0.6938,-0.6235,-0.1387,-6.16,0.61,-0.85
1534,609313296,-0.7026,-0.6279,-0.1431,-6.59,0.91,-0.85
1535,609318628,-0.6997,-0.6265,-0.1387,-6.83,1.04,-0.67
1536,609323295,-0.6997,-0.6255,-0.1470,-7.01,1.40,-0.61
1537,609328295,-0.6997,-0.6309,-0.1450,-7.01,1.71,-0.37
1538,609333294,-0.7036,-0.6323,-0.1411,-6.83,1.89,-0.24
1539,609338294,-0.7080,-0.6348,-0.1416,-6.40,2.07,0.00
1540,609343294,-0.7007,-0.6265,-0.1392,-6.10,2.32,0.18
1541,609348294,-0.7095,-0.6343,-0.1436,-5.43,2.74,0.37
1542,609353301,-0.7041,-0.6338,-0.1421,-4.57,2.93,0.67
1543,609358294,-0.7095,-0.6328,-0.1460,-3.72,3.11,0.79
1544,609363296,-0.7119,-0.6367,-0.1401,-2.62,3.23,1.04
1545,609368296,-0.7124,-0.6357,-0.1421,-1.46,3.41,1.28
1546,609373296,-0.7109,-0.6323,-0.1416,-0.18,3.48,1.52
1547,609378295,-0.7158,-0.6357,-0.1440,1.04,3.60,1.65
1548,609383294,-0.7070,-0.6323,-0.1396,2.44,3.66,1.95
1549,609388294,-0.7104,-0.6318,-0.1411,3.54,3.66,2.07
1550,609393296,-0.7095,-0.6304,-0.1333,4.76,3.60,2.32
1551,609398296,-0.7090,-0.6299,-0.1387,5.91,3.54,2.62
1552,609403296,-0.7109,-0.6279,-0.1377,6.95,3.54,2.80
1553,609408296,-0.7065,-0.6294,-0.1353,7.80,3.23,2.93
1554,609413511,-0.7061,-0.6240,-0.1392,8.54,3.11,2.99
1555,609418299,-0.7017,-0.6309,-0.1357,8.96,2.99,3.23
1556,609423296,-0.6914,-0.6245,-0.1353,9.33,2.68,3.35
1557,609428297,-0.6938,-0.6226,-0.1377,9.39,2.50,3.48
1558,609433296,-0.6958,-0.6250,-0.1362,9.33,2.20,3.66
1559,609438296,-0.7012,-0.6284,-0.1338,9.21,2.01,3.66
1560,609443296,-0.7002,-0.6265,-0.1353,8.78,1.59,3.84
1561,609448296,-0.7017,-0.6270,-0.1396,8.35,1.34,4.02
1562,609453296,-0.7031,-0.6250,-0.1299,7.74,1.28,4.09
1563,609458296,-0.7031,-0.6187,-0.1343,7.13,0.91,4.21
1564,609463296,-0.7031,-0.6235,-0.1299,6.46,0.73,4.33
1565,609468296,-0.7012,-0.6255,-0.1255,5.73,0.49,4.27
1566,609473296,-0.7012,-0.6211,-0.1274,4.94,0.24,4.39
1567,609478296,-0.7075,-0.6235,-0.1294,4.21,-0.06,4.45
1568,609483297,-0.7070,-0.6226,-0.1328,3.54,-0.30,4.57
1569,609488296,-0.7085,-0.6284,-0.1343,2.74,-0.55,4.57
1570,609493296,-0.7163,-0.6245,-0.1294,2.07,-0.67,4.57
1571,609498296,-0.7036,-0.6270,-0.1299,1.34,-1.04,4.70
1572,609503296,-0.7139,-0.6274,-0.1348,0.85,-1.28,4.70
1573,609508296,-0.7017,-0.6279,-0.1387,0.24,-1.40,4.82
1574,609513296,-0.7085,-0.6323,-0.1299,-0.12,-1.65,4.70
1575,609518296,-0.7056,-0.6284,-0.1377,-0.30,-1.89,4.63
1576,609523294,-0.7026,-0.6304,-0.1357,-0.55,-2.07,4.82
1577,609528294,-0.7124,-0.6353,-0.1372,-0.67,-2.26,4.70
1578,609533294,-0.7124,-0.6357,-0.1357,-0.73,-2.32,4.70
1579,609538294,-0.7065,-0.6377,-0.1323,-0.67,-2.50,4.70
1580,609543294,-0.7031,-0.6328,-0.1343,-0.55,-2.62,4.57
1581,609548294,-0.7104,-0.6367,-0.1387,-0.49,-2.56,4.57
1582,609553294,-0.7051,-0.6343,-0.1396,-0.18,-2.68,4.51
1583,609558294,-0.7095,-0.6353,-0.1304,0.06,-2.87,4.45
1584,609563294,-0.7134,-0.6436,-0.1318,0.12,-2.74,4.45
1585,609568294,-0.7158,-0.6455,-0.1313,0.55,-2.93,4.27
1586,609573294,-0.7104,-0.6489,-0.1270,0.91,-3.05,4.15
1587,609578294,-0.7148,-0.6475,-0.1245,1.22,-3.23,4.02
1588,609583294,-0.7129,-0.6470,-0.1333,1.65,-3.41,3.96
1589,609588294,-0.7109,-0.6436,-0.1274,2.07,-3.54,3.54
1590,609593294,-0.7124,-0.6504,-0.1299,2.44,-3.66,3.35
1591,609598294,-0.7158,-0.6533,-0.1221,2.44,-3.90,2.99
1592,609603294,-0.7114,-0.6519,-0.1235,2.44,-4.09,2.68
1593,609608297,-0.7129,-0.6567,-0.1177,2.44,-4.33,2.38
1594,609613297,-0.7124,-0.6519,-0.1182,2.44,-4.45,2.13
1595,609618296,-0.7168,-0.6514,-0.1172,2.32,-4.57,1.71
1596,609623769,-0.7227,-0.6548,-0.1064,2.01,-4.88,1.22
1597,609628297,-0.7217,-0.6528,-0.1133,1.95,-5.00,0.98
1598,609633297,-0.7227,-0.6519,-0.1104,1.59,-5.24,0.43
1599,609638296,-0.7285,-0.6528,-0.1050,1.28,-5.73,-0.12
1600,609643296,-0.7295,-0.6572,-0.1045,0.79,-5.98,-0.79
1601,609648298,-0.7261,-0.6621,-0.1006,0.37,-6.46,-1.34
1602,609653296,-0.7236,-0.6621,-0.0996,-0.55,-7.01,-2.13
1603,609658296,-0.7290,-0.6606,-0.0957,-1.40,-7.26,-2.80
1604,609663295,-0.7251,-0.6675,-0.0952,-2.50,-7.93,-3.60
1605,609668387,-0.7280,-0.6694,-0.0967,-3.72,-8.60,-4.57
1606,609673294,-0.7212,-0.6753,-0.0918,-5.06,-9.39,-5.43
1607,609678294,-0.7153,-0.6694,-0.0806,-6.59,-10.18,-6.40
1608,609683294,-0.7168,-0.6733,-0.0835,-8.17,-10.73,-7.44
1609,609688294,-0.7280,-0.6748,-0.0747,-9.94,-11.71,-8.54
1610,609693294,-0.7241,-0.6719,-0.0742,-11.65,-12.44,-9.70
1611,609698294,-0.7207,-0.6802,-0.0742,-13.66,-13.23,-10.85
1612,609703294,-0.7183,-0.6826,-0.0625,-15.61,-14.15,-12.20
1613,609708296,-0.7290,-0.6846,-0.0596,-17.62,-14.88,-13.29
1614,609713462,-0.7285,-0.6895,-0.0605,-20.18,-15.91,-15.00
1615,609718451,-0.7207,-0.6948,-0.0610,-22.56,-16.89,-16.16
1616,609723296,-0.7202,-0.7002,-0.0430,-24.51,-17.50,-17.26
1617,609728296,-0.7188,-0.7021,-0.0386,-27.62,-18.60,-18.78
1618,609733297,-0.7246,-0.7109,-0.0366,-29.63,-19.45,-19.88
1619,609738296,-0.7246,-0.7124,-0.0312,-32.26,-20.61,-21.16
1620,609743296,-0.7344,-0.7212,-0.0269,-35.06,-21.52,-22.32
1621,609748296,-0.7378,-0.7241,-0.0264,-37.93,-22.74,-23.60
1622,609753297,-0.7480,-0.7344,-0.0186,-40.79,-23.72,-24.94
1623,609758296,-0.7461,-0.7383,-0.0083,-43.78,-24.82,-26.10
1624,609763296,-0.7476,-0.7490,-0.0098,-46.59,-25.98,-27.44
1625,609768296,-0.7461,-0.7456,-0.0107,-49.33,-27.13,-28.60
1626,609773296,-0.7466,-0.7529,-0.0039,-52.20,-28.29,-29.94
1627,609778296,-0.7529,-0.7578,-0.0059,-54.51,-29.51,-31.16
1628,609783296,-0.7476,-0.7612,0.0034,-56.59,-30.67,-32.32
1629,609788296,-0.7588,-0.7671,0.0034,-58.35,-31.77,-33.29
1630,609793296,-0.7632,-0.7710,0.0078,-59.94,-32.99,-34.45
1631,609798296,-0.7710,-0.7769,0.0073,-61.16,-34.21,-35.37
1632,609803295,-0.7705,-0.7773,0.0098,-62.32,-35.55,-36.28
1633,609808296,-0.7739,-0.7847,0.0166,-63.05,-36.77,-37.20
1634,609813296,-0.7642,-0.7856,0.0156,-63.66,-38.29,-37.99
1635,609818296,-0.7666,-0.7915,0.0117,-63.78,-39.57,-38.66
1636,609823296,-0.7637,-0.7905,0.0049,-63.84,-41.28,-39.39
1637,609828296,-0.7583,-0.8008,0.0073,-63.54,-42.99,-39.94
1638,609833296,-0.7598,-0.7969,0.0156,-63.05,-44.63,-40.55
1639,609838295,-0.7554,-0.8022,0.0181,-62.38,-46.28,-41.22
1640,609843294,-0.7427,-0.8013,0.0225,-61.52,-48.11,-41.83
1641,609848294,-0.7446,-0.7998,0.0200,-60.37,-49.88,-42.38
1642,609853294,-0.7529,-0.8027,0.0269,-59.27,-51.65,-43.05
1643,609858294,-0.7520,-0.8081,0.0210,-57.99,-53.35,-43.72
1644,609863295,-0.7578,-0.8135,0.0371,-56.65,-55.12,-44.27
1645,609868297,-0.7603,-0.8169,0.0366,-55.61,-56.83,-44.82
1646,609873295,-0.7603,-0.8203,0.0396,-54.57,-58.66,-45.30
1647,609878300,-0.7588,-0.8242,0.0391,-53.66,-60.30,-45.91
1648,609883296,-0.7622,-0.8218,0.0381,-52.80,-62.13,-46.46
1649,609888296,-0.7593,-0.8267,0.0400,-51.83,-64.02,-47.13
1650,609893296,-0.7549,-0.8242,0.0400,-51.04,-65.91,-47.56
1651,609898296,-0.7534,-0.8242,0.0366,-49.88,-67.93,-48.29
1652,609903295,-0.7573,-0.8223,0.0415,-48.78,-70.18,-49.02
1653,609908296,-0.7632,-0.8237,0.0391,-47.74,-72.32,-49.70
1654,609913295,-0.7661,-0.8237,0.0405,-46.34,-74.57,-50.37
1655,609918296,-0.7720,-0.8237,0.0508,-45.18,-76.52,-51.04
1656,609923296,-0.7852,-0.8267,0.0459,-44.15,-78.66,-51.83
1657,609928678,-0.7881,-0.8296,0.0522,-43.11,-80.61,-52.56
1658,609933296,-0.7983,-0.8306,0.0542,-42.20,-82.62,-53.29
1659,609938297,-0.8057,-0.8291,0.0566,-41.46,-84.76,-54.15
1660,609943696,-0.7983,-0.8291,0.0576,-40.67,-86.65,-55.00
1661,609948296,-0.8096,-0.8335,0.0581,-40.24,-88.72,-55.98
1662,609953298,-0.8062,-0.8320,0.0483,-39.76,-90.73,-57.01
1663,609958296,-0.8003,-0.8325,0.0493,-39.39,-93.17,-58.05
1664,609963296,-0.8032,-0.8237,0.0557,-39.09,-95.06,-59.27
1665,609968296,-0.8027,-0.8267,0.0571,-38.78,-97.32,-60.61
1666,609973296,-0.7983,-0.8223,0.0537,-38.54,-99.57,-61.89
1667,609978295,-0.7983,-0.8247,0.0522,-38.29,-101.71,-63.23
1668,609983294,-0.8008,-0.8262,0.0542,-37.99,-103.84,-64.76
1669,609988294,-0.7983,-0.8252,0.0493,-37.93,-106.04,-66.16
1670,609993294,-0.8013,-0.8267,0.0464,-38.05,-108.35,-67.80
1671,609998294,-0.8062,-0.8213,0.0459,-38.05,-110.49,-69.21
1672,610003295,-0.8130,-0.8247,0.0542,-38.35,-112.68,-70.73
1673,610008296,-0.8203,-0.8281,0.0498,-38.60,-114.70,-72.32
1674,610013295,-0.8315,-0.8301,0.0454,-38.96,-116.65,-74.15
1675,610018296,-0.8374,-0.8359,0.0571,-39.88,-118.60,-75.79
1676,610023296,-0.8311,-0.8389,0.0474,-41.04,-120.61,-77.62
1677,610028296,-0.8286,-0.8418,0.0469,-42.68,-122.87,-79.70
1678,610033296,-0.8315,-0.8423,0.0444,-43.84,-124.51,-81.16
1679,610038296,-0.8232,-0.8428,0.0391,-45.55,-126.65,-82.99
1680,610043296,-0.8301,-0.8438,0.0356,-47.32,-128.48,-84.94
1681,610048363,-0.8301,-0.8486,0.0356,-49.15,-130.43,-86.95
1682,610053776,-0.8247,-0.8501,0.0317,-51.65,-132.50,-89.39
1683,610058296,-0.8267,-0.8516,0.0317,-53.29,-133.96,-91.04
1684,610063296,-0.8242,-0.8535,0.0312,-55.61,-135.61,-93.17
1685,610068296,-0.8223,-0.8594,0.0195,-57.74,-137.50,-95.43
1686,610073300,-0.8232,-0.8574,0.0156,-60.24,-139.51,-98.11
1687,610078296,-0.8193,-0.8594,0.0132,-61.83,-140.79,-99.94
1688,610083296,-0.8130,-0.8647,0.0029,-63.84,-142.68,-102.62
1689,610088296,-0.8184,-0.8682,-0.0078,-65.00,-143.96,-104.51
1690,610093296,-0.8335,-0.8701,-0.0068,-66.28,-145.43,-106.83
1691,610098296,-0.8408,-0.8813,-0.0156,-67.50,-146.83,-109.21
1692,610103296,-0.8369,-0.8887,-0.0229,-69.02,-148.23,-111.52
1693,610108295,-0.8433,-0.8931,-0.0288,-70.43,-149.57,-113.96
1694,610113299,-0.8340,-0.8970,-0.0259,-72.01,-150.61,-116.22
1695,610118295,-0.8354,-0.8999,-0.0459,-73.60,-151.77,-118.66
1696,610123294,-0.8286,-0.8999,-0.0508,-74.94,-152.93,-121.04
1697,610128294,-0.8296,-0.8945,-0.0674,-76.22,-153.90,-123.41
1698,610133294,-0.8374,-0.9048,-0.0742,-77.32,-154.76,-125.91
1699,610138294,-0.8364,-0.9043,-0.0840,-78.41,-155.61,-128.23
1700,610143297,-0.8340,-0.9053,-0.0938,-79.45,-156.52,-130.67
1701,610148502,-0.8315,-0.9077,-0.1064,-80.73,-157.20,-132.99
1702,610153296,-0.8291,-0.9077,-0.1162,-81.71,-157.74,-135.30
1703,610158301,-0.8242,-0.9053,-0.1240,-82.74,-158.29,-137.99
1704,610163296,-0.8242,-0.9043,-0.1353,-83.23,-158.48,-139.94
1705,610168296,-0.8276,-0.9014,-0.1382,-83.78,-158.60,-142.20
1706,610173296,-0.8291,-0.9048,-0.1528,-84.27,-158.54,-144.39
1707,610178296,-0.8047,-0.8975,-0.1689,-84.51,-158.35,-147.20
1708,610183296,-0.7974,-0.8955,-0.1831,-84.57,-158.29,-148.84
1709,610188295,-0.7900,-0.8955,-0.1963,-84.45,-158.29,-150.85
1710,610193354,-0.7856,-0.8926,-0.2109,-84.27,-157.99,-152.87
1711,610198416,-0.7754,-0.8887,-0.2197,-83.66,-157.80,-154.76
1712,610203296,-0.7700,-0.8872,-0.2290,-82.87,-157.26,-156.40
1713,610208295,-0.7651,-0.8857,-0.2319,-82.13,-156.71,-157.93
1714,610213296,-0.7520,-0.8799,-0.2437,-80.91,-156.10,-159.51
1715,610218294,-0.7529,-0.8765,-0.2510,-79.39,-155.24,-160.73
1716,610223296,-0.7432,-0.8755,-0.2646,-77.44,-154.33,-161.89
1717,610228296,-0.7373,-0.8706,-0.2710,-75.43,-153.17,-162.80
1718,610233296,-0.7305,-0.8623,-0.2812,-72.99,-152.01,-163.66
1719,610238869,-0.7188,-0.8623,-0.2920,-70.18,-150.18,-164.45
1720,610243298,-0.7095,-0.8643,-0.2983,-68.41,-149.09,-164.94
1721,610248294,-0.6958,-0.8608,-0.3066,-66.22,-147.44,-165.18
1722,610253294,-0.6904,-0.8545,-0.3135,-64.27,-145.67,-165.43
1723,610258294,-0.6699,-0.8530,-0.3218,-62.68,-144.02,-165.49
1724,610263294,-0.6543,-0.8511,-0.3350,-61.52,-142.13,-165.61
1725,610268294,-0.6235,-0.8477,-0.3457,-60.43,-140.30,-165.67
1726,610273294,-0.6162,-0.8472,-0.3564,-59.63,-138.35,-165.55
1727,610278294,-0.5991,-0.8472,-0.3579,-58.90,-136.40,-165.30
1728,610283294,-0.5986,-0.8501,-0.3701,-58.23,-134.33,-165.06
1729,610288294,-0.5835,-0.8550,-0.3716,-57.80,-132.13,-164.82
1730,610293294,-0.5674,-0.8584,-0.3833,-57.62,-129.82,-164.39
1731,610298294,-0.5557,-0.8618,-0.3843,-57.50,-127.56,-163.96
1732,610303591,-0.5352,-0.8599,-0.3906,-57.44,-124.63,-163.35
1733,610308296,-0.5327,-0.8579,-0.3999,-57.26,-122.01,-162.87
1734,610313605,-0.5264,-0.8540,-0.4014,-56.77,-119.33,-162.38
1735,610318296,-0.5093,-0.8569,-0.4082,-56.65,-116.71,-162.01
1736,610323296,-0.4878,-0.8540,-0.4131,-56.40,-113.72,-161.59
1737,610328296,-0.4697,-0.8574,-0.4238,-56.16,-110.85,-161.16
1738,610333298,-0.4541,-0.8560,-0.4312,-55.73,-107.93,-160.79
1739,610338773,-0.4336,-0.8521,-0.4351,-55.24,-105.06,-160.37
1740,610343296,-0.4185,-0.8462,-0.4453,-54.57,-102.20,-159.88
1741,610348297,-0.3862,-0.8462,-0.4507,-53.84,-99.27,-159.45
1742,610353296,-0.3604,-0.8472,-0.4570,-52.93,-96.46,-159.02
1743,610358297,-0.3354,-0.8389,-0.4595,-52.26,-93.78,-158.78
1744,610363296,-0.3208,-0.8428,-0.4658,-51.46,-90.79,-158.54
1745,610368296,-0.3057,-0.8496,-0.4736,-50.85,-88.17,-158.17
1746,610373296,-0.3013,-0.8535,-0.4717,-50.73,-85.18,-157.74
1747,610378296,-0.2783,-0.8491,-0.4717,-50.85,-82.32,-157.50
1748,610383295,-0.2725,-0.8550,-0.4785,-51.16,-78.96,-157.20
1749,610388295,-0.2539,-0.8521,-0.4819,-51.89,-75.37,-157.26
1750,610393296,-0.2310,-0.8594,-0.4810,-53.23,-71.77,-157.26
1751,610398355,-0.2222,-0.8594,-0.4839,-54.82,-68.05,-157.20
1752,610403296,-0.2046,-0.8584,-0.4858,-56.95,-64.02,-157.44
1753,610408296,-0.1987,-0.8594,-0.4849,-59.51,-60.12,-157.74
1754,610413296,-0.1738,-0.8535,-0.4863,-62.13,-56.04,-157.99
1755,610418296,-0.1577,-0.8511,-0.4897,-65.18,-51.95,-158.54
1756,610423296,-0.1318,-0.8462,-0.4946,-68.23,-47.87,-158.96
1757,610428296,-0.1157,-0.8457,-0.5010,-71.28,-43.78,-159.39
1758,610433296,-0.0854,-0.8418,-0.4937,-74.33,-39.76,-160.00
1759,610438295,-0.0664,-0.8345,-0.4961,-77.01,-35.73,-160.43
1760,610443296,-0.0391,-0.8242,-0.4990,-79.51,-31.89,-160.98
1761,610448295,-0.0220,-0.8110,-0.4888,-81.52,-27.99,-161.40
1762,610453294,-0.0054,-0.7979,-0.4897,-83.48,-24.45,-161.89
1763,610458294,0.0190,-0.8013,-0.5044,-85.12,-20.73,-162.32
1764,610463294,0.0557,-0.7905,-0.4731,-87.56,-17.20,-162.93
1765,610468294,0.0664,-0.7925,-0.5356,-90.67,-13.11,-163.23
1766,610473294,0.0786,-0.7915,-0.5811,-93.78,-9.63,-163.54
1767,610478480,0.0913,-0.7949,-0.5205,-97.13,-5.91,-163.84
1768,610483299,0.1172,-0.8091,-0.5132,-100.79,-1.89,-163.96
1769,610488296,0.1396,-0.8125,-0.5684,-104.88,1.89,-163.84
1770,610493296,0.1436,-0.7998,-0.5693,-108.84,5.55,-163.78
1771,610498299,0.1543,-0.8027,-0.5225,-112.68,9.57,-163.23
1772,610503296,0.1616,-0.8032,-0.5342,-116.22,13.54,-162.50
1773,610508377,0.1885,-0.7988,-0.5796,-119.33,17.32,-161.77
1774,610513296,0.2065,-0.7866,-0.5762,-122.56,21.16,-160.73
1775,610518295,0.2183,-0.7773,-0.5518,-125.30,25.37,-159.57
1776,610523296,0.2549,-0.7344,-0.6128,-127.50,29.63,-158.54
1777,610528296,0.3403,-0.6133,-0.8242,-129.15,33.41,-157.26
1778,610533296,0.4077,-0.5669,-0.8101,-130.18,37.99,-156.10
1779,610538294,0.3228,-0.5913,-0.7529,-131.34,44.82,-154.02
1780,610543296,0.2720,-0.5972,-0.7695,-132.68,49.33,-152.50
1781,610548296,0.2471,-0.6025,-0.6709,-134.21,54.63,-150.55
1782,610553296,0.2842,-0.5815,-0.5688,-134.82,60.18,-148.54
1783,610558296,0.2988,-0.5615,-0.5479,-133.78,65.00,-146.46
1784,610563297,0.3193,-0.5459,-0.5322,-131.40,69.57,-144.51
1785,610568294,0.3188,-0.5269,-0.4941,-128.23,73.90,-142.44
1786,610573295,0.3418,-0.4775,-0.4712,-124.51,78.05,-140.37
1787,610578294,0.3960,-0.3481,-0.4824,-120.98,81.71,-138.11
1788,610583294,0.4663,-0.2578,-0.5259,-118.35,85.91,-136.04
1789,610588294,0.4658,-0.2456,-0.5723,-117.20,88.23,-133.48
1790,610593294,0.4951,-0.1841,-0.6123,-117.26,91.89,-130.43
1791,610598294,0.5586,-0.1294,-0.6680,-118.72,95.85,-127.38
1792,610603294,0.5679,-0.1450,-0.6797,-121.28,99.88,-123.78
1793,610608294,0.5298,-0.1997,-0.6626,-124.33,104.02,-119.70
1794,610613294,0.4819,-0.2568,-0.5981,-126.83,108.23,-114.94
1795,610618294,0.4492,-0.2803,-0.5322,-127.62,112.26,-109.88
1796,610623294,0.4312,-0.2827,-0.4570,-126.52,116.28,-104.70
1797,610628294,0.4263,-0.2720,-0.3989,-123.29,119.82,-99.45
1798,610633294,0.4292,-0.2603,-0.3379,-118.35,123.35,-94.27
1799,610638294,0.4121,-0.2710,-0.2749,-112.13,126.71,-89.15
1800,610643294,0.4004,-0.2939,-0.2329,-104.88,129.94,-83.96
1801,610648294,0.3882,-0.3159,-0.1924,-97.26,133.23,-78.60
1802,610653294,0.3804,-0.3306,-0.1450,-88.90,136.59,-73.11
1803,610658294,0.3911,-0.3340,-0.1040,-80.00,140.00,-67.62
1804,610663298,0.4004,-0.3320,-0.0776,-70.67,143.60,-62.13
1805,610668294,0.4092,-0.3237,-0.0449,-60.98,147.32,-56.59
1806,610673294,0.4033,-0.3237,-0.0073,-51.04,151.10,-51.22
1807,610678294,0.4092,-0.3135,0.0005,-41.34,154.82,-45.85
1808,610683294,0.4126,-0.2993,0.0156,-31.71,158.29,-40.37
1809,610688294,0.4282,-0.2817,0.0391,-22.50,162.13,-35.24
1810,610693297,0.4536,-0.2720,0.0625,-13.29,165.55,-30.00
1811,610698296,0.4688,-0.2583,0.0835,-4.76,169.15,-24.94
1812,610703296,0.4722,-0.2471,0.0942,3.35,172.44,-20.00
1813,610708296,0.4688,-0.2402,0.1040,10.67,175.67,-15.00
1814,610713296,0.4585,-0.2402,0.1294,17.07,178.78,-10.06
1815,610718296,0.4482,-0.2339,0.1543,22.62,181.65,-5.37
1816,610723432,0.4331,-0.2280,0.1895,27.87,185.12,0.24
1817,610728532,0.4136,-0.2280,0.2119,31.40,187.99,4.94
1818,610733463,0.4067,-0.2349,0.2451,34.15,190.61,9.45
1819,610738423,0.3887,-0.2461,0.2729,36.04,193.29,13.96
1820,610743357,0.3809,-0.2476,0.2896,37.07,195.24,17.80
1821,610748572,0.3696,-0.2534,0.3296,37.93,198.48,23.54
1822,610753296,0.3599,-0.2505,0.3535,38.17,200.55,27.13
1823,610758297,0.3491,-0.2539,0.3730,38.17,202.93,32.01
1824,610763295,0.3359,-0.2651,0.4072,37.99,205.49,36.71
1825,610768298,0.3291,-0.2734,0.4307,37.87,208.17,41.65
1826,610773472,0.3252,-0.2461,0.4629,38.35,211.16,47.32
1827,610778367,0.3096,-0.2944,0.4722,39.51,213.78,51.95
1828,610783295,0.2954,-0.3120,0.4878,40.43,215.61,55.85
1829,610788296,0.2637,-0.3188,0.5049,41.89,217.99,60.73
1830,610793759,0.2363,-0.3301,0.5122,43.54,221.04,66.71
1831,610798296,0.2271,-0.3384,0.5215,44.57,222.44,70.67
1832,610803296,0.1958,-0.3579,0.5586,46.10,224.76,76.65
1833,610808296,0.1782,-0.3735,0.5977,47.01,226.65,81.89
1834,610813296,0.1704,-0.3833,0.6318,47.38,228.72,86.83
1835,610818296,0.1709,-0.3721,0.6636,47.13,230.49,91.34
1836,610823296,0.1479,-0.4155,0.6929,46.46,231.83,96.40
1837,610828296,0.1196,-0.4272,0.7246,45.49,233.23,101.52
1838,610833296,0.0757,-0.4541,0.7715,43.84,234.27,106.77
1839,610838562,0.0498,-0.4673,0.8047,42.38,234.88,112.13
1840,610843296,-0.0005,-0.5015,0.8599,41.04,235.37,117.68
1841,610848296,0.0093,-0.5244,0.8853,39.70,235.24,123.35
1842,610853296,-0.0034,-0.5674,0.9829,39.57,234.27,129.09
1843,610858296,-0.0347,-0.6318,1.0679,40.73,232.80,135.18
1844,610863296,-0.0933,-0.7075,1.1465,43.78,230.43,141.34
1845,610868296,-0.1670,-0.7905,1.2617,49.09,227.20,147.68
1846,610873297,-0.2656,-0.8862,1.3853,57.50,222.74,154.15
1847,610878295,-0.3340,-0.9800,1.5039,69.45,217.26,160.49
1848,610883294,-0.3550,-1.0547,1.6040,85.18,210.37,166.59
1849,610888294,-0.3599,-1.1133,1.8032,104.51,202.01,171.95
1850,610893294,-0.3691,-1.1646,1.9619,127.44,192.56,176.46
1851,610898294,-0.4355,-1.2231,2.0884,154.09,181.10,179.82
1852,610903294,-0.5146,-1.2603,2.2900,183.41,167.62,182.20
1853,610908296,-0.5952,-1.3003,2.5020,215.00,152.20,183.48
1854,610913296,-0.6025,-1.3066,2.6572,247.68,133.84,183.78
1855,610918296,-0.5923,-1.3496,2.8892,279.70,112.62,183.29
1856,610923296,-0.5869,-1.3779,3.1294,309.94,88.05,182.62
1857,610928296,-0.5918,-1.3906,3.3203,336.59,62.20,182.01
1858,610933533,-0.5835,-1.3955,3.4990,357.80,32.20,181.95
1859,610938296,-0.5908,-1.4019,3.7446,371.59,0.00,182.87
1860,610943296,-0.6060,-1.3916,3.9331,376.83,-34.63,185.00
1861,610948295,-0.6377,-1.3862,4.0728,374.33,-71.77,188.66
1862,610953296,-0.6777,-1.3906,4.2031,364.76,-110.55,193.78
1863,610958296,-0.7607,-1.3701,4.2637,349.94,-150.67,200.37
1864,610963295,-0.8345,-1.3687,4.3022,331.34,-192.01,207.74
1865,610968295,-0.9346,-1.3545,4.2866,310.98,-233.66,216.22
1866,610973294,-1.0298,-1.3574,4.2261,290.37,-275.55,225.49
1867,610978294,-1.1011,-1.3735,4.1338,270.12,-316.83,235.30
1868,610983297,-1.1885,-1.3838,3.9922,251.16,-357.74,245.61
1869,610988298,-1.2778,-1.3862,3.8018,233.66,-397.38,255.85
1870,610993294,-1.3286,-1.3755,3.5776,217.50,-436.04,266.04
1871,610998296,-1.3682,-1.3892,3.3057,202.80,-473.29,275.91
1872,611003296,-1.4023,-1.4341,3.0020,189.70,-509.02,285.73
1873,611008296,-1.4424,-1.5176,2.6631,178.84,-543.05,295.18
1874,611013296,-1.4888,-1.6499,2.3101,169.94,-574.51,304.45
1875,611018296,-1.5518,-1.7627,1.9062,164.21,-603.72,312.87
1876,611023296,-1.6436,-1.9185,1.5181,161.22,-629.94,320.12
1877,611028296,-1.7041,-2.0869,1.0864,159.21,-653.23,326.04
1878,611033296,-1.7378,-2.2275,0.6509,156.28,-673.17,330.24
1879,611038296,-1.7803,-2.3096,0.2129,150.00,-689.39,332.20
1880,611043534,-1.8301,-2.3813,-0.1216,137.99,-701.28,331.65
1881,611048296,-1.9707,-2.3730,-0.4932,119.33,-708.90,327.74
1882,611053296,-2.1401,-2.3076,-0.7568,93.90,-710.91,319.76
1883,611058371,-2.1562,-2.0854,-0.9048,64.57,-703.96,305.06
1884,611063296,-2.1177,-2.0190,-1.1533,29.82,-681.10,276.04
1885,611068296,-2.0542,-2.3950,-1.8516,9.15,-661.10,253.11
1886,611073296,-2.1260,-2.7319,-2.3579,-15.37,-637.20,226.65
1887,611078297,-2.1851,-2.5908,-2.5981,-39.51,-611.65,200.43
1888,611083296,-2.1602,-2.3984,-2.9307,-68.90,-576.22,165.67
1889,611088296,-2.1343,-2.3408,-3.0972,-88.84,-550.79,141.46
1890,611093418,-2.0391,-2.2856,-3.2163,-112.56,-517.62,111.16
1891,611098624,-1.9067,-2.2314,-3.3003,-133.90,-483.60,81.59
1892,611103296,-1.7397,-2.1626,-3.3979,-154.82,-441.04,46.34
1893,611108296,-1.6187,-2.1265,-3.4683,-165.61,-411.52,23.66
1894,611113297,-1.4238,-2.0728,-3.5259,-174.88,-373.29,-3.11
1895,611118297,-1.2212,-1.9766,-3.5410,-179.21,-326.40,-32.26
1896,611123296,-1.0884,-1.9209,-3.5215,-178.29,-294.51,-49.51
1897,611128296,-1.0264,-1.8257,-3.4893,-172.99,-255.49,-67.87
1898,611133296,-0.9058,-1.7300,-3.4199,-162.38,-217.56,-82.87
1899,611138537,-0.7480,-1.6211,-3.3198,-145.85,-181.59,-94.76
1900,611143296,-0.6108,-1.5200,-3.2051,-123.60,-147.32,-103.84
1901,611148296,-0.5034,-1.4434,-3.0376,-96.40,-115.61,-110.43
1902,611153709,-0.4072,-1.3228,-2.8232,-60.37,-81.16,-115.61
1903,611158296,-0.3442,-1.2500,-2.6934,-35.85,-60.12,-117.93
1904,611163439,-0.2744,-1.1543,-2.5112,-6.34,-36.40,-119.39
1905,611168294,-0.2280,-1.0557,-2.3389,20.55,-15.12,-119.94
1906,611173294,-0.1611,-0.9697,-2.1772,43.05,3.72,-119.63
1907,611178294,-0.1167,-0.8955,-2.0273,60.85,20.12,-118.84
1908,611183294,-0.0850,-0.8281,-1.8750,73.41,34.70,-117.74
1909,611188294,-0.0474,-0.7656,-1.7261,80.67,47.32,-116.34
1910,611193294,-0.0122,-0.7139,-1.5864,83.35,58.05,-114.82
1911,611198294,0.0288,-0.6680,-1.4526,82.01,67.74,-113.29
1912,611203294,0.0605,-0.6294,-1.3228,77.56,75.85,-111.65
1913,611208297,0.1025,-0.5879,-1.2109,70.98,82.68,-109.82
1914,611213299,0.1333,-0.5610,-1.1030,62.93,87.99,-107.93
1915,611218296,0.1768,-0.5361,-0.9927,53.78,93.29,-106.10
1916,611223754,0.2065,-0.5195,-0.8740,42.68,97.99,-103.96
1917,611228296,0.2271,-0.4946,-0.7949,35.37,100.73,-102.26
1918,611233296,0.2593,-0.4834,-0.6987,26.83,103.23,-100.12
1919,611238295,0.2788,-0.4595,-0.6177,18.84,105.00,-97.93
1920,611243295,0.3032,-0.4541,-0.5420,11.77,106.22,-95.37
1921,611248296,0.3237,-0.4434,-0.4756,5.91,106.77,-92.44
1922,611253296,0.3369,-0.4429,-0.4258,1.16,106.77,-89.27
1923,611258296,0.3521,-0.4478,-0.3848,-2.07,105.98,-85.49
1924,611263295,0.3726,-0.4585,-0.3384,-4.51,104.70,-81.52
1925,611268481,0.4058,-0.4683,-0.2974,-6.16,102.32,-75.73
1926,611273296,0.4272,-0.4766,-0.2764,-6.95,100.49,-71.77
1927,611278296,0.4453,-0.4854,-0.2510,-7.93,97.74,-66.40
1928,611283297,0.4639,-0.4834,-0.2188,-8.90,94.88,-60.67
1929,611288692,0.4814,-0.4917,-0.1919,-10.18,90.85,-53.90
1930,611293296,0.4932,-0.4897,-0.1743,-11.34,88.17,-49.33
1931,611298587,0.4961,-0.4854,-0.1494,-13.48,85.06,-42.50
1932,611303665,0.5039,-0.4854,-0.1367,-15.37,80.98,-36.77
1933,611308296,0.5215,-0.4917,-0.1245,-17.01,77.80,-32.44
1934,611313296,0.5205,-0.4907,-0.1050,-19.57,73.41,-26.28
1935,611318296,0.5288,-0.4902,-0.0889,-22.07,69.70,-21.22
1936,611323683,0.5254,-0.4956,-0.0698,-24.70,66.04,-16.34
1937,611328296,0.5210,-0.4966,-0.0659,-27.32,62.50,-11.89
1938,611333296,0.5254,-0.5186,-0.0654,-29.82,58.78,-7.50
1939,611338296,0.5151,-0.5342,-0.0557,-31.95,55.18,-3.29
1940,611343296,0.5239,-0.5400,-0.0620,-33.78,51.52,0.91
1941,611348296,0.5278,-0.5518,-0.0586,-35.12,47.99,4.88
1942,611353506,0.5347,-0.5625,-0.0532,-36.34,44.33,8.96
1943,611358722,0.5303,-0.5659,-0.0444,-37.26,40.67,12.68
1944,611363296,0.5229,-0.5845,-0.0464,-38.11,37.38,16.28
1945,611368296,0.5278,-0.6011,-0.0459,-38.72,34.15,19.51
1946,611373295,0.5278,-0.6177,-0.0381,-39.51,31.10,22.87
1947,611378295,0.5381,-0.6206,-0.0322,-40.00,27.93,25.85
1948,611383294,0.5371,-0.6309,-0.0439,-40.37,25.00,28.72
1949,611388294,0.5425,-0.6396,-0.0469,-40.61,22.44,31.34
1950,611393294,0.5449,-0.6592,-0.0508,-40.67,19.76,33.84
1951,611398297,0.5405,-0.6665,-0.0454,-40.55,17.38,36.16
1952,611403294,0.5312,-0.6733,-0.0415,-40.12,14.94,38.17
1953,611408298,0.5317,-0.6748,-0.0396,-39.57,12.93,40.18
1954,611413296,0.5264,-0.6753,-0.0400,-38.78,10.79,41.89
1955,611418296,0.5254,-0.6821,-0.0288,-37.62,9.09,43.17
1956,611423296,0.5225,-0.6929,-0.0352,-36.28,7.38,44.39
1957,611428772,0.5190,-0.7041,-0.0342,-34.63,5.67,45.30
1958,611433296,0.5190,-0.7163,-0.0361,-32.93,3.96,46.28
1959,611438296,0.5054,-0.7261,-0.0435,-30.85,2.32,46.95
1960,611443296,0.5073,-0.7354,-0.0615,-28.84,0.91,47.56
1961,611448462,0.4893,-0.7437,-0.0537,-27.01,-0.73,47.87
1962,611453757,0.4897,-0.7495,-0.0273,-24.88,-2.07,48.29
1963,611458296,0.4731,-0.7715,-0.0361,-22.74,-3.11,48.48
1964,611463296,0.4751,-0.7876,-0.0518,-20.55,-4.02,48.66
1965,611468296,0.4795,-0.7988,-0.0576,-18.41,-4.88,48.66
1966,611473295,0.4624,-0.8140,-0.0698,-16.16,-5.55,48.66
1967,611478296,0.4585,-0.8237,-0.0708,-14.15,-6.04,48.72
1968,611483294,0.4648,-0.8418,-0.0747,-12.20,-6.34,48.66
1969,611488294,0.4585,-0.8521,-0.1152,-10.91,-6.65,48.48
1970,611493602,0.4399,-0.8472,-0.1304,-10.67,-6.77,48.23
1971,611498296,0.4434,-0.8555,-0.1045,-10.79,-6.59,47.80
1972,611503296,0.5283,-0.9565,-0.1084,-12.20,-6.22,47.62
1973,611508296,0.4785,-0.9121,-0.1572,-15.49,-5.67,47.38
1974,611513295,0.4434,-0.8555,-0.2036,-19.70,-5.18,46.34
1975,611518723,0.4175,-0.8052,-0.1650,-24.45,-4.21,45.24
1976,611523296,0.4111,-0.7827,-0.1289,-29.21,-3.05,43.90
1977,611528296,0.4053,-0.7827,-0.1318,-34.15,-2.13,42.74
1978,611533298,0.3936,-0.7939,-0.1338,-39.09,-1.40,41.89
1979,611538296,0.3960,-0.8018,-0.1235,-44.27,-0.43,40.98
1980,611543296,0.4048,-0.8037,-0.1245,-49.21,0.37,40.00
1981,611548296,0.4082,-0.7939,-0.1479,-54.21,1.22,38.96
1982,611553296,0.3965,-0.7905,-0.1631,-59.33,1.77,38.05
1983,611558295,0.4092,-0.7549,-0.1694,-64.76,2.50,37.13
1984,611563296,0.4116,-0.7373,-0.1587,-70.49,3.17,36.28
1985,611568296,0.4219,-0.7520,-0.1597,-75.98,3.96,35.79
1986,611573296,0.4375,-0.7617,-0.1699,-81.46,4.39,35.43
1987,611578294,0.4399,-0.7749,-0.1724,-86.52,4.82,35.30
1988,611583294,0.4360,-0.7891,-0.1636,-91.10,5.43,35.00
1989,611588294,0.4492,-0.7793,-0.1865,-95.24,5.79,34.88
1990,611593294,0.4492,-0.7622,-0.1992,-98.96,6.10,34.70
1991,611598294,0.4458,-0.7461,-0.1982,-102.50,6.40,34.51
1992,611603297,0.4487,-0.7339,-0.2065,-105.73,6.77,34.15
1993,611608777,0.4502,-0.7261,-0.2158,-109.45,7.32,34.02
1994,611613296,0.4497,-0.7300,-0.2134,-112.01,7.56,33.90
1995,611618296,0.4419,-0.7241,-0.2148,-115.24,8.05,33.90
1996,611623295,0.4375,-0.7144,-0.2158,-118.60,8.48,33.96
1997,611628294,0.4282,-0.6899,-0.2393,-121.83,8.78,34.33
1998,611633294,0.4170,-0.6528,-0.2471,-125.18,8.90,34.63
1999,611638294,0.4082,-0.6440,-0.2568,-128.29,9.27,35.12
2000,611643294,0.4116,-0.6372,-0.2661,-131.52,9.57,35.73
2001,611648294,0.3989,-0.6309,-0.2656,-134.63,10.06,36.34
2002,611653294,0.3926,-0.6309,-0.2773,-137.80,10.18,37.07
2003,611658294,0.3999,-0.6362,-0.2764,-140.79,10.67,38.05
2004,611663294,0.3950,-0.6338,-0.2852,-143.78,10.98,39.09
2005,611668294,0.3965,-0.6348,-0.2969,-146.71,11.22,40.30
2006,611673294,0.3979,-0.6206,-0.2993,-149.45,11.28,41.59
2007,611678294,0.3970,-0.6245,-0.2998,-152.07,11.34,42.99
2008,611683294,0.4067,-0.6230,-0.3037,-154.51,11.46,44.39
2009,611688294,0.4116,-0.6333,-0.3145,-156.71,11.34,46.10
2010,611693294,0.4180,-0.6367,-0.3135,-158.90,11.10,48.11
2011,611698294,0.4204,-0.6421,-0.3193,-160.55,10.79,50.18
2012,611703294,0.4263,-0.6421,-0.3237,-162.01,10.24,52.44
2013,611708299,0.4326,-0.6401,-0.3228,-162.93,9.57,54.94
2014,611713296,0.4395,-0.6357,-0.3271,-163.72,8.72,57.62
2015,611718345,0.4463,-0.6309,-0.3267,-164.15,7.99,60.30
2016,611723646,0.4434,-0.6328,-0.3242,-164.09,7.01,63.66
2017,611728296,0.4414,-0.6318,-0.3340,-163.90,6.22,65.85
2018,611733298,0.4404,-0.6309,-0.3359,-163.35,5.30,68.78
2019,611738295,0.4302,-0.6289,-0.3413,-162.50,4.21,71.65
2020,611743296,0.4229,-0.6313,-0.3413,-161.59,3.29,74.63
2021,611748296,0.4199,-0.6265,-0.3447,-160.49,2.26,77.62
2022,611753636,0.4033,-0.6265,-0.3438,-159.09,1.28,81.22
2023,611758296,0.3940,-0.6201,-0.3457,-158.05,0.43,83.66
2024,611763296,0.3931,-0.6201,-0.3506,-156.59,-0.49,87.20
2025,611768296,0.3872,-0.6196,-0.3521,-155.67,-1.04,88.54
2026,611773296,0.3701,-0.6191,-0.3589,-154.51,-1.59,92.07
2027,611778295,0.3594,-0.6147,-0.3540,-153.23,-2.20,95.18
2028,611783295,0.3521,-0.6094,-0.3560,-152.20,-2.62,98.17
2029,611788294,0.3413,-0.6064,-0.3618,-150.79,-2.99,101.10
2030,611793294,0.3384,-0.5991,-0.3706,-149.39,-3.29,103.84
2031,611798294,0.3271,-0.5972,-0.3696,-148.05,-3.66,106.77
2032,611803294,0.3135,-0.5898,-0.3823,-146.22,-3.90,109.51
2033,611808294,0.3169,-0.5820,-0.3887,-144.33,-4.09,112.26
2034,611813476,0.2998,-0.5864,-0.3979,-141.46,-4.33,115.55
2035,611818360,0.2969,-0.5825,-0.4092,-138.78,-4.57,118.23
2036,611823297,0.2852,-0.5835,-0.4033,-135.85,-4.82,121.10
2037,611828296,0.2700,-0.5801,-0.4175,-132.68,-5.30,123.72
2038,611833296,0.2632,-0.5859,-0.4229,-129.15,-5.79,126.65
2039,611838297,0.2593,-0.5952,-0.4321,-125.49,-6.16,129.57
2040,611843296,0.2549,-0.6021,-0.4526,-121.77,-6.89,132.62
2041,611848296,0.2544,-0.6040,-0.4609,-117.93,-7.38,135.98
2042,611853296,0.2437,-0.6074,-0.4692,-113.84,-7.99,138.72
2043,611858296,0.2334,-0.6079,-0.4697,-109.94,-8.23,141.89
2044,611863296,0.2183,-0.6084,-0.4780,-105.73,-8.54,144.88
2045,611868296,0.2031,-0.6011,-0.4834,-101.59,-8.54,147.93
2046,611873296,0.1904,-0.5957,-0.4897,-97.38,-8.60,150.67
2047,611878463,0.1704,-0.5923,-0.5020,-92.93,-8.66,153.05
2048,611883296,0.1592,-0.5859,-0.4995,-88.78,-8.54,155.55
2049,611888296,0.1406,-0.5786,-0.4990,-84.45,-8.29,157.93
2050,611893297,0.1338,-0.5635,-0.4980,-80.18,-8.17,160.18
2051,611898555,0.1270,-0.5630,-0.5054,-75.98,-7.93,162.44
2052,611903299,0.1108,-0.5635,-0.4961,-71.83,-8.05,164.57
2053,611908296,0.1001,-0.5659,-0.5020,-67.93,-7.93,166.65
2054,611913490,0.0933,-0.5684,-0.5122,-64.02,-7.93,168.84
2055,611918296,0.0781,-0.5762,-0.5088,-60.49,-7.87,170.98
2056,611923296,0.0640,-0.5874,-0.5195,-57.13,-7.80,173.05
2057,611928296,0.0503,-0.6050,-0.5332,-53.84,-7.56,175.37
2058,611933297,0.0415,-0.6147,-0.5420,-50.79,-7.38,177.68
2059,611938296,0.0195,-0.6177,-0.5581,-47.74,-7.01,179.88
2060,611943296,0.0107,-0.6230,-0.5679,-44.82,-6.40,182.32
2061,611948296,-0.0039,-0.6294,-0.5742,-41.65,-5.85,184.57
2062,611953296,-0.0176,-0.6245,-0.5771,-38.60,-5.37,186.77
2063,611958297,-0.0332,-0.6274,-0.5894,-35.43,-4.51,189.15
2064,611963296,-0.0332,-0.6245,-0.5801,-32.20,-4.02,191.46
2065,611968296,-0.0488,-0.6191,-0.5864,-28.78,-3.48,193.78
2066,611973759,-0.0610,-0.6133,-0.5796,-25.24,-2.93,195.98
2067,611978296,-0.0742,-0.6138,-0.5762,-21.77,-2.44,198.23
2068,611983297,-0.0874,-0.6123,-0.5737,-18.23,-2.20,200.43
2069,611988783,-0.0952,-0.6040,-0.5708,-14.51,-1.83,202.68
2070,611993296,-0.1079,-0.5977,-0.5610,-10.79,-1.34,204.88
2071,611998296,-0.1240,-0.5952,-0.5576,-6.95,-1.04,207.07
2072,612003297,-0.1392,-0.5947,-0.5562,-3.17,-0.79,209.15
2073,612008296,-0.1577,-0.6099,-0.5674,0.55,-0.37,211.40
2074,612013296,-0.1782,-0.6216,-0.5820,4.27,0.18,213.41
2075,612018296,-0.2012,-0.6274,-0.5820,7.56,0.98,215.55
2076,612023296,-0.2295,-0.6426,-0.5786,10.79,2.26,217.56
2077,612028724,-0.2593,-0.6528,-0.6094,13.96,3.90,219.51
2078,612033296,-0.2891,-0.6616,-0.6201,16.89,5.73,221.46
2079,612038296,-0.3120,-0.6616,-0.6323,19.94,7.93,223.23
2080,612043296,-0.3311,-0.6606,-0.6372,23.23,10.18,224.94
2081,612048296,-0.3584,-0.6621,-0.6509,26.95,12.62,226.59
2082,612053296,-0.3789,-0.6597,-0.6484,30.73,15.00,228.17
2083,612058295,-0.3936,-0.6621,-0.6362,34.76,17.50,229.76
2084,612063452,-0.4023,-0.6548,-0.6318,38.96,20.00,231.28
2085,612068294,-0.4121,-0.6523,-0.6284,43.60,22.50,232.93
2086,612073296,-0.4180,-0.6392,-0.6196,48.29,24.88,234.57
2087,612078295,-0.4229,-0.6348,-0.6084,53.54,27.07,236.22
2088,612083294,-0.4351,-0.6338,-0.5962,58.96,29.02,237.80
2089,612088295,-0.4409,-0.6318,-0.5933,64.63,30.85,239.39
2090,612093337,-0.4521,-0.6328,-0.5874,70.49,32.62,241.16
2091,612098294,-0.4658,-0.6421,-0.5791,76.40,34.51,242.93
