# skilleye imu stream v1
# device=xiao_esp32c6 imu=mpu6050 addr=0x68
# rate_hz=200 accel_range_g=16 gyro_range_dps=2000 dlpf_hz=94
# units: accel in g, gyro in deg/s, t_us in microseconds since boot (monotonic)
# no shared clock with the camera -- tap the racket once before each take
# so both recordings share a spike to align on
seq,t_us,ax,ay,az,gx,gy,gz
0,70942980,0.4683,0.8750,-0.0552,1.83,-3.84,4.82
1,70948110,0.4707,0.8789,-0.0469,1.95,-4.02,4.88
2,70952982,0.4741,0.8789,-0.0513,1.95,-4.09,4.94
3,70957983,0.4712,0.8843,-0.0571,2.07,-4.02,5.00
4,70962982,0.4688,0.8892,-0.0547,2.01,-4.02,5.18
5,70967982,0.4722,0.8818,-0.0566,2.01,-3.84,5.30
6,70972982,0.4751,0.8877,-0.0615,2.01,-3.90,5.49
7,70977981,0.4722,0.8896,-0.0605,2.01,-3.90,5.61
8,70982982,0.4731,0.8877,-0.0576,1.95,-3.66,5.73
9,70987981,0.4727,0.8955,-0.0693,1.95,-3.78,5.79
10,70992982,0.4692,0.8916,-0.0659,1.89,-3.72,6.16
11,70997982,0.4717,0.8916,-0.0610,1.83,-3.66,6.10
12,71003314,0.4717,0.8901,-0.0591,1.83,-3.66,6.40
13,71007983,0.4717,0.8979,-0.0635,1.65,-3.48,6.52
14,71012981,0.4736,0.8901,-0.0669,1.77,-3.41,6.59
15,71017982,0.4692,0.8892,-0.0659,1.89,-3.35,6.77
16,71022980,0.4712,0.8896,-0.0757,1.89,-3.17,6.89
17,71027982,0.4731,0.8872,-0.0703,1.95,-3.23,7.07
18,71032981,0.4746,0.8857,-0.0649,1.83,-3.17,7.20
19,71037982,0.4746,0.8853,-0.0674,1.95,-3.05,7.44
20,71042980,0.4736,0.8818,-0.0659,1.89,-2.99,7.62
21,71047981,0.4692,0.8843,-0.0708,1.95,-3.05,7.68
22,71052984,0.4727,0.8779,-0.0684,2.20,-2.87,7.68
23,71057982,0.4771,0.8774,-0.0688,2.07,-2.74,7.87
24,71062981,0.4751,0.8770,-0.0703,2.01,-2.74,8.05
25,71067984,0.4727,0.8794,-0.0713,2.13,-2.62,8.11
26,71072981,0.4731,0.8721,-0.0659,2.20,-2.50,8.11
27,71077982,0.4756,0.8735,-0.0703,2.07,-2.38,8.17
28,71082981,0.4736,0.8740,-0.0674,2.07,-2.38,8.23
29,71087982,0.4766,0.8687,-0.0679,1.95,-2.32,8.23
30,71092981,0.4722,0.8657,-0.0664,1.89,-2.01,8.29
31,71097982,0.4702,0.8599,-0.0674,1.89,-1.95,8.11
32,71102981,0.4746,0.8638,-0.0576,1.77,-1.95,8.17
33,71107980,0.4731,0.8613,-0.0645,1.71,-1.89,8.05
34,71112982,0.4683,0.8599,-0.0693,1.65,-1.83,7.93
35,71118337,0.4707,0.8530,-0.0693,1.59,-1.71,7.93
36,71122982,0.4731,0.8521,-0.0640,1.40,-1.65,7.68
37,71127982,0.4712,0.8521,-0.0664,1.34,-1.65,7.68
38,71132982,0.4712,0.8481,-0.0664,1.46,-1.59,7.50
39,71137980,0.4702,0.8447,-0.0596,1.40,-1.52,7.26
40,71142983,0.4722,0.8438,-0.0649,1.28,-1.40,7.13
41,71147981,0.4707,0.8438,-0.0610,1.34,-1.46,6.89
42,71152980,0.4751,0.8423,-0.0610,1.40,-1.40,6.71
43,71157982,0.4751,0.8438,-0.0679,1.52,-1.28,6.59
44,71162982,0.4746,0.8413,-0.0679,1.65,-1.10,6.40
45,71167980,0.4785,0.8438,-0.0684,1.71,-1.10,6.22
46,71172982,0.4761,0.8423,-0.0659,1.89,-0.91,6.04
47,71177982,0.4761,0.8408,-0.0645,1.95,-0.85,5.79
48,71182982,0.4810,0.8384,-0.0640,1.83,-0.85,5.61
49,71187980,0.4780,0.8398,-0.0640,2.01,-0.73,5.43
50,71192986,0.4780,0.8428,-0.0693,1.95,-0.61,5.18
51,71197983,0.4775,0.8389,-0.0674,2.07,-0.55,5.06
52,71202982,0.4800,0.8389,-0.0625,2.13,-0.55,4.88
53,71207981,0.4766,0.8413,-0.0649,2.13,-0.37,4.51
54,71212984,0.4736,0.8394,-0.0610,2.20,-0.43,4.45
55,71217982,0.4741,0.8433,-0.0610,2.20,-0.12,4.15
56,71222982,0.4741,0.8389,-0.0674,2.26,-0.06,3.96
57,71227982,0.4697,0.8452,-0.0552,2.32,0.06,3.72
58,71232982,0.4668,0.8452,-0.0586,2.26,0.00,3.54
59,71237982,0.4697,0.8442,-0.0620,2.26,0.30,3.35
60,71242982,0.4678,0.8467,-0.0576,2.38,0.43,3.11
61,71247980,0.4653,0.8496,-0.0615,2.38,0.43,2.87
62,71252980,0.4668,0.8535,-0.0601,2.50,0.49,2.68
63,71257982,0.4639,0.8486,-0.0605,2.44,0.61,2.44
64,71262982,0.4604,0.8530,-0.0605,2.38,0.67,2.32
65,71267982,0.4575,0.8545,-0.0605,2.38,0.73,2.20
66,71272981,0.4585,0.8564,-0.0537,2.32,0.73,1.89
67,71277980,0.4536,0.8560,-0.0537,2.32,1.04,1.65
68,71282984,0.4497,0.8560,-0.0522,2.26,1.04,1.59
69,71287981,0.4482,0.8574,-0.0542,2.20,1.22,1.28
70,71292983,0.4414,0.8608,-0.0542,2.01,1.40,1.22
71,71297980,0.4414,0.8613,-0.0444,2.07,1.40,1.16
72,71302980,0.4404,0.8613,-0.0518,1.89,1.71,1.16
73,71307981,0.4404,0.8652,-0.0464,1.83,1.95,1.04
74,71312982,0.4443,0.8638,-0.0439,1.71,1.95,0.98
75,71317984,0.4443,0.8716,-0.0469,1.65,2.32,1.04
76,71322981,0.4458,0.8726,-0.0439,1.52,2.26,1.16
77,71327980,0.4443,0.8750,-0.0474,1.40,2.62,1.28
78,71332982,0.4536,0.8770,-0.0430,1.10,2.62,1.34
79,71337981,0.4551,0.8779,-0.0435,1.04,2.74,1.40
80,71342982,0.4575,0.8828,-0.0430,0.91,2.68,1.40
81,71347980,0.4595,0.8843,-0.0459,0.61,2.74,1.52
82,71352980,0.4648,0.8877,-0.0449,0.61,2.93,1.46
83,71357982,0.4692,0.8896,-0.0444,0.30,2.80,1.52
84,71362983,0.4751,0.8936,-0.0439,0.12,2.99,1.40
85,71367982,0.4814,0.8979,-0.0449,0.18,2.80,1.40
86,71372982,0.4810,0.8975,-0.0410,0.24,3.05,1.40
87,71377982,0.4805,0.8999,-0.0386,0.49,3.05,1.46
88,71383089,0.4756,0.9053,-0.0386,0.55,3.05,1.59
89,71387982,0.4795,0.9053,-0.0469,0.79,3.11,1.71
90,71392982,0.4731,0.9087,-0.0420,0.85,3.11,1.77
91,71397982,0.4736,0.9106,-0.0391,1.10,3.29,1.89
92,71402982,0.4639,0.9102,-0.0435,1.28,3.17,2.26
93,71407980,0.4604,0.9155,-0.0435,1.40,3.35,2.44
94,71412983,0.4570,0.9155,-0.0405,1.71,3.35,2.74
95,71417982,0.4492,0.9170,-0.0352,1.95,3.41,2.99
96,71422980,0.4453,0.9214,-0.0405,1.95,3.35,3.23
97,71427982,0.4458,0.9199,-0.0356,2.20,3.54,3.48
98,71432982,0.4409,0.9189,-0.0308,2.26,3.48,3.84
99,71437982,0.4375,0.9199,-0.0366,2.07,3.48,3.96
100,71442982,0.4316,0.9180,-0.0391,1.95,3.54,4.21
101,71447986,0.4282,0.9219,-0.0361,1.77,3.60,4.39
102,71452982,0.4258,0.9199,-0.0386,1.71,3.66,4.57
103,71457982,0.4312,0.9175,-0.0386,1.46,3.66,4.70
104,71462982,0.4331,0.9160,-0.0444,1.22,3.84,4.82
105,71467982,0.4326,0.9155,-0.0454,0.91,3.78,4.94
106,71472982,0.4355,0.9155,-0.0400,0.73,3.84,5.00
107,71477982,0.4355,0.9185,-0.0435,0.37,3.78,5.12
108,71482982,0.4375,0.9189,-0.0400,0.24,3.96,5.18
109,71487983,0.4360,0.9194,-0.0381,0.00,3.90,5.18
110,71492982,0.4346,0.9185,-0.0361,-0.24,3.84,5.24
111,71498437,0.4351,0.9160,-0.0439,-0.24,3.60,5.49
112,71502982,0.4341,0.9131,-0.0356,-0.37,3.48,5.43
113,71507981,0.4316,0.9116,-0.0327,-0.55,3.41,5.49
114,71512982,0.4277,0.9106,-0.0381,-0.67,3.05,5.43
115,71518025,0.4233,0.9097,-0.0288,-0.91,2.62,5.37
116,71522982,0.4175,0.9048,-0.0342,-1.04,2.38,5.37
117,71527982,0.4150,0.8984,-0.0322,-1.10,2.07,5.24
118,71532981,0.4146,0.8940,-0.0269,-1.28,1.34,5.00
119,71537982,0.4180,0.8911,-0.0317,-1.34,0.98,4.63
120,71542981,0.4160,0.8833,-0.0239,-1.40,0.30,4.21
121,71547982,0.4189,0.8784,-0.0229,-1.46,-0.43,3.96
122,71552987,0.4263,0.8828,-0.0293,-1.46,-1.10,3.66
123,71557982,0.4243,0.8833,-0.0225,-1.40,-1.95,3.23
124,71563057,0.4185,0.8789,-0.0288,-0.98,-2.80,2.80
125,71567982,0.4146,0.8828,-0.0254,-0.61,-3.96,2.38
126,71572981,0.4204,0.8789,-0.0215,-0.18,-4.76,2.07
127,71577982,0.4199,0.8853,-0.0186,0.79,-5.91,1.83
128,71582981,0.4180,0.8809,-0.0254,1.52,-6.89,1.46
129,71587982,0.4121,0.8794,-0.0273,2.68,-7.80,1.16
130,71592981,0.4121,0.8794,-0.0298,3.48,-8.60,0.98
131,71597982,0.4116,0.8789,-0.0254,4.70,-9.76,0.91
132,71602981,0.4131,0.8716,-0.0410,6.04,-10.79,0.79
133,71607982,0.4229,0.8716,-0.0332,7.50,-12.01,0.61
134,71612981,0.4287,0.8711,-0.0381,8.90,-13.05,0.61
135,71617983,0.4365,0.8735,-0.0483,10.30,-14.21,0.24
136,71622981,0.4380,0.8696,-0.0522,11.77,-15.37,0.12
137,71627982,0.4434,0.8784,-0.0542,13.23,-16.65,-0.18
138,71632981,0.4517,0.8794,-0.0513,14.63,-17.80,-0.61
139,71637982,0.4565,0.8857,-0.0547,16.04,-18.78,-1.10
140,71642981,0.4609,0.8877,-0.0557,17.38,-20.18,-1.71
141,71647982,0.4688,0.8921,-0.0566,18.72,-21.16,-2.20
142,71652981,0.4717,0.8950,-0.0537,20.06,-22.13,-2.62
143,71657980,0.4678,0.9004,-0.0596,21.40,-23.11,-2.99
144,71662980,0.4727,0.8984,-0.0645,22.62,-23.78,-3.29
145,71667984,0.4731,0.8926,-0.0747,24.09,-24.51,-3.48
146,71672981,0.4688,0.8940,-0.0679,25.37,-25.18,-3.35
147,71677982,0.4639,0.8926,-0.0703,26.59,-25.61,-3.23
148,71682984,0.4600,0.8892,-0.0698,28.11,-25.85,-2.74
149,71687984,0.4595,0.8926,-0.0850,29.63,-25.91,-2.20
150,71692981,0.4604,0.9004,-0.0854,31.10,-25.61,-1.59
151,71697980,0.4541,0.8970,-0.0903,32.74,-25.30,-0.73
152,71703109,0.4541,0.8926,-0.0967,34.09,-24.57,0.24
153,71707982,0.4565,0.8979,-0.1123,35.37,-23.66,1.34
154,71712983,0.4487,0.9019,-0.1104,36.52,-22.56,2.50
155,71717981,0.4463,0.9111,-0.1221,37.74,-20.91,3.90
156,71722981,0.4438,0.9219,-0.1289,38.72,-19.39,5.18
157,71727982,0.4473,0.9253,-0.1362,39.45,-17.80,6.65
158,71732981,0.4517,0.9404,-0.1426,39.94,-15.79,8.05
159,71737982,0.4604,0.9443,-0.1470,40.24,-13.60,9.51
160,71742981,0.4692,0.9458,-0.1460,40.12,-11.59,10.91
161,71747982,0.4712,0.9526,-0.1567,39.57,-9.39,12.32
162,71752981,0.4810,0.9512,-0.1592,38.84,-7.13,13.78
163,71757980,0.4873,0.9556,-0.1709,37.74,-4.70,15.06
164,71762982,0.4985,0.9624,-0.1768,36.16,-2.38,16.46
165,71767982,0.5103,0.9595,-0.1729,34.33,-0.06,17.93
166,71772981,0.5181,0.9536,-0.1899,32.13,2.32,19.27
167,71777982,0.5264,0.9565,-0.1948,29.76,4.57,20.61
168,71782982,0.5342,0.9536,-0.1973,26.83,6.95,21.89
169,71787982,0.5327,0.9497,-0.1963,24.09,9.27,23.17
170,71792982,0.5356,0.9492,-0.2051,21.10,11.71,24.45
171,71797981,0.5391,0.9458,-0.2031,17.74,14.09,25.43
172,71802982,0.5435,0.9458,-0.2021,14.57,16.59,26.52
173,71807982,0.5479,0.9434,-0.2075,11.22,18.78,27.56
174,71812982,0.5488,0.9395,-0.2056,7.74,21.10,28.60
175,71817982,0.5571,0.9380,-0.2036,4.45,23.29,29.45
176,71822981,0.5674,0.9385,-0.1958,1.10,25.67,30.30
177,71827982,0.5718,0.9370,-0.1978,-2.07,27.74,31.16
178,71832981,0.5815,0.9390,-0.1909,-5.12,30.06,31.71
179,71837982,0.5850,0.9404,-0.1870,-8.05,32.20,32.26
180,71842984,0.5908,0.9380,-0.1851,-10.85,34.27,32.74
181,71848362,0.6001,0.9331,-0.1738,-13.54,36.46,33.05
182,71852983,0.6021,0.9321,-0.1724,-16.10,38.41,33.41
183,71857982,0.6069,0.9297,-0.1650,-18.48,40.37,33.72
184,71862983,0.6094,0.9277,-0.1719,-20.73,42.44,33.72
185,71868376,0.6118,0.9253,-0.1631,-22.80,44.45,33.72
186,71872982,0.6138,0.9175,-0.1587,-24.82,46.16,33.78
187,71877982,0.6177,0.9155,-0.1514,-26.46,47.99,33.72
188,71882983,0.6182,0.9146,-0.1538,-28.23,49.88,33.66
189,71887981,0.6118,0.9106,-0.1509,-29.82,51.71,33.41
190,71892982,0.6108,0.9116,-0.1431,-31.16,53.35,33.17
191,71897982,0.6035,0.9067,-0.1343,-32.44,54.94,32.93
192,71902981,0.6045,0.9014,-0.1284,-33.54,56.83,32.68
193,71907982,0.6040,0.8989,-0.1255,-34.70,58.29,32.38
194,71912982,0.5981,0.8906,-0.1167,-35.73,59.76,32.13
195,71917983,0.5957,0.8794,-0.1138,-36.52,61.16,31.89
196,71922982,0.5996,0.8711,-0.1074,-37.38,62.44,31.65
197,71927980,0.6006,0.8652,-0.1079,-38.29,63.72,31.59
198,71932982,0.5957,0.8516,-0.0972,-39.21,65.00,31.28
199,71937982,0.5933,0.8442,-0.0977,-40.06,66.16,31.22
200,71942982,0.5938,0.8398,-0.0947,-40.79,67.13,31.10
201,71947981,0.5830,0.8335,-0.0947,-41.52,68.23,30.91
202,71952982,0.5796,0.8306,-0.0923,-42.20,69.15,30.79
203,71957982,0.5703,0.8252,-0.0796,-42.32,70.00,30.85
204,71962982,0.5669,0.8232,-0.0801,-42.80,70.85,30.73
205,71967981,0.5542,0.8213,-0.0693,-42.93,71.59,30.61
206,71972983,0.5474,0.8203,-0.0581,-42.99,72.56,30.61
207,71977982,0.5410,0.8140,-0.0503,-42.93,73.35,30.37
208,71983033,0.5361,0.8115,-0.0410,-42.87,73.96,30.37
209,71987981,0.5254,0.8115,-0.0396,-42.62,74.76,30.12
210,71992982,0.5161,0.8096,-0.0283,-42.50,75.43,29.94
211,71997982,0.5137,0.8066,-0.0273,-42.20,76.04,29.82
212,72002982,0.5107,0.8066,-0.0205,-41.95,76.52,29.57
213,72008144,0.5073,0.8052,-0.0132,-41.34,77.13,29.45
214,72012982,0.5024,0.8027,-0.0117,-40.98,77.44,29.21
215,72017981,0.4976,0.7969,-0.0044,-40.55,77.87,28.90
216,72022983,0.4985,0.7969,-0.0054,-39.82,78.11,28.72
217,72027982,0.4951,0.7939,-0.0020,-39.09,78.48,28.48
218,72032982,0.4961,0.7861,-0.0039,-38.29,78.72,28.29
219,72037981,0.4946,0.7842,0.0044,-37.26,78.90,28.11
220,72042982,0.4927,0.7817,0.0054,-36.28,79.02,27.99
221,72047983,0.4946,0.7759,-0.0020,-35.12,79.15,27.87
222,72052984,0.4902,0.7725,0.0054,-33.84,79.21,27.68
223,72057983,0.4858,0.7656,0.0088,-32.38,79.15,27.50
224,72062983,0.4893,0.7603,0.0112,-30.98,79.15,27.38
225,72067982,0.4854,0.7568,0.0225,-29.45,79.21,27.32
226,72072982,0.4868,0.7534,0.0273,-27.93,79.21,27.13
227,72077982,0.4868,0.7520,0.0347,-26.40,79.09,27.01
228,72082982,0.4883,0.7515,0.0396,-24.94,79.02,26.83
229,72087982,0.4961,0.7480,0.0361,-23.35,78.90,26.46
230,72092982,0.5015,0.7632,0.0103,-21.65,78.60,26.28
231,72097982,0.5146,0.7798,-0.0249,-19.45,77.50,25.61
232,72102982,0.5254,0.7417,0.0239,-17.07,76.10,24.94
233,72107982,0.5347,0.7280,0.0361,-14.76,74.94,24.45
234,72112982,0.5352,0.7300,0.0298,-12.50,73.84,24.02
235,72117983,0.5381,0.7397,0.0308,-10.00,72.68,23.72
236,72122982,0.5415,0.7544,0.0151,-7.26,71.10,23.05
237,72127982,0.5493,0.7563,0.0059,-3.78,69.15,22.07
238,72132982,0.5483,0.7393,0.0405,-0.37,67.01,21.46
239,72137982,0.5503,0.7266,0.0625,3.11,65.43,20.85
240,72142982,0.5513,0.7290,0.0688,6.65,63.84,20.30
241,72147982,0.5522,0.7275,0.0747,10.30,62.44,19.88
242,72152982,0.5449,0.7295,0.0923,13.96,61.10,19.33
243,72157982,0.5391,0.7246,0.1099,17.50,60.30,18.84
244,72162982,0.5352,0.7290,0.1196,21.16,59.51,18.54
245,72167982,0.5347,0.7388,0.1167,24.57,59.15,18.05
246,72172982,0.5317,0.7476,0.1284,27.93,58.96,17.74
247,72177982,0.5264,0.7583,0.1313,30.73,58.72,17.20
248,72183062,0.5269,0.7725,0.1387,33.41,58.78,16.40
249,72187983,0.5386,0.7876,0.1411,35.55,58.78,15.24
250,72192984,0.5435,0.7930,0.1445,37.32,58.72,13.90
251,72198214,0.5454,0.7759,0.1641,38.54,58.84,12.32
252,72202983,0.5430,0.6377,0.1772,39.27,59.02,11.65
253,72207982,0.5444,0.7310,0.1587,39.21,59.45,12.20
254,72212982,0.5093,0.8022,0.1460,39.76,59.63,11.46
255,72217982,0.5044,0.7656,0.1494,40.24,59.70,10.37
256,72222983,0.5200,0.7554,0.1514,40.61,59.57,9.39
257,72227980,0.5420,0.7754,0.1572,40.73,59.45,8.54
258,72232982,0.5708,0.7852,0.1655,40.55,59.09,7.32
259,72237980,0.5952,0.7866,0.1831,40.43,58.72,6.16
260,72243074,0.6113,0.7798,0.2114,39.94,58.11,4.45
261,72247981,0.6235,0.7744,0.2246,39.15,57.74,2.93
262,72252982,0.6211,0.7568,0.2188,38.72,57.20,1.52
263,72257982,0.6216,0.7578,0.2212,38.11,56.77,0.55
264,72262982,0.6108,0.7603,0.2139,37.32,55.61,-0.67
265,72267982,0.6118,0.7627,0.2070,37.07,54.82,-1.65
266,72272982,0.6030,0.7686,0.2168,36.83,53.84,-2.68
267,72277983,0.5825,0.7627,0.2139,36.65,52.74,-3.54
268,72282982,0.5591,0.7612,0.1992,36.71,51.46,-4.27
269,72287982,0.5410,0.7456,0.1948,37.01,49.88,-4.94
270,72292982,0.5288,0.7290,0.1978,37.38,48.11,-5.18
271,72297982,0.5332,0.7168,0.2192,37.93,46.28,-5.06
272,72302982,0.5513,0.7188,0.2354,38.54,44.70,-4.76
273,72307982,0.5698,0.7202,0.2578,39.39,43.05,-4.27
274,72312982,0.5859,0.7280,0.2710,40.12,41.65,-3.96
275,72317982,0.6035,0.7383,0.2881,41.10,40.43,-3.41
276,72322982,0.6172,0.7471,0.2861,41.95,39.33,-2.99
277,72327981,0.6221,0.7593,0.2847,42.74,38.35,-2.56
278,72332982,0.6362,0.7563,0.2759,43.54,37.20,-2.44
279,72337982,0.6494,0.7612,0.2715,44.33,36.10,-1.89
280,72342982,0.6655,0.7544,0.2554,45.24,34.63,-1.22
281,72347981,0.6641,0.7456,0.2456,45.98,32.99,-0.30
282,72352982,0.6616,0.7427,0.2422,46.89,31.28,1.22
283,72357982,0.6646,0.7544,0.2534,47.62,29.57,2.80
284,72362982,0.6875,0.7637,0.2744,48.72,27.93,4.45
285,72367981,0.6694,0.7861,0.2881,49.70,26.65,5.73
286,72372982,0.6436,0.8135,0.3042,51.22,25.49,6.59
287,72377981,0.6289,0.8301,0.3169,53.60,24.94,6.95
288,72382982,0.6377,0.8252,0.3267,56.89,24.63,7.26
289,72387982,0.6738,0.8198,0.3013,60.85,24.57,7.56
290,72392982,0.7656,0.8174,0.2930,64.94,24.51,7.80
291,72397981,0.8584,0.8188,0.2876,69.45,24.33,7.93
292,72402982,0.8237,0.8169,0.2959,74.21,23.90,7.80
293,72407982,0.7886,0.8228,0.2632,78.84,23.72,7.62
294,72412982,0.7646,0.8311,0.2383,83.60,23.11,7.01
295,72417982,0.7617,0.8203,0.2334,88.72,22.44,6.28
296,72422982,0.7754,0.8130,0.2183,94.39,22.32,5.79
297,72427983,0.7876,0.8140,0.2090,100.79,22.07,5.30
298,72433433,0.8267,0.8071,0.2129,107.50,22.13,4.88
299,72437982,0.8281,0.8003,0.1987,114.15,22.13,4.39
300,72442981,0.8003,0.7939,0.1758,120.79,21.95,3.96
301,72447982,0.7959,0.7866,0.1934,127.50,21.83,3.17
302,72452982,0.7886,0.7744,0.1709,132.87,21.83,2.50
303,72457981,0.7798,0.7666,0.1421,139.51,21.89,1.95
304,72462982,0.7788,0.7690,0.1191,145.91,22.01,1.40
305,72467981,0.7700,0.7681,0.1040,152.56,22.07,0.98
306,72472982,0.7681,0.7690,0.0811,159.09,22.20,0.49
307,72477982,0.8096,0.8203,0.0513,165.24,22.68,0.00
308,72482982,0.8564,0.8057,0.0479,170.43,22.87,-0.55
309,72487981,0.8057,0.7910,0.0605,174.45,23.41,-0.43
310,72492982,0.7847,0.7998,0.0591,176.95,23.96,-0.30
311,72497981,0.7764,0.7842,0.0703,177.50,24.21,-0.49
312,72502982,0.8940,0.7417,0.1260,176.46,24.63,-0.49
313,72507982,0.8613,0.7368,0.1221,174.09,25.00,-0.55
314,72512982,0.8188,0.7446,0.0791,170.61,24.94,-0.91
315,72517981,0.8076,0.7476,0.0859,166.77,25.00,-1.16
316,72522982,0.8140,0.7588,0.1040,162.74,25.43,-1.46
317,72527981,0.8340,0.7603,0.0747,158.23,25.91,-1.46
318,72532982,0.8428,0.7676,0.0557,153.66,26.40,-1.52
319,72537982,0.8462,0.7734,0.0498,148.41,26.89,-1.52
320,72542980,0.8486,0.7759,0.0449,143.11,27.44,-1.65
321,72547984,0.8530,0.7773,0.0244,137.56,28.05,-1.65
322,72552981,0.8574,0.7769,0.0127,131.16,28.90,-1.59
323,72557984,0.8403,0.7812,-0.0073,126.89,29.51,-1.34
324,72563231,0.8125,0.7808,-0.0151,121.16,30.18,-1.10
325,72567983,0.7939,0.7817,-0.0259,115.79,31.16,-0.85
326,72572982,0.7832,0.7793,-0.0332,111.04,32.20,-0.43
327,72577982,0.7808,0.7876,-0.0278,106.95,33.35,0.06
328,72582982,0.7695,0.7969,-0.0361,103.41,34.88,0.37
329,72587983,0.7407,0.7646,-0.0464,99.94,36.40,0.91
330,72592982,0.7349,0.7915,-0.0698,96.40,37.56,1.77
331,72597982,0.7295,0.7837,-0.0757,93.84,38.78,2.13
332,72602982,0.7192,0.8057,-0.0405,90.67,40.55,2.87
333,72607982,0.6860,0.7739,-0.0913,88.72,41.89,3.29
334,72612982,0.6812,0.7744,-0.0986,86.04,43.41,4.21
335,72617983,0.6812,0.7734,-0.0913,84.70,44.57,4.88
336,72622982,0.6841,0.8081,-0.0728,83.48,46.16,5.67
337,72627982,0.6558,0.7822,-0.1089,82.26,47.80,6.16
338,72632982,0.6523,0.7856,-0.1187,80.98,49.02,7.07
339,72637983,0.6489,0.7617,-0.1284,79.82,50.43,7.87
340,72642980,0.6538,0.7925,-0.0947,79.15,51.89,8.72
341,72647982,0.6250,0.7705,-0.1318,78.23,53.17,9.45
342,72652982,0.6240,0.7666,-0.1401,77.20,54.51,10.30
343,72657981,0.6255,0.7544,-0.1431,76.16,55.55,11.04
344,72662982,0.6323,0.7837,-0.1274,75.43,56.77,11.83
345,72667981,0.6108,0.7656,-0.1499,74.63,57.80,12.44
346,72672982,0.6035,0.7690,-0.1392,73.66,58.72,12.93
347,72677982,0.5640,0.8032,-0.1133,72.74,59.70,13.17
348,72682982,0.5547,0.8799,-0.0591,72.38,60.79,13.54
349,72687982,0.5713,0.8643,-0.0659,72.50,62.20,14.21
350,72692982,0.5845,0.8403,-0.0947,72.62,62.87,15.37
351,72697997,0.5903,0.8315,-0.1138,72.56,63.35,16.28
352,72702982,0.5889,0.8110,-0.0972,72.62,63.66,16.83
353,72707981,0.5942,0.8052,-0.1035,72.93,64.15,17.20
354,72712982,0.6211,0.8203,-0.1260,73.23,64.51,17.32
355,72717983,0.6689,0.8364,-0.1226,73.66,64.57,17.44
356,72722982,0.7075,0.8438,-0.1035,74.63,64.63,17.68
357,72727982,0.7148,0.8364,-0.0952,75.43,64.70,17.80
358,72732982,0.7129,0.8179,-0.0776,75.91,64.57,18.17
359,72738020,0.7085,0.7998,-0.0566,75.67,64.51,18.29
360,72742981,0.7007,0.7847,-0.0493,75.12,64.51,18.54
361,72747982,0.7080,0.7725,-0.0518,74.45,64.27,18.66
362,72753538,0.7261,0.7734,-0.0522,73.78,63.84,18.96
363,72757982,0.7319,0.7793,-0.0562,73.48,63.72,19.09
364,72763416,0.7437,0.7773,-0.0635,73.29,63.29,19.27
365,72767982,0.7417,0.7651,-0.0610,73.35,62.87,19.51
366,72772982,0.7344,0.7490,-0.0469,73.84,62.38,19.94
367,72777982,0.7192,0.7319,-0.0391,74.27,62.13,20.30
368,72782982,0.6987,0.7339,-0.0171,74.70,61.77,20.49
369,72787982,0.6865,0.7354,-0.0229,75.30,61.46,20.73
370,72792982,0.6685,0.7422,0.0020,76.10,61.34,20.98
371,72797982,0.6582,0.7407,0.0054,77.07,60.98,21.22
372,72802982,0.6436,0.7432,0.0063,78.29,60.61,21.59
373,72807983,0.6299,0.7383,0.0010,79.33,60.37,22.13
374,72812980,0.6196,0.7334,-0.0005,80.37,60.00,22.62
375,72817984,0.6157,0.7402,0.0117,81.40,59.88,23.29
376,72822982,0.6118,0.7344,0.0166,82.07,59.57,23.72
377,72827981,0.6167,0.7329,0.0083,82.50,59.27,24.39
378,72832982,0.6270,0.7261,0.0107,82.62,58.96,25.00
379,72837982,0.6333,0.7202,0.0083,82.44,58.60,25.55
380,72842982,0.6406,0.7183,0.0273,82.32,58.17,26.10
381,72847981,0.6401,0.7104,0.0161,82.01,57.93,26.59
382,72852982,0.6523,0.7012,0.0317,81.28,57.44,26.95
383,72857984,0.6572,0.6978,0.0469,80.49,57.07,27.44
384,72862982,0.6577,0.6953,0.0493,79.57,56.71,27.80
385,72867981,0.6621,0.6860,0.0498,78.35,56.28,28.17
386,72872982,0.6650,0.6782,0.0479,77.07,55.85,28.48
387,72877982,0.6689,0.6792,0.0430,75.61,55.49,28.90
388,72882982,0.6743,0.6758,0.0449,74.09,54.76,29.02
389,72887982,0.6758,0.6685,0.0508,72.38,54.33,29.45
390,72892982,0.6816,0.6689,0.0371,70.67,53.60,29.45
391,72897982,0.6816,0.6675,0.0322,69.02,52.93,29.70
392,72902982,0.6816,0.6685,0.0293,67.26,52.44,29.76
393,72907982,0.6860,0.6655,0.0142,65.73,51.65,29.76
394,72912982,0.6934,0.6592,0.0103,64.21,50.91,29.63
395,72917982,0.7046,0.6606,0.0015,62.99,50.24,29.70
396,72922982,0.7031,0.6587,-0.0015,62.07,49.51,29.82
397,72927982,0.7046,0.6616,-0.0200,61.34,48.84,29.76
398,72932982,0.7012,0.6592,-0.0303,60.67,48.35,29.82
399,72937982,0.7021,0.6636,-0.0356,60.30,47.68,29.82
400,72942982,0.7119,0.6587,-0.0488,59.94,47.13,29.82
401,72947982,0.7119,0.6499,-0.0605,59.70,46.59,29.94
402,72953150,0.7251,0.6509,-0.0532,59.63,46.10,30.12
403,72957982,0.7266,0.6538,-0.0713,59.70,45.98,30.24
404,72962982,0.7349,0.6548,-0.0835,59.88,45.73,30.18
405,72967982,0.7476,0.6475,-0.0962,60.18,45.73,30.18
406,72972982,0.7598,0.6484,-0.1089,60.61,45.61,30.30
407,72977982,0.7676,0.6367,-0.1157,61.40,45.73,30.18
408,72983085,0.7686,0.6216,-0.1260,62.13,45.98,30.18
409,72987982,0.7739,0.6348,-0.1240,63.41,46.46,30.30
410,72992980,0.7725,0.6323,-0.1543,64.63,46.95,30.12
411,72998057,0.7681,0.6177,-0.1562,65.91,47.44,29.94
412,73002982,0.7646,0.6123,-0.1538,67.01,47.99,29.76
413,73007981,0.7700,0.6143,-0.1621,68.29,48.48,29.51
414,73012982,0.7822,0.6035,-0.1675,69.27,49.02,29.27
415,73017981,0.7905,0.6035,-0.1689,70.24,49.45,29.15
416,73022982,0.7920,0.6050,-0.1748,70.91,49.88,28.90
417,73027981,0.8008,0.5962,-0.1816,71.65,49.94,28.60
418,73033523,0.8159,0.5879,-0.2012,71.95,50.12,27.99
419,73037983,0.8184,0.5811,-0.1973,72.26,50.24,27.62
420,73042982,0.8232,0.5830,-0.2012,72.38,50.18,27.32
421,73047986,0.8218,0.5732,-0.2202,72.38,49.88,27.01
422,73052981,0.8335,0.5615,-0.2163,72.68,49.88,26.65
423,73057983,0.8218,0.5391,-0.2310,72.93,49.45,26.46
424,73062982,0.8140,0.5337,-0.2261,73.29,49.15,26.52
425,73067982,0.8389,0.5200,-0.2295,73.35,48.84,26.65
426,73072981,0.8501,0.5029,-0.2285,73.48,48.41,26.71
427,73077982,0.8130,0.4731,-0.2197,73.72,48.35,27.26
428,73082982,0.8389,0.4634,-0.2104,73.66,48.05,27.80
429,73087983,0.8491,0.4434,-0.1934,73.78,47.87,28.48
430,73092980,0.8208,0.4331,-0.1963,74.02,47.74,29.27
431,73097982,0.8413,0.4380,-0.1748,74.15,47.62,29.82
432,73102982,0.8633,0.4160,-0.1616,74.63,47.68,30.55
433,73107982,0.8721,0.3960,-0.1626,74.94,47.87,31.34
434,73112982,0.8706,0.3906,-0.1665,75.18,47.99,32.07
435,73117984,0.8628,0.3838,-0.1611,75.12,48.41,32.74
436,73122981,0.8535,0.3760,-0.1577,74.76,49.02,33.23
437,73127982,0.8516,0.3784,-0.1733,73.96,49.39,33.60
438,73132982,0.8569,0.3740,-0.1870,73.23,50.00,33.84
439,73137982,0.8608,0.3765,-0.1958,72.32,50.49,33.84
440,73142981,0.8755,0.3716,-0.2114,71.10,50.79,33.72
441,73147982,0.8975,0.3721,-0.2227,69.88,51.46,33.41
442,73152981,0.9175,0.3594,-0.2349,68.72,51.89,33.05
443,73157982,0.9292,0.3462,-0.2417,67.93,52.62,32.80
444,73162981,0.9355,0.3350,-0.2588,67.32,53.23,32.68
445,73167980,0.9429,0.3218,-0.2798,67.20,53.96,32.50
446,73172982,0.9443,0.3081,-0.2827,67.62,54.70,32.38
447,73177981,0.9453,0.3003,-0.2886,68.54,55.49,32.44
448,73182982,0.9429,0.2881,-0.3057,70.12,56.46,32.13
449,73187981,0.9399,0.2832,-0.3071,71.89,57.38,31.89
450,73192981,0.9512,0.2812,-0.3179,74.45,58.48,31.46
451,73197981,0.9536,0.2681,-0.3140,77.13,59.63,30.85
452,73202984,0.9658,0.2603,-0.3179,80.06,60.61,30.18
453,73208088,0.9717,0.2534,-0.3174,83.23,61.83,29.27
454,73212982,0.9663,0.2417,-0.3242,86.40,62.80,28.23
455,73217982,0.9697,0.2388,-0.3184,89.39,64.02,27.13
456,73222982,0.9658,0.2349,-0.3125,92.38,65.12,25.91
457,73227983,0.9736,0.2368,-0.3110,95.06,66.10,24.45
458,73232982,0.9756,0.2266,-0.3164,97.68,67.38,22.74
459,73237982,0.9741,0.2148,-0.2998,100.06,68.72,21.04
460,73242982,0.9692,0.2056,-0.2993,102.13,70.00,19.33
461,73247982,0.9663,0.2007,-0.2969,104.15,71.34,17.56
462,73252982,0.9536,0.1929,-0.2954,105.79,72.68,15.85
463,73257982,0.9321,0.1885,-0.2856,107.07,73.96,13.90
464,73262980,0.9194,0.1836,-0.2842,108.05,75.49,12.01
465,73267982,0.9043,0.1758,-0.2808,108.84,76.89,10.12
466,73272982,0.9043,0.1729,-0.2725,109.39,78.29,8.11
467,73277982,0.8936,0.1733,-0.2734,109.70,79.57,6.52
468,73282980,0.8892,0.1699,-0.2764,109.82,80.98,4.57
469,73287982,0.8818,0.1753,-0.2764,109.70,82.80,2.44
470,73293014,0.8647,0.1675,-0.2754,109.21,84.88,0.43
471,73297982,0.8530,0.1812,-0.2603,108.60,85.98,-1.71
472,73302980,0.8423,0.1777,-0.2554,107.68,85.91,-3.96
473,73307982,0.8247,0.1738,-0.2485,106.71,87.50,-6.04
474,73312982,0.8140,0.1807,-0.2393,105.55,89.51,-8.23
475,73317982,0.7988,0.1807,-0.2358,104.39,91.46,-10.30
476,73322981,0.7886,0.1807,-0.2280,103.23,93.11,-12.50
477,73327982,0.7832,0.1802,-0.2163,102.32,94.94,-14.45
478,73332980,0.7744,0.1890,-0.2144,101.52,96.83,-16.52
479,73337984,0.7681,0.1943,-0.1992,100.98,98.48,-18.60
480,73342981,0.7612,0.1973,-0.1909,100.49,100.18,-20.61
481,73347982,0.7593,0.1982,-0.1924,100.12,101.89,-22.62
482,73352980,0.7427,0.2021,-0.1753,100.18,103.60,-24.63
483,73357983,0.7354,0.2046,-0.1660,100.24,105.12,-26.71
484,73363075,0.7202,0.2070,-0.1572,100.79,106.71,-28.78
485,73367982,0.7070,0.2061,-0.1377,101.40,108.11,-30.91
486,73372980,0.7031,0.2075,-0.1299,102.26,109.70,-32.99
487,73377982,0.6953,0.2129,-0.1191,103.23,111.04,-34.94
488,73382981,0.6953,0.2202,-0.1152,104.39,112.38,-37.01
489,73387982,0.7031,0.2285,-0.1079,105.67,113.66,-39.15
490,73392980,0.6978,0.2368,-0.1089,106.65,114.82,-41.28
491,73397984,0.6865,0.2437,-0.0923,107.44,115.79,-43.41
492,73402981,0.6816,0.2627,-0.0986,108.17,116.71,-45.49
493,73407984,0.6743,0.2661,-0.0840,108.78,117.56,-47.74
494,73412980,0.6724,0.2769,-0.0620,109.39,118.35,-49.94
495,73417982,0.6528,0.2837,-0.0728,109.88,119.02,-52.01
496,73422981,0.6592,0.2871,-0.0649,110.43,119.51,-54.21
497,73427982,0.5903,0.2661,-0.1206,111.28,119.82,-56.46
498,73432980,0.6074,0.3223,-0.0449,113.11,120.00,-58.60
499,73437982,0.6543,0.3438,-0.0347,114.82,120.49,-61.10
500,73442981,0.6748,0.3442,-0.0352,116.46,120.61,-63.41
501,73447982,0.6763,0.3560,-0.0244,117.56,120.55,-65.49
502,73452980,0.6646,0.3652,0.0024,118.23,120.91,-67.74
503,73457982,0.6406,0.3818,0.0010,118.66,120.79,-70.00
504,73462982,0.6309,0.3853,-0.0171,118.48,120.24,-72.32
505,73467981,0.6226,0.3999,0.0122,118.29,119.57,-74.51
506,73472982,0.6084,0.4160,0.0142,117.44,119.21,-76.65
507,73477982,0.6201,0.4243,0.0298,116.52,118.41,-78.78
508,73482982,0.5928,0.4419,0.0264,115.37,117.62,-80.91
509,73487983,0.6113,0.4585,0.0571,114.21,116.77,-83.05
510,73492980,0.5688,0.4331,0.0190,112.38,115.61,-84.88
511,73497982,0.5537,0.4761,0.0698,111.04,114.51,-86.83
512,73502980,0.5571,0.4897,0.0601,109.57,113.60,-88.78
513,73508159,0.5127,0.4907,0.0137,107.93,112.13,-90.67
514,73512982,0.4966,0.5044,0.0430,107.07,110.73,-92.38
515,73517983,0.4741,0.5029,0.0518,105.91,109.39,-94.15
516,73522982,0.4502,0.5117,0.0332,105.12,108.11,-95.61
517,73527983,0.4448,0.5259,0.0278,104.94,106.46,-97.13
518,73532982,0.4277,0.5239,0.0283,104.88,105.12,-98.48
519,73537982,0.3745,0.5405,0.0356,105.30,103.72,-99.76
520,73542982,0.3823,0.5513,0.0352,106.10,102.50,-101.22
521,73547982,0.3794,0.5718,0.0366,106.77,100.91,-102.50
522,73552981,0.3809,0.5723,0.0581,107.80,99.76,-103.90
523,73557982,0.3267,0.5718,0.0449,108.60,98.41,-105.30
524,73563256,0.3330,0.6011,0.0825,110.00,97.01,-106.52
525,73567982,0.3228,0.6191,0.0918,110.85,95.61,-108.05
526,73572981,0.2974,0.6372,0.0776,111.95,94.09,-109.51
527,73577982,0.2866,0.6562,0.0903,113.23,92.62,-110.98
528,73582987,0.2578,0.6587,0.1021,114.45,91.04,-112.26
529,73587982,0.2520,0.6646,0.1006,115.61,88.66,-113.66
530,73592982,0.2344,0.6689,0.1016,116.77,86.46,-115.00
531,73597981,0.2197,0.6816,0.1089,117.99,85.37,-116.22
532,73602980,0.2075,0.6953,0.1162,119.33,84.94,-117.38
533,73607980,0.1982,0.7095,0.1147,120.61,82.50,-118.29
534,73612984,0.1729,0.7251,0.1128,122.80,79.88,-119.82
535,73617981,0.1538,0.7354,0.1304,125.12,77.56,-120.91
536,73622982,0.1333,0.7461,0.1265,128.54,75.30,-122.01
537,73627982,0.1255,0.7544,0.1245,130.12,73.48,-122.68
538,73633378,0.1108,0.7661,0.1201,133.90,70.67,-123.96
539,73637982,0.1016,0.7754,0.1304,137.13,68.72,-124.82
540,73642981,0.0918,0.7949,0.1274,141.46,66.22,-125.79
541,73647982,0.0840,0.8037,0.1309,145.91,63.48,-126.89
542,73652980,0.0752,0.8120,0.1226,150.37,60.79,-127.80
543,73657982,0.0615,0.8311,0.1182,154.88,57.93,-128.84
544,73662981,0.0464,0.8413,0.1304,159.27,54.82,-129.88
545,73667982,0.0190,0.8794,0.1670,162.99,52.07,-131.10
546,73673001,-0.0522,0.8550,0.1470,164.82,49.21,-132.01
547,73677982,-0.0688,0.8706,0.1338,165.67,46.34,-132.80
548,73682981,-0.0010,0.8940,0.1270,166.22,43.35,-133.72
549,73687982,0.0190,0.9038,0.1313,166.95,40.18,-134.45
550,73692980,0.0103,0.9067,0.1533,167.38,36.89,-134.94
551,73697982,-0.0200,0.9194,0.1670,167.62,33.78,-135.12
552,73702981,-0.0342,0.9380,0.1855,167.56,30.24,-135.43
553,73707980,-0.0493,0.9526,0.1821,166.77,26.59,-135.49
554,73712980,-0.0640,0.9673,0.1929,165.43,23.05,-135.67
555,73717980,-0.0869,0.9727,0.1992,163.72,19.45,-135.61
556,73722984,-0.0879,0.9883,0.1597,161.59,15.43,-135.67
557,73727981,-0.0449,1.0205,0.1611,159.33,11.40,-135.55
558,73732980,-0.0459,1.0347,0.1748,157.13,7.38,-135.24
559,73737982,-0.0630,1.0483,0.1807,155.06,3.23,-134.82
560,73742981,-0.0918,1.0723,0.1948,152.93,-0.91,-134.09
561,73747982,-0.0972,1.0815,0.1592,150.43,-4.94,-133.23
562,73752980,-0.0615,1.1118,0.1641,148.35,-9.15,-132.38
563,73757982,-0.0449,1.1318,0.1733,146.59,-13.54,-131.16
564,73762981,-0.0522,1.1582,0.1768,144.76,-17.68,-129.88
565,73767983,-0.0601,1.1870,0.1616,142.99,-21.83,-128.29
566,73773046,-0.0615,1.2134,0.1650,141.10,-26.40,-126.71
567,73777984,-0.0566,1.2334,0.1597,139.21,-30.98,-125.00
568,73782980,-0.0532,1.2676,0.1499,137.56,-35.49,-123.29
569,73787982,-0.0659,1.2988,0.1426,135.61,-40.30,-121.40
570,73792981,-0.0825,1.3452,0.1401,133.41,-44.94,-119.70
571,73797982,-0.1187,1.3701,0.1963,129.76,-49.51,-117.80
572,73802980,-0.1411,1.3442,0.1870,125.73,-53.96,-115.61
573,73807982,-0.1304,1.3950,0.0889,120.67,-58.35,-113.35
574,73812980,-0.1582,1.4258,0.0894,116.46,-63.23,-111.46
575,73817984,-0.1948,1.4399,0.0806,112.93,-67.87,-109.27
576,73822981,-0.1992,1.4570,0.1089,109.88,-72.56,-106.65
577,73827984,-0.1992,1.4663,0.1069,107.01,-76.95,-104.09
578,73832982,-0.2163,1.4463,0.1216,103.78,-81.10,-101.28
579,73837982,-0.2568,1.4585,0.1304,100.49,-85.06,-98.23
580,73842982,-0.2871,1.4966,0.0947,97.87,-89.09,-95.12
581,73847980,-0.3306,1.5039,0.0571,96.77,-93.72,-91.83
582,73852982,-0.3809,1.4971,0.0503,96.83,-98.23,-88.29
583,73857982,-0.3682,1.5029,0.0498,97.74,-102.44,-84.51
584,73862982,-0.3711,1.5010,0.0850,99.33,-106.65,-80.30
585,73867981,-0.3896,1.4790,0.1226,101.22,-110.61,-75.98
586,73872982,-0.3950,1.4604,0.1108,102.68,-114.33,-71.16
587,73877982,-0.4082,1.4922,0.0874,104.45,-118.05,-66.16
588,73882981,-0.4482,1.5078,0.0757,107.38,-122.01,-61.04
589,73887984,-0.4663,1.4976,0.0620,110.85,-126.04,-55.73
590,73893078,-0.4775,1.4893,0.0410,114.76,-130.12,-49.94
591,73897984,-0.4893,1.4893,0.0337,118.72,-134.63,-43.84
592,73902980,-0.4966,1.4829,0.0308,122.44,-139.09,-37.62
593,73907982,-0.5093,1.4834,0.0181,126.04,-143.60,-31.16
594,73912980,-0.5234,1.4741,-0.0029,129.57,-148.41,-24.57
595,73917983,-0.5425,1.4658,-0.0273,129.63,-153.41,-17.62
596,73923242,-0.5605,1.4551,-0.0361,129.45,-158.17,-10.67
597,73927983,-0.5728,1.4331,-0.0615,131.28,-163.54,-3.60
598,73932981,-0.5991,1.4189,-0.0278,129.21,-168.48,3.48
599,73937982,-0.6260,1.3950,-0.0493,128.48,-173.05,10.73
600,73942980,-0.6431,1.3604,-0.0869,124.51,-178.05,17.99
601,73947984,-0.6641,1.3345,-0.0620,119.57,-182.99,25.24
602,73952981,-0.6870,1.3101,-0.0688,113.60,-188.17,32.44
603,73957984,-0.7139,1.2837,-0.0791,106.77,-193.17,39.51
604,73962981,-0.7441,1.2549,-0.0806,99.45,-198.17,46.46
605,73967982,-0.7798,1.2373,-0.0781,91.95,-203.35,53.17
606,73972981,-0.8096,1.2188,-0.0830,86.04,-207.32,58.35
607,73977980,-0.8540,1.1973,-0.0923,77.20,-213.54,66.04
608,73982982,-0.8799,1.1797,-0.0908,71.46,-217.50,71.22
609,73987982,-0.9229,1.1597,-0.1030,64.88,-222.74,77.50
610,73992982,-0.9629,1.1372,-0.1060,58.48,-227.99,84.02
611,73997982,-0.9922,1.1133,-0.1138,52.87,-233.11,89.15
612,74002982,-1.0449,1.0781,-0.1182,46.65,-239.39,96.65
613,74007982,-1.0825,1.0562,-0.1279,42.62,-243.60,101.40
614,74013184,-1.1392,1.0278,-0.1353,37.13,-249.88,108.29
615,74017982,-1.1724,1.0029,-0.1411,33.72,-254.21,112.74
616,74022980,-1.2109,0.9829,-0.1528,29.57,-259.70,117.99
617,74027982,-1.2529,0.9644,-0.1694,26.16,-265.49,122.80
618,74032981,-1.2949,0.9531,-0.1890,23.35,-271.10,127.38
619,74037982,-1.3403,0.9429,-0.2065,21.34,-277.26,131.71
620,74043162,-1.3984,0.9365,-0.2271,19.94,-284.45,136.71
621,74047982,-1.4448,0.9282,-0.2344,19.33,-289.51,139.82
622,74052985,-1.4878,0.9214,-0.2451,18.84,-295.61,143.54
623,74057982,-1.5371,0.9077,-0.2539,18.48,-301.83,147.13
624,74062981,-1.5786,0.8979,-0.2563,18.29,-308.05,150.49
625,74067982,-1.6162,0.8828,-0.2578,17.93,-314.45,153.72
626,74072981,-1.6587,0.8750,-0.2715,17.56,-320.91,156.77
627,74077982,-1.7085,0.8667,-0.2793,16.59,-327.20,159.57
628,74082981,-1.7690,0.8516,-0.2949,15.18,-333.54,162.13
629,74087982,-1.8008,0.8516,-0.3047,13.48,-340.18,164.70
630,74092982,-1.8521,0.8511,-0.3325,11.22,-346.65,166.77
631,74097982,-1.9077,0.8721,-0.3364,8.23,-353.35,168.66
632,74102982,-1.9800,0.8799,-0.3652,4.82,-360.12,170.43
633,74107982,-2.0430,0.8984,-0.3823,0.79,-367.07,172.07
634,74112980,-2.1172,0.9170,-0.4043,-3.54,-374.15,173.41
635,74117981,-2.1831,0.9434,-0.4067,-8.05,-381.34,174.94
636,74122982,-2.2778,0.9761,-0.4448,-12.93,-390.30,176.65
637,74127982,-2.3403,0.9971,-0.4512,-15.67,-396.22,177.93
638,74132982,-2.4087,1.0171,-0.4590,-18.29,-403.60,179.57
639,74137982,-2.4751,1.0352,-0.4648,-20.24,-410.73,181.40
640,74142985,-2.5298,1.0620,-0.4761,-21.46,-417.38,183.29
641,74147983,-2.5757,1.0786,-0.4795,-22.20,-424.15,185.37
642,74152982,-2.6226,1.0942,-0.4780,-22.68,-430.12,187.50
643,74157982,-2.6699,1.1040,-0.5127,-23.29,-435.85,189.82
644,74162981,-2.7227,1.1128,-0.5425,-23.90,-441.59,192.32
645,74167982,-2.7710,1.1431,-0.5708,-24.88,-446.71,194.82
646,74172982,-2.8359,1.1738,-0.6221,-26.46,-452.01,197.50
647,74177982,-2.8931,1.2188,-0.6592,-28.11,-457.13,200.55
648,74182981,-2.8589,1.2148,-0.6973,-29.27,-461.71,203.66
649,74187980,-2.9443,1.2891,-0.7417,-28.96,-465.98,206.46
650,74192987,-3.1143,1.3452,-0.8154,-27.62,-470.00,209.70
651,74197982,-3.2061,1.4023,-0.8306,-24.57,-473.54,213.41
652,74202982,-3.2881,1.4268,-0.8848,-20.24,-476.40,217.32
653,74207982,-3.3257,1.4717,-0.8691,-14.57,-478.72,222.01
654,74212982,-3.3525,1.5220,-0.8765,-7.68,-479.88,227.26
655,74217981,-3.3657,1.5571,-0.9214,-0.37,-480.49,233.23
656,74222980,-3.4043,1.6152,-0.9219,7.26,-480.12,239.70
657,74227984,-3.4517,1.6284,-1.0083,13.90,-479.02,246.40
658,74232982,-3.4785,1.6372,-1.1348,19.09,-477.99,253.96
659,74237981,-3.4785,1.6978,-1.2090,23.23,-476.52,261.77
660,74242980,-3.4888,1.7422,-1.2827,25.91,-474.57,269.63
661,74247980,-3.4668,1.7773,-1.4053,28.11,-472.26,277.74
662,74252983,-3.4575,1.8174,-1.4746,30.43,-469.21,285.98
663,74257984,-3.4590,1.8652,-1.5205,32.99,-465.24,294.51
664,74263073,-3.4482,1.9233,-1.5239,36.83,-459.63,302.74
665,74267982,-3.5132,1.9009,-1.6177,41.10,-453.96,310.98
666,74272982,-3.4956,1.9277,-1.7012,43.90,-447.68,319.57
667,74278041,-3.5010,1.9302,-1.6553,43.66,-439.70,328.54
668,74283557,-3.4487,1.9492,-1.6816,40.24,-430.61,337.74
669,74287982,-3.4058,1.9678,-1.7666,33.66,-421.04,346.95
670,74292982,-3.3745,1.9956,-1.7603,25.12,-410.37,355.85
671,74297982,-3.3467,1.9990,-1.8672,15.37,-399.02,364.27
672,74303036,-3.2988,2.0229,-1.9644,4.94,-387.68,372.44
673,74307982,-3.2295,2.0264,-2.0400,-5.24,-376.04,380.00
674,74312982,-3.1724,2.0415,-2.1553,-13.96,-364.27,387.20
675,74317982,-3.1064,2.0381,-2.2617,-20.73,-352.68,393.96
676,74322981,-3.0947,2.0376,-2.3174,-25.61,-340.98,400.30
677,74327982,-3.0435,2.0278,-2.4043,-28.35,-328.90,406.40
678,74332982,-3.0156,2.0044,-2.4536,-30.61,-316.34,412.50
679,74337983,-2.9360,1.9663,-2.4668,-33.05,-303.29,418.35
680,74342981,-2.8823,1.9531,-2.4736,-35.49,-292.62,423.23
681,74347982,-2.8071,1.9263,-2.4937,-38.23,-279.27,429.15
682,74352982,-2.7490,1.9219,-2.4707,-42.50,-265.73,434.94
683,74357982,-2.8042,1.8906,-2.4497,-48.11,-251.95,440.98
684,74363467,-2.8154,1.8716,-2.5005,-56.22,-235.98,448.35
685,74367982,-2.7734,1.8218,-2.4756,-62.26,-225.79,453.29
686,74372982,-2.6831,1.7935,-2.4712,-70.79,-212.74,459.70
687,74377982,-2.6172,1.7622,-2.4741,-80.67,-200.73,465.79
688,74382981,-2.5864,1.7251,-2.4614,-91.52,-189.57,472.01
689,74387982,-2.5498,1.7080,-2.4385,-102.68,-179.15,477.99
690,74392982,-2.5078,1.6812,-2.4194,-112.87,-169.88,483.54
691,74397982,-2.4980,1.6650,-2.4028,-122.20,-161.40,488.96
692,74402981,-2.4771,1.6436,-2.4009,-130.91,-153.72,494.21
693,74407982,-2.4517,1.6196,-2.3486,-138.66,-146.83,499.27
694,74412983,-2.4785,1.6001,-2.2666,-146.10,-140.79,504.09
695,74417982,-2.4204,1.5483,-2.2676,-153.29,-135.73,508.90
696,74422981,-2.3232,1.5356,-2.3135,-159.15,-131.65,513.54
697,74427982,-2.4141,1.5137,-2.1992,-162.01,-127.62,518.05
698,74432982,-2.4917,1.4712,-2.1782,-162.01,-123.35,522.50
699,74437983,-2.4175,1.3892,-2.1602,-160.67,-119.57,527.07
700,74442981,-2.3115,1.3716,-2.2363,-158.96,-116.83,531.46
701,74447982,-2.3730,1.3364,-2.2026,-155.12,-114.27,535.49
702,74452982,-2.3926,1.2944,-2.1226,-148.29,-111.46,539.57
703,74457982,-2.3442,1.2222,-2.1338,-140.24,-108.05,543.60
704,74463173,-2.3052,1.1943,-2.1650,-132.44,-104.94,547.26
705,74467982,-2.2783,1.1309,-2.0635,-123.90,-101.46,550.79
706,74472981,-2.2583,1.0845,-2.0693,-115.49,-97.32,554.51
707,74477981,-2.3003,1.0483,-2.0781,-106.04,-93.05,558.11
708,74482983,-2.3389,0.9858,-2.0225,-95.00,-87.68,561.65
709,74487981,-2.3066,0.9077,-2.0269,-84.70,-81.77,565.00
710,74492980,-2.2480,0.8594,-2.0400,-75.91,-75.98,568.05
711,74497982,-2.3101,0.7974,-2.0024,-68.23,-69.51,570.61
712,74502983,-2.3145,0.7368,-1.9927,-62.44,-62.44,572.80
713,74507982,-2.3252,0.6060,-1.9585,-57.44,-55.00,574.82
714,74512981,-2.3110,0.5444,-1.9980,-53.35,-47.32,577.07
715,74517982,-2.3086,0.4912,-1.9609,-50.61,-39.57,579.02
716,74522981,-2.3384,0.4297,-1.8833,-49.21,-31.59,580.55
717,74527981,-2.3130,0.3320,-1.8779,-49.39,-23.66,581.65
718,74533407,-2.2393,0.2788,-1.8672,-50.24,-15.55,582.87
719,74537982,-2.3047,0.2617,-1.8105,-49.09,-6.77,583.60
720,74542982,-2.3364,0.2144,-1.7412,-45.55,2.62,584.09
721,74547982,-2.2905,0.1392,-1.7510,-39.51,12.50,584.45
722,74552981,-2.2588,0.0928,-1.6919,-30.61,23.17,584.82
723,74557980,-2.2866,0.0518,-1.6250,-19.45,34.57,584.70
724,74562982,-2.2812,0.0000,-1.6484,-7.13,46.40,584.27
725,74567981,-2.2812,-0.0581,-1.6074,6.28,58.72,583.48
726,74572982,-2.2925,-0.1240,-1.5381,20.00,72.07,582.38
727,74577981,-2.3135,-0.1934,-1.5112,33.60,85.06,581.04
728,74582982,-2.3252,-0.2622,-1.4775,46.46,99.63,579.21
729,74587982,-2.3623,-0.3325,-1.4185,58.11,114.39,577.01
730,74592982,-2.3560,-0.3833,-1.3711,68.11,129.57,574.21
731,74597982,-2.3408,-0.4385,-1.3291,75.73,144.76,570.43
732,74603352,-2.3408,-0.4990,-1.2817,80.18,159.76,565.91
733,74607983,-2.3398,-0.5586,-1.2246,81.04,174.27,560.55
734,74612982,-2.3345,-0.6255,-1.1855,78.48,187.74,554.57
735,74617982,-2.3491,-0.6572,-1.0728,72.07,200.67,547.74
736,74622982,-2.3774,-0.7280,-1.1216,62.13,212.44,540.06
737,74627982,-2.4038,-0.8042,-1.0874,49.15,222.68,531.95
738,74633391,-2.4468,-0.8916,-0.9893,33.90,232.32,523.41
739,74637980,-2.4526,-0.9648,-0.9634,16.95,240.61,514.45
740,74642982,-2.4683,-1.0269,-0.9409,-0.73,247.26,505.24
741,74647981,-2.4658,-1.0781,-0.8467,-18.41,252.80,495.73
742,74652982,-2.4531,-1.1479,-0.7217,-35.85,257.74,485.98
743,74657981,-2.4365,-1.2065,-0.7197,-52.56,260.91,476.46
744,74662982,-2.4780,-1.2622,-0.7422,-67.44,262.74,466.83
745,74667982,-2.4971,-1.3306,-0.6226,-79.63,263.72,457.50
746,74672985,-2.5039,-1.3975,-0.5234,-88.72,264.21,448.41
747,74677981,-2.5503,-1.4429,-0.4902,-94.21,264.15,439.51
748,74682980,-2.5659,-1.4639,-0.4834,-96.28,263.72,430.61
749,74687981,-2.5864,-1.4932,-0.4526,-95.12,262.80,421.59
750,74692982,-2.5898,-1.5371,-0.3945,-90.98,261.77,412.20
751,74697981,-2.5933,-1.5400,-0.3579,-85.91,260.67,404.45
752,74702980,-2.4814,-1.5811,-0.2412,-78.41,259.09,392.32
753,74707982,-2.4819,-1.6182,-0.2139,-74.02,257.99,384.27
754,74712982,-2.4609,-1.6587,-0.2686,-68.41,255.30,373.78
755,74717983,-2.4277,-1.6768,-0.1948,-62.93,252.26,362.93
756,74722984,-2.4038,-1.6909,-0.1348,-57.62,249.21,351.95
757,74727982,-2.3569,-1.7168,-0.1338,-51.59,245.24,338.23
758,74733344,-2.3076,-1.7358,-0.1138,-48.05,241.52,326.52
759,74737983,-2.2563,-1.7534,-0.0640,-46.04,238.11,316.95
760,74742981,-2.1880,-1.7769,-0.0503,-44.82,233.60,305.18
761,74747983,-2.1304,-1.7744,-0.0195,-44.88,228.41,292.93
762,74752982,-2.0449,-1.8071,0.0220,-45.37,222.80,280.49
763,74757981,-1.9683,-1.8545,-0.0171,-45.61,216.59,268.23
764,74762984,-1.9180,-1.8120,0.0386,-44.51,209.63,255.91
765,74767981,-1.8770,-1.7744,0.0679,-40.67,202.74,242.99
766,74773225,-1.7612,-1.7793,0.0391,-33.05,194.15,227.44
767,74777982,-1.7168,-1.7788,0.0889,-26.46,187.93,217.01
768,74783030,-1.6265,-1.7739,0.1064,-17.32,180.18,203.78
769,74787983,-1.5522,-1.7686,0.0942,-7.44,172.13,190.37
770,74792981,-1.4897,-1.7661,0.1357,2.80,163.90,176.95
771,74797980,-1.4497,-1.7422,0.1514,12.87,155.67,163.48
772,74803049,-1.3755,-1.7344,0.1426,22.68,147.20,150.12
773,74807982,-1.3071,-1.7212,0.1782,31.40,138.90,136.71
774,74812982,-1.2627,-1.7061,0.2163,38.84,130.91,123.29
775,74817982,-1.2227,-1.6841,0.2231,45.30,122.68,110.00
776,74822982,-1.1719,-1.6772,0.2407,51.04,114.45,96.95
777,74827981,-1.1387,-1.6675,0.2773,55.91,106.52,84.57
778,74832980,-1.1138,-1.6460,0.3101,60.37,98.78,71.71
779,74838159,-1.0913,-1.6431,0.3271,64.33,91.22,59.33
780,74842982,-1.0566,-1.6211,0.3408,68.35,84.27,47.13
781,74847981,-1.0327,-1.5947,0.3516,72.32,77.38,35.37
782,74852984,-1.0137,-1.5713,0.3677,76.89,70.61,23.84
783,74857981,-1.0029,-1.5293,0.3975,81.59,64.33,12.74
784,74862982,-0.9873,-1.4961,0.3945,86.16,58.35,2.07
785,74867981,-0.9570,-1.4668,0.3960,90.91,52.62,-7.99
786,74872984,-0.9434,-1.4346,0.4106,95.12,47.26,-17.44
787,74877981,-0.9282,-1.3936,0.4126,98.78,42.20,-26.34
788,74882980,-0.9072,-1.3433,0.3921,101.65,37.26,-34.51
789,74887980,-0.8999,-1.2998,0.3774,103.41,32.74,-42.01
790,74892981,-0.8896,-1.2578,0.3760,103.96,28.29,-48.78
791,74897982,-0.8833,-1.2144,0.3569,102.99,24.02,-55.18
792,74902982,-0.8691,-1.1685,0.3315,100.91,20.00,-60.91
793,74907982,-0.8682,-1.1348,0.3340,97.50,16.04,-66.28
794,74912981,-0.8594,-1.1069,0.3096,93.35,12.56,-71.10
795,74917982,-0.8569,-1.0776,0.2744,87.68,8.41,-76.34
796,74922985,-0.8438,-1.0562,0.2720,83.23,5.61,-79.57
797,74927980,-0.8198,-1.0366,0.2661,77.87,2.38,-83.17
798,74932980,-0.7974,-1.0146,0.2568,72.50,-0.73,-86.65
799,74938490,-0.7705,-0.9956,0.2505,67.26,-3.84,-89.88
800,74942982,-0.7476,-0.9780,0.2373,62.26,-6.52,-92.74
801,74947981,-0.7236,-0.9551,0.2207,57.62,-9.70,-95.55
802,74952984,-0.7129,-0.9375,0.2197,53.41,-12.38,-98.05
803,74957982,-0.7012,-0.9233,0.2090,49.82,-15.43,-100.37
804,74962982,-0.6895,-0.9023,0.1973,46.46,-18.35,-102.56
805,74967981,-0.6797,-0.8926,0.1851,43.60,-20.85,-104.51
806,74972982,-0.6699,-0.8809,0.1870,41.16,-23.78,-106.40
807,74977982,-0.6572,-0.8721,0.1816,39.15,-26.59,-108.29
808,74982982,-0.6450,-0.8647,0.1743,37.32,-29.33,-109.88
809,74987981,-0.6348,-0.8618,0.1714,35.91,-32.07,-111.40
810,74992982,-0.6211,-0.8584,0.1743,34.70,-34.82,-112.87
811,74998101,-0.6094,-0.8643,0.1685,33.90,-37.56,-114.21
812,75002982,-0.5957,-0.8657,0.1606,33.48,-40.18,-115.37
813,75007982,-0.5854,-0.8652,0.1616,33.35,-42.93,-116.46
814,75012982,-0.5737,-0.8740,0.1597,33.35,-45.55,-117.50
815,75017981,-0.5581,-0.8862,0.1592,33.66,-48.23,-118.66
816,75022984,-0.5405,-0.8921,0.1567,34.21,-50.91,-119.63
817,75027981,-0.5264,-0.9053,0.1484,35.06,-53.54,-120.73
818,75032982,-0.5098,-0.9146,0.1519,35.91,-56.22,-121.89
819,75037981,-0.4927,-0.9229,0.1431,36.77,-58.72,-123.17
820,75043378,-0.4761,-0.9341,0.1470,37.62,-61.40,-124.51
821,75047984,-0.4585,-0.9419,0.1353,38.29,-64.33,-125.98
822,75052981,-0.4458,-0.9546,0.1406,38.78,-66.46,-127.20
823,75057981,-0.4277,-0.9619,0.1304,39.57,-69.76,-129.02
824,75062982,-0.4199,-0.9727,0.1201,40.30,-72.13,-130.30
825,75067983,-0.4146,-0.9819,0.1118,41.52,-74.88,-131.89
826,75072981,-0.3994,-0.9961,0.1025,43.29,-77.68,-133.41
827,75077980,-0.3809,-1.0107,0.0864,45.67,-80.67,-135.00
828,75082981,-0.3525,-1.0347,0.0884,49.88,-83.96,-137.07
829,75087982,-0.3350,-1.0503,0.0786,53.35,-86.22,-138.54
830,75092982,-0.3174,-1.0703,0.0767,58.66,-88.66,-140.18
831,75097982,-0.3047,-1.0815,0.0605,64.63,-91.04,-142.07
832,75102981,-0.2959,-1.0947,0.0522,70.85,-93.41,-143.84
833,75107982,-0.3076,-1.0913,0.0576,77.13,-95.24,-145.98
834,75112982,-0.2539,-1.1118,0.0220,84.76,-97.38,-148.29
835,75117984,-0.2642,-1.1191,0.0225,89.21,-99.02,-149.82
836,75122981,-0.2554,-1.1235,0.0151,93.54,-100.91,-151.95
837,75127983,-0.2422,-1.1108,0.0015,96.65,-102.68,-154.09
838,75132982,-0.2378,-1.0913,0.0132,99.45,-104.15,-156.28
839,75137981,-0.2207,-1.1289,0.0376,103.72,-105.30,-158.54
840,75142982,-0.1963,-1.0938,-0.0083,107.87,-106.65,-160.18
841,75147980,-0.2231,-1.1143,-0.0254,110.30,-108.23,-161.77
842,75152982,-0.2515,-1.1270,-0.0156,111.77,-109.88,-163.41
843,75157982,-0.2075,-1.1035,-0.0161,112.99,-111.04,-165.00
844,75162982,-0.1738,-1.0786,-0.0186,113.72,-112.13,-166.52
845,75167982,-0.1401,-1.0659,-0.0083,114.39,-113.23,-168.29
846,75172980,-0.1230,-1.0605,-0.0137,115.12,-113.84,-170.06
847,75177981,-0.1240,-1.0571,-0.0122,115.79,-114.70,-171.59
848,75183046,-0.1235,-1.0400,-0.0200,116.71,-115.06,-173.05
849,75187981,-0.1245,-1.0229,-0.0112,117.68,-115.30,-174.39
850,75192985,-0.1118,-1.0220,-0.0249,118.78,-115.61,-175.67
851,75197984,-0.0928,-1.0146,-0.0312,119.57,-115.91,-176.59
852,75202980,-0.0586,-0.9937,-0.0137,120.30,-116.10,-177.38
853,75207980,-0.0601,-0.9634,-0.0083,121.22,-116.16,-178.11
854,75212980,-0.0396,-0.9414,-0.0132,121.95,-116.16,-178.72
855,75217980,-0.0176,-0.9292,-0.0166,122.44,-116.16,-179.21
856,75222980,0.0010,-0.9150,-0.0098,122.32,-116.04,-179.51
857,75227981,0.0156,-0.8970,-0.0171,121.59,-115.91,-179.57
858,75232982,0.0332,-0.8750,-0.0239,120.00,-115.91,-179.63
859,75237981,0.0547,-0.8506,-0.0234,117.99,-115.79,-179.57
860,75242980,0.0737,-0.8281,-0.0186,115.61,-115.43,-179.57
861,75248347,0.0879,-0.8071,-0.0205,112.99,-115.24,-179.57
862,75253063,0.1035,-0.7915,-0.0229,110.37,-114.70,-179.39
863,75257981,0.1206,-0.7764,-0.0205,107.74,-114.15,-179.21
864,75262982,0.1387,-0.7573,-0.0146,105.49,-113.41,-178.90
865,75267981,0.1455,-0.7104,-0.0156,103.66,-112.80,-178.60
866,75272982,0.1631,-0.7183,-0.0195,102.68,-112.07,-178.23
867,75277981,0.1968,-0.7197,-0.0195,101.89,-111.16,-177.68
868,75282982,0.2544,-0.7041,-0.0117,101.95,-110.43,-177.07
869,75287981,0.2856,-0.6641,-0.0083,102.50,-109.45,-176.40
870,75293015,0.3081,-0.6377,-0.0190,103.72,-108.84,-175.79
871,75297982,0.3267,-0.6128,-0.0215,105.55,-107.93,-175.24
872,75302981,0.3486,-0.6035,-0.0229,107.62,-107.20,-174.51
873,75307982,0.3740,-0.5879,-0.0288,109.88,-106.46,-173.78
874,75312982,0.3823,-0.5718,-0.0288,112.38,-105.73,-172.80
875,75317982,0.3921,-0.5542,-0.0308,114.76,-104.94,-171.83
876,75323216,0.4077,-0.5444,-0.0317,117.01,-104.21,-170.49
877,75327982,0.4180,-0.5347,-0.0234,119.27,-103.60,-169.15
878,75332982,0.4380,-0.5215,-0.0215,121.40,-102.99,-167.62
879,75337982,0.4468,-0.5068,-0.0239,123.35,-102.26,-166.10
880,75342981,0.4722,-0.4922,-0.0151,125.30,-101.77,-164.51
881,75347982,0.5000,-0.4805,-0.0088,127.32,-101.22,-162.74
882,75352982,0.5913,-0.4414,0.0117,128.84,-100.91,-161.04
883,75357984,0.5771,-0.4478,0.0156,129.76,-100.61,-159.15
884,75362982,0.5898,-0.4395,0.0103,132.87,-100.85,-157.38
885,75367982,0.5986,-0.4185,0.0483,135.43,-100.67,-155.55
886,75372981,0.6260,-0.4043,0.0410,137.87,-100.98,-153.90
887,75377982,0.6445,-0.3877,0.0527,139.88,-100.91,-152.32
888,75382982,0.6650,-0.3833,0.0708,141.46,-101.34,-150.79
889,75387982,0.6831,-0.3828,0.0869,142.74,-101.52,-149.27
890,75392981,0.6914,-0.3384,0.0527,144.02,-101.77,-147.74
891,75397983,0.6826,-0.3311,0.0928,145.43,-102.20,-146.10
892,75402982,0.6855,-0.3374,0.0850,146.40,-102.68,-144.39
893,75408009,0.6855,-0.3589,0.0903,147.07,-102.80,-142.62
894,75412981,0.6792,-0.3252,0.1099,147.13,-102.99,-140.98
895,75417982,0.6768,-0.3208,0.1011,146.95,-102.87,-138.96
896,75422982,0.6743,-0.3467,0.0728,146.16,-102.87,-136.89
897,75427983,0.6465,-0.3208,0.1030,145.49,-102.74,-134.70
898,75432981,0.6689,-0.2881,0.0732,144.57,-102.38,-132.56
899,75437983,0.6753,-0.3091,0.1045,143.05,-101.89,-130.85
900,75442982,0.6841,-0.3335,0.0903,140.85,-101.10,-128.90
901,75447982,0.6865,-0.3188,0.0879,138.84,-100.18,-126.95
902,75452984,0.7227,-0.3018,0.0566,136.34,-99.33,-125.12
903,75457983,0.7246,-0.2930,0.0884,134.57,-98.78,-124.09
904,75462981,0.7388,-0.2876,0.0552,132.99,-97.99,-122.68
905,75467981,0.7524,-0.2720,0.0933,129.63,-97.26,-121.65
906,75472982,0.7578,-0.2612,0.0786,128.48,-96.52,-120.67
907,75477981,0.7651,-0.2646,0.0625,127.26,-95.67,-119.76
908,75482982,0.7563,-0.2563,0.0786,124.82,-94.70,-118.78
909,75487981,0.7720,-0.2456,0.0557,122.99,-93.66,-118.05
910,75492982,0.7671,-0.2632,0.0752,121.40,-92.44,-117.26
911,75497981,0.7593,-0.2686,0.0767,120.12,-91.28,-116.46
912,75502982,0.7666,-0.2642,0.0981,119.51,-89.57,-115.73
913,75507981,0.7847,-0.2383,0.0742,118.90,-87.87,-115.37
914,75513220,0.7910,-0.2339,0.0967,118.17,-86.04,-115.12
915,75517982,0.7896,-0.2275,0.0864,117.32,-83.90,-115.06
916,75522982,0.8188,-0.2148,0.0913,116.28,-82.38,-115.30
917,75527982,0.8354,-0.2236,0.0815,114.63,-80.67,-115.67
918,75532981,0.8555,-0.2036,0.0640,112.62,-79.09,-116.10
919,75537982,0.7954,-0.2354,0.0835,110.00,-77.56,-116.83
920,75542982,0.8149,-0.2148,0.0566,107.01,-76.10,-117.26
921,75547982,0.8628,-0.2109,0.0273,103.17,-74.76,-117.87
922,75552980,0.8711,-0.2075,0.0337,98.72,-73.35,-118.66
923,75557984,0.8286,-0.2329,0.0317,93.48,-71.77,-119.51
924,75562982,0.8223,-0.2188,0.0190,87.93,-70.24,-120.24
925,75567981,0.8354,-0.2129,0.0259,81.77,-68.29,-121.10
926,75572982,0.8521,-0.2026,0.0225,75.06,-66.40,-122.07
927,75577982,0.8560,-0.1909,0.0078,67.93,-64.27,-123.35
928,75583074,0.8516,-0.1807,0.0122,60.43,-62.26,-124.70
929,75587982,0.8491,-0.1748,0.0156,52.74,-59.88,-126.16
930,75592982,0.8535,-0.1636,0.0264,45.00,-57.62,-127.68
931,75597982,0.8784,-0.1548,0.0244,37.26,-55.18,-129.15
932,75602982,0.8950,-0.1382,0.0210,29.57,-52.80,-130.79
933,75607981,0.9102,-0.1172,0.0132,22.50,-50.79,-132.56
934,75612982,0.9209,-0.0981,0.0083,15.73,-48.84,-134.45
935,75617981,0.9346,-0.0771,0.0073,9.45,-46.83,-136.46
936,75622982,0.9404,-0.0649,0.0063,4.02,-44.94,-138.60
937,75627981,0.9395,-0.0547,0.0171,-1.04,-42.87,-140.61
938,75632980,0.9307,-0.0435,0.0146,-5.30,-40.79,-142.68
939,75637982,0.9160,-0.0327,0.0122,-9.02,-38.72,-144.57
940,75642981,0.8979,-0.0278,0.0156,-11.95,-36.77,-146.28
941,75647981,0.8730,-0.0210,0.0259,-14.33,-34.51,-147.74
942,75652982,0.8477,-0.0049,0.0210,-16.04,-32.32,-149.02
943,75658234,0.8267,0.0142,0.0234,-17.13,-30.06,-150.06
944,75662983,0.8027,0.0308,0.0146,-17.68,-27.62,-151.22
945,75667981,0.7852,0.0449,0.0283,-17.74,-25.30,-152.13
946,75672982,0.7715,0.0610,0.0347,-17.44,-23.05,-152.87
947,75677981,0.7666,0.0820,0.0161,-16.65,-20.79,-153.78
948,75682982,0.7686,0.1152,0.0083,-15.49,-18.84,-154.45
949,75687984,0.7734,0.1372,0.0112,-14.27,-17.01,-155.55
950,75692982,0.7754,0.1602,-0.0054,-12.68,-15.37,-156.34
951,75697982,0.7700,0.1768,-0.0020,-10.91,-13.96,-157.26
952,75702982,0.7642,0.1870,0.0054,-8.84,-12.74,-158.05
953,75707982,0.7529,0.2046,-0.0088,-6.65,-11.65,-158.78
954,75712981,0.7305,0.2236,-0.0093,-4.09,-10.43,-159.33
955,75717982,0.7183,0.2368,-0.0039,-1.34,-9.57,-159.82
956,75722982,0.6987,0.2451,-0.0039,1.77,-8.66,-160.30
957,75727982,0.6836,0.2617,-0.0093,5.37,-7.93,-160.49
958,75732982,0.6772,0.2759,-0.0186,9.09,-7.32,-160.73
959,75737982,0.6724,0.2954,-0.0278,13.11,-6.95,-160.85
960,75743017,0.6646,0.3096,-0.0337,17.50,-6.77,-161.04
961,75747984,0.6724,0.3291,-0.0405,22.20,-6.77,-161.10
962,75752982,0.6631,0.3555,-0.0483,25.85,-6.83,-161.34
963,75757982,0.6606,0.3701,-0.0435,30.61,-7.20,-161.46
964,75762982,0.6670,0.3999,-0.0356,35.37,-7.44,-161.71
965,75767981,0.6680,0.4170,-0.0249,40.00,-7.93,-161.83
966,75772982,0.6655,0.4351,-0.0161,44.63,-8.48,-161.95
967,75777982,0.6597,0.4536,-0.0117,49.02,-9.09,-162.13
968,75783052,0.6592,0.4712,-0.0029,53.41,-9.57,-162.32
969,75787982,0.6528,0.4893,0.0176,57.56,-10.18,-162.56
970,75792982,0.6445,0.5034,0.0264,61.65,-10.91,-162.74
971,75797982,0.6284,0.5166,0.0356,65.30,-11.52,-162.93
972,75802982,0.6147,0.5322,0.0444,68.78,-12.13,-163.05
973,75807982,0.6040,0.5459,0.0566,72.07,-12.74,-163.05
974,75812981,0.5977,0.5591,0.0620,75.37,-13.54,-163.23
975,75817982,0.6094,0.5923,0.0723,78.41,-14.15,-163.23
976,75822982,0.6162,0.6094,0.0688,81.10,-14.94,-163.41
977,75827981,0.6211,0.6274,0.0840,83.29,-15.79,-163.54
978,75832982,0.6035,0.6494,0.0928,85.73,-16.95,-163.78
979,75837982,0.5972,0.6592,0.1060,86.95,-17.56,-163.84
980,75842982,0.5830,0.6792,0.1157,88.66,-18.48,-163.96
981,75847982,0.5630,0.6982,0.1255,89.94,-19.21,-163.96
982,75852982,0.5522,0.7183,0.1367,90.98,-19.94,-164.15
983,75857982,0.5308,0.7300,0.1465,91.83,-20.43,-164.02
984,75862982,0.5034,0.7476,0.1519,92.32,-20.79,-163.90
985,75867982,0.4819,0.7598,0.1538,92.20,-21.10,-163.78
986,75872982,0.4565,0.7681,0.1602,91.89,-21.22,-163.48
987,75877982,0.4346,0.7739,0.1572,90.98,-21.34,-163.41
988,75882982,0.4150,0.7827,0.1562,89.51,-21.40,-163.23
989,75887982,0.3940,0.7856,0.1602,87.56,-21.46,-163.05
990,75893211,0.3740,0.7876,0.1538,85.18,-21.46,-162.93
991,75897983,0.3657,0.7949,0.1509,82.13,-21.28,-162.93
992,75902981,0.3491,0.8062,0.1509,78.66,-21.22,-162.87
993,75907982,0.3457,0.8101,0.1382,74.76,-21.16,-162.87
994,75912980,0.3447,0.8291,0.1606,70.12,-20.91,-163.17
995,75917984,0.3506,0.8398,0.1460,65.43,-20.85,-163.35
996,75922981,0.3560,0.8535,0.1382,60.12,-20.55,-163.66
997,75927982,0.3462,0.8721,0.1460,54.51,-20.43,-164.02
998,75932985,0.3438,0.8813,0.1445,48.48,-20.30,-164.39
999,75937981,0.3306,0.8970,0.1343,42.38,-20.18,-164.82
1000,75942982,0.3057,0.9082,0.1392,36.04,-19.94,-165.06
1001,75947981,0.3032,0.9224,0.1279,30.00,-19.63,-165.37
1002,75952982,0.2827,0.9316,0.1152,24.02,-19.27,-165.49
1003,75957982,0.2681,0.9453,0.1079,18.35,-18.96,-165.55
1004,75962982,0.2554,0.9595,0.1060,13.17,-18.48,-165.61
1005,75968428,0.2495,0.9658,0.0957,8.17,-17.93,-165.55
1006,75972984,0.2251,0.9741,0.1045,3.41,-17.56,-165.55
1007,75977981,0.1909,0.9761,0.1089,-0.67,-16.77,-165.37
1008,75982982,0.1479,0.9844,0.1045,-4.70,-15.98,-165.12
1009,75987981,0.1426,0.9932,0.0913,-8.05,-15.30,-165.12
1010,75992982,0.1519,1.0073,0.0918,-10.91,-14.70,-164.94
1011,75997981,0.1572,1.0161,0.0977,-13.48,-14.02,-165.00
1012,76003269,0.1646,1.0312,0.0879,-15.67,-13.41,-165.24
1013,76007982,0.1650,1.0332,0.0757,-17.68,-12.99,-165.61
1014,76012981,0.1665,1.0337,0.0762,-19.27,-12.56,-166.04
1015,76017981,0.1558,1.0391,0.0747,-20.61,-12.13,-166.40
1016,76022982,0.1440,1.0347,0.0757,-21.46,-11.77,-166.83
1017,76027981,0.1230,1.0347,0.0635,-21.71,-11.40,-167.20
1018,76032982,0.1089,1.0386,0.0771,-21.46,-11.16,-167.62
1019,76037982,0.1001,1.0430,0.0698,-20.79,-11.04,-168.23
1020,76042982,0.0874,1.0376,0.0625,-19.63,-10.67,-168.84
1021,76047981,0.0713,1.0415,0.0586,-18.23,-10.55,-169.45
1022,76052984,0.0625,1.0435,0.0591,-16.46,-10.61,-170.18
1023,76057982,0.0449,1.0449,0.0625,-14.51,-10.55,-170.91
1024,76062982,0.0288,1.0542,0.0513,-12.50,-10.61,-171.52
1025,76067982,0.0190,1.0601,0.0503,-10.49,-10.85,-172.26
1026,76072982,0.0020,1.0723,0.0469,-8.78,-10.91,-172.93
1027,76077982,-0.0044,1.0874,0.0361,-7.44,-11.22,-173.66
1028,76082982,-0.0068,1.1035,0.0269,-6.71,-11.46,-174.27
1029,76087981,-0.0020,1.1255,0.0239,-6.10,-11.89,-175.18
1030,76092982,0.0034,1.1401,0.0127,-5.79,-12.38,-176.10
1031,76097981,0.0132,1.1553,0.0190,-5.67,-12.80,-177.20
1032,76102982,0.0107,1.1685,0.0146,-5.85,-13.35,-178.29
1033,76107982,0.0059,1.1797,0.0054,-6.16,-13.96,-179.51
1034,76112982,-0.0039,1.1919,-0.0010,-6.46,-14.76,-180.91
1035,76117984,-0.0190,1.1953,0.0005,-6.83,-15.43,-181.83
1036,76123064,-0.0376,1.2031,0.0068,-7.20,-16.16,-182.87
1037,76127981,-0.0596,1.2012,0.0083,-7.38,-17.01,-183.84
1038,76132982,-0.0879,1.1953,0.0068,-7.68,-17.62,-184.57
1039,76137982,-0.1182,1.1953,0.0039,-8.05,-18.48,-185.18
1040,76142982,-0.1450,1.1895,0.0063,-8.35,-19.15,-185.67
1041,76147981,-0.1738,1.1851,0.0034,-8.48,-20.00,-185.98
1042,76152982,-0.2065,1.1792,0.0127,-8.48,-20.73,-186.22
1043,76157981,-0.2285,1.1758,0.0093,-8.41,-21.46,-186.04
1044,76162980,-0.2485,1.1694,0.0044,-8.23,-22.32,-186.04
1045,76167982,-0.2739,1.1699,0.0073,-7.74,-22.93,-185.61
1046,76172984,-0.2988,1.1675,0.0083,-7.20,-23.60,-185.06
1047,76177981,-0.3218,1.1680,0.0049,-6.34,-24.21,-184.27
1048,76182983,-0.3413,1.1699,0.0049,-5.49,-25.00,-183.35
1049,76187980,-0.3579,1.1719,0.0107,-4.27,-25.55,-182.20
1050,76192984,-0.3857,1.1772,0.0063,-2.87,-26.04,-180.98
1051,76197982,-0.4038,1.1733,-0.0015,-1.28,-26.65,-179.70
1052,76202982,-0.4258,1.1724,0.0005,0.61,-26.89,-178.29
1053,76207982,-0.4370,1.1670,0.0005,2.99,-27.56,-176.89
1054,76212982,-0.4502,1.1646,-0.0078,5.85,-27.99,-175.18
1055,76217982,-0.4619,1.1548,0.0024,9.15,-28.48,-173.41
1056,76222981,-0.4688,1.1426,-0.0034,12.93,-28.78,-171.65
1057,76227982,-0.4839,1.1416,-0.0107,17.13,-29.21,-170.00
1058,76232982,-0.4946,1.1270,-0.0088,21.83,-29.70,-168.17
1059,76237982,-0.4976,1.1206,-0.0137,26.83,-30.12,-166.40
1060,76243220,-0.5039,1.1099,-0.0034,31.71,-30.61,-164.57
1061,76247982,-0.5137,1.0952,-0.0103,36.59,-31.16,-162.68
1062,76252982,-0.5273,1.0894,-0.0132,40.98,-31.71,-160.61
1063,76257982,-0.5361,1.0801,-0.0249,44.94,-32.20,-158.54
1064,76263067,-0.5425,1.0811,-0.0332,47.93,-33.05,-156.40
1065,76267982,-0.5527,1.0796,-0.0400,50.43,-33.96,-154.33
1066,76272982,-0.5620,1.0811,-0.0454,52.50,-34.82,-152.32
1067,76278019,-0.5669,1.0771,-0.0449,54.09,-35.55,-150.37
1068,76282981,-0.5767,1.0737,-0.0571,55.24,-36.22,-148.29
1069,76287982,-0.5859,1.0688,-0.0596,56.22,-37.20,-146.34
1070,76292982,-0.5967,1.0718,-0.0679,56.77,-37.93,-144.51
1071,76297981,-0.6050,1.0698,-0.0771,57.13,-38.66,-142.62
1072,76302982,-0.6060,1.0620,-0.0879,57.38,-39.57,-140.98
1073,76307982,-0.6113,1.0601,-0.0869,57.68,-40.49,-139.33
1074,76312982,-0.6172,1.0566,-0.0923,57.80,-41.28,-137.56
1075,76317981,-0.6265,1.0459,-0.1011,57.99,-41.95,-136.04
1076,76322982,-0.6299,1.0361,-0.1006,57.99,-42.74,-134.57
1077,76327984,-0.6392,1.0278,-0.0972,58.17,-43.48,-133.05
1078,76332982,-0.6460,1.0205,-0.1060,57.93,-44.21,-131.65
1079,76337981,-0.6572,1.0117,-0.1099,57.68,-45.18,-130.24
1080,76342982,-0.6558,0.9985,-0.1113,57.07,-45.98,-128.96
1081,76347982,-0.6616,0.9888,-0.1099,56.34,-46.95,-127.50
1082,76352982,-0.6694,0.9858,-0.1245,55.12,-47.80,-126.22
1083,76357981,-0.6729,0.9800,-0.1323,53.84,-48.84,-124.82
1084,76362982,-0.6724,0.9751,-0.1348,52.01,-49.82,-123.48
1085,76367982,-0.6792,0.9658,-0.1387,50.49,-50.98,-122.26
1086,76372982,-0.6743,0.9580,-0.1421,48.78,-51.89,-121.10
1087,76377981,-0.6860,0.9624,-0.1401,47.13,-53.11,-119.94
1088,76382982,-0.7031,0.9526,-0.1470,45.67,-54.02,-118.66
1089,76387981,-0.7144,0.9497,-0.1362,44.33,-54.94,-117.38
1090,76393264,-0.7280,0.9414,-0.1450,43.23,-55.85,-116.28
1091,76397982,-0.7354,0.9277,-0.1416,42.20,-56.65,-115.06
1092,76402981,-0.7480,0.9229,-0.1509,41.16,-57.44,-113.84
1093,76407983,-0.7568,0.9180,-0.1519,40.24,-58.29,-112.68
1094,76412982,-0.7646,0.9111,-0.1543,39.57,-59.21,-111.52
1095,76417982,-0.7690,0.9048,-0.1553,39.15,-59.76,-110.49
1096,76422980,-0.7725,0.9009,-0.1523,38.90,-60.49,-109.21
1097,76427981,-0.7817,0.8921,-0.1479,38.96,-61.10,-107.74
1098,76432982,-0.7886,0.8936,-0.1392,39.27,-61.40,-106.34
1099,76437981,-0.8057,0.8872,-0.1406,39.82,-61.95,-104.94
1100,76442982,-0.8164,0.8770,-0.1377,40.43,-62.38,-103.23
1101,76447982,-0.8262,0.8701,-0.1372,41.34,-62.62,-101.65
1102,76452982,-0.8330,0.8682,-0.1353,42.13,-62.80,-99.94
1103,76457981,-0.8389,0.8687,-0.1367,43.05,-63.05,-98.17
1104,76462982,-0.8467,0.8667,-0.1343,43.96,-63.05,-96.34
1105,76467981,-0.8496,0.8633,-0.1323,44.94,-63.29,-94.63
1106,76472984,-0.8604,0.8662,-0.1250,46.04,-63.23,-92.56
1107,76477981,-0.8584,0.8628,-0.1294,47.32,-63.17,-90.67
1108,76482982,-0.8696,0.8604,-0.1289,48.66,-63.11,-88.60
1109,76487981,-0.8730,0.8516,-0.1211,50.12,-63.11,-86.65
1110,76492982,-0.8745,0.8525,-0.1201,51.28,-62.93,-84.57
1111,76497981,-0.8789,0.8457,-0.1235,52.87,-62.80,-82.56
1112,76502982,-0.8848,0.8467,-0.1270,54.02,-62.68,-80.55
1113,76507981,-0.8818,0.8433,-0.1191,55.43,-62.44,-78.35
1114,76512982,-0.8833,0.8369,-0.1240,56.77,-62.44,-76.40
1115,76517982,-0.8887,0.8291,-0.1201,58.29,-62.44,-74.33
1116,76522982,-0.8828,0.8252,-0.1226,59.76,-62.32,-72.32
1117,76527982,-0.8799,0.8237,-0.1230,61.34,-62.44,-70.55
1118,76533016,-0.8779,0.8218,-0.1211,62.74,-62.50,-68.72
1119,76537982,-0.8779,0.8188,-0.1250,64.33,-62.74,-66.95
1120,76542982,-0.8779,0.8125,-0.1216,65.61,-62.93,-65.24
1121,76547982,-0.8774,0.8076,-0.1211,67.01,-62.99,-63.54
1122,76552981,-0.8760,0.8062,-0.1245,68.05,-63.29,-61.95
1123,76557982,-0.8682,0.7964,-0.1216,69.02,-63.54,-60.24
1124,76562982,-0.8638,0.7886,-0.1216,70.00,-63.84,-58.54
1125,76567982,-0.8555,0.7852,-0.1191,70.79,-64.15,-56.77
1126,76572981,-0.8555,0.7759,-0.1201,71.34,-64.57,-55.00
1127,76577982,-0.8555,0.7720,-0.1201,71.89,-64.82,-53.41
1128,76582982,-0.8511,0.7583,-0.1221,72.38,-65.37,-51.59
1129,76587982,-0.8511,0.7510,-0.1123,72.62,-65.55,-50.00
1130,76592983,-0.8477,0.7466,-0.1113,73.11,-66.16,-48.41
1131,76597982,-0.8389,0.7368,-0.1099,73.60,-66.52,-46.65
1132,76602982,-0.8320,0.7339,-0.0991,74.09,-66.83,-45.12
1133,76607982,-0.8267,0.7251,-0.1006,74.76,-67.26,-43.54
1134,76612981,-0.8247,0.7207,-0.0933,75.49,-67.62,-42.07
1135,76617982,-0.8242,0.7144,-0.0986,76.16,-68.05,-40.73
1136,76622982,-0.8198,0.7061,-0.0923,77.13,-68.35,-39.27
1137,76627982,-0.8252,0.6963,-0.0928,77.93,-68.66,-38.11
1138,76632981,-0.8237,0.6914,-0.0830,78.84,-68.78,-36.77
1139,76637982,-0.8140,0.6885,-0.0728,80.00,-69.02,-35.61
1140,76642982,-0.8110,0.6787,-0.0767,81.28,-69.39,-34.51
1141,76647981,-0.8081,0.6738,-0.0742,82.50,-69.51,-33.48
1142,76652982,-0.8096,0.6670,-0.0718,83.60,-69.63,-32.62
1143,76657981,-0.8066,0.6675,-0.0679,84.82,-69.82,-31.71
1144,76662982,-0.8120,0.6626,-0.0645,85.91,-69.82,-30.73
1145,76667981,-0.8179,0.6523,-0.0630,86.89,-69.94,-29.82
1146,76672982,-0.8135,0.6533,-0.0547,87.80,-69.94,-29.09
1147,76677984,-0.8101,0.6484,-0.0552,88.60,-69.94,-28.48
1148,76682982,-0.8037,0.6436,-0.0488,89.33,-69.94,-27.62
1149,76687982,-0.8027,0.6382,-0.0454,89.70,-70.12,-27.07
1150,76692983,-0.8076,0.6362,-0.0488,90.00,-70.00,-26.40
1151,76697982,-0.8081,0.6348,-0.0454,90.24,-69.82,-25.67
1152,76702982,-0.8120,0.6304,-0.0469,90.00,-69.76,-25.06
1153,76707982,-0.8149,0.6250,-0.0459,89.51,-69.63,-24.45
1154,76712981,-0.8125,0.6216,-0.0415,89.02,-69.39,-23.78
1155,76717982,-0.8115,0.6221,-0.0469,88.35,-69.51,-23.23
1156,76722983,-0.8052,0.6167,-0.0371,87.68,-69.39,-22.56
1157,76727982,-0.8076,0.6138,-0.0420,86.83,-69.21,-22.01
1158,76732980,-0.8066,0.6074,-0.0396,85.91,-69.09,-21.34
1159,76737983,-0.8105,0.6079,-0.0312,84.88,-68.78,-20.73
1160,76742982,-0.8140,0.6084,-0.0312,83.90,-68.60,-20.12
1161,76747982,-0.8154,0.6030,-0.0361,82.68,-68.17,-19.51
1162,76752981,-0.8179,0.6021,-0.0347,81.52,-67.87,-18.78
1163,76757982,-0.8228,0.5981,-0.0269,80.55,-67.62,-18.23
1164,76762982,-0.8262,0.5991,-0.0352,79.15,-67.13,-17.50
1165,76767982,-0.8271,0.5957,-0.0249,77.93,-66.71,-16.65
1166,76772993,-0.8330,0.5913,-0.0229,76.59,-66.28,-15.91
1167,76777982,-0.8389,0.5947,-0.0249,75.24,-65.79,-15.00
1168,76783329,-0.8457,0.5879,-0.0317,73.48,-65.24,-14.33
1169,76787982,-0.8516,0.5889,-0.0283,72.26,-64.82,-13.60
1170,76792982,-0.8521,0.5898,-0.0215,70.79,-64.27,-12.80
1171,76797982,-0.8511,0.5840,-0.0273,69.45,-63.60,-12.07
1172,76802981,-0.8481,0.5811,-0.0220,68.29,-63.05,-11.28
1173,76807982,-0.8462,0.5806,-0.0156,67.01,-62.32,-10.49
1174,76812982,-0.8496,0.5771,-0.0132,65.79,-61.71,-9.70
1175,76817983,-0.8574,0.5781,-0.0112,64.63,-61.10,-8.90
1176,76822981,-0.8564,0.5723,-0.0176,63.48,-60.30,-8.17
1177,76827982,-0.8638,0.5752,-0.0181,62.32,-59.51,-7.44
1178,76832982,-0.8604,0.5664,-0.0151,61.34,-58.78,-6.65
1179,76837983,-0.8604,0.5693,-0.0093,60.37,-57.87,-6.04
1180,76842981,-0.8613,0.5674,-0.0068,59.57,-56.95,-5.37
1181,76847982,-0.8594,0.5669,-0.0059,58.60,-56.16,-4.63
1182,76852982,-0.8594,0.5630,-0.0132,57.74,-55.24,-3.84
1183,76857982,-0.8599,0.5586,-0.0107,56.83,-54.33,-3.05
1184,76862980,-0.8628,0.5562,-0.0029,56.04,-53.60,-2.44
1185,76867982,-0.8628,0.5562,-0.0073,55.24,-52.44,-1.71
1186,76872982,-0.8584,0.5527,0.0005,54.33,-51.52,-0.91
1187,76877988,-0.8604,0.5518,-0.0005,53.35,-50.49,-0.18
1188,76882980,-0.8584,0.5513,0.0000,52.56,-49.51,0.43
1189,76887981,-0.8560,0.5527,0.0020,51.83,-48.41,1.22
1190,76893036,-0.8599,0.5508,0.0034,50.98,-47.32,1.95
1191,76898430,-0.8633,0.5483,0.0044,50.00,-46.10,2.80
1192,76902982,-0.8662,0.5479,0.0005,49.45,-45.30,3.41
1193,76907982,-0.8657,0.5444,0.0093,48.66,-44.09,4.15
1194,76912982,-0.8682,0.5430,0.0039,48.11,-43.11,4.82
1195,76917981,-0.8647,0.5400,0.0078,47.50,-42.01,5.43
1196,76922982,-0.8599,0.5386,0.0049,46.95,-40.91,6.16
1197,76927982,-0.8579,0.5391,0.0054,46.52,-39.76,6.71
1198,76932982,-0.8589,0.5342,0.0088,45.98,-38.72,7.26
1199,76937981,-0.8599,0.5347,0.0083,45.67,-37.50,7.80
1200,76942982,-0.8608,0.5332,0.0137,45.06,-36.40,8.23
1201,76947982,-0.8589,0.5298,0.0117,44.45,-35.30,8.84
1202,76952982,-0.8589,0.5259,0.0190,44.02,-34.15,9.33
1203,76957981,-0.8555,0.5215,0.0171,43.41,-33.17,9.76
1204,76962982,-0.8555,0.5171,0.0205,42.99,-32.01,10.30
1205,76967982,-0.8560,0.5181,0.0225,42.50,-30.79,10.79
1206,76972982,-0.8589,0.5195,0.0190,41.89,-29.76,11.28
1207,76977981,-0.8647,0.5186,0.0273,41.40,-28.72,11.65
1208,76982982,-0.8691,0.5098,0.0190,40.61,-27.50,12.20
1209,76987982,-0.8726,0.5068,0.0186,40.12,-26.22,12.38
1210,76992982,-0.8701,0.5103,0.0303,39.39,-25.12,12.74
1211,76997982,-0.8643,0.5054,0.0225,38.90,-24.02,13.17
1212,77002981,-0.8633,0.5083,0.0244,38.35,-22.99,13.41
1213,77007982,-0.8599,0.5039,0.0288,37.68,-21.89,13.72
1214,77012982,-0.8652,0.5005,0.0278,36.89,-20.85,13.84
1215,77017982,-0.8667,0.5015,0.0317,36.16,-19.82,14.02
1216,77022982,-0.8652,0.4966,0.0259,35.30,-18.72,14.09
1217,77027982,-0.8618,0.4980,0.0259,34.39,-17.62,14.15
1218,77032982,-0.8628,0.4932,0.0288,33.41,-16.65,14.33
1219,77037983,-0.8594,0.4922,0.0273,32.56,-15.85,14.39
1220,77042981,-0.8589,0.4883,0.0303,31.46,-14.82,14.57
1221,77047982,-0.8613,0.4839,0.0293,30.49,-13.72,14.63
1222,77053001,-0.8643,0.4839,0.0269,29.51,-12.80,14.70
1223,77057982,-0.8770,0.4863,0.0278,28.35,-12.01,14.70
1224,77062981,-0.8779,0.4863,0.0293,27.32,-11.04,14.76
1225,77067983,-0.8735,0.4775,0.0293,26.28,-10.18,14.94
1226,77072982,-0.8687,0.4810,0.0371,25.49,-9.27,14.88
1227,77077982,-0.8662,0.4771,0.0317,24.45,-8.35,15.00
1228,77082982,-0.8657,0.4756,0.0288,23.54,-7.62,15.00
1229,77087981,-0.8691,0.4741,0.0361,22.56,-6.59,15.06
1230,77092982,-0.8682,0.4766,0.0283,21.77,-5.91,15.06
1231,77097981,-0.8682,0.4731,0.0298,20.98,-5.00,15.06
1232,77102982,-0.8672,0.4722,0.0347,19.94,-3.96,15.12
1233,77107982,-0.8696,0.4653,0.0361,19.15,-3.23,15.06
1234,77113281,-0.8638,0.4644,0.0361,18.05,-2.26,15.00
1235,77117983,-0.8657,0.4658,0.0386,17.32,-1.71,15.00
1236,77122981,-0.8667,0.4653,0.0376,16.46,-0.98,15.06
1237,77127982,-0.8643,0.4629,0.0400,15.73,0.06,15.00
1238,77132982,-0.8691,0.4585,0.0405,14.88,0.73,14.88
