# skilleye imu stream v1
# device=xiao_esp32c6 imu=mpu6050 addr=0x68
# rate_hz=200 accel_range_g=16 gyro_range_dps=2000 dlpf_hz=94
# units: accel in g, gyro in deg/s, t_us in microseconds since boot (monotonic)
# no shared clock with the camera -- tap the racket once before each take
# so both recordings share a spike to align on
seq,t_us,ax,ay,az,gx,gy,gz
0,96284842,0.8809,-0.4722,0.0791,7.56,2.56,3.35
1,96289846,0.8833,-0.4775,0.0811,7.93,2.80,3.54
2,96294842,0.8862,-0.4771,0.0806,8.11,3.11,3.84
3,96299843,0.8872,-0.4824,0.0830,8.29,3.11,4.21
4,96304843,0.8867,-0.4819,0.0815,8.41,3.35,4.57
5,96309841,0.8892,-0.4844,0.0801,8.35,3.48,4.76
6,96314843,0.8857,-0.4834,0.0830,8.29,3.48,5.00
7,96319842,0.8862,-0.4868,0.0801,7.99,3.78,5.30
8,96324843,0.8833,-0.4873,0.0811,7.74,3.90,5.49
9,96329843,0.8818,-0.4868,0.0845,7.38,3.90,5.73
10,96334843,0.8862,-0.4854,0.0835,7.01,3.96,5.91
11,96339845,0.8809,-0.4858,0.0850,6.65,4.02,5.98
12,96344842,0.8789,-0.4844,0.0889,6.10,4.09,6.10
13,96349843,0.8750,-0.4888,0.0869,5.67,4.02,6.22
14,96354854,0.8774,-0.4883,0.0806,5.24,4.02,6.22
15,96359845,0.8755,-0.4834,0.0811,4.82,3.78,6.28
16,96364842,0.8726,-0.4883,0.0811,4.39,3.90,6.34
17,96369843,0.8721,-0.4897,0.0815,3.96,3.54,6.34
18,96374841,0.8711,-0.4927,0.0874,3.60,3.48,6.34
19,96379845,0.8682,-0.4902,0.0889,3.17,3.17,6.28
20,96384842,0.8682,-0.4941,0.0903,2.93,3.11,6.28
21,96389843,0.8691,-0.4966,0.0889,2.62,2.93,6.22
22,96394841,0.8696,-0.4941,0.0894,2.26,2.87,6.22
23,96399844,0.8696,-0.4961,0.0879,2.01,2.68,6.16
24,96404842,0.8726,-0.4980,0.0972,1.65,2.44,5.98
25,96409846,0.8682,-0.4971,0.0938,1.40,2.38,5.91
26,96414845,0.8677,-0.4941,0.0933,1.10,2.01,5.79
27,96419844,0.8682,-0.4995,0.0903,0.98,1.95,5.67
28,96424845,0.8726,-0.4971,0.0977,0.67,1.77,5.43
29,96430267,0.8677,-0.4917,0.0957,0.43,1.65,5.30
30,96434843,0.8687,-0.4995,0.0972,0.24,1.34,5.24
31,96439844,0.8657,-0.4971,0.1021,0.00,1.28,5.00
32,96444843,0.8662,-0.4976,0.1035,-0.06,1.04,4.70
33,96449841,0.8682,-0.4971,0.1089,-0.18,0.73,4.57
34,96454844,0.8682,-0.4980,0.1094,-0.24,0.85,4.51
35,96459843,0.8755,-0.5063,0.1099,-0.18,0.79,4.39
36,96464843,0.8696,-0.5000,0.1035,-0.18,0.49,4.09
37,96469906,0.8706,-0.5020,0.1035,-0.18,0.43,3.84
38,96474844,0.8711,-0.5005,0.1060,-0.06,0.49,3.60
39,96479843,0.8755,-0.4980,0.1045,0.06,0.30,3.48
40,96484843,0.8721,-0.5015,0.1084,0.18,0.06,3.29
41,96489842,0.8730,-0.5029,0.1055,0.30,0.12,2.93
42,96494843,0.8706,-0.5010,0.1108,0.55,0.00,2.87
43,96499843,0.8716,-0.4961,0.1050,0.67,-0.06,2.74
44,96504843,0.8730,-0.4976,0.1084,0.91,-0.06,2.56
45,96509842,0.8726,-0.5010,0.1035,1.22,-0.24,2.38
46,96514843,0.8696,-0.4985,0.1128,1.40,-0.30,2.20
47,96519841,0.8701,-0.4956,0.1113,1.83,-0.43,2.01
48,96524845,0.8706,-0.4995,0.1084,2.07,-0.37,1.89
49,96529843,0.8740,-0.5000,0.1104,2.50,-0.43,1.65
50,96534843,0.8755,-0.5005,0.1064,2.80,-0.43,1.46
51,96539842,0.8711,-0.4995,0.1069,3.29,-0.67,1.40
52,96544843,0.8750,-0.5005,0.1128,3.54,-0.73,1.16
53,96549843,0.8730,-0.4976,0.1143,3.84,-0.79,1.04
54,96554843,0.8740,-0.4976,0.1074,4.09,-0.85,0.91
55,96559844,0.8706,-0.4990,0.1055,4.39,-1.10,0.73
56,96564843,0.8706,-0.4961,0.0986,4.70,-1.22,0.61
57,96569841,0.8682,-0.4922,0.1055,5.00,-1.28,0.49
58,96574843,0.8706,-0.4893,0.1021,5.12,-1.22,0.37
59,96579843,0.8716,-0.4854,0.0996,5.37,-1.46,0.18
60,96584843,0.8721,-0.4858,0.0952,5.55,-1.52,0.12
61,96589842,0.8711,-0.4868,0.0967,5.61,-1.65,0.12
62,96594843,0.8662,-0.4858,0.0938,5.85,-1.52,0.00
63,96600338,0.8696,-0.4912,0.0942,6.16,-1.71,-0.06
64,96604844,0.8701,-0.4937,0.0947,6.28,-1.71,0.06
65,96609843,0.8633,-0.4941,0.0977,6.65,-1.83,0.18
66,96614843,0.8662,-0.4907,0.0918,6.89,-2.07,0.18
67,96619870,0.8638,-0.4937,0.0918,7.07,-1.95,0.24
68,96624844,0.8618,-0.4941,0.0933,7.26,-2.07,0.49
69,96630041,0.8599,-0.4932,0.0894,7.50,-2.07,0.67
70,96634843,0.8564,-0.4897,0.0884,7.56,-2.07,0.85
71,96639844,0.8530,-0.4922,0.0933,7.74,-2.20,1.16
72,96644843,0.8530,-0.4883,0.0874,7.80,-2.26,1.40
73,96649842,0.8491,-0.4883,0.0854,7.74,-2.20,1.77
74,96654843,0.8447,-0.4888,0.0845,7.68,-2.13,1.89
75,96660000,0.8467,-0.4897,0.0752,7.62,-2.13,2.20
76,96664843,0.8418,-0.4873,0.0879,7.38,-2.26,2.50
77,96669844,0.8364,-0.4878,0.0762,7.01,-2.26,3.05
78,96674843,0.8345,-0.4878,0.0850,6.65,-2.13,3.29
79,96679841,0.8296,-0.4873,0.0815,6.16,-2.13,3.66
80,96684845,0.8252,-0.4897,0.0859,5.49,-2.13,4.15
81,96689843,0.8237,-0.4922,0.0830,4.76,-2.13,4.57
82,96694843,0.8218,-0.4912,0.0869,3.96,-2.07,5.00
83,96699844,0.8169,-0.4927,0.0835,2.87,-1.77,5.37
84,96704843,0.8149,-0.4932,0.0864,1.83,-2.01,5.85
85,96709843,0.8159,-0.4941,0.0864,0.73,-1.89,6.28
86,96714843,0.8130,-0.4888,0.0781,-0.43,-1.77,6.71
87,96719844,0.8169,-0.5020,0.0791,-1.83,-1.65,7.20
88,96724843,0.8115,-0.5054,0.0869,-3.11,-1.46,7.62
89,96730260,0.8096,-0.5073,0.0898,-4.57,-1.46,8.11
90,96734843,0.8120,-0.5122,0.0908,-6.04,-1.40,8.66
91,96739844,0.8071,-0.5117,0.0859,-7.38,-1.34,9.09
92,96744843,0.8149,-0.5156,0.0908,-8.84,-1.16,9.57
93,96749842,0.8101,-0.5200,0.0879,-10.24,-1.10,10.06
94,96754843,0.8110,-0.5215,0.0903,-11.77,-0.91,10.49
95,96759841,0.8057,-0.5239,0.0977,-13.23,-0.98,10.98
96,96764845,0.8057,-0.5259,0.0938,-14.45,-0.79,11.34
97,96769842,0.8076,-0.5283,0.0884,-15.85,-0.73,11.77
98,96774843,0.8037,-0.5317,0.0957,-17.07,-0.79,12.07
99,96779841,0.8071,-0.5347,0.0933,-18.17,-0.73,12.50
100,96784844,0.8076,-0.5366,0.0894,-19.39,-0.98,12.87
101,96789843,0.8057,-0.5303,0.0918,-20.37,-0.91,13.11
102,96794843,0.8071,-0.5366,0.0942,-21.22,-0.91,13.48
103,96799842,0.8130,-0.5386,0.0923,-22.26,-0.98,13.66
104,96804843,0.8135,-0.5386,0.0952,-22.99,-1.04,13.96
105,96809843,0.8179,-0.5415,0.0928,-23.78,-1.16,14.21
106,96814843,0.8179,-0.5425,0.0947,-24.45,-1.22,14.27
107,96819844,0.8198,-0.5400,0.0947,-25.00,-1.34,14.45
108,96824843,0.8218,-0.5483,0.1011,-25.55,-1.34,14.57
109,96829843,0.8237,-0.5483,0.1006,-25.98,-1.40,14.63
110,96834843,0.8237,-0.5537,0.1118,-26.28,-1.59,14.82
111,96839841,0.8232,-0.5591,0.1055,-26.46,-1.77,14.82
112,96844845,0.8188,-0.5630,0.1069,-26.77,-1.89,15.00
113,96849843,0.8164,-0.5615,0.1011,-26.77,-2.01,14.94
114,96854843,0.8125,-0.5591,0.1030,-26.77,-2.20,15.00
115,96859842,0.8145,-0.5586,0.1055,-26.77,-2.32,14.88
116,96864843,0.8081,-0.5522,0.1021,-26.95,-2.44,14.70
117,96869843,0.8086,-0.5503,0.1069,-26.89,-2.62,14.63
118,96874843,0.8047,-0.5469,0.1084,-27.01,-2.74,14.45
119,96879866,0.8057,-0.5454,0.1074,-27.07,-2.93,14.27
120,96884845,0.8032,-0.5498,0.1064,-27.38,-3.05,13.96
121,96889843,0.7988,-0.5508,0.1084,-27.56,-3.11,13.78
122,96894842,0.7964,-0.5566,0.1094,-27.74,-3.29,13.41
123,96899843,0.7915,-0.5557,0.1113,-27.99,-3.41,13.11
124,96904841,0.7871,-0.5552,0.1152,-28.29,-3.54,12.93
125,96909844,0.7793,-0.5576,0.1143,-28.72,-3.66,12.62
126,96914842,0.7754,-0.5605,0.1191,-29.09,-3.84,12.32
127,96919849,0.7700,-0.5635,0.1133,-29.51,-3.96,11.95
128,96924841,0.7661,-0.5586,0.1113,-29.76,-4.21,11.52
129,96929982,0.7671,-0.5654,0.1118,-30.49,-4.39,11.28
130,96934843,0.7690,-0.5674,0.1094,-30.85,-4.45,10.85
131,96939843,0.7686,-0.5698,0.1025,-31.28,-4.76,10.61
132,96944843,0.7695,-0.5693,0.1064,-31.77,-5.00,10.18
133,96949842,0.7710,-0.5708,0.1084,-32.07,-5.24,9.82
134,96954845,0.7739,-0.5698,0.1030,-32.44,-5.43,9.51
135,96959844,0.7725,-0.5718,0.0952,-32.62,-5.85,9.02
136,96964843,0.7769,-0.5820,0.0986,-32.93,-6.16,8.66
137,96969842,0.7754,-0.5889,0.1006,-33.05,-6.52,8.41
138,96974899,0.7729,-0.5957,0.0952,-33.05,-6.65,8.11
139,96979844,0.7705,-0.5996,0.0977,-32.93,-7.01,7.80
140,96984843,0.7705,-0.6030,0.0981,-32.80,-7.26,7.62
141,96989842,0.7671,-0.6040,0.0962,-32.56,-7.62,7.44
142,96994843,0.7681,-0.6035,0.0898,-32.44,-7.87,7.20
143,96999843,0.7642,-0.6011,0.0913,-32.20,-8.17,7.01
144,97004843,0.7646,-0.6050,0.0933,-31.89,-8.54,6.83
145,97009842,0.7622,-0.6011,0.0923,-31.52,-8.96,6.83
146,97014843,0.7642,-0.6001,0.0864,-31.16,-9.27,6.59
147,97019843,0.7656,-0.6021,0.0933,-30.73,-9.33,6.46
148,97024843,0.7666,-0.5996,0.0913,-30.30,-9.76,6.28
149,97029845,0.7671,-0.6025,0.0889,-29.76,-10.24,6.28
150,97034841,0.7607,-0.5996,0.0894,-29.15,-10.49,6.22
151,97039843,0.7563,-0.5977,0.0903,-28.35,-10.91,6.22
152,97044842,0.7534,-0.5957,0.0923,-27.62,-11.28,6.10
153,97049843,0.7500,-0.5898,0.0830,-26.77,-11.65,5.98
154,97054841,0.7490,-0.5869,0.0840,-25.79,-11.95,6.04
155,97059841,0.7466,-0.5830,0.0864,-24.88,-12.44,5.91
156,97064843,0.7427,-0.5796,0.0776,-23.84,-12.74,5.79
157,97069842,0.7388,-0.5771,0.0811,-22.80,-13.23,5.61
158,97074955,0.7319,-0.5708,0.0811,-21.34,-13.66,5.55
159,97079843,0.7324,-0.5669,0.0859,-20.37,-13.96,5.55
160,97084844,0.7251,-0.5649,0.0776,-19.02,-14.45,5.55
161,97089843,0.7188,-0.5581,0.0723,-17.68,-14.88,5.37
162,97094843,0.7139,-0.5508,0.0757,-16.16,-15.18,5.43
163,97099841,0.7100,-0.5449,0.0752,-14.70,-15.73,5.18
164,97104842,0.6968,-0.5454,0.0767,-13.29,-16.10,5.24
165,97109843,0.6943,-0.5381,0.0767,-11.83,-16.71,5.06
166,97114842,0.6851,-0.5352,0.0762,-10.49,-16.95,4.94
167,97119845,0.6704,-0.5356,0.0703,-9.09,-17.56,4.88
168,97124841,0.6660,-0.5298,0.0708,-7.80,-17.87,4.57
169,97129841,0.6655,-0.5244,0.0620,-6.59,-18.35,4.21
170,97134841,0.6655,-0.5273,0.0547,-5.49,-18.78,4.02
171,97139845,0.6675,-0.5308,0.0503,-4.45,-19.15,3.54
172,97144842,0.6758,-0.5435,0.0410,-3.29,-19.70,3.29
173,97149843,0.6763,-0.5527,0.0444,-2.26,-20.00,2.99
174,97154841,0.6821,-0.5654,0.0459,-1.22,-20.18,2.93
175,97159845,0.6904,-0.5747,0.0405,-0.30,-20.49,2.68
176,97164900,0.7017,-0.5903,0.0474,0.67,-20.79,2.74
177,97169845,0.7129,-0.6025,0.0415,1.59,-20.85,2.80
178,97174841,0.7227,-0.6177,0.0469,2.44,-20.98,2.93
179,97179943,0.7290,-0.6299,0.0513,3.23,-21.28,3.23
180,97184842,0.7319,-0.6367,0.0386,4.09,-21.28,3.66
181,97189912,0.7363,-0.6387,0.0420,4.94,-21.40,4.09
182,97194842,0.7432,-0.6377,0.0371,5.73,-21.65,4.57
183,97199844,0.7505,-0.6411,0.0400,6.34,-21.83,4.94
184,97204842,0.7515,-0.6367,0.0400,6.83,-22.01,5.43
185,97209843,0.7622,-0.6318,0.0435,7.13,-22.26,5.85
186,97214841,0.7656,-0.6270,0.0361,7.32,-22.38,6.34
187,97219844,0.7759,-0.6289,0.0322,7.07,-22.56,6.77
188,97224842,0.7896,-0.6299,0.0337,6.89,-22.50,7.20
189,97229846,0.7969,-0.6353,0.0361,6.40,-22.87,7.68
190,97234841,0.8105,-0.6392,0.0308,5.85,-22.93,8.23
191,97239845,0.8257,-0.6519,0.0317,5.24,-22.87,8.90
192,97244842,0.8389,-0.6567,0.0298,4.70,-22.93,9.76
193,97249843,0.8394,-0.6626,0.0322,3.96,-23.17,10.49
194,97254841,0.8472,-0.6616,0.0298,3.17,-23.23,11.40
195,97259843,0.8506,-0.6675,0.0259,2.56,-23.35,12.32
196,97264842,0.8457,-0.6714,0.0249,1.95,-23.48,13.35
197,97269843,0.8521,-0.6670,0.0190,1.52,-23.60,14.39
198,97274841,0.8491,-0.6660,0.0186,1.10,-23.78,15.43
199,97279843,0.8486,-0.6660,0.0122,0.79,-24.02,16.46
200,97284842,0.8452,-0.6626,0.0068,0.73,-24.27,17.50
201,97289841,0.8501,-0.6592,-0.0073,0.61,-24.57,18.72
202,97294845,0.8477,-0.6611,-0.0068,0.37,-24.94,19.76
203,97299843,0.8516,-0.6636,-0.0225,0.37,-25.37,20.98
204,97304843,0.8486,-0.6675,-0.0322,0.18,-25.79,22.13
205,97309844,0.8496,-0.6719,-0.0239,0.12,-26.10,23.54
206,97314843,0.8560,-0.6646,-0.0337,0.00,-26.40,25.18
207,97319843,0.8599,-0.6436,-0.0503,-0.37,-26.71,26.71
208,97324843,0.8579,-0.6279,-0.0620,-1.10,-27.01,27.80
209,97329843,0.8560,-0.6265,-0.0630,-2.01,-27.44,29.09
210,97334841,0.8550,-0.6191,-0.0571,-2.99,-27.93,30.43
211,97339841,0.8535,-0.5576,-0.0327,-4.51,-27.62,31.34
212,97344845,0.8652,-0.5024,-0.0249,-6.83,-27.20,31.16
213,97349843,0.8574,-0.5449,-0.0317,-9.51,-26.40,30.85
214,97354843,0.8506,-0.5591,-0.0244,-11.89,-25.37,30.91
215,97359842,0.8525,-0.5474,-0.0205,-14.15,-24.21,31.22
216,97364843,0.8643,-0.5435,-0.0156,-16.34,-22.93,31.59
217,97369843,0.8750,-0.5356,-0.0332,-18.35,-21.22,32.26
218,97374843,0.8809,-0.5215,-0.0566,-20.37,-19.82,32.93
219,97379844,0.8740,-0.5073,-0.0771,-22.50,-18.48,33.66
220,97384843,0.8652,-0.4937,-0.1099,-24.63,-17.38,34.27
221,97389843,0.8530,-0.4917,-0.1133,-26.89,-16.59,34.70
222,97394843,0.8374,-0.4912,-0.1343,-29.09,-16.46,35.18
223,97399842,0.8320,-0.5024,-0.1421,-31.28,-16.46,35.43
224,97404843,0.8242,-0.5083,-0.1577,-33.35,-16.59,35.91
225,97409843,0.8213,-0.5122,-0.1758,-35.18,-16.95,36.40
226,97414843,0.8252,-0.5161,-0.1943,-36.89,-17.74,37.01
227,97419842,0.8228,-0.5171,-0.2080,-38.54,-18.66,37.50
228,97424843,0.8193,-0.5107,-0.2153,-39.94,-19.82,37.99
229,97429843,0.8071,-0.5000,-0.2114,-41.28,-20.85,38.17
230,97434843,0.7988,-0.4839,-0.2275,-42.44,-21.95,38.11
231,97439841,0.7979,-0.4595,-0.2310,-43.78,-22.99,37.44
232,97444845,0.7964,-0.4761,-0.2212,-45.24,-24.02,36.77
233,97449843,0.7944,-0.4771,-0.2231,-46.71,-24.63,35.91
234,97454842,0.7988,-0.4766,-0.2148,-48.05,-25.12,34.88
235,97459843,0.7993,-0.4868,-0.2119,-49.27,-25.49,33.60
236,97464841,0.7983,-0.4907,-0.1973,-49.94,-25.49,32.38
237,97469843,0.7925,-0.4937,-0.1992,-50.30,-25.18,30.79
238,97474846,0.7871,-0.4971,-0.2178,-50.18,-24.39,29.33
239,97479843,0.7871,-0.5059,-0.2373,-49.57,-23.90,27.87
240,97484842,0.7920,-0.5161,-0.2578,-48.66,-23.29,26.59
241,97489843,0.8037,-0.5220,-0.2798,-47.44,-22.68,25.61
242,97494841,0.8179,-0.5249,-0.3003,-45.79,-22.38,24.88
243,97499845,0.8301,-0.5298,-0.3188,-43.90,-21.71,24.39
244,97504842,0.8462,-0.5288,-0.3301,-41.71,-21.40,24.02
245,97509843,0.8525,-0.5249,-0.3516,-39.33,-21.10,23.90
246,97514841,0.8647,-0.5210,-0.3579,-36.59,-20.79,24.09
247,97519847,0.8750,-0.5474,-0.3633,-33.90,-20.37,24.33
248,97524844,0.8706,-0.5298,-0.3760,-31.04,-20.18,25.06
249,97530370,0.8604,-0.5469,-0.4248,-28.11,-20.37,25.73
250,97534843,0.8667,-0.5132,-0.5142,-26.28,-20.85,26.71
251,97539844,0.8345,-0.4355,-0.5381,-26.10,-21.59,27.32
252,97544843,0.8755,-0.3936,-0.4795,-26.65,-21.52,27.68
253,97549843,0.8706,-0.3682,-0.4058,-27.56,-21.04,27.80
254,97554843,0.8452,-0.4404,-0.4072,-29.63,-20.55,27.50
255,97559844,0.8047,-0.4902,-0.4141,-33.60,-20.30,27.93
256,97564843,0.7808,-0.4663,-0.4873,-39.33,-20.24,28.23
257,97569841,0.7153,-0.4663,-0.4463,-47.01,-20.24,28.78
258,97574844,0.7495,-0.4375,-0.3926,-55.49,-19.57,29.45
259,97579843,0.7925,-0.3940,-0.4473,-64.21,-19.09,29.88
260,97584843,0.8110,-0.3784,-0.4292,-73.48,-18.84,30.30
261,97589841,0.8008,-0.3706,-0.3945,-82.87,-18.35,31.04
262,97594845,0.7808,-0.3662,-0.4048,-91.95,-18.17,31.83
263,97599843,0.7446,-0.3442,-0.4097,-100.61,-18.48,32.68
264,97604842,0.6821,-0.3423,-0.4019,-109.02,-19.09,33.48
265,97609845,0.7104,-0.3438,-0.4116,-117.07,-20.00,34.21
266,97614841,0.7451,-0.3252,-0.4302,-124.39,-20.79,34.76
267,97619843,0.7593,-0.3022,-0.4468,-131.22,-21.46,34.82
268,97624842,0.7529,-0.2935,-0.4395,-137.87,-22.38,34.88
269,97629845,0.7056,-0.2646,-0.4175,-144.63,-23.17,34.82
270,97634841,0.6704,-0.2676,-0.4263,-152.20,-23.78,34.57
271,97639841,0.6538,-0.2822,-0.4326,-158.35,-24.57,34.39
272,97644841,0.6387,-0.2861,-0.4204,-166.40,-25.43,34.09
273,97649841,0.6284,-0.2803,-0.4204,-174.39,-25.98,33.60
274,97654845,0.6284,-0.2817,-0.4404,-183.78,-26.71,32.93
275,97659843,0.6108,-0.2656,-0.4351,-191.22,-27.26,32.20
276,97664842,0.5942,-0.2588,-0.4390,-197.26,-27.68,31.59
277,97669845,0.5747,-0.2524,-0.4434,-204.45,-28.05,30.67
278,97674841,0.5361,-0.2354,-0.4150,-211.77,-28.48,29.82
279,97679841,0.5273,-0.2412,-0.4390,-219.21,-28.90,29.02
280,97684844,0.5352,-0.2427,-0.4717,-226.16,-29.45,28.17
281,97689843,0.5386,-0.2397,-0.4741,-232.20,-29.82,27.38
282,97694843,0.5234,-0.2314,-0.4814,-237.32,-30.30,26.46
283,97699841,0.4976,-0.2305,-0.5005,-242.01,-30.55,25.43
284,97704845,0.5054,-0.2153,-0.5483,-244.33,-30.79,24.63
285,97709843,0.4917,-0.2261,-0.5454,-246.65,-31.04,23.84
286,97714843,0.4800,-0.2236,-0.5762,-248.17,-31.10,23.05
287,97720171,0.4814,-0.2368,-0.5845,-249.02,-30.73,22.20
288,97724843,0.4961,-0.2612,-0.5957,-248.96,-30.24,21.71
289,97729842,0.5186,-0.2925,-0.6069,-248.17,-29.45,21.22
290,97734843,0.5469,-0.3130,-0.6401,-246.10,-28.48,20.67
291,97739841,0.5366,-0.3203,-0.6987,-243.05,-27.38,20.18
292,97744841,0.5312,-0.3169,-0.7480,-238.84,-26.04,19.63
293,97749841,0.5366,-0.3110,-0.8140,-232.80,-24.51,19.15
294,97754845,0.5562,-0.2881,-0.8730,-224.21,-22.68,18.90
295,97759842,0.5786,-0.2720,-0.8989,-213.72,-20.61,18.78
296,97764843,0.5869,-0.2534,-0.9126,-202.13,-18.29,18.84
297,97770184,0.5991,-0.2490,-0.8965,-187.74,-15.30,19.51
298,97774844,0.6064,-0.2437,-0.8999,-178.29,-13.35,19.76
299,97779843,0.6055,-0.2446,-0.8838,-167.01,-10.79,20.55
300,97784842,0.5981,-0.2305,-0.8755,-156.28,-8.29,21.34
301,97789843,0.6069,-0.2241,-0.8569,-146.04,-5.67,22.07
302,97794842,0.6021,-0.2197,-0.8525,-136.34,-3.35,22.93
303,97799891,0.5918,-0.2129,-0.8682,-126.77,-1.10,23.66
304,97804925,0.5854,-0.2017,-0.8628,-117.74,1.34,24.45
305,97809843,0.5815,-0.1729,-0.8628,-109.39,3.60,25.24
306,97814843,0.5874,-0.1460,-0.8594,-102.01,5.67,25.98
307,97819843,0.6030,-0.1196,-0.8491,-95.49,7.87,26.89
308,97824842,0.6196,-0.0938,-0.8462,-90.00,9.88,27.87
309,97829844,0.6509,-0.0894,-0.8589,-85.24,11.65,28.72
310,97834873,0.6665,-0.0723,-0.8564,-81.40,13.17,29.76
311,97839841,0.6685,-0.0537,-0.8604,-78.11,14.33,30.73
312,97844841,0.6636,-0.0425,-0.8662,-75.55,15.49,31.59
313,97849841,0.6533,-0.0269,-0.8760,-73.66,16.28,32.38
314,97854841,0.6411,0.0005,-0.8921,-72.32,16.95,33.05
315,97859845,0.6440,0.0029,-0.9028,-71.40,17.62,33.60
316,97864842,0.6401,0.0205,-0.8984,-71.22,18.41,34.15
317,97869841,0.6396,0.0332,-0.9028,-71.59,19.33,34.70
318,97874841,0.6421,0.0435,-0.9048,-72.38,20.18,35.12
319,97879841,0.6396,0.0537,-0.9136,-73.54,21.16,35.43
320,97884841,0.6323,0.0737,-0.9189,-74.88,22.38,35.67
321,97890329,0.6265,0.0898,-0.9258,-76.83,23.90,35.91
322,97894846,0.6270,0.0918,-0.9453,-78.23,24.88,36.10
323,97899842,0.6284,0.1035,-0.9536,-80.00,26.34,36.22
324,97904843,0.6260,0.1084,-0.9678,-81.95,27.56,36.40
325,97909841,0.6211,0.1216,-0.9785,-83.90,28.90,36.59
326,97914845,0.6284,0.1313,-0.9883,-86.10,30.18,36.59
327,97919843,0.6318,0.1392,-1.0039,-88.35,31.34,36.71
328,97924842,0.6362,0.1489,-1.0107,-90.73,32.62,36.71
329,97929845,0.6455,0.1567,-1.0352,-93.35,33.84,36.71
330,97934842,0.6514,0.1670,-1.0664,-95.67,35.06,36.65
331,97939843,0.6323,0.1724,-1.0952,-97.99,35.85,36.46
332,97944842,0.6191,0.1826,-1.1113,-100.24,36.89,36.59
333,97949841,0.6152,0.1831,-1.1235,-102.56,37.68,36.77
334,97954841,0.6162,0.1753,-1.1519,-104.76,38.48,37.26
335,97959848,0.6167,0.1699,-1.1562,-107.38,39.51,37.93
336,97964843,0.5669,0.1196,-1.1758,-109.57,40.00,38.90
337,97969843,0.5708,0.1846,-1.1406,-113.23,40.30,40.30
338,97974843,0.5918,0.2070,-1.1411,-117.44,40.73,41.52
339,97979843,0.6201,0.2192,-1.1094,-121.95,41.28,42.38
340,97984843,0.6431,0.2046,-1.0757,-126.65,42.20,43.23
341,97989844,0.6318,0.1938,-1.0850,-131.34,43.05,44.09
342,97994843,0.6011,0.1943,-1.1167,-136.04,43.60,45.00
343,97999841,0.5874,0.2026,-1.1157,-140.67,43.96,45.73
344,98004843,0.5781,0.2075,-1.1240,-145.18,44.27,46.40
345,98009843,0.5723,0.2095,-1.1489,-149.27,44.63,47.20
346,98014843,0.5703,0.2051,-1.1782,-152.74,44.70,47.99
347,98020015,0.5605,0.1528,-1.1968,-155.55,44.76,49.27
348,98024843,0.5659,0.1929,-1.1948,-157.87,44.82,51.04
349,98029841,0.5767,0.2314,-1.1807,-159.57,45.00,52.62
350,98034845,0.5840,0.2417,-1.1836,-161.10,45.37,53.96
351,98039847,0.5669,0.1880,-1.1821,-161.95,45.91,55.43
352,98044843,0.5713,0.1953,-1.1602,-162.38,46.52,57.01
353,98049843,0.5732,0.1885,-1.1519,-162.50,47.20,58.35
354,98054844,0.5649,0.1890,-1.1621,-162.44,47.74,59.76
355,98059843,0.5571,0.1758,-1.1191,-162.32,48.41,60.61
356,98064843,0.5522,0.1582,-1.0742,-162.13,49.27,61.34
357,98069843,0.5386,0.1367,-1.0664,-162.38,50.43,61.89
358,98074843,0.5352,0.1274,-1.0571,-162.74,51.46,62.26
359,98079843,0.5288,0.1260,-1.0435,-163.29,52.38,62.44
360,98084843,0.5312,0.1323,-1.0239,-164.15,53.41,62.32
361,98089844,0.5547,0.1260,-1.0054,-165.24,55.00,61.83
362,98094843,0.5449,0.0850,-1.0396,-166.52,56.16,61.46
363,98099841,0.5215,0.0308,-1.0337,-168.17,57.62,61.46
364,98104841,0.5200,0.0098,-1.0400,-170.00,58.84,61.83
365,98109841,0.5303,0.0068,-1.0493,-172.07,59.76,62.38
366,98114843,0.5312,-0.0059,-1.0552,-174.15,60.61,63.11
367,98119844,0.5278,-0.0161,-1.0366,-176.59,61.34,63.66
368,98124843,0.5454,-0.0103,-1.0010,-178.96,62.44,64.15
369,98129843,0.5845,-0.0029,-0.9771,-181.83,63.66,64.57
370,98134843,0.6025,-0.0254,-0.9722,-185.30,65.12,65.00
371,98139843,0.5781,-0.0493,-0.9697,-189.09,66.40,65.61
372,98144843,0.6074,-0.0586,-0.9512,-192.99,67.68,66.04
373,98149843,0.6348,-0.0767,-0.9380,-197.50,68.96,66.46
374,98154843,0.6177,-0.1362,-0.9370,-202.68,69.94,67.01
375,98159843,0.6514,-0.1460,-0.9204,-207.99,70.61,67.68
376,98164900,0.6807,-0.1128,-0.9072,-213.54,71.10,68.05
377,98169843,0.7075,-0.1021,-0.9189,-219.15,71.34,68.48
378,98174843,0.7275,-0.0967,-0.9180,-224.88,71.28,68.96
379,98179843,0.7300,-0.1094,-0.9038,-230.43,70.98,69.63
380,98184843,0.7271,-0.1240,-0.8940,-235.55,70.55,70.30
381,98189843,0.7300,-0.1509,-0.8838,-240.06,70.06,71.10
382,98194843,0.7417,-0.1567,-0.8604,-243.84,69.63,72.07
383,98199842,0.7476,-0.1382,-0.8335,-246.46,69.45,72.74
384,98204908,0.7578,-0.1274,-0.8208,-247.93,69.09,73.05
385,98209845,0.7466,-0.1377,-0.8154,-248.11,68.72,72.99
386,98214843,0.7363,-0.1206,-0.8154,-247.38,68.05,72.80
387,98219843,0.7261,-0.1475,-0.7788,-245.61,67.50,72.32
388,98224843,0.7119,-0.1626,-0.7598,-242.80,66.89,72.13
389,98229922,0.7124,-0.1416,-0.7427,-239.09,66.28,71.95
390,98234843,0.7192,-0.1274,-0.7212,-234.76,65.73,71.22
391,98239843,0.7212,-0.1313,-0.7031,-229.70,65.06,70.24
392,98244929,0.7314,-0.1494,-0.7002,-224.27,64.33,69.39
393,98249843,0.7329,-0.1641,-0.6836,-218.41,63.72,68.78
394,98254841,0.7393,-0.1665,-0.6611,-212.32,62.93,68.05
395,98259844,0.7358,-0.1699,-0.6489,-205.98,62.13,67.44
396,98264843,0.7319,-0.1704,-0.6406,-199.57,61.40,66.71
397,98269843,0.7310,-0.1680,-0.6123,-193.17,60.37,65.91
398,98274843,0.7388,-0.1572,-0.5884,-186.83,59.45,64.94
399,98279844,0.7451,-0.1582,-0.5747,-180.55,58.72,63.66
400,98284843,0.7471,-0.1602,-0.5435,-174.70,57.93,62.50
401,98289843,0.7393,-0.1646,-0.5264,-169.02,57.26,61.28
402,98294843,0.7295,-0.1631,-0.5161,-164.02,56.52,59.94
403,98299843,0.7256,-0.1602,-0.4971,-159.63,55.73,58.54
404,98304841,0.7295,-0.1499,-0.4819,-155.73,54.94,57.26
405,98309843,0.7310,-0.1436,-0.4575,-152.56,54.27,55.85
406,98314848,0.7441,-0.1353,-0.4468,-149.94,53.78,54.45
407,98319841,0.7573,-0.1284,-0.4507,-148.23,53.05,53.11
408,98324844,0.7734,-0.1294,-0.4429,-147.01,52.20,51.77
409,98329841,0.7881,-0.1343,-0.4355,-146.71,51.40,50.61
410,98334843,0.7983,-0.1470,-0.4316,-147.13,50.49,49.45
411,98339843,0.8267,-0.1572,-0.4160,-148.17,49.39,48.35
412,98344844,0.8457,-0.1646,-0.4097,-149.70,48.35,47.38
413,98349842,0.8438,-0.1738,-0.3955,-151.71,47.50,46.52
414,98354841,0.8447,-0.1802,-0.3813,-153.41,46.59,45.61
415,98360346,0.8447,-0.1875,-0.3608,-156.22,45.37,44.33
416,98364843,0.8481,-0.1885,-0.3496,-158.90,44.39,43.23
417,98369843,0.8652,-0.1904,-0.3467,-161.10,43.78,42.56
418,98374843,0.8516,-0.1807,-0.3296,-164.27,42.93,41.65
419,98379842,0.8457,-0.1816,-0.3042,-167.44,41.89,40.73
420,98384843,0.8379,-0.1890,-0.2998,-170.30,41.10,40.00
421,98389841,0.8467,-0.1938,-0.2866,-173.11,40.24,39.27
422,98394845,0.8428,-0.1963,-0.2715,-175.49,39.45,38.60
423,98399842,0.8452,-0.1860,-0.2588,-177.32,38.60,37.93
424,98404841,0.8384,-0.1777,-0.2500,-178.72,37.74,37.20
425,98409841,0.8403,-0.1748,-0.2417,-179.57,36.71,36.52
426,98414843,0.8481,-0.1694,-0.2212,-179.82,35.79,35.85
427,98419846,0.8516,-0.1650,-0.2007,-179.51,35.18,35.37
428,98424843,0.8599,-0.1426,-0.1973,-178.60,34.33,34.70
429,98429844,0.8896,-0.0962,-0.1938,-177.44,33.48,34.21
430,98434843,0.9277,-0.0840,-0.1821,-176.83,32.56,33.66
431,98439843,0.9277,-0.0791,-0.1865,-176.59,31.59,33.48
432,98444843,0.9263,-0.0708,-0.1626,-176.46,30.43,33.29
433,98449946,0.9316,-0.0552,-0.1323,-176.28,29.45,33.29
434,98454843,0.9253,-0.0488,-0.1064,-176.22,28.66,33.29
435,98459843,0.9165,-0.0532,-0.0835,-176.04,27.87,33.48
436,98464843,0.9077,-0.0420,-0.0942,-176.16,26.95,33.54
437,98469843,0.9106,0.0054,-0.0737,-176.46,26.16,33.78
438,98474844,0.9067,0.0181,-0.0405,-176.89,25.37,33.84
439,98479843,0.8984,0.0088,-0.0283,-177.62,24.51,34.15
440,98484861,0.8955,0.0093,-0.0078,-178.48,23.35,34.63
441,98489843,0.8979,0.0020,0.0112,-179.09,22.56,35.12
442,98494846,0.9097,0.0059,0.0210,-180.06,21.40,35.85
443,98499843,0.9097,0.0205,0.0186,-180.79,20.55,36.40
444,98504843,0.9199,0.0317,0.0361,-181.65,19.39,37.01
445,98509843,0.9224,0.0347,0.0430,-182.68,18.11,37.68
446,98514845,0.9209,0.0381,0.0630,-183.60,16.71,38.54
447,98519842,0.9121,0.0444,0.0781,-184.70,15.24,39.51
448,98524843,0.9131,0.0410,0.0913,-185.43,13.72,40.43
449,98529843,0.8984,0.0405,0.1021,-186.22,12.26,41.40
450,98534843,0.8926,0.0415,0.1152,-186.71,10.55,42.38
451,98539842,0.8828,0.0376,0.1162,-187.01,9.02,43.48
452,98544843,0.8735,0.0278,0.1216,-187.07,7.32,44.39
453,98549843,0.8691,0.0186,0.1274,-186.89,5.61,45.49
454,98554842,0.8618,0.0132,0.1299,-186.40,3.78,46.52
455,98559841,0.8530,0.0054,0.1230,-185.67,2.20,47.56
456,98564841,0.8433,0.0010,0.1221,-184.88,0.61,48.41
457,98569841,0.8369,-0.0024,0.1177,-183.84,-1.10,49.39
458,98574843,0.8252,-0.0088,0.1177,-182.87,-2.56,50.18
459,98579842,0.8169,-0.0078,0.1250,-182.01,-3.96,51.04
460,98584843,0.8066,-0.0142,0.1270,-181.22,-5.37,51.71
461,98589843,0.7979,-0.0244,0.1191,-180.67,-6.52,52.38
462,98594843,0.7871,-0.0278,0.1250,-180.30,-7.68,53.05
463,98599841,0.7764,-0.0322,0.1182,-180.37,-8.72,53.66
464,98604845,0.7749,-0.0396,0.1128,-180.55,-9.82,54.33
465,98609842,0.7764,-0.0469,0.1172,-180.85,-10.91,54.94
466,98614843,0.7739,-0.0527,0.1133,-181.40,-11.89,55.61
467,98619842,0.7710,-0.0610,0.1128,-182.01,-12.99,56.34
468,98624899,0.7637,-0.0693,0.1128,-182.80,-14.21,57.20
469,98629843,0.7568,-0.0771,0.1172,-183.41,-15.18,58.11
470,98634843,0.7490,-0.0767,0.1147,-184.02,-16.28,59.15
471,98639843,0.7490,-0.0845,0.1108,-184.39,-17.38,60.00
472,98644843,0.7524,-0.0894,0.1055,-184.63,-18.29,60.98
473,98649842,0.7417,-0.0967,0.1099,-184.76,-19.45,61.77
474,98654841,0.7358,-0.0972,0.1157,-184.70,-20.67,62.68
475,98659843,0.7295,-0.0986,0.1172,-184.27,-21.65,63.48
476,98664841,0.7217,-0.1045,0.1128,-183.72,-22.56,64.21
477,98669841,0.7153,-0.1064,0.1172,-182.87,-23.41,65.00
478,98674845,0.7065,-0.1118,0.1147,-181.95,-24.45,65.91
479,98679842,0.7080,-0.1255,0.1138,-180.79,-25.24,66.89
480,98684843,0.7036,-0.1279,0.1240,-179.51,-26.10,68.05
481,98689842,0.6987,-0.1416,0.1191,-178.17,-26.95,69.21
482,98694841,0.6924,-0.1450,0.1245,-176.52,-27.80,70.73
483,98699843,0.6914,-0.1514,0.1309,-174.51,-28.72,72.44
484,98704842,0.6987,-0.1514,0.1323,-172.13,-29.33,74.15
485,98709843,0.7109,-0.1616,0.1372,-169.45,-30.37,76.10
486,98714842,0.7275,-0.1777,0.1357,-166.40,-30.98,78.23
487,98719842,0.7524,-0.1875,0.1396,-163.17,-32.07,80.37
488,98724895,0.7642,-0.2007,0.1377,-159.70,-33.17,82.68
489,98729843,0.7676,-0.2148,0.1528,-156.22,-34.21,84.94
490,98735195,0.7534,-0.2290,0.1582,-152.32,-35.30,87.13
491,98739843,0.7490,-0.2485,0.1680,-148.41,-36.10,89.88
492,98744843,0.7451,-0.2725,0.1860,-144.39,-36.77,92.50
493,98749843,0.7432,-0.2861,0.1982,-140.12,-37.44,95.37
494,98754842,0.7388,-0.3042,0.2065,-135.79,-37.93,98.54
495,98759843,0.7324,-0.3145,0.2114,-131.10,-38.23,101.71
496,98764842,0.7275,-0.3262,0.2246,-126.10,-38.48,105.06
497,98769841,0.7212,-0.3296,0.2368,-120.85,-39.02,108.41
498,98774851,0.7153,-0.3247,0.2441,-115.18,-39.33,111.71
499,98779842,0.7148,-0.3164,0.2549,-109.02,-39.45,115.06
500,98784843,0.7056,-0.3071,0.2676,-102.68,-39.63,118.48
501,98789842,0.7051,-0.3071,0.2734,-96.04,-39.88,121.77
502,98794843,0.7144,-0.3184,0.2593,-89.57,-40.24,125.00
503,98799843,0.7305,-0.3262,0.2500,-83.23,-40.73,128.54
504,98804841,0.7349,-0.3325,0.2524,-77.26,-41.34,132.01
505,98809843,0.7324,-0.3335,0.2520,-71.34,-42.01,135.49
506,98814842,0.7139,-0.3340,0.2573,-65.79,-42.68,138.66
507,98819844,0.6919,-0.3335,0.2617,-60.61,-43.17,141.77
508,98824842,0.6602,-0.3296,0.2661,-55.73,-43.41,144.63
509,98829843,0.6343,-0.3359,0.2734,-51.40,-43.54,147.44
510,98834843,0.6055,-0.3311,0.2720,-47.50,-43.54,150.06
511,98839843,0.5767,-0.3247,0.2817,-43.96,-42.99,152.44
512,98844842,0.5513,-0.3135,0.2920,-41.04,-42.44,154.63
513,98849844,0.5342,-0.3032,0.3042,-38.35,-41.77,156.65
514,98854843,0.5273,-0.2915,0.3096,-36.10,-40.98,158.35
515,98859843,0.5234,-0.2769,0.3052,-34.27,-40.06,159.82
516,98864842,0.5298,-0.2803,0.3076,-33.11,-39.33,161.28
517,98869843,0.5459,-0.2944,0.2939,-32.80,-38.90,162.80
518,98874841,0.5625,-0.3203,0.2676,-33.48,-39.02,164.45
519,98879843,0.5732,-0.3345,0.2612,-35.06,-39.09,166.46
520,98884845,0.5718,-0.3501,0.2563,-37.50,-39.63,168.29
521,98889842,0.5581,-0.3691,0.2529,-40.55,-40.00,170.12
522,98894843,0.5361,-0.3853,0.2437,-43.90,-40.55,172.07
523,98899842,0.5068,-0.3950,0.2446,-47.38,-40.85,173.96
524,98904989,0.4771,-0.4009,0.2437,-50.73,-41.28,175.61
525,98909843,0.4487,-0.4102,0.2461,-53.78,-41.52,177.32
526,98914843,0.4165,-0.4141,0.2388,-56.22,-41.95,178.96
527,98919844,0.3877,-0.4092,0.2280,-58.23,-42.32,180.43
528,98924843,0.3662,-0.4116,0.2246,-59.57,-42.62,182.01
529,98929843,0.3726,-0.4448,0.2095,-60.49,-43.29,183.60
530,98934843,0.3892,-0.4771,0.1860,-60.91,-44.15,185.61
531,98939843,0.4023,-0.5088,0.1680,-61.22,-45.18,187.74
532,98944843,0.3906,-0.5386,0.1514,-61.22,-46.52,190.12
533,98949842,0.3774,-0.5728,0.1528,-60.61,-48.23,192.68
534,98954843,0.3550,-0.6045,0.1421,-59.63,-49.82,195.18
535,98959842,0.3315,-0.6362,0.1294,-58.11,-51.28,197.56
536,98964843,0.3149,-0.6704,0.1108,-56.22,-53.17,200.06
537,98969842,0.2900,-0.6978,0.1040,-53.66,-55.06,202.38
538,98974843,0.2622,-0.7412,0.0830,-50.79,-56.95,204.70
539,98979842,0.2319,-0.7026,0.0630,-47.74,-59.21,206.59
540,98984845,0.2007,-0.7275,0.0630,-44.21,-61.59,208.05
541,98989842,0.1787,-0.7725,0.0479,-40.98,-63.72,209.15
542,98994843,0.1650,-0.7783,0.0200,-37.07,-67.62,210.91
543,98999842,0.2041,-0.7959,0.0254,-34.94,-70.73,211.59
544,99004843,0.2188,-0.7861,0.0889,-31.16,-74.39,211.89
545,99009843,0.1865,-0.7534,0.0605,-28.96,-76.65,211.65
546,99014843,0.1577,-0.7896,0.0508,-26.83,-79.70,211.10
547,99019842,0.1499,-0.8325,0.0947,-25.61,-82.68,210.49
548,99024843,0.1504,-0.8765,0.0996,-25.49,-85.61,209.94
549,99029842,0.1479,-0.9224,0.0449,-26.46,-89.15,209.27
550,99034843,0.1250,-0.9629,0.0337,-28.72,-91.95,208.66
551,99039843,0.0991,-1.0029,0.0327,-31.89,-95.55,208.05
552,99044843,0.0742,-1.0254,0.0093,-35.98,-99.21,207.20
553,99049842,0.0342,-1.0488,-0.0117,-40.37,-102.93,206.22
554,99054843,-0.0093,-1.0776,-0.0034,-45.12,-106.59,205.00
555,99059844,-0.0498,-1.0869,-0.0195,-49.76,-110.18,203.54
556,99064843,-0.0962,-1.1108,-0.0371,-54.15,-113.54,201.71
557,99069843,-0.1450,-1.1265,-0.0420,-58.11,-116.95,199.88
558,99074842,-0.1987,-1.1333,-0.0474,-61.16,-119.88,197.80
559,99079843,-0.2397,-1.1387,-0.0742,-63.17,-122.56,195.43
560,99084842,-0.2827,-1.1504,-0.0952,-63.90,-125.30,192.93
561,99089843,-0.3169,-1.1704,-0.1089,-63.35,-127.80,190.24
562,99094843,-0.3491,-1.1973,-0.1416,-61.71,-130.24,187.56
563,99099844,-0.3726,-1.2275,-0.1714,-59.33,-132.56,185.00
564,99105115,-0.4136,-1.2705,-0.1943,-55.49,-135.30,182.20
565,99109843,-0.4395,-1.2969,-0.2134,-52.32,-136.95,180.24
566,99114843,-0.4692,-1.3208,-0.2402,-47.93,-138.84,177.80
567,99119847,-0.4907,-1.3330,-0.2593,-43.17,-140.79,175.06
568,99124842,-0.5186,-1.3413,-0.2812,-37.07,-142.93,171.52
569,99129845,-0.5400,-1.3477,-0.3135,-32.99,-144.33,168.90
570,99134843,-0.5659,-1.3472,-0.3110,-27.99,-146.10,165.24
571,99139843,-0.5908,-1.3604,-0.3218,-23.23,-147.74,161.40
572,99144843,-0.6309,-1.3584,-0.3428,-18.72,-149.02,157.20
573,99149843,-0.6763,-1.3667,-0.3555,-14.45,-150.43,152.93
574,99154843,-0.6987,-1.3711,-0.3535,-10.49,-151.77,148.66
575,99159843,-0.7241,-1.3784,-0.3589,-6.59,-152.99,144.15
576,99164843,-0.7617,-1.3823,-0.3643,-2.74,-153.84,139.76
577,99169843,-0.7944,-1.3965,-0.3892,0.85,-154.76,135.49
578,99174843,-0.8208,-1.4170,-0.4141,4.02,-155.91,131.40
579,99179842,-0.8511,-1.4360,-0.4316,6.71,-157.32,127.56
580,99184844,-0.8882,-1.4541,-0.4458,8.90,-158.78,123.78
581,99189843,-0.9155,-1.4702,-0.4683,10.61,-160.30,120.06
582,99194844,-0.9458,-1.4756,-0.4785,11.83,-161.95,116.34
583,99199843,-0.9707,-1.4902,-0.5161,12.38,-163.84,112.68
584,99204843,-0.9868,-1.4868,-0.4985,12.20,-165.98,108.78
585,99209844,-1.0229,-1.4639,-0.4780,11.71,-168.11,104.63
586,99214844,-1.0601,-1.4478,-0.4839,11.34,-169.82,100.12
587,99219843,-1.0938,-1.4458,-0.4956,11.16,-171.89,95.43
588,99224843,-1.1274,-1.4331,-0.4888,11.22,-174.21,90.43
589,99229843,-1.1572,-1.4229,-0.4932,11.22,-176.65,86.10
590,99234843,-1.1948,-1.4160,-0.4868,11.16,-179.33,80.67
591,99239843,-1.2285,-1.4062,-0.4702,10.79,-182.07,75.43
592,99244845,-1.2598,-1.3970,-0.4692,10.30,-185.00,70.06
593,99249842,-1.2749,-1.3813,-0.4736,9.09,-188.29,64.45
594,99254843,-1.2935,-1.3857,-0.4790,7.56,-191.95,58.48
595,99259843,-1.3184,-1.3887,-0.4805,5.37,-195.85,52.56
596,99264843,-1.3481,-1.3853,-0.4839,2.56,-200.24,46.46
597,99269843,-1.3994,-1.3799,-0.4771,-0.49,-204.82,40.18
598,99274846,-1.4795,-1.3628,-0.4692,-3.35,-209.76,33.60
599,99279842,-1.5620,-1.3452,-0.4561,-6.40,-214.70,26.52
600,99284843,-1.6235,-1.3286,-0.4414,-9.21,-219.63,18.96
601,99289843,-1.6685,-1.3184,-0.4365,-12.07,-224.76,10.85
602,99294843,-1.6943,-1.3086,-0.4360,-15.24,-230.30,2.62
603,99299843,-1.7188,-1.2979,-0.4492,-18.84,-236.65,-5.91
604,99304843,-1.7290,-1.2905,-0.4541,-22.62,-243.60,-14.63
605,99309843,-1.7334,-1.2998,-0.4570,-26.71,-251.28,-23.41
606,99314842,-1.7358,-1.3140,-0.4663,-30.85,-259.63,-31.95
607,99319845,-1.7354,-1.3276,-0.4824,-35.18,-268.60,-40.43
608,99324842,-1.7378,-1.3364,-0.5005,-39.21,-278.17,-48.66
609,99329844,-1.7471,-1.3394,-0.5049,-42.74,-288.35,-56.52
610,99334841,-1.7563,-1.3428,-0.5210,-45.37,-298.96,-64.63
611,99339843,-1.7710,-1.3364,-0.5420,-46.77,-309.82,-72.68
612,99344842,-1.7954,-1.3296,-0.5605,-46.95,-320.85,-80.85
613,99349843,-1.8418,-1.3286,-0.5835,-45.79,-332.13,-88.84
614,99354843,-1.9194,-1.3193,-0.6055,-43.48,-343.48,-96.77
615,99359843,-2.0044,-1.3203,-0.6270,-40.24,-354.82,-104.51
616,99364842,-2.1021,-1.3179,-0.6460,-36.46,-365.61,-112.01
617,99369843,-2.2065,-1.3130,-0.6699,-32.80,-376.10,-119.39
618,99374887,-2.2983,-1.3086,-0.7119,-29.70,-386.46,-126.34
619,99379841,-2.4312,-1.2959,-0.7812,-27.56,-396.77,-133.17
620,99384842,-2.5400,-1.2822,-0.8271,-25.85,-407.20,-139.88
621,99389843,-2.6240,-1.2671,-0.8467,-24.21,-417.38,-146.59
622,99394845,-2.7114,-1.2637,-0.8735,-22.74,-426.77,-153.23
623,99399842,-2.7998,-1.2612,-0.9146,-21.22,-435.73,-159.33
624,99404843,-2.8662,-1.2583,-0.9399,-19.94,-444.45,-165.18
625,99409843,-2.9282,-1.2466,-0.9854,-18.78,-452.80,-170.79
626,99414843,-3.0005,-1.2358,-1.0391,-17.56,-460.79,-176.04
627,99419843,-3.0781,-1.2241,-1.0674,-16.16,-468.60,-181.22
628,99424843,-3.1641,-1.2163,-1.1089,-14.45,-476.16,-186.28
629,99429843,-3.2588,-1.2021,-1.1475,-12.50,-483.29,-191.04
630,99434843,-3.3584,-1.2007,-1.1860,-10.24,-490.24,-195.61
631,99439843,-3.4561,-1.2144,-1.2422,-7.80,-497.01,-199.94
632,99444843,-3.5850,-1.2168,-1.2930,-5.18,-503.54,-203.78
633,99449843,-3.6978,-1.2354,-1.3521,-2.32,-510.00,-207.32
634,99454841,-3.8022,-1.2505,-1.4067,1.10,-516.52,-210.49
635,99459843,-3.9092,-1.2749,-1.4717,5.00,-523.11,-213.11
636,99464842,-4.0000,-1.2969,-1.5024,9.70,-529.76,-215.12
637,99469845,-4.0688,-1.3188,-1.5439,14.94,-536.40,-216.65
638,99474841,-4.1143,-1.3442,-1.6045,21.34,-542.93,-217.87
639,99479843,-4.1504,-1.3745,-1.6499,28.84,-549.70,-218.48
640,99484842,-4.1860,-1.3921,-1.6948,37.68,-557.01,-218.72
641,99489841,-4.2305,-1.4185,-1.7061,48.05,-564.09,-218.60
642,99495275,-4.2778,-1.4272,-1.7378,59.57,-571.16,-218.17
643,99499843,-4.3120,-1.4517,-1.7715,72.56,-578.35,-217.26
644,99504842,-4.3540,-1.4517,-1.7769,86.40,-585.30,-216.10
645,99509845,-4.4023,-1.4644,-1.7749,101.16,-591.95,-214.70
646,99514842,-4.4741,-1.4590,-1.7715,115.61,-597.93,-212.93
647,99519845,-4.5400,-1.4766,-1.7720,129.94,-602.80,-210.73
648,99524841,-4.5938,-1.4819,-1.7832,142.20,-607.20,-207.99
649,99529843,-4.6509,-1.5234,-1.8003,153.41,-610.61,-204.76
650,99534843,-4.7026,-1.5483,-1.8076,162.62,-613.54,-201.04
651,99539841,-4.7368,-1.5771,-1.8237,170.12,-615.98,-196.95
652,99544843,-4.7524,-1.5991,-1.8521,175.67,-617.87,-192.99
653,99549843,-4.7437,-1.6299,-1.8599,179.57,-619.82,-189.02
654,99554842,-4.7388,-1.6631,-1.8696,181.89,-621.10,-185.61
655,99559843,-4.7222,-1.6909,-1.8774,182.87,-622.99,-182.50
656,99564841,-4.7031,-1.7080,-1.8794,182.93,-624.21,-180.06
657,99569843,-4.6831,-1.7256,-1.8735,182.26,-625.85,-178.23
658,99574842,-4.6738,-1.7358,-1.8945,180.91,-627.38,-177.38
659,99579843,-4.6777,-1.7480,-1.8623,178.78,-628.78,-176.95
660,99584841,-4.6987,-1.7534,-1.8853,175.79,-629.27,-177.62
661,99589841,-4.7119,-1.7617,-1.8955,172.01,-629.33,-179.09
662,99595048,-4.7305,-1.7837,-1.9126,167.80,-628.84,-181.59
663,99599843,-4.7700,-1.7866,-1.9297,162.99,-627.87,-185.06
664,99604842,-4.7852,-1.8062,-1.9443,157.26,-626.22,-189.39
665,99609843,-4.7866,-1.8164,-1.9595,150.24,-623.90,-194.88
666,99614841,-4.7812,-1.8306,-1.9663,142.01,-621.46,-201.28
667,99619843,-4.7607,-1.8345,-1.9741,132.07,-618.48,-208.66
668,99624842,-4.7256,-1.8398,-1.9834,120.61,-615.43,-217.56
669,99629843,-4.6826,-1.8379,-1.9951,106.95,-612.44,-227.62
670,99634841,-4.6523,-1.8291,-2.0166,90.98,-609.02,-239.02
671,99639843,-4.6108,-1.8149,-2.0283,72.99,-605.30,-251.77
672,99644843,-4.5488,-1.8022,-2.0444,53.17,-601.10,-265.85
673,99649841,-4.4902,-1.7812,-2.0649,31.95,-595.79,-281.16
674,99654846,-4.4624,-1.7446,-2.0894,9.76,-589.76,-297.80
675,99659842,-4.4082,-1.7290,-2.1055,-8.48,-584.02,-312.01
676,99664843,-4.3403,-1.6792,-2.1328,-31.71,-575.98,-330.73
677,99669843,-4.2954,-1.6221,-2.1582,-55.00,-566.89,-350.49
678,99674843,-4.2246,-1.5786,-2.1851,-79.09,-556.34,-371.16
679,99679843,-4.1553,-1.5186,-2.2188,-103.23,-544.76,-392.26
680,99684843,-4.0952,-1.4648,-2.2612,-127.38,-531.52,-414.02
681,99689843,-4.0581,-1.3818,-2.3008,-151.52,-516.65,-436.16
682,99694843,-3.9888,-1.2993,-2.3394,-175.06,-500.24,-458.35
683,99699843,-3.8711,-1.2188,-2.3521,-198.72,-482.20,-480.55
684,99704843,-3.8560,-1.0840,-2.4248,-222.50,-462.56,-502.44
685,99709843,-3.8643,-0.9707,-2.4116,-244.94,-441.52,-524.33
686,99714843,-3.7881,-0.8525,-2.4453,-265.79,-418.84,-545.61
687,99719843,-3.6895,-0.7183,-2.4468,-285.18,-395.00,-566.28
688,99724843,-3.6143,-0.5806,-2.4551,-303.35,-370.12,-586.34
689,99729843,-3.5752,-0.4458,-2.4243,-320.06,-343.90,-605.37
690,99735046,-3.5103,-0.2720,-2.3862,-337.80,-311.10,-626.40
691,99739843,-3.4570,-0.1650,-2.3535,-348.11,-288.48,-639.45
692,99744842,-3.4292,-0.0493,-2.2886,-360.06,-259.39,-654.15
693,99749845,-3.4258,0.0630,-2.2285,-370.91,-229.15,-666.77
694,99754842,-3.2666,0.4180,-2.6611,-380.24,-198.54,-677.44
695,99759843,-1.8506,0.5869,-2.8569,-391.16,-176.95,-687.32
696,99764841,-2.7593,1.3535,-5.8667,-406.40,-112.74,-691.28
697,99769843,-3.6069,0.8872,-2.0601,-425.00,-92.38,-694.51
698,99774842,-3.0957,0.9653,-2.5620,-446.40,-43.78,-693.48
699,99779844,-2.4883,1.5825,-2.7915,-464.39,-9.09,-692.44
700,99784841,-2.5840,1.8140,-1.3833,-476.52,30.06,-693.84
701,99789843,-2.8438,1.7275,-2.0400,-482.07,68.66,-691.77
702,99794841,-2.8682,1.4604,-2.0459,-484.33,102.80,-684.76
703,99799843,-2.7515,1.3159,-1.9243,-484.82,137.20,-672.99
704,99804844,-2.6538,1.3403,-2.0459,-481.89,169.76,-658.60
705,99809843,-2.6128,1.3364,-1.9170,-475.06,200.61,-642.26
706,99814843,-2.6064,1.2949,-1.7207,-464.63,230.00,-624.33
707,99819843,-2.6401,1.1421,-1.5254,-450.37,256.95,-604.76
708,99824843,-2.6924,1.1802,-1.2856,-432.50,281.46,-583.66
709,99829843,-2.7036,1.2681,-1.1255,-410.30,303.54,-562.68
710,99834842,-2.7729,1.1997,-0.9268,-385.98,322.80,-540.85
711,99839843,-2.7554,1.0381,-0.6558,-361.10,339.94,-517.99
712,99844841,-2.6313,0.8784,-0.4526,-335.37,353.96,-493.41
713,99849843,-2.4160,0.9209,-0.2969,-307.87,365.00,-467.99
714,99854842,-2.2109,1.0630,-0.1489,-277.32,373.78,-442.44
715,99859842,-2.0986,1.2773,-0.0835,-244.21,380.61,-417.44
716,99864843,-2.0557,1.4937,-0.0054,-210.61,385.49,-393.41
717,99869843,-2.0610,1.7231,0.1074,-179.39,387.99,-370.18
718,99874841,-2.1255,1.8232,0.2227,-154.33,388.29,-347.68
719,99879843,-2.1611,1.9404,0.3760,-136.10,386.65,-325.61
720,99884843,-2.2075,2.0234,0.6094,-123.78,384.02,-304.94
721,99889843,-2.3188,2.0698,0.8496,-117.50,380.85,-285.24
722,99894841,-2.4951,2.2310,1.0659,-116.10,376.65,-266.71
723,99899841,-2.7163,2.4033,1.3232,-118.17,372.13,-250.00
724,99904845,-2.9058,2.5073,1.5508,-121.40,366.89,-234.82
725,99909842,-3.0181,2.6479,1.6709,-125.61,359.94,-219.88
726,99914843,-2.9531,2.6836,1.8257,-130.37,350.98,-205.18
727,99919843,-2.8252,2.7080,1.8945,-133.96,340.55,-189.57
728,99924843,-2.6929,2.6958,1.9253,-134.57,328.17,-173.48
729,99929844,-2.4888,2.6240,1.9009,-131.89,313.96,-156.89
730,99934843,-2.4385,2.4683,1.8574,-126.95,298.66,-139.27
731,99939843,-2.1973,2.5254,1.7778,-123.05,282.13,-121.40
732,99944843,-1.7485,2.4971,1.8540,-117.13,266.59,-104.88
733,99949841,-1.5640,2.3022,1.7256,-107.38,251.83,-88.96
734,99954843,-1.4058,2.1187,1.5913,-94.33,235.91,-73.17
735,99959842,-1.1807,1.9292,1.5327,-79.15,219.27,-57.32
736,99964843,-0.8652,1.7578,1.4658,-59.63,199.70,-38.96
737,99969843,-0.6768,1.6548,1.4058,-47.07,186.71,-27.32
738,99974842,-0.4561,1.5415,1.3374,-32.74,170.79,-13.48
739,99979843,-0.2402,1.4141,1.2632,-21.16,154.76,-0.43
740,99985323,-0.0854,1.2871,1.2285,-12.87,139.33,12.26
741,99989843,0.0508,1.1860,1.1934,-7.99,124.51,24.45
742,99994841,0.1479,1.1123,1.1543,-7.07,110.12,36.34
743,99999845,0.2007,1.0483,1.1362,-9.70,96.40,47.38
744,100004842,0.2222,1.0068,1.1025,-14.82,84.02,57.80
745,100009843,0.2217,0.9712,1.0464,-21.71,71.40,67.62
746,100014841,0.2065,0.9395,1.0347,-29.27,59.45,76.83
747,100019843,0.1626,0.9185,0.9888,-36.16,48.29,84.82
748,100024842,0.1055,0.8970,0.9463,-41.28,37.62,92.80
749,100029843,0.0537,0.8774,0.9082,-43.54,27.56,99.82
750,100034841,0.0054,0.8516,0.8706,-42.93,17.99,106.34
751,100039842,-0.0459,0.8433,0.8384,-39.09,9.21,112.13
752,100045148,-0.0903,0.8306,0.7964,-32.93,1.16,117.38
753,100049843,-0.1362,0.8286,0.7754,-24.76,-6.28,122.32
754,100054843,-0.1797,0.8306,0.7549,-15.24,-12.93,126.52
755,100059843,-0.2188,0.8369,0.7246,-4.57,-19.15,130.49
756,100064843,-0.2461,0.8535,0.6978,6.65,-24.33,134.02
757,100069842,-0.2842,0.8721,0.6802,18.17,-28.84,137.07
758,100074843,-0.3130,0.8794,0.6577,29.51,-32.87,139.76
759,100079841,-0.3477,0.9043,0.6382,40.73,-36.22,142.20
760,100084843,-0.3730,0.9326,0.6240,51.46,-39.15,144.21
761,100089843,-0.3838,0.9590,0.5903,61.71,-41.34,145.85
762,100094841,-0.3784,0.9932,0.5718,71.10,-43.54,147.26
763,100099841,-0.3716,1.0249,0.5483,79.57,-45.37,148.23
764,100104843,-0.3652,1.0532,0.5176,86.65,-47.20,149.09
765,100110024,-0.3599,1.0796,0.4927,92.50,-48.78,149.76
766,100114844,-0.3530,1.0972,0.4761,96.65,-50.30,150.00
767,100119843,-0.3433,1.1074,0.4517,99.33,-51.65,150.37
768,100124843,-0.3271,1.1211,0.4375,100.30,-52.80,150.49
769,100129843,-0.3076,1.1294,0.4170,100.00,-53.84,150.49
770,100135447,-0.2734,1.1421,0.3916,97.74,-54.76,150.43
771,100139844,-0.2432,1.1406,0.3833,95.06,-55.43,150.43
772,100144843,-0.2148,1.1396,0.3594,91.34,-56.10,150.30
773,100149843,-0.1865,1.1299,0.3486,86.59,-56.83,150.00
774,100154842,-0.1621,1.1147,0.3403,81.52,-57.50,149.63
775,100159843,-0.1426,1.1060,0.3306,76.34,-57.93,149.02
776,100164843,-0.1187,1.0923,0.3203,71.10,-58.29,148.48
777,100169842,-0.1030,1.0698,0.3110,66.16,-58.66,147.68
778,100174843,-0.0874,1.0479,0.2935,61.52,-58.84,146.77
779,100179841,-0.0713,1.0137,0.2852,57.50,-59.33,145.98
780,100184843,-0.0503,0.9917,0.2622,54.27,-59.82,145.06
781,100189843,-0.0186,0.9722,0.2578,51.83,-60.49,144.21
782,100194843,0.0098,0.9590,0.2432,50.18,-61.10,143.35
783,100199841,0.0347,0.9390,0.2363,49.27,-61.89,142.38
784,100204841,0.0591,0.9302,0.2266,49.02,-62.80,141.65
785,100209843,0.0869,0.9155,0.2153,49.21,-63.72,140.85
786,100214845,0.1162,0.9033,0.2070,49.51,-64.63,140.18
787,100219842,0.1411,0.8921,0.1978,49.94,-65.61,139.70
788,100224843,0.1694,0.8823,0.1885,50.12,-66.52,139.21
789,100229842,0.1968,0.8770,0.1807,50.12,-67.56,138.90
790,100234843,0.2192,0.8745,0.1816,49.76,-68.29,138.72
791,100239842,0.2373,0.8667,0.1699,49.02,-69.02,138.60
792,100244843,0.2554,0.8623,0.1646,48.41,-69.82,138.41
793,100249842,0.2725,0.8467,0.1533,47.38,-70.55,138.48
794,100254841,0.2881,0.8379,0.1440,46.52,-71.16,138.35
795,100260160,0.3047,0.8218,0.1431,45.00,-72.26,138.54
796,100264843,0.3179,0.8120,0.1411,43.66,-73.17,138.72
797,100269843,0.3301,0.8032,0.1265,42.13,-74.09,139.15
798,100274842,0.3491,0.7920,0.1187,40.61,-74.94,139.45
799,100279843,0.3643,0.7842,0.1094,38.90,-75.98,139.82
800,100284845,0.3867,0.7803,0.0884,37.13,-76.95,140.30
801,100289843,0.3999,0.7739,0.0801,35.06,-77.99,140.79
802,100294842,0.4146,0.7700,0.0845,32.87,-78.96,141.46
803,100299843,0.4297,0.7729,0.0786,30.49,-79.82,141.83
804,100304875,0.4395,0.7739,0.0659,27.80,-80.61,142.26
805,100309860,0.4453,0.7729,0.0620,25.06,-81.22,142.50
806,100314843,0.4487,0.7744,0.0557,22.20,-81.77,142.68
807,100319843,0.4541,0.7739,0.0469,20.00,-82.13,142.68
808,100324843,0.4536,0.7666,0.0430,17.01,-82.62,142.74
809,100329842,0.4595,0.7568,0.0332,14.33,-83.17,142.62
810,100334843,0.4678,0.7432,0.0327,11.95,-83.66,142.50
811,100339843,0.4702,0.7305,0.0254,9.76,-84.15,142.50
812,100344843,0.4736,0.7119,0.0181,7.99,-84.57,142.38
813,100349841,0.4844,0.6992,0.0054,6.46,-85.18,142.44
814,100354843,0.4829,0.6895,-0.0063,5.55,-85.73,142.20
815,100359841,0.5049,0.6860,-0.0117,4.94,-86.16,142.20
816,100364843,0.5317,0.6797,-0.0239,4.57,-86.71,141.95
817,100369842,0.5430,0.6743,-0.0259,4.09,-87.01,142.01
818,100374845,0.5767,0.6592,-0.0386,3.41,-87.38,141.77
819,100380080,0.5991,0.6489,-0.0454,2.87,-87.56,141.95
820,100384843,0.6377,0.6377,-0.0332,2.56,-87.50,141.95
821,100389844,0.6768,0.6152,-0.0376,2.20,-87.13,142.13
822,100394843,0.6978,0.6045,-0.0469,1.83,-86.83,142.20
823,100400016,0.7393,0.5928,-0.0527,1.65,-86.34,142.26
824,100404844,0.7539,0.5806,-0.0386,1.59,-85.85,142.32
825,100409842,0.7749,0.5664,-0.0654,1.59,-85.18,142.32
826,100414845,0.7886,0.5601,-0.0762,2.01,-84.76,142.32
827,100419843,0.8047,0.5483,-0.0732,2.74,-84.21,142.32
828,100424843,0.8091,0.5308,-0.0850,3.96,-83.78,142.38
829,100429843,0.8179,0.5059,-0.0991,5.98,-83.23,142.44
830,100434843,0.8198,0.5024,-0.1338,7.80,-82.99,142.32
831,100439843,0.8174,0.4717,-0.1299,10.49,-82.62,142.32
832,100444843,0.8208,0.4414,-0.1572,13.48,-82.07,142.32
833,100449842,0.8101,0.4268,-0.1606,16.34,-81.40,142.32
834,100454843,0.7964,0.3940,-0.1499,18.96,-80.49,142.01
835,100459982,0.7886,0.3604,-0.1499,20.79,-79.45,141.59
836,100464844,0.7783,0.3594,-0.1606,21.95,-78.35,140.91
837,100469841,0.7617,0.3560,-0.1743,22.93,-76.95,140.06
838,100474843,0.7266,0.3364,-0.1865,23.54,-75.55,138.96
839,100479843,0.6182,0.2383,-0.2290,24.02,-74.09,137.80
840,100484897,0.4380,0.2588,-0.1055,24.88,-72.44,136.52
841,100489842,0.4619,0.2856,-0.0967,25.37,-70.55,134.82
842,100494843,0.4912,0.2837,-0.1138,25.12,-69.21,132.93
843,100499843,0.5337,0.2798,-0.0903,24.45,-68.05,130.79
844,100504842,0.5396,0.2793,-0.0625,23.11,-66.95,128.78
845,100509841,0.5298,0.2739,-0.0806,21.22,-66.10,126.77
846,100515387,0.5132,0.2710,-0.0938,18.23,-65.12,124.21
847,100519892,0.5176,0.2622,-0.0869,15.79,-64.70,122.44
848,100524842,0.5464,0.2446,-0.0996,12.38,-64.09,120.55
849,100529843,0.5908,0.2163,-0.1172,8.48,-63.60,118.54
850,100534842,0.6572,0.1582,-0.1455,4.21,-63.29,116.65
851,100539843,0.7183,0.1108,-0.1724,-0.12,-62.62,114.70
852,100544842,0.7690,0.0864,-0.2075,-4.33,-62.13,112.56
853,100549843,0.8013,0.0869,-0.2207,-8.11,-61.34,110.12
854,100554842,0.7979,0.0967,-0.2266,-11.71,-60.73,107.62
855,100559843,0.8003,0.1074,-0.2261,-15.24,-60.12,105.24
856,100564843,0.8164,0.1143,-0.2339,-18.72,-59.57,102.56
857,100569843,0.8306,0.1143,-0.2207,-22.20,-59.27,100.24
858,100574842,0.8472,0.1201,-0.2261,-25.37,-59.02,97.87
859,100579843,0.8496,0.1289,-0.2261,-28.35,-58.96,95.55
860,100584842,0.8511,0.1411,-0.2275,-31.04,-58.90,93.17
861,100589843,0.8555,0.1543,-0.2432,-33.23,-58.96,90.91
862,100594842,0.8691,0.1660,-0.2573,-35.18,-59.02,88.66
863,100599843,0.8853,0.1782,-0.2773,-36.83,-59.02,86.46
864,100605023,0.9053,0.1880,-0.3003,-38.35,-59.02,84.45
865,100609842,0.9233,0.1982,-0.3213,-39.57,-58.60,82.56
866,100614841,0.9429,0.2124,-0.3389,-40.61,-58.35,80.61
867,100619844,0.9697,0.2319,-0.3716,-41.71,-57.93,78.84
868,100624843,1.0049,0.2456,-0.4062,-42.62,-57.26,77.20
869,100629945,1.0371,0.2583,-0.4385,-43.48,-56.52,75.73
870,100634844,1.0776,0.2739,-0.4639,-44.33,-55.61,74.33
871,100639843,1.1187,0.2905,-0.4995,-45.37,-54.39,73.35
872,100644843,1.1748,0.3022,-0.5259,-46.52,-53.11,72.38
873,100649843,1.1958,0.3066,-0.5420,-47.99,-51.77,71.46
874,100654843,1.1206,0.2935,-0.5391,-49.70,-50.24,70.91
875,100659841,0.9858,0.2593,-0.5161,-50.98,-48.60,70.49
876,100664894,0.8755,0.2241,-0.4844,-51.46,-47.07,70.06
877,100670017,0.8306,0.1797,-0.4351,-51.04,-45.49,69.63
878,100674843,0.8384,0.1587,-0.4062,-50.06,-44.09,69.15
879,100679843,0.8579,0.1274,-0.3760,-48.23,-42.32,68.23
880,100684843,0.8687,0.1064,-0.3530,-45.85,-40.43,67.32
881,100689842,0.8608,0.0879,-0.3379,-42.99,-38.72,66.10
882,100694843,0.8457,0.0781,-0.3193,-39.88,-36.65,64.70
883,100699843,0.8418,0.0732,-0.3159,-36.65,-35.06,63.35
884,100704872,0.8379,0.0674,-0.3188,-33.48,-33.23,61.95
885,100709843,0.8521,0.0581,-0.3140,-30.79,-31.65,60.61
886,100714841,0.8647,0.0620,-0.3164,-28.35,-29.88,59.33
887,100720207,0.8853,0.0630,-0.3203,-26.59,-28.17,57.93
888,100724843,0.8965,0.0757,-0.3291,-25.43,-26.52,56.65
889,100729843,0.8950,0.0981,-0.3530,-24.82,-25.00,55.43
890,100734842,0.9023,0.1123,-0.3701,-24.82,-23.48,54.33
891,100739843,0.9092,0.1274,-0.3765,-25.43,-21.95,53.23
892,100744842,0.9150,0.1338,-0.3926,-26.34,-20.43,52.26
893,100749843,0.9155,0.1426,-0.3926,-27.74,-19.02,51.22
894,100754843,0.9194,0.1514,-0.3955,-29.27,-17.80,50.37
895,100759843,0.9165,0.1460,-0.3970,-31.10,-16.46,49.76
896,100764843,0.9131,0.1387,-0.3950,-32.74,-15.18,48.96
897,100769841,0.9165,0.1289,-0.3833,-34.39,-14.27,48.23
898,100774843,0.9165,0.1167,-0.3833,-35.98,-13.05,47.68
899,100779843,0.9233,0.1118,-0.3740,-37.26,-11.95,47.07
900,100784843,0.9224,0.1040,-0.3682,-38.23,-10.91,46.52
901,100789842,0.9312,0.0996,-0.3691,-39.02,-10.12,45.85
902,100794843,0.9292,0.0952,-0.3696,-39.33,-9.21,45.12
903,100799843,0.9292,0.0889,-0.3682,-39.27,-8.41,44.57
904,100805006,0.9277,0.0791,-0.3696,-38.72,-7.44,43.96
905,100810375,0.9297,0.0801,-0.3691,-37.99,-6.65,43.41
906,100814843,0.9336,0.0747,-0.3745,-36.83,-6.10,42.80
907,100819843,0.9346,0.0723,-0.3818,-35.37,-5.37,42.20
908,100824844,0.9385,0.0728,-0.3784,-33.78,-4.82,41.65
909,100829843,0.9390,0.0728,-0.3896,-32.13,-4.33,41.22
910,100834842,0.9453,0.0703,-0.3804,-30.43,-3.90,40.85
911,100840361,0.9463,0.0723,-0.3784,-28.60,-3.41,40.30
912,100844843,0.9526,0.0752,-0.3838,-26.95,-3.23,39.82
913,100849842,0.9536,0.0703,-0.3848,-25.37,-2.93,39.57
914,100854843,0.9585,0.0723,-0.3892,-23.78,-2.68,39.27
915,100859843,0.9614,0.0728,-0.3794,-22.38,-2.80,39.02
916,100864843,0.9673,0.0713,-0.3838,-21.04,-2.87,38.78
917,100869843,0.9712,0.0771,-0.3862,-19.82,-3.05,38.60
918,100874845,0.9668,0.0767,-0.3813,-18.78,-3.29,38.35
919,100879843,0.9604,0.0737,-0.3765,-17.87,-3.48,38.05
920,100884843,0.9609,0.0752,-0.3706,-17.32,-3.78,37.87
921,100889843,0.9561,0.0723,-0.3525,-16.83,-3.96,37.50
922,100894842,0.9644,0.0703,-0.3726,-16.40,-4.02,37.20
923,100899843,0.9595,0.0781,-0.3608,-16.28,-4.21,36.65
924,100904842,0.9141,0.0713,-0.3643,-16.46,-4.70,36.04
925,100910350,0.9590,0.0176,-0.3726,-16.77,-5.24,35.67
926,100914878,0.9893,0.0454,-0.3379,-16.83,-5.73,35.43
927,100919842,0.9937,0.0454,-0.3472,-16.83,-6.28,35.12
928,100924844,0.9688,0.0669,-0.3457,-16.83,-6.71,34.63
929,100929842,0.9644,-0.0029,-0.3687,-16.65,-7.38,34.39
930,100934843,0.9663,0.0449,-0.3115,-15.91,-7.93,34.27
931,100939843,0.9878,0.0425,-0.2808,-15.24,-8.05,33.78
932,100944842,0.9863,0.0659,-0.3281,-14.33,-8.11,33.60
933,100949843,0.9800,0.0737,-0.3169,-13.41,-8.11,33.17
934,100954841,0.9795,0.0522,-0.2622,-12.74,-7.80,32.87
935,100959843,0.9863,0.0459,-0.2856,-11.95,-7.38,32.50
936,100964842,0.9839,0.0503,-0.2871,-11.16,-6.83,32.01
937,100969843,1.0537,0.0146,-0.2319,-10.37,-5.61,31.77
938,100974842,1.0244,0.0225,-0.2637,-9.70,-4.45,31.77
939,100979843,1.0015,0.0347,-0.2881,-8.84,-3.35,31.59
940,100984841,1.0024,0.0430,-0.2651,-8.11,-2.20,31.52
941,100989843,1.0039,0.0396,-0.2583,-7.38,-1.04,31.22
942,100994842,0.9907,0.0317,-0.2798,-6.46,0.06,30.91
943,100999843,0.9775,0.0288,-0.2808,-5.73,0.91,30.67
944,101004842,0.9668,0.0210,-0.2676,-4.82,1.89,30.30
945,101009843,0.9502,0.0225,-0.2656,-3.72,2.87,29.94
946,101014842,0.9399,0.0205,-0.2832,-2.62,3.66,29.39
947,101019843,0.9282,0.0264,-0.2847,-1.52,4.39,28.90
948,101024843,0.9170,0.0303,-0.2803,-0.30,5.06,28.23
949,101029842,0.9102,0.0259,-0.2764,0.79,5.79,27.50
950,101034845,0.9038,0.0269,-0.2808,2.01,6.28,26.71
951,101039843,0.8970,0.0254,-0.2808,2.99,7.01,25.79
952,101044843,0.8936,0.0249,-0.2759,4.02,7.50,24.82
953,101049842,0.8882,0.0239,-0.2847,5.12,7.99,23.84
954,101054844,0.8887,0.0239,-0.2861,6.10,8.48,22.87
955,101059848,0.8833,0.0229,-0.2896,7.20,9.02,21.83
956,101064843,0.8750,0.0244,-0.2871,8.17,9.27,20.67
957,101069842,0.8682,0.0205,-0.2896,9.27,9.51,19.51
958,101074843,0.8701,0.0195,-0.2915,10.24,9.94,18.60
959,101079843,0.8682,0.0234,-0.2891,11.16,10.18,17.44
960,101084842,0.8652,0.0273,-0.2925,12.32,10.43,16.28
961,101089843,0.8633,0.0278,-0.2861,13.35,10.55,15.06
962,101094842,0.8584,0.0264,-0.2939,14.33,10.73,13.84
963,101099843,0.8584,0.0259,-0.2915,15.43,10.79,12.74
964,101104842,0.8579,0.0244,-0.2886,16.52,10.91,11.65
965,101109844,0.8604,0.0259,-0.2998,17.44,10.98,10.55
966,101114843,0.8638,0.0249,-0.2949,18.41,10.85,9.39
967,101119846,0.8706,0.0342,-0.2959,19.33,11.10,8.29
968,101124843,0.8794,0.0361,-0.2969,20.18,11.04,7.32
969,101129842,0.8887,0.0327,-0.2891,20.85,11.22,6.28
970,101134841,0.8911,0.0317,-0.2876,21.59,11.16,5.37
971,101139842,0.9014,0.0342,-0.2822,22.20,11.28,4.45
972,101144843,0.9097,0.0273,-0.2866,22.74,11.59,3.72
973,101149843,0.9165,0.0195,-0.2871,23.29,11.65,2.99
974,101154843,0.9185,0.0166,-0.2856,24.09,11.77,2.44
975,101159842,0.9258,0.0146,-0.2910,24.51,11.83,1.95
976,101164843,0.9302,0.0137,-0.2959,25.06,11.89,1.52
977,101169843,0.9385,0.0103,-0.2964,25.49,11.89,1.16
978,101174843,0.9429,0.0112,-0.2920,25.79,12.07,0.73
979,101179842,0.9448,0.0122,-0.2896,25.91,12.13,0.61
980,101184845,0.9453,0.0122,-0.2896,25.85,12.38,0.43
981,101190065,0.9512,0.0088,-0.2822,25.73,12.50,0.37
982,101194844,0.9551,0.0132,-0.2778,25.55,12.68,0.24
983,101199843,0.9575,0.0132,-0.2754,25.06,12.80,0.12
984,101204842,0.9624,0.0117,-0.2729,24.70,13.05,0.18
985,101209844,0.9624,0.0156,-0.2690,24.02,13.29,0.18
986,101214841,0.9644,0.0215,-0.2666,23.23,13.60,0.18
987,101219937,0.9619,0.0264,-0.2588,22.56,13.78,0.18
988,101224842,0.9629,0.0273,-0.2651,21.65,13.84,0.24
989,101229843,0.9644,0.0298,-0.2612,20.79,14.02,0.18
990,101234843,0.9683,0.0254,-0.2559,20.12,13.96,0.30
991,101239843,0.9619,0.0278,-0.2651,19.39,14.21,0.37
992,101244843,0.9595,0.0298,-0.2549,18.90,14.27,0.43
993,101249842,0.9580,0.0288,-0.2524,18.41,14.27,0.61
994,101254843,0.9590,0.0269,-0.2539,17.99,14.27,0.67
995,101259900,0.9565,0.0278,-0.2520,17.56,14.33,0.91
996,101264843,0.9580,0.0293,-0.2490,17.26,14.21,0.98
997,101269843,0.9512,0.0308,-0.2510,17.20,14.09,1.16
998,101274843,0.9458,0.0278,-0.2476,17.13,13.96,1.22
999,101279843,0.9487,0.0332,-0.2456,17.13,13.72,1.28
1000,101284921,0.9448,0.0347,-0.2441,17.32,13.66,1.34
1001,101289845,0.9424,0.0415,-0.2485,17.38,13.41,1.28
1002,101294844,0.9385,0.0405,-0.2461,17.44,13.11,1.40
1003,101299842,0.9380,0.0415,-0.2485,17.68,12.87,1.28
1004,101304843,0.9360,0.0483,-0.2461,17.74,12.68,1.28
1005,101309843,0.9331,0.0542,-0.2456,17.93,12.32,1.10
1006,101314845,0.9312,0.0542,-0.2427,18.05,12.07,0.98
1007,101319842,0.9321,0.0522,-0.2368,18.11,11.71,0.79
1008,101324843,0.9307,0.0518,-0.2373,18.41,11.52,0.55
1009,101329843,0.9326,0.0469,-0.2324,18.60,11.28,0.43
1010,101334843,0.9321,0.0518,-0.2368,18.84,10.98,0.18
1011,101339841,0.9336,0.0493,-0.2319,19.15,10.73,-0.12
1012,101344843,0.9399,0.0522,-0.2383,19.57,10.49,-0.30
1013,101349842,0.9360,0.0459,-0.2324,20.00,10.30,-0.49
1014,101354845,0.9380,0.0498,-0.2373,20.43,10.00,-0.55
1015,101359842,0.9424,0.0483,-0.2300,20.91,9.70,-0.73
1016,101364842,0.9409,0.0513,-0.2207,21.46,9.51,-0.91
1017,101369843,0.9443,0.0513,-0.2222,22.13,9.33,-1.16
1018,101374842,0.9448,0.0547,-0.2271,22.87,9.15,-1.46
1019,101379841,0.9507,0.0498,-0.2236,23.60,8.96,-1.65
1020,101384997,0.9541,0.0503,-0.2266,24.33,8.66,-1.77
1021,101389843,0.9507,0.0518,-0.2271,25.06,8.54,-2.07
1022,101394842,0.9585,0.0508,-0.2246,25.98,8.35,-2.20
1023,101399845,0.9609,0.0483,-0.2212,26.77,8.35,-2.44
1024,101404842,0.9634,0.0449,-0.2271,27.56,7.99,-2.50
1025,101409843,0.9663,0.0449,-0.2227,28.54,7.93,-2.62
1026,101414842,0.9604,0.0435,-0.2227,29.27,7.74,-2.74
1027,101419843,0.9658,0.0386,-0.2192,30.18,7.62,-2.74
1028,101424842,0.9697,0.0327,-0.2168,31.10,7.62,-2.93
1029,101429841,0.9663,0.0278,-0.2168,31.89,7.68,-2.93
1030,101434843,0.9639,0.0239,-0.2114,32.68,7.62,-2.87
1031,101439845,0.9707,0.0273,-0.2178,33.17,7.68,-2.87
1032,101444842,0.9731,0.0288,-0.2173,33.54,7.62,-2.80
1033,101449841,0.9736,0.0376,-0.2100,33.84,7.62,-2.93
1034,101454843,0.9756,0.0400,-0.2031,33.78,7.74,-2.99
1035,101459842,0.9702,0.0420,-0.2026,33.66,7.74,-3.23
1036,101464841,0.9688,0.0396,-0.2061,33.48,8.05,-3.35
1037,101469842,0.9668,0.0337,-0.2012,33.35,8.05,-3.48
1038,101474843,0.9634,0.0332,-0.1963,33.05,8.29,-3.66
1039,101479843,0.9653,0.0303,-0.1978,32.87,8.41,-3.72
1040,101484842,0.9604,0.0244,-0.2056,32.56,8.66,-3.96
1041,101489843,0.9644,0.0269,-0.2012,32.56,8.72,-3.96
1042,101494842,0.9595,0.0259,-0.2007,32.50,8.90,-4.02
1043,101499847,0.9575,0.0215,-0.1987,32.38,8.96,-4.15
1044,101504841,0.9580,0.0234,-0.2031,32.38,9.09,-4.21
1045,101509841,0.9541,0.0234,-0.2002,32.38,9.39,-4.27
1046,101514844,0.9536,0.0273,-0.1987,32.38,9.57,-4.39
1047,101519843,0.9561,0.0269,-0.1978,32.20,9.63,-4.45
1048,101524843,0.9512,0.0303,-0.2080,32.20,9.70,-4.70
1049,101529841,0.9492,0.0352,-0.2012,32.01,9.94,-4.76
1050,101534845,0.9468,0.0337,-0.2051,31.89,10.00,-5.18
1051,101539843,0.9434,0.0352,-0.2080,31.83,10.18,-5.37
1052,101544842,0.9399,0.0361,-0.2026,31.83,10.24,-5.55
1053,101549843,0.9409,0.0396,-0.2046,31.77,10.37,-5.79
1054,101554842,0.9399,0.0386,-0.2046,31.77,10.55,-6.10
1055,101559843,0.9370,0.0361,-0.2065,31.89,10.67,-6.34
1056,101564842,0.9380,0.0356,-0.2026,32.01,10.67,-6.59
1057,101569843,0.9375,0.0381,-0.1997,32.13,10.79,-6.77
1058,101574843,0.9351,0.0371,-0.2017,32.44,10.85,-7.13
1059,101579842,0.9331,0.0405,-0.2026,32.74,10.98,-7.32
1060,101584878,0.9302,0.0420,-0.2017,33.05,11.04,-7.62
1061,101589841,0.9263,0.0474,-0.2041,33.23,11.16,-7.80
1062,101594845,0.9258,0.0483,-0.2036,33.66,11.22,-8.17
1063,101599886,0.9248,0.0542,-0.2002,33.96,11.40,-8.48
1064,101604842,0.9243,0.0581,-0.2012,34.21,11.46,-8.72
1065,101609845,0.9287,0.0610,-0.1973,34.51,11.59,-9.15
1066,101614842,0.9292,0.0601,-0.2007,34.88,11.65,-9.51
1067,101619844,0.9312,0.0591,-0.1948,35.24,11.83,-9.88
1068,101624842,0.9365,0.0615,-0.1978,35.61,11.77,-10.12
1069,101629843,0.9297,0.0566,-0.2036,35.98,11.95,-10.49
1070,101634841,0.9365,0.0581,-0.2026,36.28,12.07,-10.79
1071,101639841,0.9326,0.0581,-0.2007,36.59,12.20,-11.04
1072,101644845,0.9316,0.0571,-0.1958,36.89,12.20,-11.22
1073,101649843,0.9365,0.0552,-0.1919,37.01,12.32,-11.40
1074,101654843,0.9360,0.0518,-0.1982,37.07,12.44,-11.52
1075,101659844,0.9341,0.0537,-0.1978,37.26,12.56,-11.65
1076,101664843,0.9375,0.0566,-0.1992,37.38,12.68,-11.77
1077,101669842,0.9380,0.0527,-0.1924,37.38,12.87,-11.71
1078,101674843,0.9395,0.0557,-0.2026,37.32,12.93,-11.83
1079,101679843,0.9419,0.0562,-0.1973,37.20,13.11,-11.89
1080,101684841,0.9424,0.0615,-0.1997,37.07,13.17,-11.83
1081,101689845,0.9482,0.0552,-0.1978,36.83,13.29,-11.89
1082,101694842,0.9458,0.0562,-0.2051,36.77,13.48,-11.77
1083,101699843,0.9487,0.0557,-0.2012,36.59,13.72,-11.77
1084,101704842,0.9473,0.0596,-0.2007,36.22,13.66,-11.77
1085,101709843,0.9492,0.0605,-0.2012,35.85,13.90,-11.65
1086,101714845,0.9487,0.0630,-0.1982,35.49,13.96,-11.65
1087,101719843,0.9517,0.0645,-0.1982,35.00,14.02,-11.46
1088,101724842,0.9521,0.0610,-0.1978,34.51,14.15,-11.40
1089,101729841,0.9531,0.0596,-0.1943,34.15,14.15,-11.28
1090,101734843,0.9561,0.0552,-0.2017,33.54,14.21,-11.10
1091,101739841,0.9585,0.0537,-0.1953,33.05,14.45,-10.98
1092,101744843,0.9575,0.0596,-0.1953,32.62,14.33,-10.79
1093,101749843,0.9614,0.0625,-0.1934,32.01,14.45,-10.67
1094,101754842,0.9595,0.0625,-0.1880,31.46,14.51,-10.49
1095,101759843,0.9585,0.0684,-0.1895,30.98,14.63,-10.18
1096,101764842,0.9580,0.0659,-0.1865,30.30,14.57,-10.12
1097,101769843,0.9595,0.0679,-0.1904,29.88,14.70,-9.82
1098,101774842,0.9561,0.0718,-0.1841,29.27,14.76,-9.63
1099,101779843,0.9614,0.0723,-0.1831,28.84,14.63,-9.45
1100,101784842,0.9570,0.0713,-0.1890,28.35,14.70,-9.33
1101,101789841,0.9565,0.0713,-0.1841,27.80,14.76,-9.15
1102,101794843,0.9570,0.0791,-0.1802,27.38,14.70,-8.96
1103,101799843,0.9541,0.0771,-0.1772,26.83,14.70,-8.78
1104,101804843,0.9580,0.0815,-0.1826,26.40,14.76,-8.66
1105,101809842,0.9531,0.0825,-0.1792,25.98,14.57,-8.60
1106,101814843,0.9546,0.0830,-0.1772,25.49,14.57,-8.48
1107,101819843,0.9521,0.0820,-0.1812,25.30,14.51,-8.35
1108,101824843,0.9517,0.0874,-0.1738,25.24,14.39,-8.23
1109,101829842,0.9478,0.0864,-0.1714,25.12,14.27,-8.23
1110,101834842,0.9512,0.0864,-0.1704,25.12,14.21,-8.05
1111,101839842,0.9478,0.0820,-0.1724,25.12,14.02,-8.05
1112,101844841,0.9497,0.0825,-0.1685,25.37,13.78,-7.80
1113,101849845,0.9448,0.0811,-0.1772,25.55,13.48,-7.74
1114,101854843,0.9487,0.0806,-0.1694,25.79,13.35,-7.56
1115,101859843,0.9468,0.0806,-0.1689,25.91,13.23,-7.44
1116,101864843,0.9502,0.0859,-0.1675,25.98,12.99,-7.38
1117,101869841,0.9512,0.0884,-0.1636,25.91,12.74,-7.20
1118,101874844,0.9541,0.0854,-0.1602,25.85,12.62,-7.01
1119,101879843,0.9517,0.0894,-0.1597,25.67,12.50,-6.95
1120,101884843,0.9497,0.0898,-0.1562,25.49,12.26,-6.95
1121,101889842,0.9492,0.0898,-0.1577,25.12,12.13,-6.89
1122,101894843,0.9492,0.0889,-0.1562,24.63,11.95,-6.71
1123,101899843,0.9556,0.0894,-0.1504,24.27,11.83,-6.65
1124,101904842,0.9521,0.0874,-0.1499,23.60,11.59,-6.59
1125,101909843,0.9482,0.0854,-0.1475,22.99,11.46,-6.40
1126,101914842,0.9521,0.0864,-0.1445,22.20,11.22,-6.34
1127,101919843,0.9541,0.0864,-0.1470,21.46,11.04,-6.34
1128,101924842,0.9512,0.0889,-0.1445,20.61,10.85,-6.16
1129,101929844,0.9487,0.0879,-0.1401,19.76,10.79,-6.10
1130,101934842,0.9521,0.0908,-0.1426,18.96,10.61,-6.10
1131,101939841,0.9507,0.0918,-0.1387,18.05,10.55,-6.04
1132,101944841,0.9536,0.0942,-0.1372,17.13,10.30,-5.98
1133,101949843,0.9565,0.0928,-0.1440,16.16,10.24,-5.85
1134,101954842,0.9546,0.0967,-0.1392,15.37,10.06,-5.85
1135,101959843,0.9590,0.0947,-0.1396,14.57,9.94,-5.79
1136,101964842,0.9575,0.0898,-0.1392,13.84,9.82,-5.61
1137,101969841,0.9639,0.0864,-0.1392,13.23,9.63,-5.55
