# skilleye imu stream v1
# device=xiao_esp32c6 imu=mpu6050 addr=0x68
# rate_hz=200 accel_range_g=16 gyro_range_dps=2000 dlpf_hz=94
# units: accel in g, gyro in deg/s, t_us in microseconds since boot (monotonic)
# no shared clock with the camera -- tap the racket once before each take
# so both recordings share a spike to align on
seq,t_us,ax,ay,az,gx,gy,gz
0,93152657,-0.9404,-0.0928,-0.2134,-20.61,-0.37,-11.89
1,93157663,-0.9404,-0.0928,-0.2065,-18.35,-0.18,-11.59
2,93162658,-0.9346,-0.0903,-0.2056,-17.07,0.12,-11.40
3,93167869,-0.9385,-0.0903,-0.2080,-14.82,0.37,-11.16
4,93172658,-0.9395,-0.0850,-0.2065,-13.48,0.73,-10.98
5,93177659,-0.9390,-0.0889,-0.2104,-11.59,0.98,-10.79
6,93182658,-0.9375,-0.0894,-0.2090,-9.76,1.22,-10.55
7,93187658,-0.9385,-0.0869,-0.2100,-7.99,1.46,-10.30
8,93192658,-0.9370,-0.0869,-0.2080,-6.04,1.77,-10.12
9,93197662,-0.9355,-0.0850,-0.2061,-4.33,1.95,-9.94
10,93203015,-0.9326,-0.0820,-0.2051,-2.32,2.20,-9.63
11,93207658,-0.9268,-0.0840,-0.2021,-0.91,2.32,-9.45
12,93212657,-0.9282,-0.0835,-0.2012,0.55,2.50,-9.33
13,93217658,-0.9287,-0.0791,-0.1992,2.13,2.68,-9.15
14,93222656,-0.9268,-0.0801,-0.2075,3.54,2.87,-9.02
15,93227657,-0.9307,-0.0820,-0.2075,4.82,3.05,-8.84
16,93232658,-0.9287,-0.0820,-0.2080,6.04,3.35,-8.72
17,93237657,-0.9312,-0.0771,-0.2007,7.13,3.41,-8.60
18,93242658,-0.9268,-0.0732,-0.1973,8.23,3.54,-8.41
19,93247658,-0.9272,-0.0767,-0.2002,9.15,3.90,-8.23
20,93252658,-0.9302,-0.0757,-0.1973,9.82,3.96,-8.11
21,93257656,-0.9297,-0.0737,-0.2080,10.49,3.96,-8.05
22,93262658,-0.9351,-0.0728,-0.2026,11.10,4.27,-8.11
23,93267658,-0.9331,-0.0747,-0.1992,11.59,4.51,-7.99
24,93272658,-0.9341,-0.0732,-0.2021,11.89,4.82,-7.74
25,93277658,-0.9346,-0.0718,-0.1963,12.20,4.94,-7.80
26,93282658,-0.9326,-0.0713,-0.2002,12.50,5.24,-7.74
27,93287659,-0.9360,-0.0674,-0.1938,12.56,5.37,-7.62
28,93292656,-0.9351,-0.0737,-0.1987,12.62,5.43,-7.56
29,93297658,-0.9390,-0.0679,-0.1938,12.56,5.79,-7.44
30,93302657,-0.9370,-0.0737,-0.1997,12.32,5.98,-7.26
31,93307658,-0.9375,-0.0757,-0.1953,12.13,6.04,-7.20
32,93313044,-0.9365,-0.0732,-0.1948,11.89,6.22,-6.89
33,93317658,-0.9355,-0.0762,-0.1895,11.46,6.46,-6.77
34,93322658,-0.9360,-0.0737,-0.1997,11.04,6.52,-6.46
35,93327874,-0.9341,-0.0698,-0.1943,10.43,6.71,-6.22
36,93332760,-0.9375,-0.0762,-0.1997,10.00,6.71,-6.04
37,93337658,-0.9336,-0.0776,-0.1948,9.33,6.71,-5.79
38,93342657,-0.9365,-0.0737,-0.1987,8.78,6.95,-5.55
39,93347720,-0.9316,-0.0747,-0.1968,8.35,6.95,-5.24
40,93352657,-0.9331,-0.0713,-0.1958,7.80,6.89,-4.88
41,93357658,-0.9277,-0.0732,-0.1948,7.26,7.07,-4.70
42,93362658,-0.9277,-0.0728,-0.1875,6.77,6.95,-4.27
43,93367917,-0.9238,-0.0723,-0.1948,6.16,6.95,-3.96
44,93372658,-0.9268,-0.0698,-0.1919,5.79,7.07,-3.66
45,93377884,-0.9297,-0.0757,-0.1865,5.37,6.89,-3.35
46,93382659,-0.9224,-0.0742,-0.1885,5.00,6.95,-3.05
47,93387660,-0.9229,-0.0728,-0.1870,4.51,6.95,-2.62
48,93392658,-0.9248,-0.0732,-0.1914,4.09,6.77,-2.38
49,93397658,-0.9204,-0.0713,-0.1890,3.78,6.77,-2.01
50,93402658,-0.9185,-0.0786,-0.1855,3.29,6.52,-1.59
51,93407658,-0.9219,-0.0776,-0.1851,2.87,6.46,-1.16
52,93412659,-0.9233,-0.0806,-0.1895,2.44,6.40,-0.73
53,93417657,-0.9214,-0.0796,-0.1865,2.01,6.40,-0.43
54,93422660,-0.9272,-0.0776,-0.1851,1.77,6.28,-0.06
55,93427658,-0.9224,-0.0811,-0.1899,1.40,6.10,0.43
56,93432782,-0.9258,-0.0820,-0.1890,1.04,6.10,0.73
57,93437658,-0.9287,-0.0811,-0.1875,0.79,5.98,1.04
58,93442658,-0.9302,-0.0840,-0.1821,0.37,5.91,1.46
59,93447658,-0.9321,-0.0815,-0.1855,0.12,5.79,1.77
60,93452658,-0.9292,-0.0820,-0.1772,-0.24,5.67,2.07
61,93457658,-0.9336,-0.0796,-0.1816,-0.37,5.61,2.38
62,93462658,-0.9307,-0.0830,-0.1782,-0.61,5.49,2.68
63,93467658,-0.9302,-0.0840,-0.1831,-0.91,5.37,2.99
64,93472933,-0.9258,-0.0820,-0.1831,-1.04,5.24,3.29
65,93477658,-0.9277,-0.0815,-0.1807,-1.22,5.24,3.60
66,93482658,-0.9233,-0.0830,-0.1763,-1.28,5.00,3.78
67,93487658,-0.9214,-0.0835,-0.1860,-1.34,5.00,4.09
68,93492658,-0.9199,-0.0830,-0.1821,-1.28,4.82,4.39
69,93497658,-0.9160,-0.0859,-0.1792,-1.28,4.70,4.63
70,93502658,-0.9180,-0.0918,-0.1748,-1.16,4.51,5.00
71,93507658,-0.9141,-0.0869,-0.1782,-0.98,4.27,5.18
72,93512658,-0.9111,-0.0898,-0.1807,-0.85,3.90,5.49
73,93517658,-0.9053,-0.0854,-0.1743,-0.61,3.72,5.85
74,93522945,-0.9087,-0.0859,-0.1812,-0.18,3.54,6.04
75,93527658,-0.9062,-0.0884,-0.1797,0.12,3.35,6.40
76,93532927,-0.9067,-0.0913,-0.1802,0.67,2.93,6.59
77,93537658,-0.9067,-0.0938,-0.1748,1.04,2.74,6.83
78,93542657,-0.9043,-0.0903,-0.1802,1.59,2.44,7.01
79,93547658,-0.9126,-0.0913,-0.1846,2.20,2.07,7.13
80,93552658,-0.9126,-0.0928,-0.1816,2.80,2.01,7.32
81,93557932,-0.9204,-0.0923,-0.1807,3.35,1.65,7.62
82,93562658,-0.9209,-0.0942,-0.1782,4.09,1.59,7.62
83,93567658,-0.9219,-0.0957,-0.1807,4.70,1.34,7.80
84,93572658,-0.9219,-0.0977,-0.1768,5.24,1.34,8.05
85,93577657,-0.9253,-0.0967,-0.1787,5.85,0.98,8.11
86,93582656,-0.9282,-0.0977,-0.1753,6.46,0.85,8.17
87,93587658,-0.9312,-0.1001,-0.1821,7.01,0.91,8.23
88,93592898,-0.9307,-0.0981,-0.1782,7.68,0.61,8.35
89,93597658,-0.9312,-0.0977,-0.1768,8.17,0.67,8.48
90,93602657,-0.9346,-0.0986,-0.1865,8.72,0.49,8.48
91,93607656,-0.9351,-0.1001,-0.1841,9.15,0.43,8.41
92,93612658,-0.9355,-0.0981,-0.1738,9.51,0.24,8.60
93,93617660,-0.9365,-0.1016,-0.1772,9.88,0.24,8.60
94,93622658,-0.9331,-0.1060,-0.1812,10.12,0.30,8.72
95,93627658,-0.9355,-0.1055,-0.1782,10.55,0.24,8.72
96,93632658,-0.9321,-0.1001,-0.1782,10.79,0.18,8.84
97,93637917,-0.9365,-0.1040,-0.1758,11.04,0.00,8.72
98,93642658,-0.9380,-0.1025,-0.1738,11.34,-0.12,8.78
99,93647658,-0.9399,-0.1035,-0.1753,11.65,-0.12,8.72
100,93652658,-0.9380,-0.1050,-0.1748,12.01,-0.24,8.78
101,93657986,-0.9370,-0.1021,-0.1777,12.20,-0.37,8.78
102,93662658,-0.9380,-0.1011,-0.1787,12.50,-0.43,8.72
103,93667657,-0.9292,-0.1016,-0.1689,12.80,-0.49,8.66
104,93672658,-0.9297,-0.1025,-0.1675,13.11,-0.67,8.66
105,93677658,-0.9287,-0.1006,-0.1685,13.29,-0.79,8.60
106,93683014,-0.9268,-0.1045,-0.1729,13.66,-0.98,8.54
107,93687658,-0.9302,-0.0996,-0.1729,13.78,-0.91,8.60
108,93692657,-0.9336,-0.1045,-0.1753,13.84,-1.16,8.54
109,93697658,-0.9312,-0.1040,-0.1807,14.09,-1.40,8.48
110,93702711,-0.9268,-0.1030,-0.1719,14.09,-1.59,8.41
111,93707657,-0.9292,-0.1050,-0.1733,14.15,-1.95,8.48
112,93712658,-0.9287,-0.1021,-0.1680,14.09,-2.20,8.41
113,93717657,-0.9287,-0.1055,-0.1694,14.02,-2.38,8.41
114,93722658,-0.9287,-0.1064,-0.1753,13.90,-2.62,8.41
115,93727945,-0.9312,-0.1050,-0.1753,13.84,-2.93,8.54
116,93732658,-0.9312,-0.1030,-0.1685,13.72,-3.23,8.29
117,93737658,-0.9302,-0.1069,-0.1665,13.35,-3.72,8.35
118,93742658,-0.9341,-0.1045,-0.1743,13.05,-4.02,8.35
119,93747658,-0.9316,-0.1040,-0.1738,12.68,-4.39,8.35
120,93753362,-0.9268,-0.1030,-0.1709,12.20,-4.82,8.35
121,93757661,-0.9297,-0.1060,-0.1719,11.77,-5.18,8.29
122,93762658,-0.9302,-0.1045,-0.1748,11.16,-5.61,8.23
123,93767658,-0.9302,-0.1055,-0.1758,10.43,-6.10,8.23
124,93772660,-0.9307,-0.1040,-0.1748,9.82,-6.52,8.17
125,93777658,-0.9258,-0.1074,-0.1763,9.33,-7.01,8.11
126,93782658,-0.9189,-0.1035,-0.1802,8.54,-7.50,8.17
127,93787658,-0.9233,-0.1069,-0.1772,7.74,-8.05,8.11
128,93792708,-0.9189,-0.1050,-0.1782,6.95,-8.60,7.99
129,93797657,-0.9204,-0.1060,-0.1797,6.10,-9.09,8.05
130,93802658,-0.9224,-0.1079,-0.1792,5.37,-9.63,7.99
131,93807658,-0.9189,-0.1118,-0.1821,4.51,-10.24,8.05
132,93812658,-0.9175,-0.1074,-0.1763,3.66,-10.85,8.17
133,93817658,-0.9238,-0.1138,-0.1802,2.74,-11.46,8.11
134,93822658,-0.9204,-0.1089,-0.1870,1.83,-12.20,8.11
135,93827658,-0.9233,-0.1147,-0.1851,0.79,-12.74,8.23
136,93832658,-0.9277,-0.1128,-0.1836,-0.12,-13.41,8.35
137,93838049,-0.9258,-0.1191,-0.1880,-1.46,-14.21,8.35
138,93842661,-0.9316,-0.1177,-0.1934,-2.62,-14.88,8.41
139,93847658,-0.9316,-0.1147,-0.1885,-3.48,-15.18,8.54
140,93852658,-0.9341,-0.1177,-0.1880,-4.45,-15.73,8.54
141,93857659,-0.9409,-0.1196,-0.1836,-5.61,-16.34,8.60
142,93862657,-0.9443,-0.1216,-0.1885,-6.83,-16.77,8.48
143,93867658,-0.9424,-0.1211,-0.1753,-7.93,-17.26,8.41
144,93872658,-0.9390,-0.1191,-0.1797,-9.15,-17.62,8.41
145,93877657,-0.9409,-0.1240,-0.1733,-10.30,-17.99,8.35
146,93882658,-0.9385,-0.1245,-0.1768,-11.65,-18.23,8.35
147,93887657,-0.9355,-0.1270,-0.1758,-12.87,-18.48,8.23
148,93892656,-0.9316,-0.1250,-0.1753,-14.15,-18.66,8.11
149,93897656,-0.9282,-0.1270,-0.1743,-15.55,-18.90,7.93
150,93902887,-0.9272,-0.1255,-0.1733,-16.89,-18.96,7.87
151,93907658,-0.9258,-0.1250,-0.1724,-18.11,-19.21,7.62
152,93912658,-0.9214,-0.1255,-0.1714,-19.39,-19.33,7.44
153,93917657,-0.9155,-0.1260,-0.1768,-20.73,-19.45,7.20
154,93922658,-0.9189,-0.1289,-0.1812,-21.89,-19.51,6.89
155,93927660,-0.9185,-0.1284,-0.1787,-23.11,-19.70,6.65
156,93932658,-0.9229,-0.1255,-0.1792,-24.21,-19.88,6.16
157,93937658,-0.9229,-0.1206,-0.1860,-25.30,-19.88,5.73
158,93942659,-0.9272,-0.1216,-0.1826,-26.28,-20.00,5.24
159,93947658,-0.9219,-0.1187,-0.1802,-26.95,-20.18,4.70
160,93952658,-0.9214,-0.1182,-0.1719,-27.62,-20.18,4.15
161,93957658,-0.9185,-0.1230,-0.1816,-28.35,-20.06,3.41
162,93962658,-0.9160,-0.1167,-0.1763,-28.84,-19.94,2.87
163,93967658,-0.9194,-0.1230,-0.1685,-29.51,-19.76,2.13
164,93972658,-0.9238,-0.1226,-0.1675,-30.06,-19.70,1.71
165,93977658,-0.9204,-0.1230,-0.1733,-30.79,-19.39,0.98
166,93982660,-0.9307,-0.1304,-0.1782,-31.59,-19.33,0.43
167,93987658,-0.9307,-0.1279,-0.1758,-32.38,-19.02,-0.12
168,93992658,-0.9424,-0.1318,-0.1782,-33.29,-18.78,-0.61
169,93997657,-0.9556,-0.1309,-0.1782,-34.39,-18.35,-1.16
170,94002658,-0.9678,-0.1338,-0.1797,-35.61,-17.87,-1.71
171,94007658,-0.9756,-0.1304,-0.1836,-37.01,-17.50,-2.38
172,94012657,-0.9893,-0.1377,-0.1802,-38.29,-16.77,-2.87
173,94017658,-1.0010,-0.1372,-0.1846,-39.70,-16.28,-3.35
174,94022658,-1.0078,-0.1372,-0.1812,-41.22,-15.55,-3.78
175,94027657,-1.0186,-0.1436,-0.1826,-42.50,-14.82,-4.21
176,94032658,-1.0229,-0.1372,-0.1836,-43.84,-14.15,-4.70
177,94037660,-1.0181,-0.1406,-0.1899,-44.94,-13.11,-5.12
178,94042658,-1.0259,-0.1411,-0.1865,-45.98,-12.26,-5.61
179,94047657,-1.0269,-0.1401,-0.1895,-46.65,-11.22,-5.85
180,94052658,-1.0269,-0.1387,-0.1860,-47.07,-10.18,-6.28
181,94057658,-1.0249,-0.1377,-0.1821,-47.38,-9.02,-6.46
182,94062921,-1.0205,-0.1396,-0.1812,-47.50,-7.80,-6.71
183,94067658,-1.0195,-0.1406,-0.1758,-47.32,-6.40,-6.95
184,94072658,-1.0098,-0.1367,-0.1714,-46.83,-4.88,-7.13
185,94077658,-1.0034,-0.1470,-0.1621,-45.98,-3.35,-7.38
186,94082881,-0.9937,-0.1416,-0.1582,-45.06,-1.59,-7.50
187,94087658,-0.9897,-0.1401,-0.1558,-43.84,0.18,-7.44
188,94092658,-0.9824,-0.1387,-0.1509,-42.44,2.13,-7.50
189,94097657,-0.9775,-0.1338,-0.1499,-40.67,3.96,-7.44
190,94102747,-0.9727,-0.1313,-0.1475,-38.66,6.04,-7.50
191,94107657,-0.9653,-0.1348,-0.1426,-36.46,8.11,-7.38
192,94112658,-0.9619,-0.1343,-0.1416,-34.02,10.37,-7.26
193,94117658,-0.9536,-0.1279,-0.1353,-31.10,12.50,-7.32
194,94122731,-0.9458,-0.1270,-0.1353,-28.11,14.70,-7.13
195,94127658,-0.9434,-0.1255,-0.1338,-24.88,17.13,-6.89
196,94132657,-0.9351,-0.1245,-0.1294,-21.46,19.27,-6.71
197,94137658,-0.9370,-0.1240,-0.1313,-17.80,21.52,-6.52
198,94142658,-0.9331,-0.1226,-0.1270,-13.84,23.60,-6.22
199,94147658,-0.9336,-0.1221,-0.1289,-9.63,25.98,-5.98
200,94152658,-0.9370,-0.1196,-0.1240,-5.55,28.17,-5.67
201,94158006,-0.9360,-0.1216,-0.1240,-1.34,30.24,-5.37
202,94162658,-0.9424,-0.1211,-0.1279,3.17,32.44,-5.00
203,94167659,-0.9487,-0.1177,-0.1318,7.62,34.51,-4.57
204,94172658,-0.9492,-0.1216,-0.1357,12.01,36.52,-4.15
205,94177670,-0.9551,-0.1191,-0.1377,16.52,38.41,-3.78
206,94182656,-0.9570,-0.1152,-0.1382,20.91,40.24,-3.41
207,94187657,-0.9609,-0.1167,-0.1396,25.24,42.20,-3.05
208,94192657,-0.9668,-0.1172,-0.1396,29.57,43.84,-2.62
209,94197663,-0.9668,-0.1177,-0.1406,33.96,45.37,-2.13
210,94202759,-0.9653,-0.1211,-0.1465,38.11,46.89,-1.83
211,94207658,-0.9702,-0.1162,-0.1436,42.13,48.35,-1.40
212,94212658,-0.9663,-0.1177,-0.1494,46.22,49.63,-1.04
213,94217662,-0.9614,-0.1167,-0.1528,50.30,50.85,-0.79
214,94222660,-0.9570,-0.1123,-0.1460,54.09,52.01,-0.43
215,94227656,-0.9565,-0.1104,-0.1562,57.93,52.99,-0.18
216,94232701,-0.9468,-0.1069,-0.1499,61.59,53.78,0.06
217,94237658,-0.9331,-0.1089,-0.1494,65.12,54.76,0.24
218,94242658,-0.9258,-0.1069,-0.1562,68.66,55.43,0.37
219,94247661,-0.9180,-0.1069,-0.1533,71.95,55.91,0.61
220,94252658,-0.9058,-0.1055,-0.1553,75.12,56.28,0.73
221,94257656,-0.8979,-0.1035,-0.1587,78.29,56.71,0.79
222,94262656,-0.8906,-0.1011,-0.1660,81.22,57.07,1.10
223,94267656,-0.8906,-0.1045,-0.1714,84.02,57.20,1.16
224,94272656,-0.8950,-0.1006,-0.1733,86.59,57.26,1.16
225,94277656,-0.8999,-0.1030,-0.1753,89.09,57.56,1.16
226,94282656,-0.9092,-0.0986,-0.1821,90.91,57.56,1.22
227,94287656,-0.9111,-0.1089,-0.1836,93.05,57.62,1.10
228,94292660,-0.9272,-0.1030,-0.1929,95.43,57.56,1.22
229,94297658,-0.9331,-0.1030,-0.1978,97.13,57.62,1.16
230,94302658,-0.9399,-0.1040,-0.2056,98.84,57.62,1.10
231,94307656,-0.9468,-0.1035,-0.2051,100.00,57.50,1.10
232,94312657,-0.9600,-0.1045,-0.2178,101.77,57.38,1.16
233,94317657,-0.9722,-0.1094,-0.2134,103.29,57.26,1.22
234,94322658,-0.9849,-0.1138,-0.2183,104.51,57.13,1.40
235,94327658,-0.9922,-0.1143,-0.2163,105.73,56.89,1.59
236,94332656,-0.9990,-0.1157,-0.2192,106.71,56.77,1.89
237,94337658,-1.0005,-0.1182,-0.2168,107.50,56.71,2.32
238,94342658,-0.9976,-0.1255,-0.2212,107.87,56.65,2.62
239,94347658,-0.9946,-0.1318,-0.2134,108.35,56.52,3.23
240,94352658,-0.9946,-0.1377,-0.2197,108.29,56.46,3.78
241,94357658,-0.9902,-0.1431,-0.2310,108.23,56.28,4.45
242,94362658,-1.0034,-0.1489,-0.2397,107.80,56.04,5.18
243,94367658,-1.0093,-0.1523,-0.2437,107.26,55.67,6.04
244,94372658,-1.0249,-0.1562,-0.2529,106.52,55.24,6.77
245,94377658,-1.0327,-0.1636,-0.2627,105.73,54.63,7.56
246,94382970,-1.0376,-0.1680,-0.2671,104.70,54.02,8.54
247,94387658,-1.0332,-0.1719,-0.2725,103.90,53.60,9.33
248,94392886,-1.0239,-0.1753,-0.2759,102.99,52.93,10.30
249,94397658,-1.0200,-0.1802,-0.2725,102.26,52.44,10.98
250,94402893,-1.0054,-0.1860,-0.2715,101.10,51.95,12.13
251,94407658,-0.9907,-0.1875,-0.2700,100.24,51.46,12.99
252,94412658,-0.9697,-0.1909,-0.2754,98.96,50.85,14.09
253,94417659,-0.9614,-0.1938,-0.2739,98.11,50.37,14.94
254,94422657,-0.9497,-0.1978,-0.2783,96.95,49.82,15.91
255,94427658,-0.9438,-0.2026,-0.2808,95.61,49.02,16.89
256,94432657,-0.9458,-0.2012,-0.2847,94.39,48.41,17.87
257,94437658,-0.9385,-0.2056,-0.3032,93.05,47.56,18.72
258,94442659,-0.9302,-0.2090,-0.3032,91.71,46.59,19.63
259,94447658,-0.9292,-0.2046,-0.3062,90.18,45.37,20.43
260,94452658,-0.9194,-0.2051,-0.3159,88.60,43.84,21.16
261,94457658,-0.9150,-0.2080,-0.3286,87.56,42.62,21.46
262,94462658,-0.9019,-0.2021,-0.3350,86.22,40.91,21.89
263,94467658,-0.8838,-0.2017,-0.3423,84.57,38.72,22.13
264,94472658,-0.8745,-0.2036,-0.3457,83.60,37.13,22.26
265,94477658,-0.8540,-0.1987,-0.3511,82.26,34.82,22.26
266,94482657,-0.8418,-0.1978,-0.3623,80.85,32.56,22.01
267,94487658,-0.8257,-0.1909,-0.3608,79.63,30.37,21.59
268,94492658,-0.8154,-0.1890,-0.3638,78.41,27.99,21.22
269,94497657,-0.8022,-0.1846,-0.3687,77.26,25.67,20.49
270,94502656,-0.7974,-0.1797,-0.3677,76.16,23.48,19.76
271,94507660,-0.7881,-0.1787,-0.3716,75.12,21.16,18.72
272,94512657,-0.7817,-0.1777,-0.3672,74.15,18.84,17.62
273,94517656,-0.7769,-0.1719,-0.3633,73.11,16.83,16.40
274,94522656,-0.7695,-0.1792,-0.3647,72.07,14.88,15.24
275,94527656,-0.7573,-0.1816,-0.3633,71.16,12.87,14.02
276,94532658,-0.7544,-0.1855,-0.3628,69.94,10.91,12.74
277,94537658,-0.7500,-0.1890,-0.3643,68.96,9.21,11.46
278,94542658,-0.7427,-0.1938,-0.3687,67.87,7.38,10.30
279,94547658,-0.7393,-0.1958,-0.3633,66.40,5.12,8.78
280,94552658,-0.7383,-0.1982,-0.3691,65.43,3.78,7.80
281,94557939,-0.7373,-0.2080,-0.3706,63.90,2.07,6.71
282,94562658,-0.7407,-0.2148,-0.3730,62.26,0.61,5.73
283,94567658,-0.7441,-0.2251,-0.3750,60.43,-0.73,4.88
284,94572658,-0.7505,-0.2354,-0.3770,58.48,-2.01,4.15
285,94577660,-0.7544,-0.2466,-0.3750,56.10,-3.23,3.48
286,94582658,-0.7637,-0.2549,-0.3711,53.60,-4.09,2.87
287,94587657,-0.7627,-0.2607,-0.3726,50.98,-4.76,2.38
288,94592658,-0.7681,-0.2651,-0.3721,48.23,-5.18,2.01
289,94597658,-0.7690,-0.2749,-0.3794,45.37,-5.61,1.71
290,94602658,-0.7744,-0.2788,-0.3833,42.38,-5.85,1.28
291,94607658,-0.7734,-0.2881,-0.3813,39.21,-5.98,1.04
292,94612704,-0.7783,-0.2925,-0.3940,36.16,-5.98,0.79
293,94617658,-0.7817,-0.2983,-0.4028,33.05,-5.98,0.37
294,94622658,-0.7881,-0.3032,-0.4043,29.76,-5.79,0.06
295,94627658,-0.7861,-0.3086,-0.4150,26.40,-5.61,-0.37
296,94632660,-0.7852,-0.3193,-0.4170,23.17,-5.37,-0.91
297,94637658,-0.7808,-0.3232,-0.4307,19.94,-4.70,-1.46
298,94642658,-0.7773,-0.3267,-0.4277,16.83,-4.15,-2.07
299,94647658,-0.7700,-0.3252,-0.4229,13.72,-3.17,-2.80
300,94652893,-0.7642,-0.3247,-0.4199,10.85,-2.13,-3.60
301,94657658,-0.7524,-0.3281,-0.4238,8.48,-1.10,-4.45
302,94662935,-0.7500,-0.3291,-0.4238,6.34,0.24,-5.37
303,94667658,-0.7393,-0.3276,-0.4248,4.57,1.77,-6.34
304,94672658,-0.7349,-0.3286,-0.4312,3.29,3.23,-7.56
305,94677658,-0.7383,-0.3330,-0.4424,2.26,4.76,-8.54
306,94682878,-0.7437,-0.3335,-0.4395,1.71,6.46,-9.76
307,94687658,-0.7598,-0.3384,-0.4580,1.28,7.74,-10.67
308,94692657,-0.7725,-0.3394,-0.4702,0.73,9.09,-11.89
309,94697660,-0.7715,-0.3403,-0.4746,0.61,10.61,-12.99
310,94702658,-0.7661,-0.3423,-0.4819,0.67,11.59,-14.21
311,94707658,-0.7588,-0.3472,-0.4873,1.16,12.87,-15.43
312,94712658,-0.7612,-0.3433,-0.4941,2.07,13.78,-16.52
313,94718052,-0.7642,-0.3491,-0.4966,2.93,14.82,-17.68
314,94722658,-0.7710,-0.3477,-0.5059,4.15,15.98,-18.72
315,94727658,-0.7812,-0.3584,-0.5054,5.55,17.01,-19.82
316,94732658,-0.7866,-0.3682,-0.5146,6.83,18.29,-20.61
317,94737660,-0.7871,-0.3730,-0.5176,8.29,19.45,-21.65
318,94742660,-0.7803,-0.3774,-0.5225,9.70,20.85,-22.56
319,94747955,-0.7827,-0.3804,-0.5234,11.46,22.13,-23.35
320,94752658,-0.7808,-0.3877,-0.5332,13.23,23.48,-24.09
321,94757971,-0.7803,-0.3872,-0.5415,15.24,25.06,-24.82
322,94762658,-0.7812,-0.3936,-0.5410,17.26,26.52,-25.43
323,94768159,-0.7861,-0.3970,-0.5596,19.45,27.93,-25.91
324,94772660,-0.7896,-0.3979,-0.5596,21.77,29.27,-26.46
325,94777658,-0.7910,-0.4058,-0.5649,24.09,30.55,-26.89
326,94782658,-0.7915,-0.4062,-0.5693,26.28,31.77,-27.32
327,94787657,-0.7964,-0.4102,-0.5811,28.48,32.93,-27.56
328,94792660,-0.7979,-0.4170,-0.5820,30.61,34.02,-27.87
329,94797657,-0.8047,-0.4248,-0.5928,32.68,35.06,-27.99
330,94802656,-0.8047,-0.4341,-0.6011,34.51,36.10,-28.17
331,94807658,-0.8076,-0.4399,-0.6045,36.10,37.20,-28.17
332,94812658,-0.8096,-0.4463,-0.6108,37.50,38.23,-28.35
333,94817657,-0.8062,-0.4507,-0.6196,38.72,39.39,-28.72
334,94822658,-0.7988,-0.4551,-0.6270,39.76,40.55,-29.02
335,94827658,-0.8057,-0.4600,-0.6348,40.79,41.89,-29.27
336,94832658,-0.8062,-0.4629,-0.6396,41.77,43.05,-29.63
337,94837657,-0.8110,-0.4741,-0.6479,42.80,44.39,-30.00
338,94842656,-0.8057,-0.4775,-0.6597,43.72,45.67,-30.37
339,94847656,-0.8042,-0.4805,-0.6587,44.82,47.01,-30.98
340,94852658,-0.7949,-0.4814,-0.6704,45.79,48.23,-31.52
341,94857658,-0.7964,-0.4863,-0.6724,46.89,49.63,-32.20
342,94862658,-0.7915,-0.4873,-0.6753,47.93,50.98,-32.93
343,94867662,-0.7852,-0.4922,-0.6855,48.84,52.32,-33.54
344,94872870,-0.7881,-0.4956,-0.6880,49.57,53.48,-34.33
345,94877658,-0.7827,-0.5000,-0.6802,50.18,54.76,-35.00
346,94882659,-0.7837,-0.5088,-0.6914,50.73,56.34,-35.91
347,94887658,-0.7788,-0.5122,-0.6855,51.10,57.62,-36.71
348,94892658,-0.7695,-0.5195,-0.6885,51.40,59.09,-37.44
349,94897658,-0.7729,-0.5254,-0.6958,51.46,60.55,-38.23
350,94902658,-0.7705,-0.5352,-0.6997,51.40,61.95,-39.09
351,94907660,-0.7700,-0.5464,-0.7036,51.28,63.41,-39.70
352,94912658,-0.7676,-0.5479,-0.7080,51.04,65.00,-40.43
353,94917658,-0.7642,-0.5557,-0.7104,50.79,66.40,-41.16
354,94922658,-0.7578,-0.5576,-0.7144,50.43,68.17,-41.95
355,94927658,-0.7539,-0.5605,-0.7129,50.12,69.70,-42.87
356,94932658,-0.7485,-0.5654,-0.7168,49.82,71.34,-43.66
357,94937658,-0.7476,-0.5664,-0.7236,49.51,72.80,-44.57
358,94942892,-0.7432,-0.5757,-0.7295,49.33,74.39,-45.67
359,94947658,-0.7427,-0.5874,-0.7227,49.15,76.16,-46.59
360,94952894,-0.7432,-0.5962,-0.7295,49.15,77.93,-47.74
361,94957658,-0.7422,-0.6152,-0.7358,49.45,79.63,-48.72
362,94962662,-0.7466,-0.6255,-0.7363,49.88,81.22,-49.88
363,94967659,-0.7427,-0.6416,-0.7437,50.49,83.05,-51.16
364,94973110,-0.7354,-0.6577,-0.7490,51.28,84.88,-52.44
365,94977658,-0.7271,-0.6719,-0.7441,52.13,86.10,-53.78
366,94982918,-0.7241,-0.6831,-0.7437,53.11,86.40,-55.18
367,94987658,-0.7192,-0.6938,-0.7412,54.51,88.72,-56.59
368,94992659,-0.7158,-0.7002,-0.7412,56.34,90.55,-58.11
369,94997657,-0.7075,-0.7109,-0.7388,58.48,92.26,-59.63
370,95002896,-0.6963,-0.7148,-0.7407,61.04,93.96,-61.16
371,95007658,-0.6968,-0.7231,-0.7363,63.29,95.12,-62.44
372,95012759,-0.6875,-0.7231,-0.7275,66.83,97.07,-64.39
373,95017657,-0.6792,-0.7329,-0.7231,69.15,98.48,-65.73
374,95022658,-0.6846,-0.7427,-0.7256,72.13,100.12,-67.26
375,95027753,-0.6880,-0.7534,-0.7188,75.73,102.01,-69.21
376,95032657,-0.6929,-0.7598,-0.7124,78.05,103.11,-70.37
377,95038059,-0.7017,-0.7759,-0.7119,81.71,104.94,-72.26
378,95042658,-0.7046,-0.7852,-0.7158,84.27,106.10,-73.35
379,95048054,-0.7119,-0.8081,-0.7153,88.29,107.44,-74.94
380,95052658,-0.7212,-0.8188,-0.7119,90.85,108.11,-75.91
381,95057681,-0.7275,-0.8379,-0.7100,94.33,108.96,-77.01
382,95062658,-0.7236,-0.8584,-0.7065,97.62,109.63,-77.87
383,95068132,-0.7095,-0.8804,-0.6860,101.40,109.88,-78.78
384,95072661,-0.6870,-0.8960,-0.6729,104.27,110.00,-79.39
385,95077658,-0.6636,-0.9082,-0.6597,106.46,110.06,-79.88
386,95082657,-0.6289,-0.9048,-0.6362,109.21,109.94,-80.55
387,95087658,-0.5908,-0.9131,-0.6152,111.95,109.82,-81.52
388,95092658,-0.5610,-0.9185,-0.5933,114.94,109.70,-82.56
389,95097658,-0.5293,-0.9189,-0.5684,117.87,109.51,-83.84
390,95102656,-0.4985,-0.9219,-0.5508,120.98,109.39,-85.37
391,95107658,-0.4771,-0.9326,-0.5317,123.96,109.15,-87.20
392,95112658,-0.4624,-0.9287,-0.5117,126.83,109.02,-89.15
393,95117659,-0.4414,-0.9351,-0.4819,130.18,108.72,-91.59
394,95122659,-0.4351,-0.9170,-0.4727,133.11,108.78,-93.48
395,95127658,-0.4292,-0.9136,-0.4541,136.16,108.78,-96.10
396,95132657,-0.4204,-0.9214,-0.4297,139.27,108.96,-98.90
397,95137658,-0.4199,-0.9263,-0.4170,142.13,109.09,-101.83
398,95142656,-0.4111,-0.9282,-0.3896,144.88,109.02,-104.88
399,95148013,-0.3926,-0.9326,-0.3691,147.50,108.84,-108.54
400,95152658,-0.3784,-0.9307,-0.3550,148.72,108.48,-110.98
401,95157658,-0.3643,-0.9409,-0.3364,149.70,107.87,-114.63
402,95162658,-0.3579,-0.9409,-0.3237,149.70,107.07,-117.07
403,95168108,-0.3486,-0.9502,-0.2988,148.78,105.85,-120.37
404,95172658,-0.3335,-0.9556,-0.2812,147.56,104.63,-122.62
405,95178116,-0.3081,-0.9604,-0.3931,144.70,103.05,-125.91
406,95182658,-0.2778,-0.9468,-0.2549,142.07,98.90,-127.99
407,95187659,-0.2256,-0.9634,-0.3164,137.93,97.62,-130.61
408,95192657,-0.2285,-0.9565,-0.3589,133.41,97.80,-133.11
409,95197662,-0.2446,-0.9653,-0.3091,127.32,97.68,-136.04
410,95202658,-0.2319,-0.9707,-0.2700,122.32,94.70,-137.99
411,95207914,-0.2080,-0.9824,-0.3110,114.09,93.72,-140.73
412,95212658,-0.1870,-0.9971,-0.3438,107.93,93.78,-142.50
413,95217658,-0.1855,-1.0039,-0.2974,97.62,92.32,-145.06
414,95222658,-0.2007,-0.9878,-0.2949,90.55,92.13,-146.89
415,95227658,-0.2109,-0.9756,-0.2998,81.46,92.56,-148.90
416,95232659,-0.2168,-0.9634,-0.2446,72.32,92.38,-150.98
417,95237657,-0.2178,-0.9556,-0.1987,63.29,92.01,-152.62
418,95242660,-0.2119,-0.9517,-0.1924,54.27,92.38,-154.21
419,95247790,-0.2002,-0.9429,-0.1660,46.10,92.56,-155.43
420,95252657,-0.1802,-0.9365,-0.1318,38.35,92.20,-156.22
421,95257658,-0.1699,-0.9004,-0.0894,29.70,91.83,-156.77
422,95262658,-0.1074,-0.9883,-0.1646,23.96,91.16,-156.28
423,95267658,-0.1387,-0.8389,-0.0396,16.77,89.45,-155.79
424,95272658,-0.1729,-0.7529,-0.0117,11.22,88.60,-155.85
425,95277658,-0.1943,-0.7217,-0.0366,7.13,88.84,-156.04
426,95282658,-0.1978,-0.7075,-0.0010,4.15,88.66,-155.91
427,95287658,-0.1807,-0.7002,0.0400,1.52,88.17,-155.49
428,95292659,-0.1514,-0.6943,0.0190,-0.85,87.99,-154.82
429,95297658,-0.1123,-0.6660,0.0244,-3.11,87.32,-153.96
430,95302801,-0.0718,-0.6431,0.0459,-5.24,86.40,-152.93
431,95307658,-0.0771,-0.5850,0.0581,-6.95,85.37,-151.95
432,95312657,-0.0747,-0.5425,0.0420,-8.29,85.37,-151.10
433,95317658,-0.0601,-0.5024,0.0562,-9.21,85.55,-150.12
434,95322658,-0.0435,-0.4648,0.0889,-10.00,85.43,-149.09
435,95327787,-0.0166,-0.3945,0.0791,-10.30,85.24,-148.17
436,95332658,0.0557,-0.2866,0.0649,-10.06,84.88,-147.32
437,95337657,0.0830,-0.2349,0.0786,-8.90,84.39,-146.28
438,95342896,0.0884,-0.1724,0.0864,-7.93,83.35,-145.06
439,95347658,0.0713,-0.1143,0.0708,-6.83,83.11,-143.90
440,95352745,0.0625,-0.0703,0.0708,-5.85,83.35,-142.74
441,95357657,0.0469,-0.0361,0.0962,-5.06,82.93,-141.46
442,95362658,0.0420,-0.0171,0.1045,-4.33,82.80,-140.30
443,95367658,0.0366,-0.0181,0.1011,-4.02,82.80,-138.96
444,95372658,0.0264,-0.0259,0.1064,-4.09,83.11,-137.62
445,95377658,0.0249,-0.0293,0.1162,-4.39,82.93,-136.16
446,95382658,0.0190,-0.0454,0.1216,-5.18,82.20,-134.51
447,95387658,0.0288,-0.0723,0.1147,-6.34,82.20,-132.74
448,95392658,0.0415,-0.1235,0.1416,-7.56,81.89,-130.79
449,95397658,0.0459,-0.1948,0.1763,-8.29,82.26,-128.29
450,95402658,0.0571,-0.2642,0.0962,-8.84,82.01,-125.30
451,95408180,0.1392,-0.4038,-0.1167,-10.73,81.22,-122.20
452,95412658,0.3018,-0.6582,-0.2358,-13.78,79.21,-118.66
453,95417658,0.3945,-0.6846,-0.2100,-16.16,77.26,-115.43
454,95422658,0.4941,-0.4536,-0.1460,-18.90,74.88,-111.77
455,95427658,0.5405,-0.1777,-0.0732,-20.61,73.78,-110.00
456,95432658,0.5132,-0.1201,0.0044,-21.22,72.62,-108.78
457,95438143,0.5269,-0.2656,-0.0366,-21.16,70.98,-106.40
458,95442658,0.5508,-0.4028,-0.0977,-20.55,68.35,-101.83
459,95447658,0.4912,-0.4751,-0.0610,-20.00,65.55,-95.55
460,95452658,0.4214,-0.5010,-0.0952,-19.94,62.26,-88.11
461,95457658,0.3638,-0.5024,-0.1265,-20.55,57.80,-80.43
462,95462658,0.3481,-0.5781,-0.0684,-21.95,53.84,-72.38
463,95467658,0.3730,-0.6001,-0.0151,-24.21,50.18,-63.78
464,95472658,0.4277,-0.5967,0.0693,-26.65,46.59,-55.43
465,95477658,0.4985,-0.6060,0.1235,-28.78,43.72,-47.44
466,95482658,0.5825,-0.6328,0.1450,-30.79,41.04,-39.76
467,95487658,0.6484,-0.6616,0.1743,-32.26,38.35,-32.44
468,95492658,0.6885,-0.6782,0.1670,-33.29,35.30,-25.43
469,95497658,0.7085,-0.6831,0.1284,-33.84,32.07,-18.96
470,95502658,0.7134,-0.6768,0.1030,-33.60,28.48,-13.05
471,95507730,0.6973,-0.6875,0.0894,-32.93,24.39,-7.56
472,95512657,0.6772,-0.6895,0.0825,-31.59,20.18,-2.62
473,95517658,0.6616,-0.7104,0.0718,-29.57,16.10,1.71
474,95522939,0.6611,-0.7368,0.0688,-27.13,12.20,5.55
475,95527658,0.6772,-0.7637,0.0962,-24.57,8.29,9.02
476,95532658,0.6875,-0.7930,0.1187,-21.83,4.45,12.07
477,95537658,0.6782,-0.8271,0.1221,-19.33,0.55,14.82
478,95542658,0.6802,-0.8472,0.1655,-17.20,-2.99,17.13
479,95547658,0.6782,-0.8594,0.1914,-15.67,-5.98,19.21
480,95552658,0.6890,-0.8730,0.1812,-14.94,-9.02,21.10
481,95557658,0.7007,-0.8574,0.2080,-14.51,-11.34,22.50
482,95562658,0.7031,-0.8472,0.2031,-14.94,-13.35,23.23
483,95567657,0.6948,-0.8389,0.2007,-16.04,-14.88,23.54
484,95572658,0.6855,-0.8301,0.1831,-17.50,-15.55,23.29
485,95577658,0.6567,-0.8374,0.1704,-19.57,-15.79,22.38
486,95582658,0.5986,-0.8301,0.1162,-22.01,-15.73,20.67
487,95587658,0.5742,-0.8286,0.0615,-24.15,-15.55,18.54
488,95592658,0.5728,-0.8447,0.0386,-25.85,-15.37,16.04
489,95597658,0.5635,-0.8745,-0.0117,-26.83,-15.18,13.41
490,95602658,0.5430,-0.9043,-0.0591,-27.07,-14.82,10.61
491,95607658,0.5298,-0.9312,-0.0869,-26.28,-14.88,7.93
492,95612656,0.5269,-0.9565,-0.1123,-23.96,-14.88,5.30
493,95618137,0.5273,-0.9604,-0.1470,-20.30,-15.24,2.74
494,95622658,0.5332,-0.9624,-0.1758,-15.61,-15.85,0.24
495,95627658,0.5356,-0.9663,-0.1909,-10.06,-16.52,-2.38
496,95632658,0.5405,-0.9658,-0.2012,-4.09,-17.44,-4.94
497,95637658,0.5469,-0.9600,-0.1997,1.89,-18.35,-7.32
498,95642657,0.5537,-0.9502,-0.2095,7.50,-18.84,-9.70
499,95647658,0.5684,-0.9365,-0.2178,12.80,-19.51,-12.26
500,95652658,0.5737,-0.9233,-0.2266,17.62,-20.06,-14.57
501,95657658,0.5747,-0.9072,-0.2422,22.07,-20.55,-16.83
502,95662658,0.5732,-0.8906,-0.2568,26.04,-21.28,-19.09
503,95668153,0.5698,-0.8730,-0.2554,29.27,-21.71,-21.40
504,95672658,0.5718,-0.8584,-0.2549,31.89,-22.26,-23.54
505,95677658,0.5728,-0.8428,-0.2476,33.72,-22.56,-25.73
506,95682659,0.5742,-0.8315,-0.2480,34.82,-22.87,-27.74
507,95687657,0.5728,-0.8115,-0.2407,35.30,-23.05,-29.82
508,95693030,0.5684,-0.7969,-0.2412,35.18,-23.05,-31.71
509,95697658,0.5659,-0.7759,-0.2373,34.57,-23.17,-33.66
510,95702657,0.5728,-0.7593,-0.2378,33.60,-22.99,-35.49
511,95707658,0.5664,-0.7456,-0.2290,32.44,-22.74,-37.13
512,95712658,0.5654,-0.7236,-0.2358,30.73,-22.38,-38.54
513,95717657,0.5894,-0.6982,-0.2402,29.63,-22.01,-39.82
514,95722659,0.6050,-0.6924,-0.2354,29.09,-21.65,-40.79
515,95727658,0.5879,-0.6943,-0.2344,29.45,-21.28,-41.34
516,95732659,0.5708,-0.6997,-0.2280,30.24,-20.73,-41.65
517,95738022,0.5669,-0.6958,-0.2212,31.28,-20.18,-41.65
518,95742658,0.5659,-0.6924,-0.2041,32.26,-19.94,-41.59
519,95747658,0.5864,-0.6729,-0.2178,33.05,-19.51,-41.40
520,95752658,0.6162,-0.6714,-0.2212,34.02,-19.39,-41.10
521,95757658,0.6030,-0.6758,-0.2114,35.18,-18.96,-40.43
522,95762658,0.5796,-0.6729,-0.2100,36.40,-18.84,-39.63
523,95767658,0.5786,-0.6689,-0.2109,37.62,-18.66,-38.66
524,95772658,0.5796,-0.6611,-0.2070,38.78,-18.41,-37.62
525,95777658,0.5845,-0.6543,-0.2002,39.82,-18.23,-36.40
526,95782658,0.5859,-0.6509,-0.2051,40.85,-17.93,-35.00
527,95787657,0.5869,-0.6519,-0.2129,41.77,-18.05,-33.78
528,95792657,0.5825,-0.6494,-0.2095,43.05,-17.99,-32.26
529,95797658,0.5806,-0.6426,-0.2153,44.27,-18.23,-30.49
530,95802658,0.5806,-0.6450,-0.2188,45.12,-18.60,-28.84
531,95807658,0.5811,-0.6445,-0.2007,45.61,-19.09,-26.89
532,95812661,0.5767,-0.6489,-0.2026,45.91,-19.51,-24.94
533,95817658,0.5811,-0.6479,-0.2051,45.43,-20.06,-22.80
534,95822658,0.5840,-0.6470,-0.2007,44.70,-20.73,-20.73
535,95828118,0.5854,-0.6494,-0.1992,43.41,-21.34,-18.17
536,95832658,0.5859,-0.6519,-0.1968,42.44,-21.65,-16.46
537,95837658,0.5767,-0.6548,-0.1938,40.91,-22.07,-14.21
538,95842658,0.5747,-0.6499,-0.1997,39.21,-22.68,-12.07
539,95847659,0.5718,-0.6597,-0.2017,37.68,-23.05,-10.00
540,95852658,0.5688,-0.6597,-0.2065,36.04,-23.41,-7.99
541,95857658,0.5674,-0.6577,-0.2100,34.57,-23.72,-6.10
542,95862660,0.5630,-0.6562,-0.2222,33.23,-23.78,-4.27
543,95867657,0.5547,-0.6523,-0.2290,32.13,-24.02,-2.50
544,95872675,0.5454,-0.6465,-0.2349,31.10,-24.09,-1.04
545,95877657,0.5332,-0.6479,-0.2412,30.24,-24.15,0.18
546,95882929,0.5127,-0.6426,-0.2358,29.39,-24.09,1.40
547,95887658,0.5063,-0.6431,-0.2334,29.02,-23.90,2.07
548,95892698,0.4946,-0.6450,-0.2432,28.84,-23.48,2.68
549,95897658,0.4829,-0.6323,-0.2383,29.02,-22.99,2.99
550,95902658,0.4717,-0.6221,-0.2432,29.09,-22.74,3.29
551,95907658,0.4619,-0.6201,-0.2446,29.21,-22.50,3.35
552,95912658,0.4600,-0.6187,-0.2383,29.45,-22.07,3.48
553,95917658,0.4570,-0.6216,-0.2378,29.51,-21.89,3.41
554,95922658,0.4556,-0.6274,-0.2324,29.57,-21.71,3.41
555,95927698,0.4551,-0.6372,-0.2314,29.39,-21.59,3.48
556,95932657,0.4771,-0.6406,-0.2295,28.96,-21.34,3.72
557,95937755,0.4941,-0.6421,-0.2207,28.11,-21.22,4.02
558,95942658,0.5039,-0.6406,-0.2183,27.01,-21.10,4.21
559,95947658,0.5049,-0.6553,-0.2168,25.61,-21.04,4.63
560,95952657,0.5161,-0.6553,-0.2134,23.84,-21.22,5.06
561,95957659,0.5210,-0.6572,-0.2090,21.83,-21.16,5.73
562,95962750,0.5215,-0.6641,-0.2090,19.57,-21.52,6.34
563,95967658,0.5259,-0.6597,-0.2051,17.50,-21.59,6.89
564,95972659,0.5298,-0.6616,-0.1997,15.49,-21.89,7.56
565,95977927,0.5264,-0.6636,-0.1924,13.48,-22.20,8.35
566,95982658,0.5020,-0.6748,-0.1934,12.68,-22.50,9.09
567,95987658,0.5225,-0.6660,-0.2163,12.56,-22.74,10.24
568,95992657,0.5425,-0.6660,-0.2139,12.87,-23.23,11.28
569,95997656,0.5469,-0.6807,-0.2012,13.72,-23.90,12.32
570,96002656,0.5625,-0.6895,-0.2036,15.00,-24.63,13.66
571,96007658,0.5635,-0.7002,-0.2017,15.91,-25.12,14.45
572,96012658,0.5752,-0.7085,-0.1938,17.13,-26.04,15.43
573,96017659,0.5869,-0.7124,-0.1870,18.48,-26.95,16.22
574,96022658,0.5859,-0.7271,-0.1885,19.82,-27.74,16.89
575,96027658,0.5898,-0.7402,-0.1904,20.98,-28.66,17.38
576,96032659,0.5889,-0.7505,-0.1914,22.07,-29.70,17.74
577,96037658,0.5933,-0.7563,-0.1992,22.68,-30.61,18.05
578,96042658,0.5908,-0.7603,-0.2017,22.74,-31.65,18.05
579,96047660,0.5815,-0.7695,-0.2065,22.32,-32.44,17.80
580,96052920,0.5781,-0.7783,-0.2129,21.34,-33.17,17.44
581,96057658,0.5776,-0.7827,-0.2217,19.57,-33.78,17.01
582,96062658,0.5811,-0.7891,-0.2422,17.26,-34.21,16.52
583,96067658,0.5850,-0.7925,-0.2563,14.33,-34.88,15.91
584,96072658,0.5928,-0.7959,-0.2744,10.91,-35.30,15.37
585,96077657,0.5991,-0.8032,-0.2988,7.26,-35.55,14.82
586,96082658,0.6040,-0.8091,-0.3110,3.48,-35.91,14.21
587,96087658,0.6104,-0.8208,-0.3247,-0.12,-36.04,13.60
588,96092913,0.6143,-0.8218,-0.3403,-3.54,-36.34,12.93
589,96097658,0.6191,-0.8262,-0.3584,-6.65,-36.46,12.26
590,96102664,0.6313,-0.8252,-0.3755,-9.33,-36.59,11.46
591,96107658,0.6338,-0.8262,-0.3960,-11.65,-36.71,10.61
592,96112657,0.6353,-0.8242,-0.4160,-13.54,-36.71,9.70
593,96118026,0.6372,-0.8296,-0.4326,-15.37,-36.34,8.90
594,96122658,0.6353,-0.8296,-0.4536,-16.77,-36.22,7.93
595,96127658,0.6421,-0.8301,-0.4873,-18.41,-35.73,6.65
596,96132658,0.6362,-0.8335,-0.5156,-19.27,-35.37,5.73
597,96137658,0.6436,-0.8345,-0.5396,-20.37,-34.82,4.63
598,96142931,0.6479,-0.8315,-0.5771,-21.59,-34.09,3.60
599,96147658,0.6484,-0.8315,-0.6211,-23.11,-33.29,2.38
600,96152658,0.6553,-0.8257,-0.6572,-25.12,-32.26,1.16
601,96157658,0.6646,-0.8320,-0.6880,-27.50,-30.85,-0.06
602,96162658,0.6650,-0.8354,-0.7188,-30.55,-29.39,-1.28
603,96167658,0.6670,-0.8462,-0.7349,-33.96,-27.62,-2.50
604,96172658,0.6895,-0.8604,-0.7388,-38.17,-25.73,-3.72
605,96177982,0.6602,-0.8643,-0.7979,-43.41,-23.54,-4.88
606,96182658,0.6948,-0.8760,-0.8486,-48.35,-21.16,-6.10
607,96187891,0.7402,-0.8706,-0.8643,-52.62,-18.72,-7.07
608,96192657,0.7080,-0.8706,-0.8896,-56.40,-16.22,-8.05
609,96197660,0.6895,-0.8813,-0.9263,-59.51,-13.29,-9.09
610,96202658,0.6846,-0.8960,-0.9424,-62.20,-9.94,-10.06
611,96207658,0.6816,-0.9092,-0.9683,-64.51,-6.52,-11.10
612,96212658,0.6704,-0.9053,-0.9990,-66.71,-2.80,-12.26
613,96218053,0.6602,-0.9072,-1.0278,-69.02,1.22,-13.48
614,96222658,0.6460,-0.9058,-1.0488,-71.71,5.43,-14.88
615,96227665,0.6357,-0.9043,-1.0586,-74.51,9.82,-16.40
616,96232658,0.6211,-0.9004,-1.0825,-77.68,14.39,-17.99
617,96237658,0.6079,-0.8901,-1.0957,-81.16,18.90,-19.57
618,96242658,0.5938,-0.8906,-1.1104,-84.70,23.72,-21.28
619,96247658,0.5869,-0.8877,-1.1284,-88.17,28.54,-22.80
620,96252658,0.5762,-0.8838,-1.1367,-91.59,33.35,-24.51
621,96257656,0.5645,-0.8770,-1.1475,-94.82,38.29,-25.98
622,96262658,0.5562,-0.8706,-1.1597,-97.99,43.23,-27.50
623,96267657,0.5430,-0.8633,-1.1636,-101.10,48.41,-28.90
624,96272658,0.5278,-0.8647,-1.1680,-104.27,53.60,-30.24
625,96277658,0.4971,-0.8477,-1.1704,-107.68,58.90,-31.59
626,96282658,0.4736,-0.8169,-1.1885,-111.65,64.15,-33.05
627,96287656,0.4912,-0.8203,-1.1851,-115.06,69.39,-34.21
628,96292658,0.4873,-0.8208,-1.1855,-118.11,74.70,-35.12
629,96297657,0.4512,-0.8120,-1.1846,-120.73,80.00,-35.79
630,96302657,0.4272,-0.8042,-1.1812,-122.87,85.91,-36.46
631,96307658,0.4170,-0.7964,-1.1685,-124.63,90.37,-36.77
632,96312658,0.4048,-0.7896,-1.1533,-125.91,95.79,-36.89
633,96317658,0.3848,-0.7861,-1.1362,-126.89,101.16,-36.77
634,96322658,0.3687,-0.7754,-1.1250,-127.68,106.40,-36.52
635,96327660,0.3555,-0.7656,-1.1104,-128.17,111.59,-36.22
636,96332657,0.3428,-0.7529,-1.0986,-128.54,116.59,-35.79
637,96337658,0.3228,-0.7393,-1.0718,-129.09,121.52,-35.06
638,96342657,0.3066,-0.7285,-1.0571,-129.70,126.34,-34.39
639,96347658,0.2861,-0.7178,-1.0371,-130.43,131.10,-33.48
640,96352659,0.2739,-0.7070,-1.0093,-131.40,135.85,-32.44
641,96357658,0.2593,-0.6968,-0.9907,-132.50,140.43,-31.28
642,96362658,0.2432,-0.6851,-0.9541,-133.60,144.94,-30.00
643,96367658,0.2246,-0.6738,-0.9312,-134.94,149.27,-28.72
644,96372658,0.2065,-0.6685,-0.9023,-136.22,153.54,-27.20
645,96377812,0.1924,-0.6553,-0.8706,-137.62,157.68,-25.61
646,96382658,0.1797,-0.6440,-0.8389,-139.15,161.77,-23.90
647,96387658,0.1646,-0.6382,-0.8174,-140.79,165.61,-21.89
648,96392658,0.1528,-0.6309,-0.7852,-142.44,169.45,-19.76
649,96397925,0.1353,-0.6172,-0.7583,-144.02,172.80,-17.50
650,96402658,0.1289,-0.6133,-0.7285,-145.73,176.34,-15.06
651,96407658,0.1089,-0.6060,-0.7070,-147.32,179.63,-12.44
652,96412658,0.0977,-0.5981,-0.6812,-148.78,182.99,-9.76
653,96418140,0.0820,-0.5894,-0.6538,-150.06,186.10,-6.83
654,96422658,0.0723,-0.5776,-0.6191,-151.22,189.09,-3.90
655,96427658,0.0630,-0.5649,-0.5967,-152.20,191.89,-0.91
656,96432658,0.0566,-0.5601,-0.5679,-152.93,194.82,2.32
657,96437658,0.0542,-0.5537,-0.5400,-153.17,197.38,5.61
658,96442767,0.0410,-0.5430,-0.5156,-153.11,199.94,8.90
659,96447658,0.0342,-0.5400,-0.4878,-152.93,202.20,12.44
660,96452658,0.0259,-0.5366,-0.4619,-152.20,204.33,16.04
661,96457658,0.0210,-0.5303,-0.4326,-151.10,206.46,19.70
662,96462658,0.0137,-0.5254,-0.3999,-149.39,208.60,23.35
663,96467984,0.0039,-0.5122,-0.3696,-147.20,210.37,27.01
664,96472658,0.0015,-0.5049,-0.3506,-144.70,212.38,30.67
665,96478002,-0.0044,-0.4932,-0.3130,-141.71,214.09,34.09
666,96482658,-0.0181,-0.4883,-0.2798,-138.66,216.10,37.62
667,96487877,-0.0254,-0.4766,-0.2544,-135.24,217.99,40.85
668,96492658,-0.0283,-0.4688,-0.2183,-132.07,219.76,44.02
669,96497658,-0.0415,-0.4658,-0.1904,-128.84,221.77,47.26
670,96502658,-0.0464,-0.4580,-0.1553,-125.73,223.78,50.49
671,96507658,-0.0547,-0.4561,-0.1211,-122.80,225.73,53.54
672,96512658,-0.0312,-0.4629,-0.0903,-120.06,227.68,56.65
673,96517658,-0.0400,-0.4536,-0.0610,-117.38,229.76,59.88
674,96522658,-0.0649,-0.4463,-0.0347,-114.76,231.77,63.05
675,96527658,-0.0820,-0.4424,-0.0063,-111.83,233.84,66.40
676,96532658,-0.0981,-0.4463,0.0327,-109.09,235.98,69.70
677,96537658,-0.1089,-0.4478,0.0742,-106.46,238.23,72.93
678,96542661,-0.1182,-0.4580,0.1167,-103.84,240.49,76.34
679,96547658,-0.1279,-0.4678,0.1494,-101.34,242.80,79.88
680,96552658,-0.1411,-0.4746,0.1895,-98.66,245.24,83.29
681,96557658,-0.1489,-0.4790,0.2251,-96.59,247.20,86.59
682,96562659,-0.1548,-0.4858,0.2671,-93.05,250.24,90.43
683,96567658,-0.1704,-0.4917,0.3047,-90.61,252.62,93.35
684,96572658,-0.1860,-0.4971,0.3613,-86.46,256.22,97.68
685,96577658,-0.1929,-0.5054,0.3965,-83.66,258.90,100.55
686,96582658,-0.2139,-0.5122,0.4556,-79.88,262.20,103.96
687,96587656,-0.2241,-0.5332,0.5142,-75.98,265.79,107.38
688,96592656,-0.2427,-0.5527,0.5820,-71.95,269.70,110.61
689,96597657,-0.2588,-0.5840,0.6543,-67.62,273.96,113.66
690,96602674,-0.2900,-0.6152,0.7295,-62.80,278.35,116.71
691,96607657,-0.3281,-0.6558,0.8169,-57.80,282.74,119.51
692,96612658,-0.3857,-0.6919,0.9082,-51.83,288.23,122.68
693,96618450,-0.4531,-0.6758,0.9839,-47.62,293.17,125.12
694,96622659,-0.5381,-0.7017,1.0933,-44.27,296.65,126.83
695,96628111,-0.5771,-0.7012,1.1743,-39.39,302.26,129.45
696,96632658,-0.5791,-0.7637,1.2451,-36.71,305.73,131.04
697,96637658,-0.6553,-0.7603,1.3184,-33.29,309.76,132.93
698,96642658,-0.7583,-0.6831,1.3877,-28.84,313.48,134.45
699,96648101,-0.8105,-0.6909,1.5049,-22.87,317.13,136.22
700,96652658,-0.8647,-0.7344,1.5742,-17.99,318.41,137.50
701,96657659,-0.9058,-0.7715,1.5908,-10.91,320.43,139.33
702,96662683,-0.8926,-0.7900,1.6919,-2.56,321.16,141.46
703,96667658,-0.8633,-0.8384,1.7817,7.07,320.18,143.78
704,96672658,-0.8970,-0.8403,1.8086,17.56,318.60,146.46
705,96677658,-0.9268,-0.8301,1.8892,29.76,315.43,149.15
706,96682658,-0.9253,-0.8467,2.0176,42.80,310.37,152.32
707,96687658,-0.8438,-0.8931,2.1221,59.27,302.50,156.46
708,96692658,-0.8218,-0.8442,2.1636,70.43,296.95,159.45
709,96697898,-0.8794,-0.8569,2.2534,89.15,284.76,164.21
710,96702659,-0.9185,-0.7393,2.3281,102.01,276.77,167.62
711,96707658,-0.9570,-0.7285,2.4912,118.11,264.21,172.20
712,96712658,-1.0088,-0.7485,2.5957,133.23,250.55,177.32
713,96717658,-1.1279,-0.7417,2.6812,145.61,237.07,182.68
714,96722658,-1.2153,-0.7261,2.8281,154.21,221.77,188.54
715,96727658,-1.2729,-0.6777,2.9961,159.27,204.76,194.63
716,96732658,-1.4609,-0.6357,3.1006,161.65,186.89,201.10
717,96737658,-1.5493,-0.5986,3.2075,161.16,167.13,208.23
718,96742658,-1.6021,-0.5791,3.3008,158.29,144.45,216.10
719,96747658,-1.5483,-0.5811,3.4521,153.60,118.35,225.43
720,96752658,-1.4302,-0.5688,3.5938,146.89,90.06,236.71
721,96758028,-1.3252,-0.5054,3.7363,135.61,52.32,252.38
722,96762658,-1.3188,-0.4526,3.8394,126.46,25.06,264.02
723,96767658,-1.3647,-0.3740,3.9668,114.02,-11.04,279.63
724,96772658,-1.4395,-0.3145,4.0566,102.38,-49.51,296.34
725,96777658,-1.5181,-0.3105,4.1377,93.35,-89.94,314.15
726,96782658,-1.6211,-0.3281,4.2002,88.41,-131.95,332.93
727,96787660,-1.7593,-0.4033,4.2573,88.23,-174.63,352.32
728,96792658,-1.9360,-0.5151,4.2729,93.05,-218.11,371.95
729,96797658,-2.1426,-0.6426,4.2456,102.68,-261.52,391.16
730,96802658,-2.3555,-0.7974,4.2124,115.55,-304.94,409.82
731,96808115,-2.6050,-0.9717,4.1631,132.87,-353.84,431.04
732,96812658,-2.7754,-1.0991,4.1118,144.33,-385.73,444.63
733,96817658,-2.9927,-1.2700,4.0298,158.05,-424.27,460.61
734,96822658,-3.2476,-1.4541,3.9385,170.24,-461.46,475.43
735,96827822,-3.4873,-1.6289,3.8267,180.30,-497.26,489.09
736,96832775,-3.7412,-1.8628,3.6753,188.35,-537.93,503.48
737,96837658,-3.8901,-1.9790,3.5771,191.46,-564.02,511.59
738,96842658,-4.0825,-2.1323,3.4277,192.87,-595.00,519.76
739,96847659,-4.2959,-2.2788,3.2998,191.16,-624.45,525.67
740,96852658,-4.4941,-2.4487,3.1616,186.95,-652.68,529.70
741,96857658,-4.6553,-2.6348,2.9858,181.22,-678.90,532.07
742,96862657,-4.7695,-2.8594,2.7900,175.30,-703.29,533.23
743,96867658,-4.8252,-3.1040,2.5840,170.61,-726.16,533.48
744,96872658,-4.8755,-3.3252,2.3716,166.52,-746.83,532.68
745,96877657,-4.9209,-3.5366,2.1416,162.26,-765.12,529.94
746,96882656,-4.9712,-3.7017,1.9141,157.56,-780.91,524.51
747,96887658,-4.9854,-3.9229,1.7476,151.34,-793.29,516.22
748,96892657,-4.8789,-3.9897,1.5195,145.49,-801.89,505.06
749,96897656,-4.5288,-3.9609,1.3091,139.09,-805.30,490.73
750,96902658,-4.7422,-3.7461,0.9180,129.63,-803.96,472.26
751,96907659,-5.2847,-3.6226,0.6675,111.89,-799.63,448.90
752,96912659,-5.1265,-3.6064,0.5029,84.15,-791.40,420.43
753,96917658,-4.6875,-3.6016,0.2026,49.57,-777.13,387.26
754,96922870,-4.3628,-3.6885,-0.1929,12.26,-759.94,350.24
755,96927658,-4.2856,-3.8462,-0.7139,-22.01,-742.62,311.34
756,96932658,-4.1860,-3.9087,-1.1523,-49.82,-725.30,270.67
757,96937658,-3.9009,-3.8770,-1.3945,-70.73,-706.71,228.11
758,96942658,-3.6538,-3.8174,-1.6235,-86.83,-685.06,183.72
759,96947813,-3.5498,-3.7837,-1.8354,-98.48,-660.91,138.35
760,96952658,-3.4189,-3.7773,-2.0371,-105.55,-634.39,93.17
761,96957658,-3.1997,-3.7036,-2.1860,-109.51,-606.40,49.15
762,96962658,-3.0000,-3.6152,-2.3247,-110.73,-575.98,5.73
763,96967659,-2.7524,-3.5220,-2.4258,-110.24,-543.48,-35.98
764,96972658,-2.5332,-3.4062,-2.5000,-108.48,-509.88,-75.37
765,96978007,-2.3242,-3.2490,-2.5151,-105.91,-475.30,-111.95
766,96982660,-2.1094,-3.0562,-2.4927,-102.68,-440.67,-145.18
767,96987661,-1.8848,-2.8574,-2.4473,-98.78,-406.22,-175.06
768,96992658,-1.6973,-2.6572,-2.4019,-93.66,-372.68,-201.04
769,96997658,-1.5166,-2.4575,-2.3364,-87.01,-340.49,-222.87
770,97002658,-1.3281,-2.2515,-2.2700,-78.60,-309.63,-241.04
771,97007658,-1.1948,-2.0576,-2.2041,-68.11,-280.12,-255.49
772,97012658,-1.0864,-1.8760,-2.1392,-55.43,-252.13,-266.52
773,97017657,-0.9468,-1.7134,-2.0781,-40.43,-225.67,-274.51
774,97022658,-0.8120,-1.5708,-2.0186,-23.05,-200.91,-279.27
775,97027658,-0.6948,-1.4321,-1.9766,-3.66,-177.68,-281.52
776,97032658,-0.5947,-1.2988,-1.9263,16.95,-155.91,-281.40
777,97037658,-0.4761,-1.1851,-1.8716,37.80,-135.73,-279.70
778,97042658,-0.3931,-1.0835,-1.8101,58.17,-117.20,-276.22
779,97047658,-0.3369,-0.9731,-1.7417,76.52,-100.12,-271.46
780,97052658,-0.2842,-0.8623,-1.6650,91.95,-84.51,-265.85
781,97057658,-0.2173,-0.7656,-1.5898,102.87,-70.06,-259.57
782,97062657,-0.1489,-0.6787,-1.5415,109.45,-56.83,-252.93
783,97067658,-0.0952,-0.5928,-1.4819,111.52,-44.57,-245.67
784,97072656,-0.0498,-0.5132,-1.4258,109.15,-33.23,-238.48
785,97077658,0.0029,-0.4390,-1.3721,102.93,-22.62,-231.10
786,97082658,0.0469,-0.3691,-1.3174,93.48,-12.87,-223.54
787,97087658,0.0610,-0.2988,-1.2534,81.28,-3.60,-215.91
788,97092658,0.0815,-0.2402,-1.1870,67.13,4.88,-208.17
789,97097658,0.1001,-0.1841,-1.1313,52.74,12.80,-200.30
790,97102659,0.1421,-0.1436,-1.0576,39.09,20.18,-192.44
791,97107659,0.1562,-0.0708,-1.0063,26.95,27.20,-184.33
792,97112657,0.1729,-0.0586,-0.9531,16.77,33.48,-175.98
793,97117659,0.2017,-0.0430,-0.9077,8.84,38.78,-167.13
794,97122658,0.2207,-0.0337,-0.8755,2.62,43.54,-157.80
795,97127658,0.2520,-0.0161,-0.8530,-1.71,47.68,-148.05
796,97132658,0.2773,0.0210,-0.8115,-4.45,51.22,-138.17
797,97138133,0.3110,0.0449,-0.7783,-5.91,53.90,-128.17
798,97142658,0.3467,0.0649,-0.7461,-5.98,56.28,-117.99
799,97147658,0.3618,0.0732,-0.7095,-5.12,58.11,-107.93
800,97152658,0.3862,0.0786,-0.6733,-3.41,59.39,-97.99
801,97157660,0.4087,0.0830,-0.6250,-1.10,60.67,-88.23
802,97162657,0.4155,0.0830,-0.5923,1.40,61.40,-78.60
803,97167659,0.4268,0.0874,-0.5576,3.66,62.01,-69.45
804,97172658,0.4390,0.0845,-0.5190,5.43,62.32,-60.67
805,97177657,0.4492,0.0684,-0.4712,6.34,62.68,-52.26
806,97182656,0.4575,0.0547,-0.4268,6.16,62.93,-44.15
807,97187659,0.4639,0.0474,-0.3994,4.51,63.29,-36.46
808,97192656,0.4702,0.0356,-0.3657,1.28,63.72,-29.33
809,97197659,0.4756,0.0249,-0.3354,-3.41,64.21,-22.32
810,97202658,0.4805,0.0146,-0.3091,-9.39,64.76,-15.91
811,97207658,0.4854,0.0005,-0.2715,-16.40,65.18,-9.76
812,97212658,0.4917,-0.0117,-0.2417,-24.09,65.49,-3.90
813,97217658,0.5020,-0.0244,-0.2124,-32.13,65.73,1.52
814,97222658,0.5146,-0.0347,-0.1826,-40.06,65.91,6.71
815,97227658,0.5283,-0.0488,-0.1431,-47.74,65.67,11.65
816,97232658,0.5454,-0.0527,-0.1138,-54.82,65.24,16.28
817,97237658,0.5576,-0.0708,-0.0869,-60.98,64.63,20.85
818,97243132,0.5791,-0.0884,-0.0610,-66.28,63.72,25.12
819,97247658,0.5942,-0.1133,-0.0308,-70.55,62.56,29.33
820,97252658,0.6069,-0.1313,-0.0005,-73.60,61.40,33.41
821,97257658,0.6265,-0.1533,0.0303,-75.67,59.82,37.26
822,97262658,0.6460,-0.1763,0.0610,-76.28,58.29,40.98
823,97267658,0.6606,-0.1982,0.0811,-76.04,57.01,43.84
824,97272660,0.6738,-0.2217,0.1050,-74.70,55.37,47.20
825,97277657,0.6919,-0.2461,0.1216,-72.74,53.66,50.37
826,97282750,0.7061,-0.2803,0.1523,-69.51,51.95,53.78
827,97287658,0.7158,-0.2944,0.1685,-67.20,50.91,55.85
828,97292657,0.7305,-0.3213,0.1841,-64.15,49.63,58.17
829,97297661,0.7500,-0.3452,0.1973,-60.91,47.99,60.55
830,97302658,0.7578,-0.3604,0.2007,-59.21,46.71,61.89
831,97307658,0.7739,-0.3755,0.2183,-57.32,44.88,63.48
832,97312658,0.7876,-0.3901,0.2256,-56.34,43.60,64.09
833,97317658,0.7998,-0.4048,0.2383,-55.79,41.95,64.70
834,97322658,0.8066,-0.4194,0.2388,-55.73,40.61,64.94
835,97327658,0.8218,-0.4424,0.2461,-56.52,38.66,64.94
836,97332658,0.8252,-0.4546,0.2500,-57.68,37.50,64.94
837,97337658,0.8340,-0.4688,0.2642,-59.82,36.04,64.63
838,97342670,0.8364,-0.4893,0.2715,-62.74,34.63,64.21
839,97347658,0.8413,-0.5054,0.2769,-66.40,33.41,63.72
840,97352658,0.8364,-0.5181,0.2949,-70.79,32.32,63.11
841,97357658,0.8296,-0.5347,0.2998,-75.43,31.16,62.56
842,97362658,0.8242,-0.5562,0.3057,-81.46,30.12,62.01
843,97367658,0.8276,-0.5640,0.3101,-85.49,29.39,61.59
844,97372658,0.8228,-0.5840,0.3174,-90.30,28.60,60.98
845,97377660,0.8208,-0.6021,0.3193,-94.88,27.80,60.43
846,97382658,0.8237,-0.6084,0.3237,-98.48,26.95,59.82
847,97387658,0.8115,-0.6055,0.3228,-101.22,26.22,59.27
848,97392658,0.8081,-0.6123,0.3247,-103.23,25.24,58.48
849,97397658,0.8481,-0.6348,0.3086,-104.45,24.63,57.99
850,97402658,0.8325,-0.6362,0.3047,-104.63,23.90,57.74
851,97407657,0.8096,-0.6484,0.3052,-103.90,23.17,57.38
852,97412658,0.8120,-0.6548,0.3096,-102.56,22.56,57.01
853,97417658,0.8105,-0.6641,0.3154,-99.94,21.89,56.89
854,97422658,0.8135,-0.6689,0.3105,-97.74,21.59,56.71
855,97427658,0.7920,-0.6719,0.3071,-94.21,21.04,56.52
856,97432658,0.7847,-0.6709,0.3071,-91.59,20.79,56.34
857,97437658,0.7705,-0.6733,0.3149,-88.11,20.49,56.10
858,97442658,0.7603,-0.6738,0.3130,-84.51,20.24,55.85
859,97447658,0.7510,-0.6758,0.3120,-81.04,20.12,55.37
860,97452658,0.7461,-0.6738,0.3110,-77.20,20.06,55.06
861,97457658,0.7510,-0.6729,0.3047,-73.72,20.00,54.45
862,97462658,0.7417,-0.6719,0.2983,-70.43,20.00,53.84
863,97467658,0.7412,-0.6709,0.2915,-67.38,20.00,53.17
864,97472658,0.7339,-0.6768,0.2910,-64.70,19.82,52.38
865,97477660,0.7241,-0.6777,0.2959,-62.44,19.88,51.77
866,97482657,0.7153,-0.6777,0.2803,-60.67,19.88,51.04
867,97487658,0.7090,-0.6792,0.2754,-59.39,19.70,50.49
868,97492658,0.7017,-0.6826,0.2798,-58.66,19.76,50.06
869,97498074,0.6963,-0.6812,0.2803,-58.17,19.57,49.70
870,97502659,0.6948,-0.6870,0.2808,-58.29,19.45,49.45
871,97507657,0.6860,-0.6812,0.2808,-58.60,19.51,49.27
872,97512658,0.6753,-0.6836,0.2817,-59.09,19.57,49.15
873,97517658,0.6616,-0.6812,0.2783,-59.57,19.57,49.02
874,97522658,0.6533,-0.6753,0.2827,-60.18,19.70,48.96
875,97527659,0.6431,-0.6709,0.2866,-60.49,19.76,48.84
876,97532658,0.6421,-0.6704,0.2881,-60.73,19.70,48.90
877,97537658,0.6465,-0.6738,0.2939,-60.67,19.63,48.84
878,97542658,0.6455,-0.6772,0.3003,-60.43,19.51,49.02
879,97547886,0.6523,-0.6841,0.2925,-60.12,19.27,49.15
880,97552658,0.6538,-0.6904,0.2915,-59.51,18.96,49.33
881,97557658,0.6592,-0.6855,0.2896,-58.90,18.60,49.76
882,97562658,0.6606,-0.6812,0.2832,-58.48,18.29,50.06
883,97567991,0.6562,-0.6792,0.2827,-58.05,17.68,50.49
884,97572658,0.6519,-0.6748,0.2900,-57.68,17.32,50.79
885,97577658,0.6484,-0.6680,0.2837,-57.38,17.01,51.10
886,97582660,0.6523,-0.6665,0.3027,-57.20,16.65,51.40
887,97587658,0.6440,-0.6611,0.2969,-57.01,16.34,51.59
888,97592658,0.6382,-0.6655,0.3008,-56.77,16.46,51.83
889,97597699,0.6353,-0.6606,0.3086,-56.59,16.34,52.13
890,97602658,0.6406,-0.6616,0.3130,-56.22,16.46,52.44
891,97607658,0.6445,-0.6567,0.3081,-55.85,16.71,52.80
892,97612658,0.6460,-0.6587,0.3027,-55.43,16.89,53.29
893,97617658,0.6499,-0.6567,0.3022,-54.94,17.13,53.96
894,97622902,0.6548,-0.6577,0.2891,-54.39,17.20,54.57
895,97627658,0.6533,-0.6582,0.2861,-53.48,17.13,55.43
896,97632658,0.6548,-0.6602,0.2842,-52.32,16.89,56.28
897,97637658,0.6538,-0.6616,0.2832,-50.91,16.77,57.13
898,97642658,0.6582,-0.6597,0.2842,-49.39,16.22,57.87
899,97647658,0.6572,-0.6548,0.2754,-47.74,15.61,58.66
900,97652658,0.6641,-0.6528,0.2705,-46.16,15.12,59.45
901,97657658,0.6641,-0.6499,0.2759,-44.63,14.21,60.12
902,97662658,0.6636,-0.6509,0.2739,-43.29,13.41,60.85
903,97667658,0.6626,-0.6494,0.2710,-42.13,12.50,61.40
904,97673074,0.6577,-0.6475,0.2695,-41.22,11.59,62.07
905,97677658,0.6548,-0.6455,0.2700,-40.43,10.49,62.56
906,97682658,0.6509,-0.6475,0.2783,-39.76,9.51,63.17
907,97687658,0.6455,-0.6538,0.2822,-39.15,8.60,63.72
908,97692661,0.6421,-0.6675,0.2842,-38.72,7.62,64.15
909,97697658,0.6357,-0.6797,0.2900,-38.54,6.59,64.70
910,97702657,0.6343,-0.6919,0.2930,-38.41,5.67,65.30
911,97707732,0.6362,-0.6987,0.2866,-38.29,4.70,66.04
912,97712657,0.6396,-0.7188,0.2827,-38.41,3.90,66.65
913,97717660,0.6421,-0.7461,0.2842,-38.35,2.74,67.38
914,97722824,0.6519,-0.7695,0.2822,-37.93,1.83,68.17
915,97727658,0.6523,-0.7856,0.2764,-37.32,0.91,68.84
916,97733139,0.6587,-0.7969,0.2773,-36.40,0.12,69.33
917,97738194,0.6641,-0.7993,0.2783,-35.30,-0.67,69.76
918,97742658,0.6665,-0.8018,0.2739,-34.02,-1.40,69.94
919,97747658,0.6694,-0.8008,0.2812,-32.99,-1.95,70.12
920,97752658,0.6768,-0.8071,0.2886,-31.77,-2.62,69.94
921,97757658,0.6792,-0.8169,0.2935,-30.43,-3.17,69.82
922,97762658,0.6792,-0.8267,0.3013,-29.33,-3.72,69.45
923,97767658,0.6782,-0.8359,0.3179,-28.05,-4.39,69.02
924,97772658,0.6719,-0.8408,0.3223,-26.71,-5.00,68.41
925,97777658,0.6660,-0.8491,0.3276,-25.55,-5.67,67.87
926,97782657,0.6685,-0.8530,0.3223,-24.21,-6.28,67.20
927,97787658,0.6646,-0.8691,0.3193,-23.05,-7.07,66.65
928,97792658,0.6709,-0.8892,0.3179,-21.65,-8.05,66.10
929,97797658,0.6719,-0.9106,0.3096,-20.12,-8.90,65.67
930,97802730,0.6826,-0.9238,0.3081,-18.54,-9.70,65.18
931,97807658,0.6826,-0.9302,0.2964,-16.77,-10.61,64.82
932,97813033,0.6865,-0.9385,0.2925,-15.18,-11.10,64.27
933,97817658,0.6899,-0.9424,0.2866,-13.72,-11.71,63.66
934,97822926,0.6978,-0.9390,0.2651,-12.32,-12.26,62.87
935,97827658,0.7007,-0.9370,0.2568,-11.34,-12.44,62.01
936,97832658,0.7007,-0.9395,0.2393,-10.79,-12.74,61.04
937,97837658,0.6943,-0.9404,0.2271,-10.49,-12.74,60.06
938,97842658,0.6919,-0.9404,0.2183,-10.55,-13.05,59.02
939,97847658,0.6890,-0.9424,0.2144,-10.85,-13.05,58.05
940,97852658,0.6826,-0.9468,0.2061,-11.16,-12.99,56.89
941,97857658,0.6763,-0.9458,0.2021,-11.46,-13.11,55.73
942,97862658,0.6743,-0.9507,0.1938,-11.65,-13.05,54.45
943,97867658,0.6685,-0.9517,0.1919,-11.65,-13.23,53.17
944,97872658,0.6597,-0.9624,0.1914,-11.52,-13.35,51.83
945,97877658,0.6553,-0.9600,0.1870,-11.04,-13.60,50.43
946,97883090,0.6514,-0.9668,0.1748,-10.12,-13.78,48.90
947,97887658,0.6455,-0.9678,0.1714,-9.09,-13.96,47.44
948,97892658,0.6377,-0.9727,0.1753,-7.87,-14.09,45.91
949,97897928,0.6333,-0.9795,0.1685,-6.28,-14.09,44.45
950,97902658,0.6382,-0.9863,0.1553,-5.00,-14.27,43.17
951,97907710,0.6328,-0.9858,0.1411,-2.87,-14.15,41.16
952,97912658,0.6328,-0.9907,0.1279,-1.59,-14.02,39.82
953,97917658,0.6284,-0.9927,0.1128,0.37,-13.84,37.80
954,97922661,0.6274,-0.9995,0.1079,1.65,-13.54,36.04
955,97927658,0.6260,-0.9990,0.1035,2.50,-13.35,34.76
956,97932662,0.6226,-0.9971,0.0898,3.48,-12.99,33.17
957,97937661,0.6187,-1.0000,0.0850,4.27,-12.56,31.59
958,97942661,0.6201,-0.9932,0.0786,4.76,-11.95,29.63
959,97947658,0.6162,-0.9927,0.0791,4.88,-11.52,28.48
960,97952659,0.6167,-0.9941,0.0771,4.70,-11.10,26.83
961,97957658,0.6108,-0.9907,0.0723,4.57,-10.55,25.37
962,97962658,0.6128,-0.9883,0.0674,4.15,-10.00,23.96
963,97967658,0.6138,-0.9868,0.0674,3.66,-9.39,22.50
964,97972751,0.6133,-0.9839,0.0654,2.87,-8.66,20.85
965,97977657,0.6143,-0.9814,0.0610,2.38,-8.11,19.76
966,97983045,0.6050,-0.9785,0.0581,1.52,-7.26,18.17
967,97987658,0.6035,-0.9780,0.0498,0.91,-6.77,17.07
968,97992658,0.6030,-0.9702,0.0464,0.30,-6.22,15.85
969,97997658,0.6055,-0.9673,0.0400,-0.37,-5.61,14.70
970,98003129,0.6055,-0.9624,0.0400,-0.79,-5.00,13.41
971,98007658,0.5996,-0.9585,0.0342,-0.98,-4.63,12.56
972,98012658,0.5972,-0.9512,0.0317,-0.91,-4.21,11.52
973,98017657,0.5972,-0.9458,0.0273,-0.85,-3.84,10.67
974,98022658,0.5933,-0.9473,0.0288,-0.55,-3.41,9.76
975,98027710,0.5942,-0.9443,0.0332,-0.12,-3.11,8.96
976,98032658,0.5933,-0.9414,0.0278,0.55,-2.80,8.41
977,98037658,0.5928,-0.9409,0.0342,1.40,-2.74,7.68
978,98042658,0.5894,-0.9346,0.0288,2.20,-2.68,7.13
979,98047658,0.5894,-0.9341,0.0308,3.17,-2.62,6.46
980,98052658,0.5864,-0.9263,0.0352,4.02,-2.62,6.04
981,98057658,0.5835,-0.9204,0.0391,5.12,-2.80,5.49
982,98062658,0.5850,-0.9180,0.0435,5.67,-2.93,5.12
983,98067658,0.5825,-0.9165,0.0410,6.10,-3.11,4.57
984,98072658,0.5845,-0.9077,0.0376,6.46,-3.35,4.21
985,98077658,0.5796,-0.9097,0.0288,6.52,-3.54,3.84
986,98083174,0.5806,-0.9053,0.0308,6.28,-3.54,3.29
987,98087658,0.5757,-0.9043,0.0347,5.85,-3.72,3.05
988,98092657,0.5757,-0.9009,0.0322,5.12,-3.78,2.68
989,98097937,0.5737,-0.9023,0.0347,4.21,-3.96,2.38
990,98102657,0.5713,-0.8984,0.0347,3.17,-4.02,2.13
991,98107660,0.5645,-0.8936,0.0386,2.20,-4.02,1.77
992,98112657,0.5605,-0.8887,0.0352,1.22,-4.15,1.59
993,98117659,0.5547,-0.8882,0.0366,0.24,-4.27,1.16
994,98122658,0.5493,-0.8799,0.0381,-0.61,-4.45,1.04
995,98127856,0.5479,-0.8726,0.0342,-1.40,-4.57,0.85
996,98132658,0.5464,-0.8726,0.0396,-1.89,-4.63,0.67
997,98138117,0.5405,-0.8726,0.0381,-2.26,-4.76,0.61
998,98142658,0.5361,-0.8774,0.0352,-2.26,-4.76,0.55
999,98148009,0.5259,-0.8696,0.0391,-1.95,-5.06,0.43
1000,98152658,0.5254,-0.8706,0.0415,-1.71,-5.24,0.30
1001,98157658,0.5293,-0.8735,0.0376,-1.10,-5.43,0.18
1002,98162658,0.5210,-0.8774,0.0420,-0.55,-5.61,0.18
1003,98167658,0.5210,-0.8779,0.0439,0.18,-5.85,0.12
1004,98172658,0.5210,-0.8755,0.0513,1.04,-6.10,-0.06
1005,98177657,0.5205,-0.8726,0.0459,1.71,-6.34,-0.30
1006,98182658,0.5122,-0.8657,0.0488,2.38,-6.59,-0.37
1007,98187657,0.5112,-0.8652,0.0459,3.05,-6.71,-0.49
1008,98192656,0.5146,-0.8608,0.0454,3.48,-6.89,-0.55
1009,98197661,0.5107,-0.8530,0.0396,4.09,-7.13,-0.67
1010,98203903,0.5098,-0.8447,0.0435,4.39,-7.44,-0.67
1011,98207754,0.5112,-0.8472,0.0449,4.57,-7.56,-0.67
1012,98212658,0.5122,-0.8423,0.0386,4.63,-7.68,-0.55
1013,98217658,0.5171,-0.8403,0.0356,4.51,-7.93,-0.49
1014,98223014,0.5181,-0.8374,0.0342,4.15,-8.29,-0.24
1015,98227658,0.5132,-0.8281,0.0312,3.54,-8.54,0.00
1016,98232658,0.5107,-0.8281,0.0317,2.93,-8.78,0.24
1017,98237658,0.5103,-0.8232,0.0342,2.20,-9.15,0.55
1018,98242658,0.5078,-0.8174,0.0312,1.28,-9.45,0.85
1019,98247658,0.5068,-0.8154,0.0342,0.43,-9.88,1.10
1020,98252658,0.5122,-0.8257,0.0210,-0.61,-10.37,1.52
1021,98257656,0.4980,-0.7925,-0.0039,-2.44,-11.10,1.89
1022,98262658,0.4995,-0.7695,0.0020,-4.70,-11.65,2.01
1023,98267658,0.5098,-0.7773,0.0225,-6.52,-12.01,2.13
1024,98272658,0.5029,-0.7900,0.0200,-8.11,-12.62,2.44
1025,98277658,0.5015,-0.7935,0.0073,-10.00,-13.41,2.93
1026,98282658,0.4863,-0.7773,-0.0171,-12.44,-13.90,3.23
1027,98288106,0.4800,-0.7720,-0.0166,-14.82,-14.63,3.60
1028,98292658,0.4800,-0.7612,-0.0112,-17.32,-15.37,4.09
1029,98298070,0.4800,-0.7471,-0.0132,-19.57,-16.04,4.57
1030,98302658,0.4829,-0.7310,-0.0625,-22.13,-16.52,5.24
1031,98307658,0.4839,-0.7295,-0.0498,-24.94,-16.83,6.10
1032,98312658,0.4883,-0.7207,-0.0366,-27.80,-17.50,6.83
1033,98317658,0.4888,-0.7236,-0.0566,-30.61,-18.05,7.62
1034,98322659,0.4819,-0.7114,-0.0850,-32.99,-18.29,8.60
1035,98327657,0.4736,-0.7075,-0.0801,-35.30,-19.02,9.51
1036,98332658,0.4800,-0.7070,-0.0845,-37.50,-19.82,10.67
1037,98337657,0.4961,-0.6875,-0.1504,-39.15,-20.00,11.95
1038,98342656,0.4658,-0.6812,-0.1504,-39.88,-20.43,13.23
1039,98347659,0.4126,-0.6855,-0.1299,-40.79,-21.59,14.70
1040,98352657,0.3940,-0.6973,-0.1636,-42.01,-22.20,16.16
1041,98357658,0.3999,-0.7026,-0.1675,-42.87,-22.01,17.68
1042,98362702,0.3999,-0.6997,-0.1123,-43.29,-22.13,19.27
1043,98367657,0.3823,-0.7090,-0.1230,-43.11,-22.32,20.73
1044,98372658,0.3687,-0.7168,-0.1484,-42.50,-22.01,22.32
1045,98377658,0.3423,-0.7007,-0.1499,-41.40,-21.65,23.72
1046,98382658,0.2998,-0.6948,-0.1255,-39.94,-22.01,25.06
1047,98387658,0.3052,-0.7046,-0.1235,-38.05,-21.89,26.59
1048,98392658,0.2920,-0.6973,-0.1475,-35.67,-21.52,28.05
1049,98397658,0.2549,-0.6655,-0.1411,-33.35,-21.59,29.57
1050,98402658,0.2549,-0.6523,-0.1255,-31.22,-21.95,31.10
1051,98407658,0.2305,-0.6489,-0.1426,-29.33,-22.07,32.68
1052,98412658,0.2280,-0.6367,-0.1602,-27.93,-21.95,34.33
1053,98417658,0.2256,-0.6104,-0.1499,-26.46,-21.71,36.22
1054,98422658,0.2207,-0.5825,-0.1274,-25.30,-21.89,38.23
1055,98427658,0.2148,-0.5776,-0.1333,-24.27,-21.89,40.24
1056,98432658,0.2139,-0.5771,-0.1416,-23.35,-21.77,42.50
1057,98437658,0.2104,-0.5762,-0.1226,-22.38,-21.89,44.94
1058,98442658,0.2026,-0.5752,-0.1279,-21.77,-21.89,47.38
1059,98447658,0.1924,-0.5767,-0.1328,-21.22,-21.77,49.94
1060,98452658,0.1821,-0.5679,-0.1328,-20.91,-21.71,52.50
1061,98457658,0.1709,-0.5591,-0.1250,-20.79,-21.65,55.18
1062,98462658,0.1592,-0.5562,-0.1309,-20.91,-21.52,57.74
1063,98467658,0.1675,-0.5664,-0.1191,-21.46,-21.34,60.43
1064,98472658,0.1753,-0.5566,-0.1279,-22.13,-21.16,63.17
1065,98477658,0.1675,-0.5557,-0.1167,-22.62,-20.91,65.98
1066,98482980,0.1553,-0.5483,-0.1162,-23.29,-20.73,68.72
1067,98487658,0.1548,-0.5479,-0.1172,-23.78,-20.55,71.46
1068,98492658,0.1465,-0.5439,-0.1099,-24.27,-20.37,74.21
1069,98497659,0.1392,-0.5327,-0.1143,-24.57,-20.37,77.07
1070,98502658,0.1304,-0.5317,-0.1074,-24.76,-20.24,79.88
1071,98507660,0.1221,-0.5298,-0.1152,-24.70,-20.43,82.80
1072,98512658,0.1123,-0.5317,-0.1089,-24.57,-20.37,85.91
1073,98517658,0.1016,-0.5298,-0.1011,-24.51,-20.61,88.48
1074,98522658,0.0962,-0.5337,-0.1035,-24.27,-20.79,91.28
1075,98527658,0.0874,-0.5308,-0.1050,-24.02,-21.28,94.21
1076,98532864,0.0811,-0.5322,-0.1030,-23.84,-21.46,97.13
1077,98537658,0.0830,-0.5312,-0.1016,-23.90,-21.59,99.45
1078,98543015,0.0718,-0.5356,-0.1006,-24.15,-22.01,102.68
1079,98547658,0.0537,-0.5386,-0.0938,-24.57,-22.13,104.94
1080,98552880,0.0361,-0.5444,-0.0991,-25.67,-22.56,108.23
1081,98557658,0.0273,-0.5449,-0.0957,-26.59,-22.87,110.24
1082,98562661,0.0151,-0.5488,-0.0986,-28.05,-23.17,112.62
1083,98567658,-0.0044,-0.5552,-0.0991,-30.00,-23.54,115.00
1084,98572658,-0.0122,-0.5615,-0.0972,-32.50,-23.78,117.38
1085,98577658,-0.0151,-0.5674,-0.0991,-35.18,-24.27,119.70
1086,98582658,-0.0249,-0.5757,-0.0986,-38.35,-24.76,122.07
1087,98587658,-0.0337,-0.5840,-0.0898,-41.71,-25.37,124.45
1088,98592657,-0.0400,-0.5859,-0.0981,-45.43,-26.16,126.89
1089,98597658,-0.0469,-0.5869,-0.0874,-49.15,-27.01,129.57
1090,98602658,-0.0552,-0.5889,-0.0879,-52.87,-27.74,132.20
1091,98607658,-0.0654,-0.5894,-0.0898,-56.52,-28.84,135.06
1092,98612658,-0.0723,-0.5952,-0.0942,-60.18,-30.00,137.87
1093,98617688,-0.0830,-0.6040,-0.0981,-63.72,-31.28,140.79
1094,98622658,-0.0942,-0.6060,-0.1001,-67.56,-32.74,143.60
1095,98627658,-0.1074,-0.6079,-0.0928,-71.40,-34.02,146.59
1096,98632658,-0.1274,-0.6084,-0.0923,-75.18,-35.43,149.33
1097,98637658,-0.1450,-0.6050,-0.0962,-78.90,-36.77,152.01
1098,98643018,-0.1675,-0.6104,-0.1050,-83.11,-38.29,155.30
1099,98647658,-0.1855,-0.6182,-0.1064,-85.85,-39.57,157.32
1100,98653038,-0.2129,-0.6211,-0.1123,-89.76,-41.16,160.37
1101,98657658,-0.2295,-0.6318,-0.1221,-92.38,-42.44,162.44
1102,98662658,-0.2437,-0.6382,-0.1284,-95.30,-44.02,165.00
1103,98667658,-0.2588,-0.6465,-0.1401,-98.17,-45.55,167.32
1104,98672658,-0.2925,-0.6567,-0.1348,-100.73,-47.32,169.76
1105,98677658,-0.3120,-0.6670,-0.1504,-103.17,-49.33,172.20
1106,98682658,-0.3306,-0.6758,-0.1606,-105.30,-51.16,174.51
1107,98687658,-0.3525,-0.6782,-0.1694,-107.01,-53.05,176.89
1108,98692753,-0.3745,-0.6792,-0.1753,-108.17,-55.06,179.09
1109,98697657,-0.3931,-0.6758,-0.1885,-108.96,-57.20,181.16
1110,98702658,-0.4102,-0.6802,-0.1929,-109.27,-59.33,183.23
1111,98707710,-0.4292,-0.6909,-0.2139,-109.21,-61.65,185.49
1112,98712658,-0.4565,-0.7012,-0.2290,-108.78,-64.09,187.56
1113,98717658,-0.4785,-0.7085,-0.2490,-108.23,-66.65,189.63
1114,98722657,-0.5098,-0.7222,-0.2593,-107.50,-69.15,191.95
1115,98727658,-0.5361,-0.7305,-0.2764,-106.71,-71.59,194.02
1116,98732658,-0.5630,-0.7437,-0.2852,-105.67,-74.94,196.52
1117,98737658,-0.5806,-0.7524,-0.2993,-104.88,-77.07,198.17
1118,98742658,-0.5942,-0.7607,-0.3164,-103.90,-79.82,200.12
1119,98747658,-0.6123,-0.7632,-0.3296,-102.74,-82.20,201.83
1120,98752658,-0.6396,-0.7681,-0.3491,-101.28,-85.37,203.66
1121,98757658,-0.6665,-0.7695,-0.3550,-100.12,-87.26,204.51
1122,98762658,-0.6919,-0.7637,-0.3691,-98.60,-89.45,205.55
1123,98767658,-0.7275,-0.7661,-0.3823,-96.65,-91.71,206.04
1124,98772658,-0.7554,-0.7632,-0.3970,-94.45,-93.48,206.28
1125,98777657,-0.7759,-0.7661,-0.4106,-92.20,-95.00,206.16
1126,98782656,-0.8086,-0.7573,-0.4199,-89.70,-96.28,205.67
1127,98787658,-0.8384,-0.7588,-0.4326,-86.83,-97.38,204.94
1128,98792656,-0.8682,-0.7466,-0.4497,-83.96,-98.29,204.09
1129,98798248,-0.9062,-0.7407,-0.4653,-80.06,-98.96,202.50
1130,98803036,-0.9263,-0.7373,-0.4717,-76.46,-99.57,200.98
1131,98807658,-0.9297,-0.7207,-0.4648,-73.54,-99.70,199.70
1132,98812658,-0.9482,-0.7319,-0.4736,-69.70,-99.39,197.80
1133,98817658,-0.9658,-0.7178,-0.4844,-66.22,-99.21,195.91
1134,98822660,-0.9722,-0.7183,-0.4868,-62.68,-98.84,193.96
1135,98827659,-0.9839,-0.7158,-0.5029,-59.51,-98.35,192.20
1136,98832658,-0.9917,-0.7222,-0.5073,-56.28,-97.99,190.49
1137,98837659,-1.0049,-0.7290,-0.5132,-53.29,-97.56,188.72
1138,98842658,-1.0210,-0.7285,-0.5127,-50.61,-97.20,187.13
1139,98847658,-1.0400,-0.7256,-0.5269,-48.17,-96.46,185.61
1140,98852658,-1.0522,-0.7256,-0.5278,-46.10,-95.98,183.90
1141,98857658,-1.0610,-0.7217,-0.5308,-44.33,-95.12,182.07
1142,98862658,-1.0693,-0.7158,-0.5400,-42.74,-94.27,180.24
1143,98867658,-1.0801,-0.7139,-0.5439,-41.22,-93.48,178.23
1144,98872658,-1.0928,-0.7080,-0.5488,-39.88,-92.38,175.98
1145,98877658,-1.1074,-0.7002,-0.5493,-38.72,-90.91,173.72
1146,98882658,-1.1196,-0.6958,-0.5518,-37.44,-89.70,171.34
1147,98887658,-1.1333,-0.6831,-0.5566,-36.10,-88.41,168.84
1148,98892658,-1.1436,-0.6729,-0.5566,-34.76,-87.07,166.34
1149,98897658,-1.1641,-0.6650,-0.5703,-33.41,-85.67,163.78
1150,98902658,-1.1870,-0.6572,-0.5703,-32.32,-84.51,161.04
1151,98907658,-1.2017,-0.6484,-0.5718,-31.10,-83.29,158.35
1152,98912697,-1.2085,-0.6362,-0.5781,-30.06,-82.20,155.85
1153,98917658,-1.2188,-0.6240,-0.5776,-29.02,-81.10,153.29
1154,98922658,-1.2197,-0.6157,-0.5791,-28.05,-80.12,150.73
1155,98927658,-1.2290,-0.6064,-0.5806,-27.32,-79.09,148.11
1156,98932658,-1.2329,-0.5972,-0.5806,-26.52,-78.35,145.73
1157,98937658,-1.2334,-0.5977,-0.5776,-25.98,-77.62,143.41
1158,98942658,-1.2314,-0.5869,-0.5718,-25.43,-76.83,141.34
1159,98947658,-1.2329,-0.5820,-0.5620,-25.12,-76.10,139.21
1160,98952659,-1.2266,-0.5771,-0.5537,-25.00,-75.18,137.32
1161,98957900,-1.2285,-0.5684,-0.5464,-25.00,-74.39,135.55
1162,98962658,-1.2231,-0.5640,-0.5420,-25.00,-73.41,133.90
1163,98967658,-1.2100,-0.5625,-0.5298,-25.00,-72.62,132.50
1164,98972658,-1.2026,-0.5518,-0.5278,-25.06,-71.89,131.04
1165,98977658,-1.1929,-0.5454,-0.5186,-25.12,-71.10,129.88
1166,98983111,-1.1865,-0.5386,-0.5146,-25.12,-70.18,128.60
1167,98987660,-1.1758,-0.5298,-0.5166,-25.18,-69.45,127.44
1168,98992658,-1.1714,-0.5220,-0.4995,-25.18,-68.60,126.34
1169,98997658,-1.1611,-0.5166,-0.4951,-25.00,-67.87,125.24
1170,99003138,-1.1504,-0.5107,-0.4980,-25.06,-66.77,124.15
1171,99007658,-1.1318,-0.4995,-0.4795,-25.06,-66.04,123.05
1172,99012658,-1.1162,-0.4922,-0.4863,-25.24,-65.30,121.95
1173,99017658,-1.1108,-0.4800,-0.4795,-25.30,-64.57,120.67
1174,99022658,-1.1011,-0.4712,-0.4736,-25.37,-63.72,119.33
1175,99027658,-1.0962,-0.4609,-0.4683,-25.12,-62.93,117.87
1176,99032658,-1.0918,-0.4551,-0.4644,-24.88,-62.01,116.40
1177,99037658,-1.0845,-0.4453,-0.4629,-24.57,-61.10,114.70
1178,99042658,-1.0747,-0.4297,-0.4609,-24.15,-60.24,112.80
1179,99048119,-1.0591,-0.4253,-0.4556,-23.90,-59.27,110.79
1180,99052658,-1.0415,-0.4150,-0.4575,-23.41,-58.41,108.72
1181,99057658,-1.0269,-0.4019,-0.4512,-22.93,-57.26,106.52
1182,99063107,-1.0322,-0.3853,-0.4492,-22.44,-56.28,104.15
1183,99067658,-1.0337,-0.3828,-0.4507,-22.20,-55.30,101.71
1184,99072750,-1.0288,-0.3662,-0.4355,-21.95,-54.15,99.02
1185,99077657,-1.0244,-0.3569,-0.4321,-21.59,-53.05,96.34
1186,99082656,-1.0088,-0.3413,-0.4224,-21.16,-51.83,93.35
1187,99087658,-1.0024,-0.3354,-0.4155,-20.85,-50.30,90.67
1188,99092658,-0.9917,-0.3193,-0.4092,-20.24,-49.02,86.95
1189,99097656,-0.9854,-0.3154,-0.4058,-19.63,-47.74,84.57
1190,99102656,-0.9829,-0.3086,-0.4058,-18.84,-46.40,81.52
1191,99107658,-0.9800,-0.3042,-0.3940,-18.29,-45.06,78.41
1192,99112989,-0.9800,-0.2925,-0.3862,-17.38,-43.66,75.49
1193,99117659,-0.9692,-0.2808,-0.3887,-16.40,-42.20,72.44
1194,99122658,-0.9688,-0.2729,-0.3823,-15.24,-40.98,69.39
1195,99127658,-0.9648,-0.2700,-0.3770,-13.84,-39.63,66.46
1196,99132658,-0.9570,-0.2651,-0.3716,-12.44,-38.41,63.66
1197,99137659,-0.9497,-0.2559,-0.3755,-10.73,-37.07,60.85
1198,99142658,-0.9468,-0.2476,-0.3765,-9.15,-35.98,58.05
1199,99147658,-0.9482,-0.2568,-0.3623,-7.38,-34.82,55.49
1200,99152658,-0.9463,-0.2441,-0.3550,-5.43,-33.48,52.99
1201,99157658,-0.9424,-0.2427,-0.3574,-3.35,-32.13,50.73
1202,99162661,-0.9409,-0.2383,-0.3545,-1.22,-30.91,48.48
1203,99167658,-0.9438,-0.2354,-0.3511,0.85,-29.63,46.34
1204,99172658,-0.9424,-0.2290,-0.3457,3.23,-28.54,44.45
1205,99177658,-0.9404,-0.2305,-0.3350,5.43,-27.13,42.62
1206,99183143,-0.9321,-0.2300,-0.3379,7.68,-26.04,41.04
1207,99187658,-0.9277,-0.2271,-0.3379,9.94,-24.76,39.51
1208,99192657,-0.9253,-0.2280,-0.3369,12.13,-23.60,38.11
1209,99197661,-0.9204,-0.2280,-0.3311,14.45,-22.38,36.77
1210,99202824,-0.9170,-0.2236,-0.3262,16.77,-21.16,35.61
1211,99207658,-0.9141,-0.2188,-0.3257,18.66,-20.30,34.76
1212,99213087,-0.9180,-0.2163,-0.3262,21.59,-18.84,33.60
1213,99217658,-0.9170,-0.2163,-0.3218,23.48,-17.99,32.87
1214,99222658,-0.9204,-0.2163,-0.3154,25.91,-16.83,32.13
1215,99227658,-0.9194,-0.2192,-0.3169,28.11,-15.73,31.34
1216,99232658,-0.9189,-0.2173,-0.3169,30.43,-14.51,30.67
1217,99237658,-0.9170,-0.2178,-0.3096,32.56,-13.41,30.06
1218,99242658,-0.9136,-0.2134,-0.3120,34.63,-12.20,29.51
1219,99247658,-0.9072,-0.2095,-0.3071,36.71,-10.98,28.96
1220,99252659,-0.9043,-0.2046,-0.3076,38.66,-9.63,28.29
1221,99257658,-0.9062,-0.2090,-0.2979,40.55,-8.66,27.80
1222,99262658,-0.9038,-0.2070,-0.3027,42.38,-7.26,27.13
1223,99267658,-0.8989,-0.2002,-0.2988,44.51,-5.91,26.52
1224,99272658,-0.8950,-0.2026,-0.2954,45.85,-5.06,26.04
1225,99277658,-0.8926,-0.1934,-0.2939,47.38,-4.09,25.43
1226,99282658,-0.8960,-0.1909,-0.2905,48.84,-2.80,24.51
1227,99287658,-0.8999,-0.1890,-0.2939,50.24,-1.77,23.90
1228,99292658,-0.9004,-0.1875,-0.2954,51.71,-0.55,22.80
1229,99297658,-0.9058,-0.1875,-0.2871,52.56,0.24,22.07
1230,99302658,-0.9038,-0.1860,-0.2808,53.35,1.40,21.16
1231,99307658,-0.8994,-0.1860,-0.2842,54.09,2.44,20.24
1232,99312658,-0.8999,-0.1821,-0.2837,54.70,3.54,19.27
1233,99317658,-0.8994,-0.1763,-0.2788,55.18,4.57,18.35
1234,99322688,-0.9004,-0.1758,-0.2788,55.55,5.55,17.20
1235,99327657,-0.8955,-0.1714,-0.2744,55.85,6.46,16.16
1236,99332658,-0.9053,-0.1689,-0.2734,56.16,7.56,14.94
1237,99337658,-0.9043,-0.1670,-0.2715,56.28,8.54,13.66
1238,99342658,-0.9058,-0.1655,-0.2715,56.59,9.45,12.38
1239,99347658,-0.8979,-0.1641,-0.2642,56.77,10.37,11.28
1240,99352658,-0.8906,-0.1611,-0.2603,56.89,11.28,10.18
1241,99357658,-0.8857,-0.1572,-0.2651,56.89,12.26,9.02
1242,99362658,-0.8804,-0.1611,-0.2617,56.95,12.80,7.87
1243,99367658,-0.8721,-0.1606,-0.2568,56.77,13.78,6.59
1244,99372658,-0.8760,-0.1553,-0.2529,56.65,14.39,5.79
1245,99377657,-0.8813,-0.1582,-0.2485,56.59,15.00,4.63
1246,99382658,-0.8877,-0.1558,-0.2515,56.40,15.73,3.60
1247,99387657,-0.8931,-0.1543,-0.2568,56.16,16.46,2.56
1248,99392657,-0.8960,-0.1489,-0.2544,55.91,16.95,1.59
1249,99397658,-0.8936,-0.1543,-0.2417,55.61,17.50,0.55
1250,99402657,-0.8853,-0.1509,-0.2529,55.00,17.99,-0.61
1251,99407658,-0.8887,-0.1528,-0.2505,54.82,18.29,-1.34
