# skilleye imu stream v1
# device=xiao_esp32c6 imu=mpu6050 addr=0x68
# rate_hz=200 accel_range_g=16 gyro_range_dps=2000 dlpf_hz=94
# units: accel in g, gyro in deg/s, t_us in microseconds since boot (monotonic)
# no shared clock with the camera -- tap the racket once before each take
# so both recordings share a spike to align on
seq,t_us,ax,ay,az,gx,gy,gz
0,341966984,-0.5771,-0.5356,-0.4893,5.55,1.10,7.56
1,341971989,-0.5737,-0.5381,-0.4854,4.51,1.04,7.26
2,341976984,-0.5732,-0.5396,-0.4912,3.41,1.10,7.01
3,341981984,-0.5742,-0.5376,-0.4888,2.32,0.98,6.71
4,341986984,-0.5684,-0.5391,-0.4868,1.04,1.10,6.40
5,341991983,-0.5679,-0.5386,-0.4961,0.06,1.10,6.10
6,341996986,-0.5723,-0.5415,-0.4839,-1.04,1.10,5.79
7,342001984,-0.5698,-0.5352,-0.4883,-1.83,1.10,5.61
8,342006984,-0.5669,-0.5381,-0.4868,-2.80,1.16,5.30
9,342011984,-0.5679,-0.5405,-0.4897,-3.66,1.16,4.94
10,342016984,-0.5679,-0.5366,-0.4863,-4.21,1.22,4.76
11,342021984,-0.5703,-0.5391,-0.4834,-4.88,1.22,4.45
12,342026984,-0.5698,-0.5342,-0.4893,-5.37,1.28,4.21
13,342031984,-0.5718,-0.5381,-0.4951,-5.73,1.10,3.96
14,342036984,-0.5737,-0.5376,-0.4951,-6.04,1.22,3.60
15,342041983,-0.5728,-0.5376,-0.4829,-6.28,1.22,3.41
16,342046982,-0.5737,-0.5391,-0.4888,-6.40,1.04,3.17
17,342051982,-0.5742,-0.5405,-0.4951,-6.46,0.98,2.93
18,342056983,-0.5688,-0.5391,-0.4917,-6.52,0.91,2.80
19,342061982,-0.5713,-0.5396,-0.4868,-6.40,0.73,2.44
20,342067003,-0.5649,-0.5371,-0.4927,-6.22,0.49,2.26
21,342071984,-0.5703,-0.5420,-0.4951,-6.28,0.49,2.13
22,342076984,-0.5713,-0.5425,-0.4907,-5.91,0.43,1.95
23,342081984,-0.5688,-0.5444,-0.4883,-5.79,0.06,1.89
24,342086984,-0.5732,-0.5391,-0.4883,-5.49,0.18,1.77
25,342091984,-0.5718,-0.5420,-0.4893,-5.18,-0.18,1.65
26,342096988,-0.5708,-0.5396,-0.4927,-4.94,-0.37,1.59
27,342101983,-0.5728,-0.5366,-0.4902,-4.57,-0.49,1.46
28,342106984,-0.5693,-0.5347,-0.4927,-4.02,-0.61,1.22
29,342111982,-0.5718,-0.5405,-0.4878,-3.54,-0.61,1.28
30,342116984,-0.5723,-0.5352,-0.4912,-2.93,-0.79,1.16
31,342121985,-0.5698,-0.5371,-0.4937,-2.56,-0.91,0.91
32,342126984,-0.5718,-0.5376,-0.4927,-1.89,-1.10,1.04
33,342131984,-0.5728,-0.5371,-0.4971,-1.52,-1.28,0.91
34,342136984,-0.5757,-0.5361,-0.4907,-0.98,-1.34,0.85
35,342141984,-0.5747,-0.5361,-0.4956,-0.43,-1.40,0.73
36,342146985,-0.5767,-0.5361,-0.4961,0.12,-1.65,0.67
37,342151984,-0.5801,-0.5366,-0.4937,0.61,-1.77,0.61
38,342156984,-0.5820,-0.5356,-0.5000,0.98,-1.95,0.55
39,342161984,-0.5806,-0.5381,-0.4956,1.34,-2.07,0.49
40,342166984,-0.5806,-0.5337,-0.4995,1.83,-2.20,0.43
41,342171986,-0.5796,-0.5317,-0.4951,2.01,-2.38,0.43
42,342176982,-0.5732,-0.5317,-0.5029,2.26,-2.56,0.43
43,342181984,-0.5737,-0.5327,-0.5039,2.44,-2.56,0.24
44,342186984,-0.5674,-0.5332,-0.5063,2.74,-2.68,0.12
45,342191984,-0.5723,-0.5322,-0.5024,2.68,-2.99,0.06
46,342196987,-0.5728,-0.5298,-0.4995,2.74,-3.05,0.00
47,342201986,-0.5737,-0.5293,-0.5005,2.80,-3.05,-0.12
48,342206984,-0.5713,-0.5264,-0.5005,2.74,-3.11,-0.24
49,342211984,-0.5718,-0.5278,-0.4980,2.74,-3.11,-0.37
50,342216984,-0.5757,-0.5283,-0.5005,2.68,-3.29,-0.55
51,342222373,-0.5728,-0.5259,-0.4976,2.56,-3.48,-0.67
52,342226984,-0.5713,-0.5254,-0.5029,2.26,-3.60,-0.79
53,342231984,-0.5708,-0.5239,-0.5005,1.95,-3.72,-0.91
54,342236984,-0.5747,-0.5244,-0.5000,1.77,-3.48,-1.10
55,342242311,-0.5698,-0.5249,-0.5034,1.34,-3.60,-1.16
56,342246984,-0.5728,-0.5293,-0.5029,0.85,-3.60,-1.28
57,342251984,-0.5752,-0.5259,-0.5068,0.43,-3.66,-1.40
58,342256984,-0.5723,-0.5269,-0.5078,-0.12,-3.48,-1.52
59,342261984,-0.5708,-0.5234,-0.5073,-0.55,-3.41,-1.59
60,342266984,-0.5728,-0.5259,-0.5044,-0.79,-3.60,-1.65
61,342271985,-0.5688,-0.5186,-0.5049,-1.40,-3.41,-1.71
62,342276984,-0.5693,-0.5234,-0.5049,-1.71,-3.48,-1.89
63,342281984,-0.5708,-0.5249,-0.5039,-2.07,-3.35,-1.95
64,342286984,-0.5615,-0.5249,-0.5103,-2.38,-3.23,-2.13
65,342291984,-0.5679,-0.5229,-0.5078,-2.68,-3.17,-2.26
66,342296984,-0.5674,-0.5205,-0.5137,-2.87,-3.11,-2.32
67,342301984,-0.5684,-0.5234,-0.5171,-2.87,-2.99,-2.38
68,342307176,-0.5654,-0.5249,-0.5098,-2.93,-3.05,-2.62
69,342311984,-0.5654,-0.5225,-0.5098,-2.93,-2.87,-2.68
70,342316984,-0.5688,-0.5215,-0.5098,-2.87,-2.62,-2.87
71,342321984,-0.5684,-0.5210,-0.5146,-2.80,-2.50,-2.99
72,342326986,-0.5679,-0.5229,-0.5103,-2.68,-2.32,-3.23
73,342331984,-0.5742,-0.5176,-0.5103,-2.50,-2.38,-3.35
74,342336984,-0.5669,-0.5200,-0.5068,-2.44,-2.32,-3.29
75,342341983,-0.5669,-0.5200,-0.5146,-2.32,-2.07,-3.48
76,342346982,-0.5688,-0.5205,-0.5195,-2.26,-2.01,-3.72
77,342351983,-0.5703,-0.5181,-0.5171,-2.07,-1.95,-3.84
78,342356982,-0.5747,-0.5186,-0.5234,-2.01,-1.71,-3.90
79,342362928,-0.5693,-0.5205,-0.5190,-2.01,-1.40,-4.27
80,342366984,-0.5698,-0.5195,-0.5181,-2.01,-1.46,-4.21
81,342371984,-0.5698,-0.5171,-0.5166,-2.07,-1.28,-4.51
82,342376984,-0.5684,-0.5166,-0.5234,-2.20,-1.10,-4.57
83,342381984,-0.5693,-0.5181,-0.5171,-2.26,-1.04,-4.70
84,342386982,-0.5645,-0.5176,-0.5176,-2.44,-0.91,-4.82
85,342391985,-0.5664,-0.5151,-0.5156,-2.62,-0.73,-5.00
86,342396984,-0.5669,-0.5200,-0.5142,-3.23,-0.61,-5.12
87,342401984,-0.5625,-0.5186,-0.5200,-3.60,-0.55,-5.06
88,342406984,-0.5625,-0.5171,-0.5186,-3.96,-0.37,-5.18
89,342411982,-0.5640,-0.5161,-0.5186,-4.33,-0.30,-5.18
90,342416984,-0.5640,-0.5176,-0.5161,-4.88,-0.18,-5.24
91,342421984,-0.5566,-0.5205,-0.5264,-5.30,-0.18,-5.30
92,342426984,-0.5635,-0.5220,-0.5176,-5.61,-0.06,-5.37
93,342431984,-0.5610,-0.5186,-0.5220,-6.16,-0.12,-5.49
94,342436984,-0.5571,-0.5225,-0.5195,-6.46,0.06,-5.37
95,342441984,-0.5537,-0.5234,-0.5293,-6.83,0.12,-5.43
96,342446984,-0.5513,-0.5239,-0.5249,-7.01,0.12,-5.43
97,342451984,-0.5547,-0.5239,-0.5229,-7.20,0.18,-5.67
98,342456984,-0.5508,-0.5249,-0.5234,-7.13,0.18,-5.49
99,342461984,-0.5459,-0.5234,-0.5215,-7.07,0.30,-5.67
100,342466984,-0.5439,-0.5244,-0.5210,-6.95,0.43,-5.73
101,342471984,-0.5410,-0.5220,-0.5215,-6.59,0.55,-5.73
102,342476986,-0.5420,-0.5239,-0.5229,-6.34,0.61,-5.98
103,342481984,-0.5337,-0.5259,-0.5195,-5.79,0.67,-6.10
104,342487397,-0.5366,-0.5220,-0.5181,-5.37,0.67,-6.28
105,342491984,-0.5327,-0.5220,-0.5264,-4.70,0.79,-6.40
106,342496984,-0.5376,-0.5205,-0.5151,-4.39,0.67,-6.40
107,342501984,-0.5356,-0.5195,-0.5225,-3.66,0.85,-6.65
108,342506984,-0.5312,-0.5190,-0.5156,-3.11,0.85,-6.77
109,342511983,-0.5288,-0.5186,-0.5151,-2.50,0.79,-7.01
110,342516984,-0.5361,-0.5186,-0.5225,-1.77,0.85,-7.13
111,342521982,-0.5308,-0.5176,-0.5171,-1.10,0.79,-7.26
112,342526984,-0.5317,-0.5190,-0.5132,-0.55,0.61,-7.56
113,342532378,-0.5312,-0.5200,-0.5205,-0.12,0.85,-7.62
114,342536984,-0.5356,-0.5205,-0.5181,0.18,0.79,-7.87
115,342541984,-0.5356,-0.5210,-0.5171,0.61,0.73,-8.05
116,342547404,-0.5376,-0.5220,-0.5200,0.98,0.79,-8.29
117,342551984,-0.5381,-0.5195,-0.5205,1.04,0.73,-8.29
118,342556984,-0.5356,-0.5195,-0.5146,1.22,0.79,-8.41
119,342561984,-0.5410,-0.5195,-0.5215,1.22,0.85,-8.54
120,342566984,-0.5435,-0.5244,-0.5254,1.10,0.73,-8.54
121,342572402,-0.5469,-0.5288,-0.5146,0.98,0.61,-8.60
122,342576984,-0.5488,-0.5312,-0.5103,0.67,0.61,-8.54
123,342581986,-0.5552,-0.5361,-0.5186,0.30,0.79,-8.48
124,342586984,-0.5586,-0.5371,-0.5171,-0.30,0.85,-8.41
125,342591983,-0.5591,-0.5391,-0.5176,-0.67,0.91,-8.35
126,342596983,-0.5605,-0.5410,-0.5156,-1.28,1.16,-8.23
127,342601984,-0.5654,-0.5459,-0.5181,-1.71,0.98,-8.05
128,342606982,-0.5684,-0.5459,-0.5166,-1.95,0.98,-8.05
129,342611984,-0.5698,-0.5586,-0.5293,-2.26,1.16,-8.11
130,342616984,-0.5762,-0.5576,-0.5244,-2.38,1.10,-8.05
131,342621984,-0.5732,-0.5659,-0.5293,-2.50,1.22,-7.99
132,342627343,-0.5737,-0.5718,-0.5356,-2.20,1.10,-8.05
133,342631984,-0.5747,-0.5742,-0.5337,-1.83,1.10,-8.17
134,342636984,-0.5737,-0.5767,-0.5347,-1.22,1.16,-8.11
135,342641983,-0.5703,-0.5815,-0.5352,-0.30,1.22,-8.17
136,342646983,-0.5693,-0.5830,-0.5454,0.79,1.10,-8.29
137,342651984,-0.5674,-0.5933,-0.5391,2.13,1.04,-8.48
138,342656982,-0.5620,-0.5957,-0.5386,3.60,0.98,-8.66
139,342661983,-0.5576,-0.6035,-0.5415,5.24,0.91,-8.84
140,342666984,-0.5645,-0.6069,-0.5479,7.01,0.98,-9.02
141,342671984,-0.5625,-0.6099,-0.5479,8.41,0.85,-9.45
142,342676984,-0.5679,-0.6211,-0.5474,10.61,0.73,-9.82
143,342681986,-0.5654,-0.6201,-0.5454,12.56,0.73,-10.12
144,342686984,-0.5596,-0.6274,-0.5420,14.39,0.67,-10.43
145,342691984,-0.5630,-0.6333,-0.5513,16.28,0.55,-10.91
146,342696984,-0.5659,-0.6318,-0.5439,18.23,0.43,-11.40
147,342701984,-0.5625,-0.6377,-0.5518,20.18,0.24,-12.07
148,342707082,-0.5688,-0.6387,-0.5508,22.38,0.18,-12.74
149,342711984,-0.5635,-0.6450,-0.5459,24.45,-0.06,-13.35
150,342716984,-0.5649,-0.6436,-0.5415,26.28,-0.37,-14.09
151,342721984,-0.5610,-0.6499,-0.5391,28.11,-0.49,-14.88
152,342726984,-0.5586,-0.6543,-0.5425,29.94,-0.67,-15.73
153,342731990,-0.5508,-0.6597,-0.5371,31.65,-0.91,-16.65
154,342736987,-0.5503,-0.6626,-0.5312,32.93,-1.28,-17.62
155,342741991,-0.5537,-0.6631,-0.5254,34.39,-1.46,-18.60
156,342746983,-0.5483,-0.6689,-0.5210,35.49,-1.59,-19.57
157,342751984,-0.5420,-0.6699,-0.5137,36.52,-1.83,-20.79
158,342756984,-0.5381,-0.6758,-0.5146,37.38,-2.13,-21.89
159,342761984,-0.5396,-0.6787,-0.5059,38.05,-2.38,-23.11
160,342766984,-0.5391,-0.6836,-0.5093,38.66,-2.62,-24.33
161,342771984,-0.5459,-0.6890,-0.5010,39.02,-3.05,-25.43
162,342776984,-0.5493,-0.6929,-0.5063,39.27,-3.48,-26.65
163,342781985,-0.5571,-0.6968,-0.4946,39.27,-3.90,-27.93
164,342786984,-0.5605,-0.7095,-0.5020,38.90,-4.27,-29.15
165,342791984,-0.5576,-0.7144,-0.4966,38.23,-4.88,-30.49
166,342796984,-0.5581,-0.7212,-0.4917,37.38,-5.24,-31.77
167,342801984,-0.5527,-0.7275,-0.4883,36.40,-5.91,-32.93
168,342806984,-0.5508,-0.7290,-0.4775,35.12,-6.52,-34.21
169,342812574,-0.5415,-0.7344,-0.4741,33.90,-7.20,-35.55
170,342816984,-0.5396,-0.7393,-0.4712,32.68,-7.99,-36.89
171,342821984,-0.5322,-0.7427,-0.4727,31.52,-8.66,-38.11
172,342826984,-0.5249,-0.7476,-0.4614,30.30,-9.45,-39.57
173,342831984,-0.5283,-0.7534,-0.4609,28.96,-10.06,-40.98
174,342836984,-0.5298,-0.7554,-0.4595,27.56,-10.85,-42.32
175,342841984,-0.5254,-0.7617,-0.4565,26.16,-11.71,-43.84
176,342847330,-0.5244,-0.7642,-0.4575,24.70,-12.50,-45.18
177,342851984,-0.5171,-0.7666,-0.4590,23.29,-13.41,-46.65
178,342856984,-0.5156,-0.7710,-0.4526,21.89,-14.33,-48.11
179,342862435,-0.5132,-0.7744,-0.4487,20.61,-15.30,-49.63
180,342866984,-0.5078,-0.7759,-0.4521,19.21,-16.28,-51.04
181,342871984,-0.5054,-0.7710,-0.4453,17.99,-16.95,-52.56
182,342876984,-0.4971,-0.7808,-0.4546,16.77,-17.99,-53.96
183,342881984,-0.4951,-0.7847,-0.4487,15.55,-18.90,-55.55
184,342886984,-0.4917,-0.7842,-0.4478,14.21,-19.88,-57.01
185,342891984,-0.4873,-0.7910,-0.4438,12.80,-20.79,-58.60
186,342896984,-0.4800,-0.7954,-0.4541,11.65,-21.77,-60.18
187,342901984,-0.4771,-0.7944,-0.4482,10.24,-22.68,-61.65
188,342906984,-0.4727,-0.7949,-0.4531,9.09,-23.72,-63.29
189,342911984,-0.4678,-0.7974,-0.4482,7.80,-24.76,-64.76
190,342916984,-0.4712,-0.8013,-0.4424,6.59,-25.61,-66.28
191,342921984,-0.4692,-0.8081,-0.4458,5.43,-26.52,-67.80
192,342926984,-0.4717,-0.8096,-0.4492,4.39,-27.44,-69.33
193,342931984,-0.4678,-0.8105,-0.4517,3.35,-28.35,-70.85
194,342936984,-0.4766,-0.8105,-0.4482,2.32,-29.15,-72.32
195,342941983,-0.4756,-0.8198,-0.4551,1.34,-29.94,-73.84
196,342946983,-0.4839,-0.8203,-0.4531,0.55,-30.61,-75.12
197,342951984,-0.4834,-0.8276,-0.4590,-0.43,-31.28,-76.59
198,342956983,-0.4863,-0.8296,-0.4595,-1.28,-31.89,-77.93
199,342961982,-0.4888,-0.8345,-0.4541,-2.07,-32.26,-79.39
200,342966984,-0.4912,-0.8301,-0.4585,-2.50,-32.80,-80.61
201,342971982,-0.4941,-0.8350,-0.4590,-2.74,-33.17,-81.95
202,342977411,-0.4941,-0.8330,-0.4644,-2.56,-33.54,-83.41
203,342981984,-0.4951,-0.8330,-0.4644,-2.01,-33.90,-84.82
204,342986985,-0.4912,-0.8325,-0.4614,-1.16,-34.15,-86.16
205,342991984,-0.4917,-0.8315,-0.4551,-0.49,-34.45,-87.56
206,342996984,-0.4897,-0.8315,-0.4570,0.61,-34.33,-88.90
207,343001984,-0.4868,-0.8311,-0.4570,1.59,-34.57,-90.30
208,343006984,-0.4854,-0.8335,-0.4502,2.62,-34.76,-91.52
209,343011984,-0.4839,-0.8330,-0.4531,3.72,-34.76,-92.80
210,343016984,-0.4829,-0.8335,-0.4546,4.88,-35.06,-93.84
211,343022603,-0.4849,-0.8369,-0.4492,6.34,-35.18,-95.30
212,343026984,-0.4805,-0.8403,-0.4497,7.50,-35.37,-96.04
213,343031984,-0.4746,-0.8384,-0.4492,8.90,-35.55,-96.95
214,343036984,-0.4712,-0.8398,-0.4502,10.18,-35.73,-97.68
215,343041984,-0.4619,-0.8413,-0.4536,11.65,-36.10,-98.66
216,343046984,-0.4570,-0.8428,-0.4541,12.93,-36.28,-99.39
217,343052408,-0.4521,-0.8413,-0.4531,14.09,-36.52,-100.18
218,343056984,-0.4473,-0.8462,-0.4536,15.73,-37.01,-100.91
219,343061984,-0.4429,-0.8457,-0.4551,16.77,-37.01,-101.52
220,343066984,-0.4395,-0.8462,-0.4536,18.29,-37.32,-102.07
221,343071984,-0.4355,-0.8428,-0.4487,19.94,-37.62,-102.50
222,343076984,-0.4312,-0.8403,-0.4487,21.89,-37.44,-103.05
223,343081984,-0.4238,-0.8452,-0.4478,24.02,-37.62,-103.48
224,343086984,-0.4238,-0.8418,-0.4482,26.46,-37.74,-103.90
225,343091986,-0.4165,-0.8398,-0.4434,29.02,-37.74,-104.09
226,343096984,-0.4126,-0.8320,-0.4424,31.77,-37.68,-104.45
227,343101984,-0.4028,-0.8315,-0.4429,34.70,-37.62,-104.63
228,343106984,-0.4014,-0.8281,-0.4355,37.62,-37.74,-104.82
229,343111984,-0.4004,-0.8350,-0.4351,40.79,-37.87,-104.82
230,343116985,-0.4014,-0.8364,-0.4351,43.78,-37.87,-104.63
231,343121983,-0.4028,-0.8442,-0.4414,46.59,-37.68,-104.39
232,343126985,-0.3989,-0.8428,-0.4419,49.45,-37.68,-104.09
233,343131984,-0.4009,-0.8442,-0.4395,52.20,-37.80,-103.72
234,343136984,-0.3931,-0.8428,-0.4409,55.00,-37.99,-103.17
235,343141984,-0.3833,-0.8501,-0.4326,57.44,-38.23,-102.74
236,343146984,-0.3735,-0.8442,-0.4429,60.18,-38.54,-102.26
237,343151984,-0.3652,-0.8477,-0.4463,62.87,-38.60,-101.83
238,343156986,-0.3555,-0.8462,-0.4355,65.55,-38.78,-101.34
239,343161984,-0.3516,-0.8389,-0.4316,68.23,-39.02,-101.04
240,343166984,-0.3472,-0.8354,-0.4297,71.10,-39.09,-100.79
241,343171984,-0.3442,-0.8359,-0.4268,74.02,-39.09,-100.49
242,343176984,-0.3398,-0.8379,-0.4238,76.89,-39.09,-100.30
243,343181984,-0.3364,-0.8428,-0.4155,79.76,-39.09,-99.94
244,343186984,-0.3354,-0.8428,-0.4092,82.74,-39.09,-99.57
245,343191983,-0.3364,-0.8403,-0.4038,85.49,-38.96,-99.09
246,343196986,-0.3325,-0.8452,-0.4009,87.99,-38.96,-98.54
247,343201985,-0.3291,-0.8452,-0.3926,90.24,-39.15,-98.05
248,343206984,-0.3232,-0.8477,-0.3872,92.13,-39.02,-97.32
249,343212407,-0.3198,-0.8472,-0.3975,93.78,-39.27,-96.40
250,343216984,-0.3091,-0.8394,-0.3911,94.70,-39.45,-95.85
251,343221984,-0.2979,-0.8325,-0.3945,95.98,-39.82,-95.18
252,343226984,-0.2900,-0.8262,-0.3906,96.71,-40.06,-94.82
253,343231984,-0.2881,-0.8223,-0.3833,97.62,-40.49,-94.21
254,343236984,-0.2817,-0.8208,-0.3794,98.05,-40.67,-93.72
255,343241984,-0.2808,-0.8154,-0.3794,98.23,-41.10,-93.29
256,343246983,-0.2783,-0.8125,-0.3667,98.11,-41.52,-92.68
257,343251982,-0.2798,-0.8062,-0.3682,97.87,-41.83,-92.13
258,343256982,-0.2734,-0.7974,-0.3564,97.38,-42.13,-91.65
259,343261984,-0.2666,-0.7944,-0.3594,96.71,-42.32,-91.22
260,343266984,-0.2559,-0.7905,-0.3540,95.79,-42.80,-90.79
261,343271984,-0.2480,-0.7847,-0.3511,94.88,-43.17,-90.30
262,343276984,-0.2412,-0.7773,-0.3486,93.35,-43.41,-89.82
263,343281984,-0.2305,-0.7729,-0.3428,91.65,-43.96,-89.39
264,343286984,-0.2227,-0.7725,-0.3413,89.88,-44.51,-89.09
265,343292456,-0.2109,-0.7651,-0.3320,87.38,-45.18,-88.54
266,343296985,-0.2056,-0.7607,-0.3257,85.55,-45.61,-88.17
267,343301984,-0.1929,-0.7588,-0.3296,83.29,-46.52,-87.68
268,343306984,-0.1777,-0.7642,-0.3228,80.91,-47.38,-87.13
269,343311986,-0.1709,-0.7632,-0.3247,78.17,-48.05,-86.52
270,343316984,-0.1631,-0.7690,-0.3145,75.24,-48.84,-85.85
271,343321984,-0.1553,-0.7671,-0.3115,72.38,-49.76,-85.18
272,343326984,-0.1475,-0.7686,-0.3057,69.51,-50.24,-84.51
273,343331984,-0.1470,-0.7627,-0.2935,66.65,-50.85,-83.78
274,343336984,-0.1479,-0.7598,-0.2886,63.78,-51.46,-83.05
275,343341984,-0.1523,-0.7612,-0.2837,61.16,-51.77,-82.50
276,343347406,-0.1470,-0.7603,-0.2754,57.74,-52.07,-81.89
277,343351984,-0.1494,-0.7651,-0.2720,55.61,-52.32,-81.40
278,343356984,-0.1440,-0.7603,-0.2637,52.50,-52.50,-80.98
279,343362433,-0.1440,-0.7617,-0.2534,49.09,-52.87,-80.12
280,343366984,-0.1357,-0.7661,-0.2544,46.52,-53.23,-79.57
281,343371984,-0.1289,-0.7720,-0.2524,43.48,-53.54,-78.90
282,343377388,-0.1255,-0.7749,-0.2490,39.63,-54.09,-78.05
283,343381984,-0.1187,-0.7759,-0.2427,37.07,-54.70,-77.44
284,343386984,-0.1138,-0.7759,-0.2417,33.96,-55.18,-76.65
285,343391984,-0.0957,-0.7793,-0.2319,31.10,-55.98,-76.04
286,343396985,-0.0884,-0.7808,-0.2339,28.54,-56.65,-75.24
287,343402097,-0.0728,-0.7822,-0.2280,25.67,-57.50,-74.51
288,343406984,-0.0659,-0.7803,-0.2280,23.90,-58.17,-73.96
289,343411984,-0.0576,-0.7778,-0.2256,21.83,-59.21,-73.35
290,343416984,-0.0459,-0.7803,-0.2163,19.70,-60.12,-72.74
291,343421984,-0.0327,-0.7837,-0.2100,17.32,-61.04,-72.20
292,343426984,-0.0234,-0.7900,-0.2090,15.00,-61.95,-71.40
293,343432237,-0.0225,-0.7954,-0.2075,11.95,-63.05,-70.49
294,343436984,-0.0200,-0.7954,-0.2070,9.82,-63.72,-69.76
295,343442412,-0.0151,-0.7910,-0.1973,6.59,-64.57,-68.84
296,343446984,-0.0127,-0.7954,-0.1948,4.57,-65.06,-68.29
297,343451984,-0.0093,-0.7930,-0.1953,1.52,-65.61,-67.26
298,343456984,-0.0049,-0.7949,-0.1865,-0.98,-65.91,-66.40
299,343461984,-0.0024,-0.7993,-0.1777,-3.11,-66.04,-65.73
300,343466984,0.0005,-0.7939,-0.1699,-5.24,-66.04,-65.12
301,343471984,0.0122,-0.7983,-0.1646,-7.38,-65.79,-64.33
302,343476984,0.0146,-0.8013,-0.1562,-9.39,-65.43,-63.72
303,343481984,0.0244,-0.8130,-0.1509,-11.22,-64.76,-63.05
304,343486984,0.0264,-0.8179,-0.1406,-13.11,-64.15,-62.38
305,343491984,0.0337,-0.8228,-0.1318,-14.63,-63.17,-61.89
306,343496984,0.0376,-0.8320,-0.1211,-15.85,-62.01,-61.16
307,343501985,0.0405,-0.8379,-0.1118,-16.89,-61.10,-60.49
308,343506984,0.0532,-0.8413,-0.0991,-17.62,-60.00,-59.88
309,343511984,0.0664,-0.8462,-0.0962,-17.99,-58.66,-59.15
310,343516984,0.0781,-0.8501,-0.0850,-18.11,-57.50,-58.60
311,343521984,0.0894,-0.8525,-0.0737,-17.56,-56.22,-57.80
312,343526984,0.1006,-0.8525,-0.0728,-16.71,-54.76,-57.32
313,343531984,0.1084,-0.8594,-0.0781,-15.67,-53.66,-56.71
314,343536984,0.1343,-0.8579,-0.0620,-14.33,-52.01,-56.16
315,343541983,0.1411,-0.8560,-0.0698,-12.93,-50.55,-55.73
316,343546984,0.1450,-0.8613,-0.0942,-11.04,-48.90,-55.49
317,343551982,0.1553,-0.8647,-0.0640,-9.02,-47.01,-55.12
318,343556982,0.1709,-0.8730,-0.0430,-6.83,-45.24,-54.94
319,343561982,0.1953,-0.8794,-0.0552,-4.76,-43.23,-54.88
320,343566985,0.2109,-0.8799,-0.0645,-2.74,-41.22,-54.88
321,343571984,0.2207,-0.8804,-0.0371,-0.98,-39.21,-54.88
322,343576984,0.2397,-0.8833,-0.0244,0.61,-37.13,-55.00
323,343581984,0.2485,-0.8857,-0.0332,1.83,-34.94,-55.12
324,343586984,0.2627,-0.8892,-0.0391,2.80,-32.87,-55.24
325,343591984,0.2783,-0.8960,-0.0122,3.17,-30.55,-55.55
326,343596984,0.2886,-0.9062,-0.0137,2.99,-28.48,-55.67
327,343601985,0.2988,-0.9229,-0.0254,2.13,-26.28,-55.73
328,343606984,0.2983,-0.9414,-0.0112,0.67,-24.27,-55.61
329,343611984,0.3047,-0.9438,-0.0034,-1.40,-22.13,-55.24
330,343616986,0.3086,-0.9521,-0.0015,-3.90,-20.30,-54.76
331,343621984,0.3115,-0.9707,-0.0215,-7.01,-18.48,-53.90
332,343626984,0.3208,-0.9961,-0.0566,-10.79,-16.95,-52.74
333,343631984,0.3228,-1.0293,-0.0874,-15.49,-15.67,-51.28
334,343637022,0.3384,-1.0356,-0.0913,-20.85,-14.33,-49.76
335,343641984,0.3608,-1.0356,-0.0850,-26.16,-12.99,-48.23
336,343646984,0.3589,-1.0391,-0.0986,-31.83,-11.34,-46.65
337,343651984,0.3467,-1.0444,-0.0938,-37.07,-10.18,-45.18
338,343656985,0.3359,-1.0571,-0.0981,-41.52,-9.02,-43.66
339,343661984,0.3320,-1.0635,-0.0957,-44.88,-7.56,-42.26
340,343666984,0.3374,-1.0698,-0.0933,-46.89,-6.22,-40.91
341,343672412,0.3286,-1.0732,-0.0933,-47.32,-4.70,-39.70
342,343676984,0.3262,-1.0796,-0.0879,-45.79,-3.23,-38.72
343,343681984,0.3120,-1.0864,-0.0908,-42.74,-1.46,-37.99
344,343686984,0.3096,-1.0918,-0.0977,-38.35,0.06,-37.44
345,343691984,0.2988,-1.0869,-0.0903,-32.93,1.77,-37.01
346,343696984,0.2915,-1.0820,-0.0947,-26.40,3.41,-36.83
347,343702408,0.2964,-1.0562,-0.0830,-19.39,5.24,-36.65
348,343706985,0.3018,-1.0205,-0.0806,-11.77,6.77,-36.95
349,343711984,0.3071,-0.9985,-0.0610,-3.90,8.29,-37.38
350,343716984,0.3223,-0.9731,-0.0562,3.72,9.70,-37.99
351,343721984,0.3379,-0.9146,0.0000,11.52,11.22,-39.09
352,343726984,0.3638,-0.9009,0.0127,19.33,13.05,-40.43
353,343731984,0.3784,-0.8789,0.0034,26.40,14.33,-41.83
354,343736984,0.3936,-0.8535,0.0015,33.05,15.49,-43.17
355,343741984,0.4019,-0.8457,0.0112,38.60,16.46,-44.57
356,343746984,0.4243,-0.8364,0.0254,43.17,17.26,-45.79
357,343751984,0.4185,-0.8203,0.0200,47.13,18.05,-47.01
358,343756984,0.4395,-0.8003,0.0151,50.18,18.54,-48.29
359,343761984,0.4673,-0.7856,0.0176,52.68,18.90,-49.51
360,343766984,0.4868,-0.7725,0.0127,54.39,19.27,-50.61
361,343771984,0.5029,-0.7568,-0.0083,55.55,19.39,-51.95
362,343776984,0.5166,-0.7510,-0.0205,56.16,19.45,-53.11
363,343781984,0.5376,-0.7441,-0.0298,56.10,19.51,-54.21
364,343786984,0.5635,-0.7402,-0.0449,55.55,19.45,-55.12
365,343791984,0.5869,-0.7217,-0.0752,54.45,19.21,-55.98
366,343796984,0.6172,-0.7036,-0.0859,52.80,18.78,-56.71
367,343801984,0.6504,-0.6680,-0.1006,50.67,18.29,-57.20
368,343806986,0.6807,-0.6353,-0.1104,48.05,17.74,-57.74
369,343811984,0.7065,-0.6138,-0.1289,44.57,17.13,-57.99
370,343816984,0.7178,-0.6035,-0.1318,40.49,16.46,-58.11
371,343821984,0.7100,-0.5986,-0.1245,35.18,15.98,-57.99
372,343826984,0.6865,-0.6001,-0.1152,28.84,15.73,-57.50
373,343831984,0.6392,-0.6138,-0.0952,21.52,15.37,-56.89
374,343837021,0.5879,-0.6392,-0.0640,14.02,15.43,-55.85
375,343841984,0.5444,-0.6616,-0.0322,6.65,15.37,-54.76
376,343846982,0.5254,-0.6890,-0.0127,-0.18,15.43,-53.48
377,343851982,0.5234,-0.7065,0.0015,-6.28,15.37,-52.20
378,343856986,0.5264,-0.7251,0.0225,-11.59,15.24,-50.98
379,343861982,0.5342,-0.7373,0.0483,-16.04,15.18,-49.63
380,343867047,0.5327,-0.7539,0.0493,-19.51,15.12,-48.41
381,343871983,0.5332,-0.7783,0.0615,-22.20,14.94,-47.32
382,343876982,0.5229,-0.7944,0.0688,-23.84,14.76,-46.04
383,343881982,0.5059,-0.8130,0.0684,-24.63,14.45,-44.82
384,343886982,0.4956,-0.8354,0.0767,-24.70,13.96,-43.48
385,343891986,0.5005,-0.8491,0.0767,-23.66,13.48,-42.44
386,343896982,0.5132,-0.8613,0.0830,-21.89,12.93,-41.22
387,343901984,0.5151,-0.8633,0.0776,-19.33,12.32,-40.37
388,343907068,0.5146,-0.8628,0.0596,-16.04,11.59,-39.45
389,343911983,0.5146,-0.8496,0.0347,-11.28,10.67,-38.60
390,343916984,0.5137,-0.8369,0.0283,-7.93,10.12,-38.29
391,343921984,0.5308,-0.8291,0.0205,-3.96,9.33,-37.87
392,343926984,0.5474,-0.8120,0.0078,0.00,8.84,-37.80
393,343931984,0.5674,-0.7939,0.0054,4.09,8.23,-37.74
394,343936984,0.5732,-0.7749,0.0054,6.28,7.87,-37.87
395,343941984,0.5752,-0.7637,0.0049,8.84,7.50,-37.93
396,343946984,0.5723,-0.7583,0.0054,10.79,7.44,-38.11
397,343951984,0.5669,-0.7559,0.0005,12.01,7.26,-38.17
398,343956984,0.5601,-0.7622,0.0054,13.35,7.13,-38.11
399,343961984,0.5625,-0.7671,-0.0059,14.33,6.83,-37.99
400,343966984,0.5615,-0.7729,0.0005,15.24,6.52,-37.62
401,343972096,0.5625,-0.7949,-0.0034,16.28,6.22,-36.95
402,343976984,0.5630,-0.8022,-0.0098,17.13,5.73,-36.10
403,343981984,0.5537,-0.8052,-0.0103,18.29,5.06,-35.30
404,343986984,0.5439,-0.8130,-0.0063,19.70,4.51,-33.96
405,343991984,0.5410,-0.8213,-0.0010,21.22,3.96,-32.68
406,343996984,0.5547,-0.8203,0.0044,23.29,3.29,-30.98
407,344001984,0.5356,-0.8071,0.0063,24.63,2.68,-29.45
408,344006984,0.5093,-0.7969,-0.0146,25.67,1.83,-27.80
409,344011986,0.4976,-0.7788,-0.0200,26.52,1.10,-26.40
410,344016985,0.5098,-0.7637,-0.0361,27.50,0.37,-24.94
411,344021984,0.5127,-0.7583,-0.0410,28.23,-0.49,-23.60
412,344026984,0.4629,-0.7358,-0.0728,29.15,-1.65,-22.50
413,344031984,0.4775,-0.7344,-0.0488,30.00,-2.74,-21.52
414,344036984,0.4756,-0.7305,-0.0322,30.61,-3.78,-20.67
415,344041984,0.4990,-0.7446,-0.0396,30.67,-4.63,-19.63
416,344046984,0.5278,-0.7373,-0.0488,30.79,-5.30,-18.48
417,344051984,0.5063,-0.7070,-0.0391,30.91,-6.16,-17.44
418,344056984,0.4551,-0.7021,-0.0225,30.79,-6.65,-16.46
419,344061983,0.4863,-0.6743,-0.0166,30.30,-7.20,-15.55
420,344066984,0.4971,-0.6436,-0.0249,29.27,-7.38,-15.24
421,344071984,0.5127,-0.6382,-0.0396,27.80,-7.87,-15.00
422,344076984,0.5332,-0.6567,-0.0200,26.22,-8.17,-14.82
423,344081984,0.5356,-0.6841,-0.0015,24.33,-8.54,-14.70
424,344086984,0.5356,-0.6987,0.0020,22.13,-8.72,-14.45
425,344092435,0.5459,-0.6963,-0.0166,19.02,-9.33,-13.96
426,344096984,0.5630,-0.7100,-0.0254,17.01,-9.70,-13.60
427,344101984,0.5723,-0.7300,-0.0166,14.70,-10.24,-13.05
428,344106984,0.4829,-0.7441,-0.0405,12.32,-10.91,-12.26
429,344111984,0.5332,-0.7363,-0.0312,9.39,-11.59,-11.22
430,344116986,0.5547,-0.6953,-0.0337,6.10,-12.20,-10.49
431,344121984,0.6128,-0.7007,-0.0078,2.87,-12.38,-9.82
432,344126986,0.6426,-0.7163,0.0190,-0.06,-12.26,-8.96
433,344131984,0.6343,-0.7310,0.0425,-2.56,-11.89,-7.99
434,344136984,0.6128,-0.7124,0.0215,-5.30,-11.71,-7.20
435,344141983,0.6084,-0.7100,0.0083,-7.44,-11.46,-6.40
436,344146982,0.6396,-0.7280,0.0254,-8.96,-11.52,-5.49
437,344151982,0.6509,-0.7412,0.0356,-9.94,-11.40,-4.39
438,344156982,0.6470,-0.7686,0.0254,-10.61,-11.52,-3.11
439,344161986,0.6455,-0.7637,0.0132,-11.28,-11.83,-1.65
440,344166984,0.6460,-0.7646,0.0269,-11.59,-12.38,-0.43
441,344171983,0.6675,-0.7783,0.0430,-11.46,-12.74,0.98
442,344176984,0.6577,-0.7959,0.0264,-10.73,-13.54,2.38
443,344181982,0.6616,-0.8018,0.0205,-9.70,-14.70,4.21
444,344186986,0.6606,-0.8125,0.0371,-8.72,-15.43,5.55
445,344191983,0.6543,-0.8140,0.0171,-7.20,-16.52,7.20
446,344197452,0.6533,-0.8164,-0.0059,-5.06,-18.54,9.27
447,344201984,0.6494,-0.8101,-0.0151,-3.60,-19.82,10.61
448,344207318,0.6484,-0.8120,-0.0171,-1.71,-21.95,12.50
449,344211984,0.6475,-0.8159,-0.0308,-0.67,-23.48,13.72
450,344216986,0.6460,-0.8159,-0.0415,-0.06,-25.61,15.30
451,344222019,0.6528,-0.8198,-0.0415,-0.12,-28.23,17.13
452,344226984,0.6553,-0.8145,-0.0410,-0.73,-29.57,18.11
453,344231984,0.6499,-0.8071,-0.0508,-1.95,-31.77,19.33
454,344236984,0.6519,-0.8013,-0.0420,-4.33,-34.02,20.61
455,344241984,0.6475,-0.7905,-0.0405,-6.71,-35.49,21.52
456,344247481,0.6538,-0.7803,-0.0449,-9.45,-36.65,22.20
457,344251986,0.6372,-0.7852,-0.0610,-12.38,-38.11,22.50
458,344256983,0.6641,-0.7769,-0.0664,-15.67,-39.02,22.87
459,344261984,0.6636,-0.7666,-0.0625,-19.02,-39.51,22.80
460,344266984,0.6587,-0.7534,-0.0771,-22.07,-39.70,22.26
461,344271984,0.6479,-0.7480,-0.0806,-25.30,-39.63,21.34
462,344276984,0.6318,-0.7617,-0.1025,-28.23,-39.33,20.24
463,344282444,0.6152,-0.7676,-0.1362,-30.98,-38.54,18.90
464,344286984,0.6025,-0.7812,-0.1602,-33.41,-38.17,17.32
465,344291984,0.5977,-0.7866,-0.1797,-35.30,-37.38,15.55
466,344296984,0.5913,-0.8101,-0.2012,-36.77,-36.52,13.60
467,344301984,0.6069,-0.8267,-0.2222,-37.99,-35.79,11.59
468,344306984,0.6016,-0.8306,-0.2441,-38.41,-34.82,9.51
469,344311984,0.5977,-0.8403,-0.2637,-38.48,-33.78,7.26
470,344316984,0.5972,-0.8506,-0.2920,-38.17,-32.74,5.00
471,344321989,0.5928,-0.8701,-0.3105,-37.93,-31.77,2.87
472,344326984,0.6177,-0.8975,-0.3247,-37.56,-30.67,0.61
473,344331984,0.6216,-0.8662,-0.3755,-37.74,-29.51,-1.52
474,344336984,0.6021,-0.8457,-0.3975,-37.99,-28.41,-3.84
475,344342335,0.6333,-0.8813,-0.3921,-38.35,-27.07,-5.79
476,344346984,0.6665,-0.9219,-0.4380,-38.66,-25.91,-7.62
477,344351984,0.6484,-0.9521,-0.4531,-38.84,-24.82,-9.33
478,344356984,0.6665,-0.9521,-0.4556,-39.21,-23.41,-10.98
479,344361984,0.6851,-0.9492,-0.4810,-39.70,-21.89,-12.62
480,344366984,0.6865,-0.9087,-0.5034,-40.67,-20.24,-14.21
481,344371984,0.6841,-0.9092,-0.5103,-41.77,-18.66,-15.98
482,344376982,0.7173,-0.9390,-0.5098,-42.74,-16.83,-17.62
483,344381984,0.7163,-0.9561,-0.5410,-43.96,-15.06,-19.15
484,344386984,0.7139,-0.9570,-0.5557,-45.18,-13.11,-20.73
485,344391984,0.7207,-0.9507,-0.5522,-46.34,-10.98,-22.32
486,344396984,0.7217,-0.9419,-0.5737,-47.74,-8.60,-23.96
487,344401984,0.7129,-0.9189,-0.5967,-49.51,-6.28,-25.73
488,344406984,0.7373,-0.9316,-0.6104,-50.98,-3.90,-27.44
489,344411984,0.7417,-0.9307,-0.6187,-52.44,-1.65,-29.21
490,344416985,0.7305,-0.9243,-0.6382,-53.60,0.85,-30.91
491,344421984,0.7290,-0.9150,-0.6636,-55.06,3.35,-32.56
492,344426984,0.7285,-0.9092,-0.6807,-56.59,6.10,-34.21
493,344431984,0.7324,-0.8975,-0.6812,-57.99,8.72,-35.98
494,344436984,0.7256,-0.8911,-0.6914,-59.70,11.46,-37.74
495,344441982,0.7192,-0.8838,-0.7124,-61.46,14.51,-39.39
496,344446984,0.7222,-0.8828,-0.7173,-63.23,17.44,-40.98
497,344451983,0.7256,-0.8838,-0.7163,-65.24,20.30,-42.50
498,344457023,0.7114,-0.8833,-0.7354,-67.26,23.48,-43.90
499,344461982,0.7041,-0.8774,-0.7476,-69.39,26.52,-45.43
500,344466986,0.6963,-0.8701,-0.7529,-71.77,29.57,-46.83
501,344471982,0.6909,-0.8623,-0.7617,-74.27,32.68,-48.17
502,344476984,0.6812,-0.8516,-0.7783,-76.77,35.85,-49.39
503,344482361,0.6802,-0.8447,-0.7915,-79.57,38.96,-50.61
504,344486984,0.6694,-0.8398,-0.7847,-82.44,42.38,-51.89
505,344492414,0.6548,-0.8164,-0.8032,-85.67,45.85,-53.17
506,344496984,0.6460,-0.8018,-0.8076,-88.96,49.21,-54.57
507,344501984,0.6611,-0.8022,-0.8066,-92.07,52.80,-55.67
508,344506984,0.6475,-0.7949,-0.8213,-95.06,56.65,-56.83
509,344511984,0.6255,-0.7832,-0.8154,-98.11,60.43,-57.87
510,344516984,0.6108,-0.7715,-0.8096,-101.04,64.27,-58.96
511,344521984,0.5991,-0.7588,-0.8174,-104.09,68.17,-59.88
512,344526986,0.5928,-0.7500,-0.8062,-107.13,72.20,-60.67
513,344531984,0.5713,-0.7295,-0.7983,-110.30,76.40,-61.40
514,344536984,0.5615,-0.7080,-0.7954,-113.35,80.61,-62.07
515,344541984,0.5601,-0.7153,-0.7842,-116.10,83.90,-62.68
516,344546984,0.5469,-0.7095,-0.7725,-118.60,87.80,-62.87
517,344551984,0.5239,-0.6973,-0.7495,-120.98,92.44,-62.99
518,344556984,0.5107,-0.6797,-0.7314,-123.05,96.71,-62.99
519,344561984,0.4824,-0.6533,-0.7314,-124.88,100.61,-62.99
520,344566984,0.4956,-0.6509,-0.7090,-126.71,104.57,-62.80
521,344571984,0.4863,-0.6387,-0.6890,-127.87,108.66,-62.26
522,344576984,0.4688,-0.6338,-0.6733,-128.78,112.26,-61.59
523,344581984,0.4478,-0.6201,-0.6680,-129.70,116.10,-60.73
524,344587455,0.4351,-0.6025,-0.6509,-130.24,119.88,-59.76
525,344592418,0.4243,-0.5820,-0.6172,-130.98,123.48,-58.60
526,344596984,0.4062,-0.5581,-0.6128,-131.52,127.01,-57.68
527,344601984,0.4170,-0.5513,-0.5908,-131.95,130.49,-56.28
528,344606984,0.4126,-0.5552,-0.5659,-131.83,133.84,-54.82
529,344611984,0.3965,-0.5464,-0.5498,-131.77,137.26,-53.11
530,344616984,0.3896,-0.5405,-0.5254,-131.71,140.37,-51.34
531,344621984,0.3760,-0.5234,-0.5063,-131.59,143.60,-49.39
532,344626986,0.3711,-0.5142,-0.4834,-131.40,146.46,-47.32
533,344631984,0.3628,-0.4990,-0.4580,-131.40,149.45,-45.24
534,344636984,0.3462,-0.4868,-0.4326,-131.34,152.32,-43.05
535,344641984,0.3535,-0.4932,-0.4082,-131.34,155.00,-40.67
536,344646984,0.3486,-0.4917,-0.3955,-131.10,157.80,-38.23
537,344651984,0.3379,-0.4829,-0.3623,-130.67,160.55,-35.67
538,344656984,0.3281,-0.4766,-0.3325,-129.94,163.17,-32.99
539,344661983,0.3208,-0.4702,-0.3120,-129.27,165.55,-30.24
540,344666984,0.3184,-0.4668,-0.2847,-128.35,167.99,-27.38
541,344671984,0.3120,-0.4585,-0.2417,-127.20,170.98,-23.90
542,344676984,0.3062,-0.4570,-0.2368,-126.22,172.74,-21.59
543,344681984,0.2959,-0.4419,-0.2007,-125.12,175.55,-17.74
544,344686984,0.2905,-0.4478,-0.1719,-124.21,177.07,-15.24
545,344692467,0.2881,-0.4414,-0.1484,-122.62,179.70,-11.52
546,344696984,0.2803,-0.4341,-0.1328,-121.40,181.22,-9.15
547,344701984,0.2695,-0.4238,-0.1079,-119.82,183.11,-6.10
548,344706984,0.2622,-0.4067,-0.0713,-118.23,185.18,-2.99
549,344711984,0.2520,-0.4116,-0.0596,-116.59,187.07,-0.12
550,344716986,0.2314,-0.4307,-0.0327,-114.70,188.96,2.99
551,344721984,0.2241,-0.4277,0.0137,-112.87,190.73,5.85
552,344726984,0.2202,-0.4111,0.0234,-110.79,192.56,8.78
553,344731986,0.2100,-0.3921,0.0449,-108.78,194.27,11.65
554,344736984,0.2192,-0.3853,0.0762,-106.89,195.98,14.45
555,344741983,0.1821,-0.3818,0.0991,-104.70,197.50,17.38
556,344746982,0.1812,-0.3965,0.1382,-102.20,199.33,20.12
557,344751982,0.1973,-0.4209,0.1636,-99.51,200.91,23.23
558,344756982,0.1826,-0.4116,0.1846,-96.95,202.50,26.10
559,344761982,0.1699,-0.4111,0.2207,-94.51,204.15,28.96
560,344766982,0.1704,-0.4233,0.2612,-92.01,205.61,31.83
561,344771985,0.1763,-0.4355,0.2793,-89.76,207.20,34.88
562,344776984,0.1611,-0.4463,0.3032,-87.56,208.41,37.93
563,344782273,0.1587,-0.4409,0.3330,-85.37,209.88,41.59
564,344787375,0.1694,-0.4463,0.3579,-84.02,210.73,44.70
565,344792345,0.1685,-0.4590,0.3755,-82.87,211.52,47.99
566,344796984,0.1724,-0.4502,0.3926,-82.07,211.77,50.55
567,344802078,0.1743,-0.4502,0.4126,-81.40,212.07,53.84
568,344806985,0.1753,-0.4468,0.4385,-81.22,211.71,57.13
569,344812410,0.1802,-0.4517,0.4819,-81.34,211.46,61.34
570,344816984,0.1646,-0.4502,0.4990,-81.65,210.91,64.02
571,344821984,0.1592,-0.4463,0.5298,-82.44,210.18,67.38
572,344826984,0.1626,-0.4536,0.5669,-83.54,208.96,70.91
573,344831986,0.1523,-0.4683,0.6167,-84.70,207.74,74.70
574,344836984,0.1445,-0.4746,0.6411,-86.40,206.34,78.60
575,344841984,0.1343,-0.4932,0.6709,-87.93,204.51,82.56
576,344846984,0.1367,-0.5000,0.7085,-89.63,202.44,87.44
577,344851984,0.1211,-0.5161,0.7349,-91.10,200.06,90.73
578,344856984,0.1079,-0.5000,0.7720,-92.74,197.56,95.06
579,344861983,0.0952,-0.5244,0.8218,-94.21,194.70,99.33
580,344866986,0.0815,-0.5337,0.8662,-95.24,191.16,104.76
581,344871982,0.0820,-0.5796,0.8491,-95.43,188.29,108.23
582,344876984,0.0713,-0.5972,0.8931,-94.94,184.82,112.68
583,344881984,0.0938,-0.5771,0.9380,-93.78,181.04,116.89
584,344886984,0.0889,-0.5991,0.9385,-92.26,176.89,121.28
585,344891984,0.0601,-0.6411,0.9551,-89.15,171.52,126.52
586,344896984,0.0835,-0.6030,0.9805,-86.28,167.44,130.00
587,344901984,0.0283,-0.6089,1.0293,-81.95,162.62,134.21
588,344906984,0.0376,-0.6426,1.0811,-76.89,157.56,138.41
589,344911984,-0.0103,-0.6729,1.1050,-70.79,152.20,142.74
590,344916984,-0.0396,-0.7095,1.1499,-64.02,146.95,146.83
591,344921984,0.0015,-0.7451,1.1870,-57.01,141.71,151.16
592,344926984,-0.0659,-0.7593,1.2124,-49.33,136.40,155.37
593,344931984,-0.0522,-0.7798,1.2061,-39.27,129.88,160.37
594,344936985,-0.0991,-0.7803,1.2866,-31.83,125.67,163.54
595,344941984,-0.1548,-0.8154,1.3271,-21.95,120.43,167.74
596,344946982,-0.1426,-0.8433,1.3350,-11.83,115.12,171.52
597,344951984,-0.1670,-0.8706,1.3267,-1.89,109.27,175.18
598,344956984,-0.0986,-0.8574,1.3384,8.05,103.23,178.41
599,344961985,-0.1758,-0.8560,1.4111,18.05,97.32,181.46
600,344966984,-0.2236,-0.8872,1.4321,27.13,90.85,184.33
601,344971986,-0.2524,-0.9150,1.4233,35.12,84.02,187.07
602,344976984,-0.1997,-0.9380,1.4849,42.93,77.87,189.57
603,344981984,-0.2080,-0.9590,1.5732,49.63,71.40,192.01
604,344986984,-0.3306,-0.9795,1.5449,56.52,62.87,194.51
605,344991986,-0.3413,-1.0161,1.5239,61.10,55.37,196.52
606,344996984,-0.3516,-1.0454,1.5942,65.06,47.87,198.48
607,345001984,-0.4048,-1.0386,1.6665,68.05,40.37,200.12
608,345006984,-0.3730,-1.0474,1.5962,70.30,32.13,201.46
609,345011984,-0.4468,-1.0928,1.6357,71.40,23.84,202.68
610,345016984,-0.5083,-1.1177,1.7256,72.56,15.30,203.78
611,345021984,-0.5469,-1.1196,1.7539,73.41,6.40,204.76
612,345026984,-0.5732,-1.1167,1.7148,73.41,-3.05,205.43
613,345031985,-0.5513,-1.1162,1.7520,73.05,-13.23,206.28
614,345036984,-0.5044,-1.1479,1.8154,72.56,-23.29,206.83
615,345042468,-0.5654,-1.1489,1.7715,72.32,-33.96,207.74
616,345046985,-0.5723,-1.1929,1.7944,72.07,-45.49,208.48
617,345051983,-0.5747,-1.2100,1.8491,71.71,-56.83,209.21
618,345056984,-0.6182,-1.2310,1.8789,71.59,-68.54,210.06
619,345061983,-0.6362,-1.2378,1.8701,71.89,-80.73,210.85
620,345066985,-0.6582,-1.2510,1.8950,72.62,-93.29,211.71
621,345071984,-0.6958,-1.2920,1.9351,74.21,-105.43,212.56
622,345076984,-0.6929,-1.3262,1.9751,76.71,-118.05,213.48
623,345081984,-0.7905,-1.3262,1.9526,80.49,-130.85,214.45
624,345086984,-0.7397,-1.3545,1.9644,85.43,-143.96,215.61
625,345091984,-0.7803,-1.3560,1.9912,91.04,-157.13,216.83
626,345096984,-0.8188,-1.4302,2.0371,96.71,-170.37,218.05
627,345101984,-0.8940,-1.4990,2.0894,103.17,-183.66,219.39
628,345106984,-0.8994,-1.5244,2.0894,111.28,-197.38,220.73
629,345111985,-1.0215,-1.5347,2.1216,120.00,-212.20,221.34
630,345116984,-1.0742,-1.6123,2.1763,127.26,-225.79,221.89
631,345121986,-1.1587,-1.6548,2.1875,135.49,-240.43,222.26
632,345126983,-1.1597,-1.6611,2.1265,144.45,-255.55,222.07
633,345131984,-1.2065,-1.6396,2.1021,153.84,-271.40,221.59
634,345136984,-1.2656,-1.6631,2.1191,162.74,-287.44,220.49
635,345141986,-1.2861,-1.7163,2.1152,170.67,-303.48,219.51
636,345146984,-1.3115,-1.7861,2.0815,177.56,-319.70,218.78
637,345151983,-1.3452,-1.8101,2.0684,183.54,-335.91,218.29
638,345156982,-1.3857,-1.8374,2.0723,187.93,-351.95,217.62
639,345161984,-1.4175,-1.8486,2.0469,190.18,-367.93,217.13
640,345166982,-1.4561,-1.8511,2.0107,190.24,-384.39,216.77
641,345171986,-1.4834,-1.8716,1.9966,187.80,-400.55,216.28
642,345176984,-1.5054,-1.8896,1.9722,183.29,-416.77,216.28
643,345181984,-1.5347,-1.9126,1.9258,177.44,-432.93,216.34
644,345186985,-1.5679,-1.9429,1.8667,170.79,-449.02,216.77
645,345191984,-1.5767,-1.9956,1.8120,164.27,-464.88,217.62
646,345197225,-1.5767,-2.0454,1.7324,158.17,-480.12,219.15
647,345201984,-1.5820,-2.1074,1.6475,153.72,-494.82,221.16
648,345206984,-1.5972,-2.1577,1.5547,151.04,-508.72,223.60
649,345211988,-1.6230,-2.2075,1.4648,149.70,-521.71,226.10
650,345216984,-1.6406,-2.2480,1.3647,149.02,-533.60,228.96
651,345221984,-1.6431,-2.2778,1.2466,149.09,-544.27,231.59
652,345226984,-1.6392,-2.3130,1.1201,149.15,-553.66,234.09
653,345231984,-1.6372,-2.3433,0.9834,148.54,-562.07,236.16
654,345236984,-1.6362,-2.3647,0.8604,146.59,-568.90,237.87
655,345241986,-1.6426,-2.3872,0.7476,142.38,-574.57,238.54
656,345246984,-1.6250,-2.4023,0.6245,135.18,-578.41,238.54
657,345251984,-1.6426,-2.4014,0.5352,125.24,-580.91,237.26
658,345257083,-1.6543,-2.4082,0.4585,110.85,-581.71,234.51
659,345261984,-1.6416,-2.4253,0.3594,92.68,-580.43,230.30
660,345266986,-1.6567,-2.3242,0.2993,68.29,-575.91,222.32
661,345271986,-1.6577,-2.3408,0.3916,51.65,-569.70,214.51
662,345276983,-1.5005,-2.2729,0.2329,33.78,-555.85,203.29
663,345281984,-1.5557,-2.1377,-0.1494,21.10,-541.40,187.80
664,345286984,-1.6577,-2.4624,-0.2788,12.38,-527.62,172.62
665,345291984,-1.6523,-2.5049,-0.4746,5.73,-514.45,160.06
666,345296984,-1.6069,-2.3921,-0.6025,1.10,-502.38,147.68
667,345301984,-1.5596,-2.2969,-0.6489,-1.59,-489.70,134.45
668,345307251,-1.5796,-2.2231,-0.7231,-2.62,-475.98,120.30
669,345311984,-1.6069,-2.2144,-0.8311,-1.83,-461.34,105.85
670,345316983,-1.5537,-2.1929,-0.9673,0.73,-446.40,90.43
671,345321984,-1.5005,-2.1938,-1.0308,4.39,-430.98,76.04
672,345326984,-1.4282,-2.2080,-1.0898,7.68,-415.06,60.91
673,345331984,-1.3618,-2.1562,-1.1631,9.63,-398.35,45.85
674,345336985,-1.3003,-2.1353,-1.1816,9.15,-381.10,30.85
675,345341984,-1.1875,-2.0947,-1.1812,6.46,-363.84,15.55
676,345346984,-1.1157,-2.0654,-1.1914,2.87,-346.46,0.55
677,345351982,-1.0073,-2.0161,-1.1890,-1.28,-328.41,-14.02
678,345356984,-0.9668,-1.9312,-1.1787,-4.76,-311.46,-28.23
679,345361982,-0.9458,-1.8516,-1.1284,-8.66,-294.51,-42.07
680,345366983,-0.8882,-1.7769,-1.0889,-13.05,-277.93,-55.49
681,345372631,-0.7900,-1.6968,-1.0786,-18.05,-259.33,-70.67
682,345376984,-0.7417,-1.6411,-1.0693,-20.49,-247.44,-80.12
683,345381984,-0.7036,-1.5640,-1.0527,-22.13,-233.29,-91.10
684,345386984,-0.6689,-1.4961,-1.0459,-21.71,-219.82,-101.22
685,345392374,-0.6284,-1.4268,-1.0356,-19.88,-207.13,-110.24
686,345396984,-0.5869,-1.3506,-1.0181,-16.65,-195.18,-118.41
687,345402432,-0.5479,-1.2871,-0.9902,-12.56,-183.84,-125.30
688,345407472,-0.5024,-1.2075,-0.9575,-7.20,-171.16,-132.26
689,345411984,-0.4673,-1.1558,-0.9341,-3.29,-163.11,-136.10
690,345416984,-0.4233,-1.0933,-0.9023,1.52,-153.29,-140.00
691,345422249,-0.3926,-1.0327,-0.8721,6.46,-144.39,-142.99
692,345426984,-0.3501,-0.9722,-0.8389,11.28,-135.61,-145.06
693,345431984,-0.3101,-0.9277,-0.8091,15.85,-127.38,-146.46
694,345436988,-0.2563,-0.8638,-0.7715,20.73,-117.80,-147.20
695,345441984,-0.2183,-0.8213,-0.7656,23.60,-111.95,-147.20
696,345446986,-0.1812,-0.7725,-0.7251,26.89,-104.51,-146.46
697,345451984,-0.1362,-0.7319,-0.6978,29.70,-97.62,-145.61
698,345457142,-0.1147,-0.6958,-0.6807,31.95,-90.91,-144.21
699,345461984,-0.0806,-0.6650,-0.6689,34.15,-84.57,-142.38
700,345466984,-0.0645,-0.6357,-0.6465,35.98,-78.48,-140.24
701,345471984,-0.0312,-0.6055,-0.6260,37.56,-72.50,-137.74
702,345476983,-0.0015,-0.5864,-0.6006,38.90,-66.77,-134.76
703,345481984,0.0117,-0.5591,-0.6060,40.06,-61.16,-131.46
704,345486984,0.0503,-0.5410,-0.5864,41.10,-54.82,-127.20
705,345491984,0.0698,-0.5259,-0.5591,41.59,-50.79,-124.09
706,345496984,0.0811,-0.5234,-0.5400,41.89,-45.61,-120.00
707,345501984,0.1006,-0.5132,-0.5288,42.07,-40.67,-115.61
708,345506984,0.1255,-0.4995,-0.5142,41.95,-35.91,-110.79
709,345511983,0.1382,-0.4883,-0.5005,41.83,-31.22,-105.98
710,345516984,0.1553,-0.4912,-0.4634,41.65,-26.52,-100.91
711,345521984,0.1846,-0.4844,-0.4531,41.40,-21.89,-95.73
712,345526984,0.2173,-0.4727,-0.4526,41.04,-17.68,-90.43
713,345531984,0.2363,-0.4673,-0.4365,40.61,-13.48,-85.12
714,345536984,0.2578,-0.4551,-0.4116,40.24,-9.39,-80.06
715,345541984,0.2808,-0.4536,-0.3877,39.88,-5.67,-74.76
716,345546984,0.3066,-0.4453,-0.3804,39.63,-2.26,-69.70
717,345551984,0.3369,-0.4370,-0.3701,39.57,0.85,-64.76
718,345556984,0.3579,-0.4331,-0.3486,39.39,3.72,-59.88
719,345561984,0.3716,-0.4316,-0.3330,38.90,6.46,-55.06
720,345566984,0.3857,-0.4272,-0.3154,38.17,8.90,-50.43
721,345571984,0.4067,-0.4336,-0.3081,37.20,11.22,-45.98
722,345577013,0.4316,-0.4355,-0.2788,35.79,13.54,-41.59
723,345581983,0.4521,-0.4434,-0.2515,33.54,15.85,-36.59
724,345586984,0.4663,-0.4453,-0.2407,31.65,17.44,-33.41
725,345591984,0.4727,-0.4531,-0.2100,29.21,19.27,-29.76
726,345596984,0.4824,-0.4585,-0.1875,26.40,21.04,-26.16
727,345601984,0.4932,-0.4658,-0.1675,23.48,22.56,-22.80
728,345607489,0.5122,-0.4775,-0.1440,20.37,24.15,-19.15
729,345611984,0.5171,-0.4775,-0.1265,17.93,25.55,-16.46
730,345616984,0.5327,-0.4829,-0.1089,16.22,26.28,-14.45
731,345621984,0.5449,-0.4893,-0.0967,13.78,27.50,-11.46
732,345626984,0.5581,-0.4941,-0.0850,12.50,28.35,-9.57
733,345631984,0.5806,-0.5044,-0.0620,10.91,29.21,-7.38
734,345636984,0.5923,-0.5122,-0.0498,9.70,29.88,-5.30
735,345641983,0.6079,-0.5215,-0.0308,8.60,30.55,-3.11
736,345646984,0.6177,-0.5259,-0.0215,7.74,31.22,-1.16
737,345651982,0.6343,-0.5298,-0.0049,7.01,31.46,0.67
738,345656982,0.6470,-0.5317,0.0039,6.28,32.01,2.38
739,345661982,0.6558,-0.5352,0.0166,5.67,32.38,4.09
740,345666984,0.6675,-0.5430,0.0308,4.88,32.62,5.79
741,345671984,0.6772,-0.5449,0.0435,4.27,32.87,7.26
742,345676984,0.6836,-0.5518,0.0513,3.84,32.68,8.35
743,345681983,0.6885,-0.5498,0.0669,2.99,32.62,9.57
744,345686984,0.6982,-0.5581,0.0771,2.26,32.50,10.55
745,345691984,0.7061,-0.5601,0.0869,1.10,32.26,11.46
746,345696984,0.7148,-0.5688,0.1016,0.18,31.83,12.38
747,345701983,0.7207,-0.5723,0.1157,-0.91,31.28,13.11
748,345706988,0.7349,-0.5801,0.1216,-2.32,30.61,14.02
749,345711984,0.7451,-0.5840,0.1392,-3.35,30.12,14.39
750,345716984,0.7549,-0.5864,0.1460,-4.51,29.39,14.94
751,345721983,0.7642,-0.5952,0.1499,-5.85,28.48,15.61
752,345726984,0.7715,-0.6016,0.1694,-7.20,27.62,16.04
753,345731984,0.7827,-0.6118,0.1777,-8.48,26.71,16.59
754,345736984,0.7900,-0.6255,0.1787,-9.88,25.49,17.26
755,345741984,0.7993,-0.6284,0.1875,-11.10,24.45,17.74
756,345746985,0.7983,-0.6377,0.1865,-12.44,23.17,18.35
757,345751984,0.8022,-0.6401,0.1929,-13.72,21.83,19.02
758,345756984,0.8052,-0.6411,0.1987,-14.88,20.55,19.51
759,345761984,0.8110,-0.6489,0.1948,-15.79,19.27,19.82
760,345766986,0.8086,-0.6528,0.1997,-16.65,17.68,20.00
761,345771984,0.8091,-0.6543,0.2080,-17.50,16.28,20.30
762,345776984,0.8120,-0.6543,0.2075,-17.93,14.94,20.30
763,345781984,0.8120,-0.6567,0.2065,-18.41,13.60,20.30
764,345787434,0.8022,-0.6665,0.2075,-18.90,12.26,20.00
765,345791984,0.8047,-0.6660,0.2026,-19.33,11.10,19.70
766,345796987,0.7964,-0.6675,0.2051,-19.88,10.12,19.33
767,345801984,0.7881,-0.6675,0.2021,-20.49,9.15,18.90
768,345806984,0.7905,-0.6724,0.1973,-21.34,8.48,18.41
769,345811984,0.7817,-0.6743,0.1899,-22.01,7.80,17.99
770,345816984,0.7842,-0.6753,0.1865,-22.99,6.95,17.56
771,345822478,0.7729,-0.6768,0.1812,-24.15,6.52,16.83
772,345826984,0.7637,-0.6768,0.1772,-25.24,6.10,16.40
773,345831984,0.7598,-0.6816,0.1680,-26.65,5.85,15.85
774,345836984,0.7495,-0.6885,0.1641,-28.23,5.61,15.30
775,345841984,0.7432,-0.6914,0.1587,-30.06,5.37,14.76
776,345846984,0.7349,-0.6899,0.1460,-32.01,5.43,14.45
777,345851984,0.7329,-0.6899,0.1440,-33.96,5.37,14.15
778,345856986,0.7236,-0.6919,0.1338,-35.79,5.55,13.60
779,345861984,0.7168,-0.6914,0.1304,-37.62,5.79,13.23
780,345867055,0.7070,-0.6885,0.1152,-39.39,5.98,12.93
781,345871984,0.7046,-0.6855,0.1118,-40.85,6.34,12.68
782,345876984,0.6997,-0.6821,0.0991,-42.20,6.83,12.38
783,345881984,0.6943,-0.6787,0.0933,-43.29,7.56,12.07
784,345886983,0.6870,-0.6763,0.0933,-44.21,8.23,11.95
785,345891984,0.6831,-0.6772,0.0771,-45.12,8.84,11.95
786,345896982,0.6782,-0.6694,0.0752,-45.85,9.57,11.89
787,345901984,0.6763,-0.6675,0.0649,-46.77,10.30,12.07
788,345906984,0.6709,-0.6626,0.0537,-47.50,10.91,12.20
789,345911984,0.6665,-0.6597,0.0498,-48.41,11.71,12.44
790,345917111,0.6602,-0.6577,0.0410,-49.57,12.20,12.74
791,345921983,0.6519,-0.6514,0.0322,-50.85,12.80,13.23
792,345926984,0.6440,-0.6401,0.0278,-52.44,13.29,13.54
793,345931983,0.6328,-0.6240,0.0176,-53.84,13.72,14.09
794,345936984,0.6431,-0.6172,0.0176,-55.61,14.15,14.57
795,345941983,0.6450,-0.6157,0.0181,-57.13,14.51,15.06
796,345946982,0.6396,-0.6147,0.0039,-58.78,15.06,15.55
797,345951984,0.6377,-0.6201,-0.0020,-60.18,15.18,16.16
798,345956982,0.6377,-0.6128,0.0068,-61.71,15.43,16.89
799,345961982,0.6396,-0.6069,0.0049,-63.11,15.85,17.74
800,345966984,0.6396,-0.6157,0.0020,-64.63,16.16,18.54
801,345971986,0.6333,-0.6118,-0.0088,-65.98,16.40,19.33
802,345976984,0.6382,-0.6182,-0.0161,-67.56,16.46,20.37
803,345981984,0.6353,-0.6094,-0.0103,-68.90,16.71,21.46
804,345986984,0.6367,-0.6167,-0.0254,-70.12,16.89,22.74
805,345991984,0.6431,-0.6196,-0.0386,-70.98,16.95,23.90
806,345996984,0.6406,-0.6235,-0.0620,-71.52,17.01,25.18
807,346001982,0.6396,-0.6172,-0.0488,-71.65,16.89,26.65
808,346006986,0.6489,-0.6426,-0.0439,-71.89,17.01,27.93
809,346011984,0.6377,-0.6226,-0.0620,-72.13,17.07,29.33
810,346016984,0.6147,-0.5933,-0.0762,-71.89,17.07,30.49
811,346021984,0.6016,-0.5918,-0.0298,-71.52,17.01,31.59
812,346026984,0.6133,-0.5996,-0.0186,-71.28,17.32,32.93
813,346031984,0.6265,-0.6133,-0.0352,-71.10,17.26,34.15
814,346036986,0.6284,-0.6191,-0.0537,-71.22,16.95,35.49
815,346041984,0.6040,-0.5898,-0.0278,-71.52,16.71,36.89
816,346046984,0.6108,-0.5791,-0.0190,-71.83,16.46,38.11
817,346051984,0.6187,-0.5889,-0.0361,-72.20,16.16,39.57
818,346056984,0.6050,-0.6035,-0.0283,-72.44,15.98,40.98
819,346061985,0.5801,-0.6138,-0.0049,-72.68,15.67,42.44
820,346066984,0.5562,-0.6211,-0.0566,-73.54,15.49,44.15
821,346071984,0.5210,-0.6270,-0.0615,-74.82,14.88,45.61
822,346076984,0.5000,-0.6724,-0.0293,-76.10,15.06,47.20
823,346081984,0.5400,-0.6846,-0.0640,-78.54,15.06,48.78
824,346086984,0.5405,-0.6455,-0.0957,-81.83,14.94,50.12
825,346091983,0.5415,-0.6416,-0.0864,-84.76,15.24,50.98
826,346096984,0.5298,-0.6558,-0.0654,-87.56,15.73,51.71
827,346101984,0.4922,-0.6587,-0.0703,-89.57,16.52,52.26
828,346106984,0.4644,-0.6436,-0.0796,-90.91,17.20,52.68
829,346111984,0.4443,-0.6328,-0.0659,-91.71,17.87,53.11
830,346116986,0.4399,-0.6240,-0.0474,-92.26,18.72,53.54
831,346122368,0.4399,-0.6255,-0.0625,-92.50,19.57,53.90
832,346126984,0.4404,-0.6431,-0.0801,-92.68,20.00,54.39
833,346131984,0.4380,-0.6587,-0.0708,-92.68,20.91,54.70
834,346137373,0.4526,-0.6865,-0.0669,-92.50,21.77,55.18
835,346142454,0.4478,-0.6929,-0.0962,-92.13,22.20,55.73
836,346146984,0.4404,-0.6885,-0.1089,-91.65,22.80,56.28
837,346151984,0.4229,-0.6885,-0.1108,-91.22,23.35,56.89
838,346156985,0.4072,-0.6802,-0.1167,-90.85,24.02,57.44
839,346161984,0.4092,-0.6812,-0.1230,-90.73,24.57,58.05
840,346166984,0.4048,-0.6880,-0.1211,-90.85,25.18,58.78
841,346171985,0.4004,-0.6958,-0.1113,-91.28,25.79,59.63
842,346176984,0.3940,-0.6914,-0.1353,-91.77,26.52,60.37
843,346181984,0.3892,-0.6870,-0.1514,-92.01,27.26,61.46
844,346186985,0.3916,-0.6899,-0.1572,-92.07,27.87,62.13
845,346191984,0.4004,-0.6919,-0.1582,-92.07,28.66,63.17
846,346197171,0.4155,-0.7026,-0.1655,-92.13,29.63,64.33
847,346201984,0.4194,-0.7119,-0.1719,-92.32,30.61,65.37
848,346206984,0.4253,-0.7256,-0.1743,-92.50,31.46,66.65
849,346211984,0.4229,-0.7305,-0.1772,-93.17,32.62,68.11
850,346216984,0.4160,-0.7383,-0.1807,-93.84,33.29,69.15
851,346221986,0.4087,-0.7461,-0.1880,-95.12,34.15,70.30
852,346226984,0.3994,-0.7461,-0.1904,-96.65,35.12,71.71
853,346231984,0.3965,-0.7520,-0.1909,-98.41,36.04,72.99
854,346236984,0.3906,-0.7563,-0.2036,-100.67,36.95,74.27
855,346241983,0.3770,-0.7593,-0.1968,-103.11,37.87,75.67
856,346246982,0.3711,-0.7627,-0.2007,-105.73,38.66,77.01
857,346251982,0.3550,-0.7715,-0.2002,-108.29,39.63,78.35
858,346256983,0.3452,-0.7710,-0.2090,-111.04,40.43,79.76
859,346261983,0.3354,-0.7705,-0.2119,-113.66,41.34,81.28
860,346267115,0.3228,-0.7744,-0.2104,-116.28,42.13,82.62
861,346271984,0.3086,-0.7749,-0.2095,-118.60,42.99,84.09
862,346276983,0.2969,-0.7705,-0.2085,-120.98,43.60,85.12
863,346281984,0.2847,-0.7715,-0.2153,-122.99,44.45,86.95
864,346286984,0.2729,-0.7700,-0.2129,-125.00,45.24,87.32
865,346291984,0.2661,-0.7690,-0.2144,-126.77,45.98,89.70
866,346296984,0.2622,-0.7686,-0.2197,-128.23,46.65,90.98
867,346301983,0.2593,-0.7651,-0.2173,-129.63,47.32,92.62
868,346306986,0.2588,-0.7661,-0.2139,-130.91,47.80,94.02
869,346311984,0.2539,-0.7666,-0.2158,-131.95,48.23,95.55
870,346316984,0.2520,-0.7656,-0.2227,-132.93,48.78,97.26
871,346321984,0.2461,-0.7700,-0.2241,-133.41,49.09,98.60
872,346326983,0.2334,-0.7681,-0.2295,-134.09,49.27,100.12
873,346331984,0.2280,-0.7695,-0.2285,-134.57,49.63,101.77
874,346336984,0.2148,-0.7729,-0.2349,-134.94,49.70,103.78
875,346342396,0.2056,-0.7744,-0.2368,-135.12,49.94,105.49
876,346346984,0.2046,-0.7769,-0.2368,-135.00,50.06,106.77
877,346351983,0.1978,-0.7773,-0.2383,-134.88,50.00,108.78
878,346356984,0.1885,-0.7769,-0.2437,-134.57,50.06,110.55
879,346361985,0.1836,-0.7866,-0.2495,-134.33,50.06,112.50
880,346366986,0.1777,-0.7983,-0.2539,-133.96,50.06,114.45
881,346371983,0.1772,-0.8057,-0.2612,-133.78,49.82,116.59
882,346376982,0.1685,-0.8218,-0.2651,-133.66,49.57,118.90
883,346381984,0.1611,-0.8384,-0.2744,-133.60,49.70,121.52
884,346386984,0.1572,-0.8496,-0.2778,-133.66,49.45,124.27
885,346391984,0.1426,-0.8623,-0.2812,-133.96,49.27,127.07
886,346396983,0.1353,-0.8765,-0.2827,-134.33,49.15,130.06
887,346401984,0.1265,-0.8853,-0.2891,-134.57,48.96,132.99
888,346406984,0.1255,-0.8887,-0.2930,-134.88,48.90,136.04
889,346411984,0.1177,-0.8921,-0.2993,-134.82,48.66,139.70
890,346416984,0.1099,-0.8936,-0.3013,-134.63,48.41,141.95
891,346421986,0.0986,-0.8950,-0.3105,-133.72,48.41,144.82
892,346426984,0.0879,-0.8877,-0.3120,-132.80,48.17,147.56
893,346431983,0.0762,-0.8862,-0.3179,-131.16,47.93,150.06
894,346436984,0.0615,-0.8862,-0.3281,-129.51,47.80,152.50
895,346441984,0.0400,-0.8862,-0.3340,-127.32,47.74,154.82
896,346446987,0.0361,-0.8862,-0.3442,-124.39,47.62,157.56
897,346451986,0.0234,-0.8872,-0.3521,-122.20,47.44,159.27
898,346456984,0.0078,-0.8882,-0.3535,-119.33,47.38,161.10
899,346461984,-0.0039,-0.8896,-0.3530,-116.04,47.32,163.05
900,346466983,-0.0093,-0.9019,-0.3550,-112.68,47.38,164.94
901,346471982,-0.0205,-0.8955,-0.3672,-109.09,47.56,166.89
902,346476986,-0.0264,-0.8989,-0.3706,-105.30,47.74,168.84
903,346481983,-0.0342,-0.8994,-0.3730,-101.22,47.99,170.79
904,346486984,-0.0430,-0.8940,-0.3750,-97.07,48.29,172.62
905,346491984,-0.0518,-0.8911,-0.3862,-92.62,48.60,174.39
906,346496982,-0.0532,-0.8833,-0.3813,-87.87,48.96,176.10
907,346501986,-0.0562,-0.8721,-0.3882,-82.80,49.51,177.68
908,346506984,-0.0654,-0.8657,-0.3892,-77.80,49.76,179.21
909,346511984,-0.0742,-0.8550,-0.3848,-72.62,50.24,180.61
910,346516984,-0.0747,-0.8477,-0.3862,-67.56,50.61,181.89
911,346522448,-0.0874,-0.8369,-0.3804,-61.95,51.04,183.35
912,346526984,-0.0908,-0.8340,-0.3936,-58.11,51.40,184.39
913,346532429,-0.1030,-0.8301,-0.3965,-53.11,51.95,185.61
914,346536984,-0.1152,-0.8354,-0.3975,-50.30,52.07,186.40
915,346541983,-0.1289,-0.8472,-0.4048,-47.38,52.32,187.68
916,346546982,-0.1504,-0.8652,-0.4141,-45.30,52.87,188.84
917,346551984,-0.1636,-0.8770,-0.4170,-43.90,53.17,190.06
918,346556982,-0.1738,-0.8857,-0.4209,-43.11,53.72,191.46
919,346561983,-0.1816,-0.8906,-0.4189,-42.80,54.21,193.05
920,346567028,-0.1890,-0.8979,-0.4302,-42.74,55.00,194.63
921,346571984,-0.1938,-0.9004,-0.4292,-42.93,55.24,195.85
922,346576986,-0.2021,-0.9072,-0.4355,-42.99,55.79,197.38
923,346581983,-0.2100,-0.9072,-0.4346,-43.17,56.16,198.84
924,346586988,-0.2188,-0.9043,-0.4346,-43.17,56.71,200.85
925,346591988,-0.2217,-0.8989,-0.4380,-43.11,56.83,202.44
926,346596984,-0.2251,-0.8975,-0.4326,-42.80,57.01,203.72
927,346601984,-0.2314,-0.8877,-0.4312,-42.20,57.20,205.12
928,346606983,-0.2427,-0.8730,-0.4307,-40.91,57.38,206.83
929,346611984,-0.2480,-0.8711,-0.4248,-39.82,57.56,207.87
930,346616984,-0.2573,-0.8599,-0.4287,-37.87,57.38,209.02
931,346621984,-0.2705,-0.8535,-0.4282,-35.55,57.32,210.37
932,346626984,-0.2866,-0.8481,-0.4233,-32.32,57.26,211.77
933,346632275,-0.2944,-0.8540,-0.4277,-29.33,57.07,213.11
934,346636984,-0.3037,-0.8623,-0.4312,-26.83,57.01,214.02
935,346641984,-0.3193,-0.8735,-0.4395,-22.80,56.95,215.67
936,346646984,-0.3374,-0.8813,-0.4429,-19.57,57.13,216.83
937,346651984,-0.3618,-0.8857,-0.4536,-16.16,57.50,217.99
938,346656984,-0.3740,-0.8843,-0.4604,-12.44,58.11,218.84
939,346661984,-0.3862,-0.8862,-0.4531,-8.60,58.84,219.63
940,346666984,-0.3936,-0.8843,-0.4653,-4.39,59.76,220.37
941,346672028,-0.4033,-0.8931,-0.4678,0.00,60.61,221.04
942,346676984,-0.4136,-0.9014,-0.4810,4.70,61.46,221.83
943,346681984,-0.4326,-0.9019,-0.4775,9.70,62.56,222.50
944,346686984,-0.4502,-0.9009,-0.4829,14.76,63.66,223.35
945,346691984,-0.4600,-0.8975,-0.4795,20.24,64.63,224.09
946,346696984,-0.4668,-0.8916,-0.4839,25.67,65.55,224.70
947,346701984,-0.4751,-0.8921,-0.4790,31.52,66.65,225.43
948,346706984,-0.4858,-0.8882,-0.4746,37.13,67.87,226.04
949,346711984,-0.5039,-0.8862,-0.4673,42.87,69.09,226.52
950,346716984,-0.5220,-0.8862,-0.4746,48.23,70.43,226.83
951,346721984,-0.5322,-0.8911,-0.4722,53.23,71.77,227.32
952,346726984,-0.5435,-0.8882,-0.4663,58.05,73.05,227.74
953,346731984,-0.5537,-0.8955,-0.4678,62.56,74.27,227.80
954,346736984,-0.5723,-0.9004,-0.4658,66.65,75.67,228.05
955,346741984,-0.5874,-0.9033,-0.4766,70.43,77.32,227.80
956,346746984,-0.6016,-0.9053,-0.4692,73.90,78.96,227.87
957,346751984,-0.6152,-0.9058,-0.4678,77.20,80.79,227.62
958,346756984,-0.6250,-0.9028,-0.4731,80.37,82.56,227.13
959,346761984,-0.6382,-0.9048,-0.4663,83.23,85.49,226.52
960,346766984,-0.6509,-0.9014,-0.4629,85.79,86.28,225.61
961,346771984,-0.6631,-0.8955,-0.4722,88.23,86.52,224.57
962,346776986,-0.6802,-0.8921,-0.4639,89.94,89.21,223.23
963,346781983,-0.6890,-0.8975,-0.4624,91.40,91.46,221.59
964,346786984,-0.6987,-0.8994,-0.4595,92.20,93.41,219.88
965,346791983,-0.6997,-0.9009,-0.4580,92.50,95.18,218.11
966,346797376,-0.7056,-0.9038,-0.4526,92.44,96.71,216.04
967,346801984,-0.7070,-0.9019,-0.4556,92.32,98.29,213.90
968,346806983,-0.7070,-0.9023,-0.4507,91.83,99.88,211.52
969,346811984,-0.7124,-0.8975,-0.4502,91.46,101.10,208.84
970,346816983,-0.7192,-0.8921,-0.4541,91.22,102.13,206.22
971,346821984,-0.7246,-0.9004,-0.4585,91.10,103.35,203.35
972,346826982,-0.7437,-0.9014,-0.4639,91.52,104.15,200.55
973,346831984,-0.7607,-0.8984,-0.4639,92.07,105.06,197.68
974,346836984,-0.7700,-0.9048,-0.4673,92.56,105.91,194.63
975,346842066,-0.7842,-0.9082,-0.4614,93.29,106.59,191.77
976,346846982,-0.7871,-0.9155,-0.4668,93.78,107.20,188.72
977,346851984,-0.7808,-0.9141,-0.4438,93.96,107.93,185.73
978,346856984,-0.7769,-0.9141,-0.4429,94.15,108.41,182.44
979,346861982,-0.7734,-0.9058,-0.4365,94.33,109.15,179.45
980,346866984,-0.7651,-0.8970,-0.4248,94.82,109.39,176.34
981,346871985,-0.7627,-0.8896,-0.4185,95.00,109.94,173.41
982,346876984,-0.7563,-0.8818,-0.4160,95.61,110.00,170.37
983,346881984,-0.7549,-0.8721,-0.4062,96.34,110.24,167.20
984,346886984,-0.7451,-0.8633,-0.3970,97.07,110.30,164.27
985,346892277,-0.7363,-0.8589,-0.3945,98.11,110.24,161.34
986,346896984,-0.7354,-0.8521,-0.3911,99.33,110.06,158.60
987,346901984,-0.7344,-0.8481,-0.3945,100.67,109.82,155.73
988,346906983,-0.7349,-0.8374,-0.3877,102.13,109.39,153.17
989,346911984,-0.7363,-0.8340,-0.3887,103.90,109.15,150.49
990,346916983,-0.7354,-0.8301,-0.3799,105.73,108.78,147.93
991,346921984,-0.7412,-0.8242,-0.3804,107.68,108.54,145.43
992,346926984,-0.7476,-0.8223,-0.3760,109.27,107.99,142.99
993,346931984,-0.7476,-0.8198,-0.3687,110.55,107.68,140.55
994,346936984,-0.7471,-0.8154,-0.3672,111.71,107.62,138.05
995,346941984,-0.7427,-0.8120,-0.3521,112.32,107.32,135.67
996,346946984,-0.7437,-0.8091,-0.3540,112.93,106.89,133.48
997,346951983,-0.7407,-0.8027,-0.3530,113.23,106.65,131.28
998,346956984,-0.7422,-0.7959,-0.3535,113.72,106.34,129.09
999,346961984,-0.7466,-0.7896,-0.3496,113.66,106.10,126.89
1000,346966984,-0.7461,-0.7881,-0.3408,113.11,105.79,124.76
1001,346971983,-0.7490,-0.7852,-0.3350,111.89,105.43,122.44
1002,346976984,-0.7456,-0.7832,-0.3262,109.94,105.18,120.37
1003,346982442,-0.7446,-0.7827,-0.3218,107.13,104.76,117.99
1004,346986984,-0.7383,-0.7783,-0.3091,104.21,104.45,115.67
1005,346992118,-0.7383,-0.7715,-0.3076,100.85,103.96,113.66
1006,346996987,-0.7344,-0.7681,-0.3052,97.38,103.54,111.40
1007,347001984,-0.7358,-0.7583,-0.3027,94.27,102.99,109.33
1008,347006984,-0.7334,-0.7583,-0.2935,90.61,102.20,107.13
1009,347011983,-0.7310,-0.7573,-0.2964,87.26,101.40,105.24
1010,347016984,-0.7197,-0.7568,-0.2847,83.84,100.37,103.48
1011,347021984,-0.7183,-0.7598,-0.2876,80.18,99.09,101.71
1012,347026985,-0.7148,-0.7515,-0.2891,76.71,97.99,100.12
1013,347031984,-0.7124,-0.7402,-0.2720,73.35,96.65,98.66
1014,347037431,-0.7109,-0.7388,-0.2769,69.94,95.30,96.95
1015,347041984,-0.7085,-0.7388,-0.2642,66.95,93.72,95.24
1016,347046984,-0.7041,-0.7349,-0.2686,64.27,92.38,93.78
1017,347051986,-0.7007,-0.7324,-0.2637,62.01,90.79,92.26
1018,347057252,-0.6909,-0.7266,-0.2632,60.06,88.96,90.79
1019,347061984,-0.6865,-0.7280,-0.2554,58.48,86.34,89.76
1020,347066984,-0.6831,-0.7222,-0.2593,57.26,85.06,87.26
1021,347072436,-0.6782,-0.7246,-0.2505,56.16,85.12,86.59
1022,347076984,-0.6772,-0.7261,-0.2476,55.49,82.74,86.52
1023,347081984,-0.6729,-0.7212,-0.2471,55.18,80.98,85.79
1024,347086983,-0.6724,-0.7236,-0.2490,55.18,78.66,83.90
1025,347091986,-0.6675,-0.7207,-0.2466,55.30,77.07,83.23
1026,347096984,-0.6646,-0.7222,-0.2446,56.04,75.00,82.38
1027,347101984,-0.6616,-0.7197,-0.2437,57.32,72.93,81.52
1028,347106984,-0.6587,-0.7183,-0.2441,58.78,70.91,80.79
1029,347111983,-0.6538,-0.7163,-0.2471,60.55,68.72,79.94
1030,347116986,-0.6499,-0.7188,-0.2451,62.74,66.77,79.15
1031,347121984,-0.6460,-0.7202,-0.2422,65.06,64.88,78.48
1032,347126984,-0.6484,-0.7144,-0.2344,67.62,62.99,77.80
1033,347131984,-0.6504,-0.7153,-0.2344,70.24,61.10,76.83
1034,347136984,-0.6509,-0.7139,-0.2285,73.11,58.96,75.98
1035,347141984,-0.6504,-0.7100,-0.2188,75.00,57.68,75.24
1036,347146984,-0.6470,-0.7114,-0.2148,77.38,56.04,74.27
1037,347151983,-0.6440,-0.7070,-0.2222,79.76,54.39,73.35
1038,347156982,-0.6499,-0.7031,-0.2129,82.07,52.93,72.38
1039,347161982,-0.6455,-0.7031,-0.2065,84.39,51.40,71.28
1040,347166984,-0.6479,-0.6973,-0.2046,86.65,49.94,70.30
1041,347172411,-0.6489,-0.7007,-0.2114,89.15,48.23,68.96
1042,347176984,-0.6479,-0.7031,-0.2061,91.04,46.77,67.80
1043,347181984,-0.6543,-0.6982,-0.2061,92.44,45.61,67.20
1044,347186986,-0.6528,-0.6978,-0.1982,93.84,44.15,66.28
1045,347191982,-0.6519,-0.6978,-0.1982,95.12,42.62,65.30
1046,347196991,-0.6523,-0.6992,-0.1934,96.22,40.98,64.39
1047,347201988,-0.6494,-0.6968,-0.1924,96.95,39.57,63.48
1048,347207457,-0.6470,-0.6953,-0.1919,97.68,37.93,62.68
1049,347211984,-0.6499,-0.6958,-0.1899,98.11,36.77,62.01
1050,347217142,-0.6494,-0.6958,-0.1807,98.29,35.30,61.22
1051,347221984,-0.6484,-0.6919,-0.1748,98.23,33.66,60.18
1052,347226984,-0.6484,-0.6880,-0.1763,98.05,32.56,59.57
1053,347232268,-0.6499,-0.6875,-0.1665,97.44,30.79,58.48
1054,347236984,-0.6450,-0.6870,-0.1636,96.71,29.88,57.62
1055,347241984,-0.6465,-0.6816,-0.1621,95.67,28.60,56.71
1056,347246984,-0.6426,-0.6792,-0.1582,94.63,27.56,55.79
1057,347251984,-0.6445,-0.6733,-0.1611,93.35,26.16,54.76
1058,347256984,-0.6445,-0.6782,-0.1558,91.89,24.94,53.66
1059,347261984,-0.6445,-0.6797,-0.1567,90.18,23.60,52.74
1060,347266984,-0.6465,-0.6792,-0.1553,88.29,22.32,51.65
1061,347271984,-0.6460,-0.6807,-0.1509,86.22,20.98,50.85
1062,347276984,-0.6479,-0.6772,-0.1479,84.02,19.70,50.00
1063,347281984,-0.6582,-0.6787,-0.1494,81.71,18.17,49.09
1064,347286984,-0.6509,-0.6787,-0.1533,79.15,17.01,48.17
1065,347291985,-0.6519,-0.6777,-0.1436,76.65,15.61,47.32
1066,347296984,-0.6499,-0.6821,-0.1426,74.02,14.27,46.52
1067,347301984,-0.6489,-0.6763,-0.1372,71.22,12.74,45.67
1068,347306984,-0.6553,-0.6826,-0.1372,68.23,11.46,44.82
1069,347311984,-0.6528,-0.6797,-0.1387,65.49,10.12,43.90
1070,347316983,-0.6519,-0.6802,-0.1406,62.68,8.78,42.93
1071,347321984,-0.6562,-0.6753,-0.1333,59.88,7.32,41.95
1072,347326984,-0.6509,-0.6807,-0.1279,57.26,5.91,41.04
1073,347331984,-0.6494,-0.6816,-0.1289,54.70,4.70,40.06
1074,347336984,-0.6494,-0.6768,-0.1284,52.20,3.54,39.15
1075,347341984,-0.6499,-0.6812,-0.1270,49.70,2.32,38.17
1076,347347156,-0.6533,-0.6812,-0.1265,46.83,0.73,36.95
1077,347351984,-0.6553,-0.6821,-0.1289,45.06,-0.30,36.16
1078,347356984,-0.6572,-0.6880,-0.1270,42.50,-1.71,35.06
1079,347361984,-0.6567,-0.6846,-0.1284,40.91,-2.62,34.21
1080,347366984,-0.6582,-0.6904,-0.1270,39.15,-3.78,33.23
1081,347372253,-0.6592,-0.6938,-0.1260,37.20,-5.00,32.01
1082,347376984,-0.6616,-0.6899,-0.1279,35.79,-5.98,31.28
1083,347381985,-0.6606,-0.6938,-0.1309,34.39,-7.20,30.37
1084,347386984,-0.6636,-0.6982,-0.1299,33.05,-8.23,29.45
1085,347391986,-0.6680,-0.6943,-0.1348,31.83,-9.21,28.54
1086,347396983,-0.6709,-0.6943,-0.1392,30.73,-10.49,27.68
1087,347402022,-0.6733,-0.7012,-0.1304,29.57,-11.83,26.77
1088,347406984,-0.6738,-0.7017,-0.1299,28.96,-12.62,26.10
1089,347411984,-0.6763,-0.6992,-0.1372,27.99,-13.72,25.18
1090,347416984,-0.6738,-0.6963,-0.1377,27.26,-14.63,24.27
1091,347421984,-0.6777,-0.6963,-0.1328,26.65,-15.67,23.41
1092,347426983,-0.6772,-0.6997,-0.1396,25.85,-16.77,22.62
1093,347431984,-0.6826,-0.6968,-0.1328,25.06,-17.74,21.59
1094,347436984,-0.6826,-0.7007,-0.1396,24.39,-18.72,20.79
1095,347441983,-0.6802,-0.6997,-0.1387,23.90,-19.45,20.12
1096,347446982,-0.6875,-0.7036,-0.1396,23.29,-20.43,19.21
1097,347451982,-0.6870,-0.7041,-0.1479,22.62,-21.22,18.48
1098,347456982,-0.6895,-0.7036,-0.1416,22.13,-22.07,17.80
1099,347461986,-0.6885,-0.7041,-0.1348,21.52,-22.93,16.95
1100,347466984,-0.6875,-0.7051,-0.1411,21.04,-23.60,16.40
1101,347471983,-0.6841,-0.7017,-0.1479,20.43,-24.39,15.67
1102,347476984,-0.6875,-0.7070,-0.1460,19.82,-25.24,15.12
1103,347482425,-0.6870,-0.7065,-0.1470,19.15,-26.10,14.57
1104,347486984,-0.6836,-0.7090,-0.1455,18.54,-26.89,14.02
1105,347491984,-0.6860,-0.7056,-0.1504,17.93,-27.68,13.48
1106,347496985,-0.6919,-0.7075,-0.1514,17.32,-28.35,12.99
1107,347501984,-0.6865,-0.7085,-0.1523,16.77,-28.90,12.44
1108,347506984,-0.6870,-0.7080,-0.1523,16.10,-29.70,11.95
1109,347511984,-0.6865,-0.7085,-0.1519,15.61,-30.49,11.46
1110,347516984,-0.6934,-0.7100,-0.1567,15.06,-31.10,11.10
1111,347521983,-0.6851,-0.7080,-0.1543,14.51,-31.77,10.61
1112,347526984,-0.6895,-0.7061,-0.1523,14.02,-32.20,10.18
1113,347531984,-0.6890,-0.7046,-0.1592,13.60,-32.80,9.76
1114,347536984,-0.6948,-0.7021,-0.1567,13.05,-33.29,9.45
1115,347542212,-0.6899,-0.7080,-0.1587,12.62,-33.84,8.96
1116,347546984,-0.6880,-0.7085,-0.1597,12.13,-34.39,8.60
1117,347551984,-0.6895,-0.7095,-0.1646,11.89,-34.88,8.17
1118,347556984,-0.6929,-0.7036,-0.1636,11.52,-35.18,7.80
1119,347561984,-0.7002,-0.7061,-0.1636,11.22,-35.73,7.32
1120,347566984,-0.6992,-0.7046,-0.1729,10.98,-35.85,7.07
1121,347571984,-0.6978,-0.7021,-0.1680,10.79,-36.28,6.71
1122,347576984,-0.6973,-0.7075,-0.1743,10.55,-36.71,6.28
1123,347581984,-0.6973,-0.7075,-0.1719,10.43,-37.01,5.98
1124,347586983,-0.6963,-0.7031,-0.1650,10.18,-37.32,5.55
1125,347591984,-0.6968,-0.7046,-0.1709,10.00,-37.56,5.18
1126,347596986,-0.7012,-0.7031,-0.1729,9.82,-37.74,4.82
1127,347601983,-0.6982,-0.7002,-0.1748,9.82,-37.93,4.57
1128,347606984,-0.7021,-0.6987,-0.1724,9.51,-38.17,4.21
1129,347611984,-0.6997,-0.6982,-0.1738,9.45,-38.29,3.66
1130,347616984,-0.6997,-0.6958,-0.1763,9.09,-38.41,3.23
1131,347621984,-0.6978,-0.6973,-0.1787,8.90,-38.41,2.87
1132,347626984,-0.6982,-0.6958,-0.1699,8.66,-38.60,2.38
1133,347631982,-0.6968,-0.6963,-0.1733,8.35,-38.72,1.95
1134,347636984,-0.6938,-0.6919,-0.1753,8.05,-38.72,1.52
1135,347641984,-0.6929,-0.6914,-0.1787,7.68,-38.60,1.04
1136,347646984,-0.6948,-0.6924,-0.1772,7.32,-38.60,0.61
1137,347651984,-0.6914,-0.6899,-0.1797,7.01,-38.41,0.18
1138,347656984,-0.6938,-0.6895,-0.1797,6.52,-38.35,-0.43
1139,347661984,-0.6919,-0.6851,-0.1758,6.10,-38.11,-0.79
1140,347666984,-0.6929,-0.6860,-0.1821,5.79,-37.99,-1.52
1141,347671984,-0.6934,-0.6851,-0.1821,5.24,-37.68,-2.01
1142,347676984,-0.6953,-0.6860,-0.1763,4.76,-37.56,-2.50
1143,347681984,-0.6909,-0.6802,-0.1782,4.21,-37.26,-2.99
1144,347686984,-0.6929,-0.6865,-0.1777,3.54,-37.01,-3.48
1145,347691984,-0.6963,-0.6816,-0.1802,2.93,-36.83,-4.09
1146,347696984,-0.6953,-0.6758,-0.1826,2.20,-36.52,-4.51
1147,347701984,-0.6943,-0.6733,-0.1802,1.52,-36.16,-5.12
1148,347706984,-0.6899,-0.6729,-0.1836,0.73,-36.10,-5.67
1149,347711982,-0.6919,-0.6763,-0.1792,0.06,-35.61,-6.34
1150,347716982,-0.6919,-0.6694,-0.1846,-0.67,-35.37,-6.83
1151,347721984,-0.6953,-0.6689,-0.1870,-1.59,-35.12,-7.44
1152,347726982,-0.6948,-0.6704,-0.1841,-2.56,-34.57,-7.87
1153,347731984,-0.6909,-0.6670,-0.1865,-3.60,-34.21,-8.23
1154,347736984,-0.6953,-0.6680,-0.1880,-4.57,-33.90,-8.90
1155,347741983,-0.6973,-0.6655,-0.1826,-5.49,-33.35,-9.33
1156,347746982,-0.6978,-0.6650,-0.1860,-6.52,-33.17,-9.88
1157,347751982,-0.6948,-0.6665,-0.1899,-7.50,-32.87,-10.30
1158,347756982,-0.6909,-0.6641,-0.1919,-8.54,-32.26,-10.67
1159,347761982,-0.6919,-0.6626,-0.1938,-9.57,-31.95,-11.04
1160,347766987,-0.6924,-0.6636,-0.1948,-10.43,-31.34,-11.46
1161,347771984,-0.6924,-0.6616,-0.1851,-11.28,-30.98,-11.71
1162,347776984,-0.6909,-0.6626,-0.1865,-12.13,-30.49,-12.13
1163,347781984,-0.6899,-0.6606,-0.1880,-13.11,-30.18,-12.56
1164,347786984,-0.6914,-0.6572,-0.1870,-13.72,-29.70,-12.93
1165,347791984,-0.6880,-0.6553,-0.1855,-14.51,-29.09,-13.29
1166,347796984,-0.6836,-0.6567,-0.1948,-15.06,-28.72,-13.72
1167,347801986,-0.6831,-0.6558,-0.1958,-15.67,-28.17,-13.96
1168,347806984,-0.6846,-0.6548,-0.1938,-16.22,-27.74,-14.27
1169,347812083,-0.6855,-0.6553,-0.1968,-16.65,-27.32,-14.57
1170,347816984,-0.6816,-0.6528,-0.1992,-17.20,-26.89,-14.76
1171,347821984,-0.6851,-0.6514,-0.1992,-17.68,-26.46,-15.00
1172,347826984,-0.6855,-0.6548,-0.1899,-18.17,-25.98,-15.24
1173,347831985,-0.6885,-0.6567,-0.1968,-18.60,-25.61,-15.49
1174,347836984,-0.6870,-0.6562,-0.1958,-19.21,-25.12,-15.55
1175,347841983,-0.6860,-0.6597,-0.2017,-19.57,-24.57,-15.49
1176,347846984,-0.6875,-0.6626,-0.2036,-20.18,-24.27,-15.61
1177,347851984,-0.6909,-0.6592,-0.2061,-20.67,-23.78,-15.61
1178,347856984,-0.6870,-0.6650,-0.2056,-20.98,-23.23,-15.55
1179,347861984,-0.6855,-0.6655,-0.2056,-21.22,-22.62,-15.55
1180,347866984,-0.6846,-0.6665,-0.2021,-21.34,-22.32,-15.37
1181,347871984,-0.6826,-0.6733,-0.2095,-21.40,-21.83,-15.06
1182,347876984,-0.6836,-0.6685,-0.2100,-21.46,-21.46,-15.06
1183,347881984,-0.6816,-0.6660,-0.2100,-21.22,-20.91,-14.82
1184,347886984,-0.6860,-0.6689,-0.2134,-20.79,-20.49,-14.76
1185,347891984,-0.6865,-0.6655,-0.2144,-20.12,-19.88,-14.63
1186,347896985,-0.6885,-0.6699,-0.2134,-19.39,-19.33,-14.57
1187,347901984,-0.6899,-0.6675,-0.2163,-18.41,-18.84,-14.57
1188,347906986,-0.6895,-0.6680,-0.2207,-17.44,-18.17,-14.45
1189,347911984,-0.6836,-0.6641,-0.2236,-16.28,-17.74,-14.45
1190,347916984,-0.6929,-0.6660,-0.2207,-14.94,-17.07,-14.33
1191,347921984,-0.6924,-0.6650,-0.2280,-13.84,-16.52,-14.33
1192,347926984,-0.6885,-0.6704,-0.2207,-12.56,-15.85,-14.39
1193,347931983,-0.6958,-0.6670,-0.2285,-11.22,-15.18,-14.21
1194,347936984,-0.7031,-0.6641,-0.2295,-10.24,-14.57,-14.33
1195,347941984,-0.7090,-0.6675,-0.2368,-8.78,-13.84,-14.15
1196,347946984,-0.7100,-0.6675,-0.2319,-7.80,-13.48,-14.15
1197,347951984,-0.7046,-0.6636,-0.2349,-6.40,-12.50,-14.09
1198,347956984,-0.7051,-0.6631,-0.2314,-5.30,-12.13,-14.21
1199,347961984,-0.7070,-0.6602,-0.2314,-4.15,-11.16,-14.27
1200,347966984,-0.7090,-0.6562,-0.2275,-2.87,-10.55,-14.45
1201,347971984,-0.7095,-0.6548,-0.2373,-1.83,-9.82,-14.51
1202,347976984,-0.7070,-0.6553,-0.2344,-0.85,-9.02,-14.88
1203,347981984,-0.7085,-0.6543,-0.2378,0.12,-8.23,-14.88
1204,347986984,-0.7095,-0.6592,-0.2393,0.73,-7.62,-15.06
1205,347992036,-0.7070,-0.6567,-0.2437,1.10,-6.95,-15.12
1206,347996985,-0.7173,-0.6636,-0.2456,1.28,-5.98,-15.30
1207,348001984,-0.7129,-0.6665,-0.2388,1.22,-5.30,-15.30
1208,348006984,-0.7124,-0.6685,-0.2432,0.79,-4.57,-15.43
1209,348011984,-0.7070,-0.6655,-0.2378,0.24,-3.66,-15.37
1210,348016984,-0.7007,-0.6626,-0.2363,-0.49,-2.93,-15.30
1211,348021984,-0.6943,-0.6646,-0.2344,-1.40,-1.95,-15.30
1212,348026984,-0.6885,-0.6611,-0.2397,-2.44,-0.91,-15.30
1213,348031984,-0.6865,-0.6665,-0.2378,-3.41,-0.06,-15.30
1214,348036983,-0.6772,-0.6646,-0.2358,-4.76,1.16,-15.12
1215,348041982,-0.6768,-0.6621,-0.2236,-5.98,2.26,-15.12
1216,348046982,-0.6699,-0.6660,-0.2202,-7.38,3.23,-15.12
1217,348052460,-0.6685,-0.6665,-0.2334,-8.78,4.57,-15.00
1218,348056984,-0.6567,-0.6675,-0.2251,-9.70,5.55,-14.94
1219,348061983,-0.6514,-0.6694,-0.2227,-10.79,6.59,-14.82
1220,348067148,-0.6440,-0.6699,-0.2207,-12.01,8.05,-14.63
1221,348071984,-0.6382,-0.6699,-0.2207,-13.05,9.33,-14.39
1222,348076984,-0.6348,-0.6714,-0.2183,-13.72,10.18,-14.21
1223,348082479,-0.6299,-0.6724,-0.2163,-14.57,11.65,-13.96
1224,348086984,-0.6289,-0.6704,-0.2217,-15.12,12.68,-13.84
1225,348091984,-0.6255,-0.6763,-0.2148,-15.55,13.78,-13.60
1226,348096984,-0.6172,-0.6787,-0.2134,-15.91,14.82,-13.35
1227,348102610,-0.6177,-0.6816,-0.2168,-16.04,16.22,-13.05
1228,348106984,-0.6172,-0.6807,-0.2148,-15.98,17.13,-12.87
1229,348111986,-0.6167,-0.6812,-0.2056,-15.98,18.23,-12.56
1230,348116986,-0.6196,-0.6846,-0.2119,-15.61,19.09,-12.20
1231,348121984,-0.6147,-0.6860,-0.2075,-15.06,20.18,-12.01
1232,348126984,-0.6138,-0.6860,-0.2168,-14.45,21.28,-11.52
1233,348131984,-0.6196,-0.6895,-0.2144,-13.66,22.13,-11.16
1234,348136984,-0.6143,-0.6953,-0.2119,-12.68,23.17,-10.61
1235,348141984,-0.6147,-0.6938,-0.2100,-11.83,23.96,-10.30
1236,348146988,-0.6196,-0.6982,-0.2080,-10.73,25.06,-9.82
1237,348151984,-0.6221,-0.6978,-0.2119,-9.76,25.67,-9.45
1238,348156984,-0.6284,-0.6992,-0.2124,-8.41,26.46,-9.02
1239,348162478,-0.6270,-0.6997,-0.2090,-6.89,27.44,-8.41
1240,348166984,-0.6309,-0.7007,-0.2153,-5.79,28.17,-7.99
1241,348171983,-0.6289,-0.7026,-0.2065,-4.27,28.84,-7.56
1242,348176984,-0.6284,-0.6992,-0.2051,-2.68,29.57,-7.07
1243,348181984,-0.6318,-0.7002,-0.1958,-0.98,30.24,-6.65
1244,348186984,-0.6318,-0.6982,-0.2114,0.79,30.73,-6.28
1245,348191984,-0.6318,-0.6973,-0.2012,2.32,31.40,-5.79
1246,348197429,-0.6260,-0.7017,-0.2056,4.02,31.83,-5.37
1247,348201984,-0.6333,-0.7012,-0.2036,5.30,32.20,-5.06
1248,348206984,-0.6260,-0.7002,-0.1978,7.01,32.56,-4.63
1249,348211986,-0.6289,-0.6973,-0.1968,8.60,32.87,-4.21
1250,348216984,-0.6211,-0.6987,-0.1943,10.00,33.11,-3.78
1251,348221984,-0.6206,-0.6958,-0.1958,11.34,33.23,-3.41
1252,348226986,-0.6187,-0.6978,-0.1831,12.56,33.41,-2.93
1253,348231984,-0.6230,-0.6938,-0.1836,13.84,33.41,-2.62
1254,348236984,-0.6196,-0.6934,-0.1797,14.94,33.54,-2.20
1255,348241983,-0.6152,-0.6943,-0.1851,16.04,33.41,-1.83
1256,348246984,-0.6147,-0.6929,-0.1758,16.95,33.35,-1.52
1257,348251984,-0.6099,-0.6919,-0.1777,17.99,33.41,-1.16
1258,348256984,-0.6084,-0.6890,-0.1670,18.78,33.29,-0.91
1259,348261984,-0.6074,-0.6875,-0.1743,19.51,33.17,-0.55
1260,348266984,-0.6040,-0.6846,-0.1724,20.06,32.87,-0.18
1261,348271984,-0.6030,-0.6831,-0.1631,20.73,32.68,0.00
1262,348276984,-0.6021,-0.6807,-0.1606,21.34,32.38,0.24
1263,348281984,-0.5986,-0.6826,-0.1636,21.71,32.07,0.49
1264,348286986,-0.5996,-0.6787,-0.1567,22.07,31.77,0.73
1265,348291984,-0.5967,-0.6763,-0.1504,22.44,31.34,0.98
1266,348296984,-0.5957,-0.6792,-0.1641,22.56,30.73,1.22
1267,348301984,-0.5952,-0.6748,-0.1572,22.68,30.55,1.34
1268,348306984,-0.5967,-0.6733,-0.1509,22.74,29.82,1.65
1269,348311986,-0.5952,-0.6758,-0.1499,22.80,29.27,1.77
1270,348316984,-0.5933,-0.6763,-0.1523,22.74,28.72,1.89
1271,348321984,-0.5918,-0.6748,-0.1436,22.62,28.11,2.13
1272,348326984,-0.5923,-0.6772,-0.1484,22.56,27.50,2.32
1273,348331984,-0.5923,-0.6733,-0.1440,22.20,26.77,2.56
1274,348336984,-0.5908,-0.6729,-0.1396,22.01,25.91,2.68
1275,348341983,-0.5908,-0.6772,-0.1450,21.77,25.24,2.87
1276,348346982,-0.5908,-0.6787,-0.1411,21.34,24.63,2.99
1277,348351982,-0.5913,-0.6768,-0.1479,20.91,23.90,3.17
1278,348356982,-0.5850,-0.6758,-0.1328,20.49,23.11,3.48
1279,348361982,-0.5874,-0.6729,-0.1426,19.88,22.32,3.54
1280,348366984,-0.5879,-0.6777,-0.1387,19.51,21.59,3.78
1281,348372340,-0.5859,-0.6704,-0.1416,18.96,20.73,3.90
1282,348376987,-0.5874,-0.6733,-0.1309,18.17,20.00,4.02
1283,348381984,-0.5874,-0.6753,-0.1338,17.62,19.27,4.09
1284,348386984,-0.5879,-0.6729,-0.1323,16.83,18.48,4.27
1285,348391984,-0.5894,-0.6729,-0.1284,15.91,17.56,4.57
1286,348396984,-0.5874,-0.6763,-0.1274,14.88,16.89,4.57
1287,348401984,-0.5854,-0.6748,-0.1284,13.96,16.28,4.82
1288,348406985,-0.5815,-0.6782,-0.1353,12.93,15.43,5.06
1289,348412193,-0.5791,-0.6831,-0.1270,11.71,14.76,5.18
1290,348416984,-0.5796,-0.6816,-0.1221,10.67,14.15,5.55
1291,348421984,-0.5752,-0.6851,-0.1250,9.45,13.23,5.73
1292,348426983,-0.5767,-0.6851,-0.1240,8.35,12.44,6.10
1293,348431984,-0.5786,-0.6875,-0.1289,7.13,12.01,6.22
1294,348436984,-0.5776,-0.6890,-0.1235,5.98,11.22,6.52
1295,348441984,-0.5781,-0.6909,-0.1265,4.94,10.55,6.77
1296,348446984,-0.5771,-0.6875,-0.1250,4.15,9.76,7.01
1297,348451984,-0.5732,-0.6885,-0.1230,3.41,9.27,7.20
1298,348457452,-0.5698,-0.6895,-0.1226,2.87,8.72,7.32
1299,348461984,-0.5718,-0.6914,-0.1216,2.32,8.23,7.50
1300,348466984,-0.5703,-0.6919,-0.1221,2.07,7.87,7.62
1301,348471986,-0.5732,-0.6909,-0.1235,1.89,7.44,7.74
1302,348476984,-0.5757,-0.6914,-0.1211,1.77,6.83,7.93
1303,348481984,-0.5825,-0.6904,-0.1226,1.89,6.40,8.05
1304,348486984,-0.5825,-0.6948,-0.1289,2.01,5.98,7.99
1305,348491984,-0.5820,-0.6968,-0.1265,2.13,5.61,8.11
1306,348496984,-0.5786,-0.6982,-0.1289,2.50,5.18,8.17
1307,348501984,-0.5850,-0.6978,-0.1279,2.68,4.88,8.41
1308,348506984,-0.5859,-0.6978,-0.1270,3.05,4.39,8.35
1309,348511985,-0.5898,-0.7007,-0.1270,3.23,4.09,8.48
1310,348516984,-0.5889,-0.7002,-0.1240,3.60,3.72,8.54
1311,348521984,-0.5903,-0.7002,-0.1284,3.96,3.41,8.66
1312,348526982,-0.5928,-0.6987,-0.1294,4.02,3.17,8.66
1313,348531984,-0.6001,-0.7007,-0.1260,4.21,2.87,8.78
1314,348536984,-0.5962,-0.7046,-0.1299,4.33,2.56,8.84
1315,348541984,-0.5986,-0.7046,-0.1265,4.51,2.20,8.90
1316,348546983,-0.6025,-0.7090,-0.1348,4.39,1.83,8.90
1317,348552384,-0.6069,-0.7046,-0.1313,4.39,1.52,9.02
1318,348556984,-0.6079,-0.7046,-0.1294,4.39,1.28,9.15
1319,348561984,-0.6025,-0.7085,-0.1333,4.09,1.10,9.15
1320,348566984,-0.6035,-0.7085,-0.1357,4.02,0.91,9.27
1321,348572319,-0.6069,-0.7104,-0.1313,3.78,0.49,9.33
1322,348576984,-0.6118,-0.7095,-0.1289,3.60,0.37,9.39
1323,348581984,-0.6104,-0.7119,-0.1318,3.23,0.06,9.45
1324,348587447,-0.6060,-0.7148,-0.1284,2.99,-0.24,9.57
1325,348591984,-0.6079,-0.7207,-0.1343,2.68,-0.55,9.76
1326,348596984,-0.6108,-0.7197,-0.1333,2.44,-0.67,9.82
1327,348601984,-0.6084,-0.7212,-0.1318,2.20,-0.91,10.00
1328,348606990,-0.6069,-0.7217,-0.1328,1.89,-1.34,10.24
1329,348611986,-0.6133,-0.7231,-0.1313,1.77,-1.65,10.30
1330,348616982,-0.6133,-0.7236,-0.1367,1.77,-2.01,10.43
1331,348621982,-0.6118,-0.7261,-0.1284,1.59,-2.26,10.61
1332,348627076,-0.6113,-0.7256,-0.1323,1.59,-2.50,10.73
1333,348631984,-0.6050,-0.7280,-0.1313,1.77,-2.99,10.85
1334,348636984,-0.6060,-0.7290,-0.1343,1.77,-3.54,11.04
1335,348641984,-0.6064,-0.7314,-0.1274,2.01,-3.90,11.10
1336,348647012,-0.6089,-0.7271,-0.1372,2.44,-4.27,11.40
1337,348651982,-0.6104,-0.7329,-0.1343,2.80,-4.76,11.46
1338,348656982,-0.6069,-0.7295,-0.1318,3.29,-5.24,11.65
1339,348661982,-0.6040,-0.7314,-0.1338,3.90,-5.85,11.77
1340,348666982,-0.6089,-0.7305,-0.1338,4.51,-6.28,11.95
1341,348671984,-0.6040,-0.7295,-0.1357,5.00,-6.89,12.07
1342,348676986,-0.6064,-0.7295,-0.1353,5.67,-7.56,12.13
1343,348681984,-0.6064,-0.7266,-0.1396,6.28,-8.11,12.13
1344,348686984,-0.6108,-0.7285,-0.1313,7.07,-8.54,12.32
1345,348691984,-0.6099,-0.7310,-0.1323,7.62,-9.21,12.44
1346,348696984,-0.6152,-0.7305,-0.1392,8.17,-9.70,12.44
1347,348701986,-0.6118,-0.7363,-0.1382,8.78,-10.37,12.50
1348,348706984,-0.6133,-0.7358,-0.1392,9.27,-10.98,12.56
1349,348711984,-0.6147,-0.7344,-0.1387,9.63,-11.52,12.56
1350,348716985,-0.6162,-0.7378,-0.1372,10.00,-12.07,12.62
1351,348721984,-0.6182,-0.7329,-0.1421,10.49,-12.62,12.62
1352,348726984,-0.6172,-0.7314,-0.1372,10.67,-13.05,12.62
1353,348731984,-0.6167,-0.7344,-0.1416,10.98,-13.60,12.56
1354,348736984,-0.6196,-0.7319,-0.1396,11.34,-14.09,12.62
1355,348741984,-0.6265,-0.7368,-0.1387,11.59,-14.51,12.56
1356,348746984,-0.6274,-0.7344,-0.1416,11.83,-14.94,12.44
1357,348751984,-0.6294,-0.7368,-0.1455,11.83,-15.24,12.26
1358,348756984,-0.6318,-0.7329,-0.1440,12.07,-15.85,12.20
1359,348761984,-0.6323,-0.7354,-0.1440,12.07,-16.28,12.01
1360,348766984,-0.6323,-0.7349,-0.1543,12.01,-16.46,11.95
1361,348771984,-0.6299,-0.7383,-0.1450,11.83,-16.89,11.71
1362,348777022,-0.6333,-0.7339,-0.1470,11.59,-17.26,11.52
1363,348781983,-0.6323,-0.7339,-0.1440,11.28,-17.62,11.28
1364,348786984,-0.6338,-0.7305,-0.1465,10.98,-17.99,11.10
1365,348791984,-0.6313,-0.7314,-0.1460,10.61,-18.17,10.85
1366,348796984,-0.6348,-0.7285,-0.1465,10.12,-18.66,10.55
1367,348801984,-0.6309,-0.7314,-0.1416,9.45,-18.90,10.30
1368,348806984,-0.6348,-0.7251,-0.1431,8.96,-19.27,9.94
1369,348811984,-0.6294,-0.7339,-0.1533,8.23,-19.33,9.63
1370,348816984,-0.6274,-0.7344,-0.1460,7.56,-19.57,9.27
1371,348822507,-0.6323,-0.7324,-0.1479,6.65,-19.82,8.84
1372,348826984,-0.6313,-0.7319,-0.1484,6.04,-20.12,8.60
1373,348831984,-0.6284,-0.7310,-0.1431,5.30,-20.37,8.29
1374,348836984,-0.6304,-0.7310,-0.1465,4.51,-20.61,7.87
1375,348841984,-0.6377,-0.7363,-0.1519,3.72,-20.73,7.50
1376,348846984,-0.6323,-0.7275,-0.1499,2.93,-20.91,7.07
1377,348851984,-0.6392,-0.7295,-0.1553,2.20,-21.10,6.71
1378,348856985,-0.6372,-0.7290,-0.1504,1.40,-21.28,6.28
1379,348861984,-0.6401,-0.7314,-0.1504,0.55,-21.52,5.85
1380,348866983,-0.6440,-0.7319,-0.1523,0.00,-21.59,5.55
1381,348871984,-0.6401,-0.7354,-0.1553,-0.67,-21.59,5.18
1382,348876984,-0.6392,-0.7310,-0.1562,-1.46,-21.83,4.70
1383,348881984,-0.6411,-0.7319,-0.1528,-2.07,-22.07,4.27
1384,348886984,-0.6455,-0.7310,-0.1587,-2.62,-21.95,3.90
1385,348891984,-0.6445,-0.7314,-0.1523,-3.35,-22.01,3.60
1386,348896984,-0.6450,-0.7319,-0.1504,-3.90,-21.89,3.11
1387,348901986,-0.6519,-0.7319,-0.1597,-4.51,-21.83,2.87
1388,348906983,-0.6484,-0.7349,-0.1621,-5.06,-22.01,2.44
1389,348911984,-0.6484,-0.7339,-0.1572,-5.37,-21.89,2.13
1390,348916983,-0.6514,-0.7334,-0.1621,-5.85,-21.83,1.89
1391,348921984,-0.6514,-0.7310,-0.1582,-6.16,-21.89,1.46
1392,348926986,-0.6514,-0.7324,-0.1641,-6.40,-21.59,0.98
1393,348931984,-0.6562,-0.7266,-0.1733,-6.40,-21.52,0.73
1394,348936984,-0.6504,-0.7305,-0.1650,-6.46,-21.34,0.30
1395,348941982,-0.6543,-0.7305,-0.1646,-6.40,-21.22,0.00
1396,348946982,-0.6558,-0.7310,-0.1636,-6.34,-21.22,-0.30
1397,348951982,-0.6523,-0.7290,-0.1714,-6.28,-21.10,-0.67
1398,348956982,-0.6499,-0.7241,-0.1641,-6.10,-21.04,-0.98
1399,348961984,-0.6504,-0.7290,-0.1650,-5.85,-20.85,-1.28
1400,348966984,-0.6509,-0.7275,-0.1680,-5.55,-20.67,-1.65
1401,348971983,-0.6523,-0.7251,-0.1694,-5.37,-20.73,-1.89
1402,348976984,-0.6484,-0.7212,-0.1660,-5.12,-20.43,-2.13
1403,348981984,-0.6445,-0.7222,-0.1650,-4.82,-20.30,-2.38
1404,348986984,-0.6421,-0.7246,-0.1660,-4.57,-20.24,-2.62
1405,348991983,-0.6401,-0.7241,-0.1641,-4.27,-20.12,-2.87
1406,348996982,-0.6377,-0.7183,-0.1611,-3.96,-20.06,-2.99
1407,349001984,-0.6445,-0.7188,-0.1675,-3.78,-20.12,-3.17
1408,349006983,-0.6440,-0.7129,-0.1714,-3.48,-20.00,-3.41
1409,349011984,-0.6401,-0.7134,-0.1694,-3.29,-19.88,-3.54
1410,349016984,-0.6353,-0.7104,-0.1641,-3.05,-19.82,-3.72
1411,349021984,-0.6367,-0.7095,-0.1611,-2.80,-19.76,-3.90
1412,349027386,-0.6377,-0.7070,-0.1689,-2.80,-19.76,-4.27
1413,349031984,-0.6382,-0.7085,-0.1665,-2.68,-19.82,-4.33
1414,349036984,-0.6382,-0.7056,-0.1655,-2.80,-19.51,-4.51
1415,349041984,-0.6396,-0.7056,-0.1665,-2.80,-19.27,-4.70
1416,349046984,-0.6392,-0.6997,-0.1694,-3.17,-19.15,-4.76
1417,349051984,-0.6392,-0.7021,-0.1699,-3.41,-18.96,-4.88
1418,349056984,-0.6377,-0.6987,-0.1665,-3.78,-18.84,-5.18
1419,349061984,-0.6392,-0.6992,-0.1670,-4.09,-18.72,-5.43
1420,349066984,-0.6411,-0.7002,-0.1709,-4.63,-18.41,-5.49
1421,349071984,-0.6387,-0.6963,-0.1685,-5.12,-18.23,-5.61
1422,349076983,-0.6372,-0.6938,-0.1675,-5.61,-17.99,-5.73
1423,349081984,-0.6392,-0.6943,-0.1738,-6.28,-17.80,-5.79
1424,349086984,-0.6436,-0.6934,-0.1709,-6.65,-17.50,-5.91
1425,349091984,-0.6357,-0.6929,-0.1699,-7.20,-17.44,-5.98
1426,349096984,-0.6333,-0.6919,-0.1694,-7.80,-17.26,-6.16
1427,349101983,-0.6348,-0.6904,-0.1763,-8.23,-17.01,-6.28
1428,349106984,-0.6333,-0.6865,-0.1743,-8.60,-16.59,-6.34
1429,349111984,-0.6372,-0.6895,-0.1743,-9.02,-16.46,-6.40
1430,349116986,-0.6343,-0.6880,-0.1714,-9.33,-16.34,-6.52
1431,349121984,-0.6372,-0.6831,-0.1758,-9.63,-15.98,-6.59
1432,349126984,-0.6304,-0.6826,-0.1772,-9.82,-15.67,-6.65
1433,349131984,-0.6343,-0.6816,-0.1748,-9.88,-15.24,-6.71
1434,349136985,-0.6318,-0.6812,-0.1753,-10.06,-15.00,-6.89
1435,349141984,-0.6338,-0.6826,-0.1753,-10.18,-14.88,-6.89
1436,349146984,-0.6387,-0.6763,-0.1797,-10.24,-14.51,-6.95
1437,349151984,-0.6362,-0.6812,-0.1768,-10.43,-14.33,-6.95
1438,349156984,-0.6362,-0.6812,-0.1768,-10.43,-13.96,-6.95
1439,349161984,-0.6338,-0.6821,-0.1772,-10.55,-13.72,-6.95
1440,349166984,-0.6367,-0.6797,-0.1772,-10.79,-13.60,-6.89
1441,349171984,-0.6377,-0.6797,-0.1724,-11.04,-13.17,-6.95
1442,349176984,-0.6353,-0.6807,-0.1753,-11.46,-13.05,-6.83
1443,349181984,-0.6362,-0.6821,-0.1792,-11.52,-12.68,-6.65
1444,349186985,-0.6362,-0.6851,-0.1787,-11.83,-12.32,-6.46
1445,349191984,-0.6416,-0.6831,-0.1841,-12.13,-12.07,-6.34
1446,349196988,-0.6411,-0.6816,-0.1821,-12.50,-11.83,-6.22
1447,349201984,-0.6353,-0.6802,-0.1821,-12.44,-11.46,-6.04
1448,349206984,-0.6348,-0.6816,-0.1807,-12.50,-11.10,-5.79
1449,349211984,-0.6343,-0.6821,-0.1836,-12.68,-10.79,-5.55
1450,349216984,-0.6333,-0.6816,-0.1787,-12.68,-10.37,-5.24
1451,349221984,-0.6318,-0.6831,-0.1860,-12.50,-9.94,-5.00
1452,349226985,-0.6328,-0.6812,-0.1782,-12.38,-9.88,-4.57
1453,349231984,-0.6367,-0.6836,-0.1860,-12.20,-9.39,-4.45
1454,349236984,-0.6348,-0.6797,-0.1831,-12.01,-9.15,-4.15
1455,349241983,-0.6279,-0.6860,-0.1816,-11.77,-8.96,-3.72
1456,349246982,-0.6274,-0.6841,-0.1865,-11.46,-8.41,-3.41
1457,349251982,-0.6270,-0.6797,-0.1904,-10.98,-8.29,-2.99
1458,349256984,-0.6299,-0.6860,-0.1821,-10.49,-7.93,-2.56
1459,349261984,-0.6289,-0.6816,-0.1787,-10.00,-7.62,-2.20
1460,349266982,-0.6323,-0.6841,-0.1807,-9.39,-7.38,-1.83
1461,349271984,-0.6323,-0.6860,-0.1846,-8.66,-7.01,-1.28
1462,349276984,-0.6279,-0.6855,-0.1875,-7.93,-6.71,-0.98
1463,349281984,-0.6260,-0.6836,-0.1841,-7.13,-6.46,-0.67
1464,349286985,-0.6245,-0.6787,-0.1855,-6.22,-6.22,-0.18
1465,349291984,-0.6274,-0.6836,-0.1821,-5.24,-5.79,0.12
1466,349296983,-0.6240,-0.6860,-0.1841,-4.57,-5.49,0.49
1467,349301984,-0.6304,-0.6860,-0.1831,-3.54,-5.00,0.98
1468,349306984,-0.6284,-0.6860,-0.1782,-2.56,-4.82,1.28
1469,349311984,-0.6304,-0.6841,-0.1846,-1.71,-4.45,1.83
1470,349316984,-0.6240,-0.6851,-0.1851,-0.73,-4.09,2.13
1471,349321984,-0.6235,-0.6885,-0.1846,0.24,-3.72,2.62
1472,349326984,-0.6265,-0.6865,-0.1812,0.85,-3.29,2.87
1473,349331984,-0.6270,-0.6860,-0.1875,1.83,-2.99,3.29
1474,349336984,-0.6274,-0.6846,-0.1831,2.50,-2.62,3.60
1475,349341984,-0.6313,-0.6890,-0.1831,3.23,-2.26,3.84
1476,349346984,-0.6274,-0.6846,-0.1792,3.84,-1.83,4.15
1477,349351984,-0.6309,-0.6826,-0.1851,4.57,-1.59,4.45
1478,349356983,-0.6260,-0.6865,-0.1865,5.06,-1.28,4.70
1479,349361984,-0.6309,-0.6802,-0.1802,5.43,-0.85,4.76
1480,349366984,-0.6338,-0.6812,-0.1812,5.61,-0.61,5.18
1481,349371984,-0.6338,-0.6841,-0.1826,5.98,-0.18,5.43
1482,349376984,-0.6309,-0.6831,-0.1812,5.98,0.37,5.49
1483,349381984,-0.6299,-0.6807,-0.1709,5.85,0.67,5.67
1484,349386984,-0.6289,-0.6816,-0.1797,5.73,0.98,5.91
1485,349391984,-0.6309,-0.6885,-0.1743,5.55,1.40,6.04
1486,349396984,-0.6260,-0.6860,-0.1782,5.06,1.65,6.28
1487,349401984,-0.6265,-0.6875,-0.1733,4.76,2.01,6.40
1488,349406984,-0.6318,-0.6909,-0.1709,4.39,2.38,6.46
1489,349411984,-0.6309,-0.6870,-0.1729,3.90,2.80,6.71
1490,349416984,-0.6299,-0.6890,-0.1680,3.60,3.23,6.83
1491,349421984,-0.6313,-0.6880,-0.1729,3.35,3.60,6.95
1492,349426984,-0.6299,-0.6875,-0.1724,3.05,3.96,7.07
1493,349432357,-0.6279,-0.6885,-0.1675,2.80,4.21,7.13
1494,349436984,-0.6323,-0.6855,-0.1675,2.56,4.70,7.13
1495,349441984,-0.6343,-0.6914,-0.1733,2.50,4.94,7.20
1496,349446984,-0.6377,-0.6909,-0.1646,2.50,5.49,7.20
1497,349452287,-0.6362,-0.6943,-0.1621,2.50,5.85,7.20
1498,349456984,-0.6406,-0.6934,-0.1611,2.50,6.04,7.26
1499,349461984,-0.6382,-0.6895,-0.1621,2.62,6.34,7.20
1500,349466984,-0.6416,-0.6895,-0.1670,2.87,6.46,7.20
1501,349471984,-0.6426,-0.6924,-0.1606,3.11,7.01,7.20
1502,349476984,-0.6445,-0.6973,-0.1665,3.29,7.13,7.13
1503,349481984,-0.6421,-0.6909,-0.1670,3.54,7.38,7.20
1504,349486984,-0.6455,-0.6968,-0.1611,3.78,7.50,7.20
1505,349491984,-0.6475,-0.6963,-0.1611,4.09,7.74,7.01
1506,349497486,-0.6475,-0.6929,-0.1641,4.51,7.99,7.01
1507,349501984,-0.6475,-0.6938,-0.1621,4.63,7.87,7.07
1508,349506984,-0.6489,-0.6953,-0.1636,5.06,8.05,7.01
1509,349511984,-0.6465,-0.6943,-0.1611,5.24,8.11,7.01
1510,349516984,-0.6489,-0.6943,-0.1646,5.37,8.17,6.83
1511,349522452,-0.6523,-0.6968,-0.1650,5.49,8.17,6.83
1512,349526984,-0.6504,-0.6958,-0.1602,5.55,8.29,6.83
1513,349531985,-0.6509,-0.6982,-0.1602,5.49,8.17,6.83
1514,349536984,-0.6519,-0.6982,-0.1606,5.49,8.17,6.83
1515,349541983,-0.6533,-0.6968,-0.1572,5.24,8.17,6.71
1516,349546982,-0.6543,-0.7007,-0.1519,5.06,7.99,6.77
1517,349551982,-0.6572,-0.7026,-0.1558,4.82,8.11,6.77
1518,349556982,-0.6553,-0.7041,-0.1567,4.39,7.93,6.71
1519,349561982,-0.6543,-0.7051,-0.1528,4.09,7.99,6.77
1520,349566982,-0.6543,-0.7036,-0.1533,3.78,7.93,6.77
1521,349571984,-0.6562,-0.7085,-0.1533,3.29,7.87,6.71
1522,349576984,-0.6582,-0.7026,-0.1577,3.11,7.56,6.59
1523,349581984,-0.6523,-0.7085,-0.1543,2.68,7.50,6.65
1524,349586984,-0.6538,-0.7095,-0.1538,2.44,7.38,6.71
1525,349591984,-0.6582,-0.7090,-0.1504,2.13,7.44,6.59
1526,349596984,-0.6538,-0.7075,-0.1509,1.83,7.26,6.65
1527,349601984,-0.6514,-0.7144,-0.1460,1.46,7.07,6.71
1528,349606984,-0.6553,-0.7163,-0.1548,1.46,7.01,6.65
1529,349612424,-0.6523,-0.7168,-0.1528,1.22,6.77,6.59
1530,349616984,-0.6543,-0.7197,-0.1431,1.04,6.71,6.59
1531,349621984,-0.6499,-0.7178,-0.1475,0.91,6.71,6.59
1532,349626984,-0.6533,-0.7183,-0.1484,0.79,6.83,6.52
1533,349631984,-0.6523,-0.7202,-0.1440,1.04,6.71,6.46
1534,349636984,-0.6543,-0.7246,-0.1504,1.10,6.65,6.40
1535,349641984,-0.6499,-0.7197,-0.1479,1.16,6.52,6.40
1536,349646984,-0.6484,-0.7222,-0.1465,1.34,6.52,6.22
1537,349651984,-0.6509,-0.7217,-0.1450,1.77,6.34,6.04
1538,349657305,-0.6519,-0.7256,-0.1514,2.13,6.34,5.98
1539,349661984,-0.6528,-0.7217,-0.1509,2.44,6.16,5.85
1540,349666984,-0.6528,-0.7300,-0.1440,2.68,6.10,5.85
1541,349671983,-0.6528,-0.7285,-0.1450,3.05,6.10,5.67
1542,349676984,-0.6523,-0.7295,-0.1445,3.48,6.16,5.43
1543,349681984,-0.6519,-0.7290,-0.1426,3.78,6.04,5.30
1544,349686984,-0.6543,-0.7271,-0.1416,4.02,6.16,5.18
1545,349691984,-0.6523,-0.7285,-0.1416,4.39,6.10,5.06
1546,349697433,-0.6533,-0.7305,-0.1494,4.76,5.98,4.82
1547,349701984,-0.6558,-0.7305,-0.1445,5.06,5.85,4.63
1548,349706984,-0.6494,-0.7339,-0.1455,5.06,5.85,4.27
1549,349711984,-0.6465,-0.7339,-0.1426,5.24,5.91,4.15
1550,349716984,-0.6514,-0.7310,-0.1431,5.43,5.55,3.78
1551,349721984,-0.6489,-0.7310,-0.1416,5.49,5.61,3.41
1552,349726984,-0.6465,-0.7271,-0.1401,5.49,5.61,3.17
1553,349731984,-0.6509,-0.7310,-0.1421,5.61,5.67,2.80
1554,349736985,-0.6528,-0.7319,-0.1396,5.37,5.73,2.44
1555,349741984,-0.6494,-0.7285,-0.1460,5.24,5.73,2.13
1556,349746984,-0.6519,-0.7354,-0.1348,5.00,5.55,1.71
1557,349751984,-0.6523,-0.7319,-0.1445,4.82,5.55,1.40
1558,349756984,-0.6533,-0.7349,-0.1392,4.51,5.55,0.98
1559,349761984,-0.6523,-0.7349,-0.1475,4.15,5.49,0.61
1560,349766984,-0.6587,-0.7314,-0.1411,3.72,5.43,0.06
1561,349771984,-0.6582,-0.7344,-0.1431,3.41,5.30,-0.24
1562,349776984,-0.6567,-0.7339,-0.1362,2.99,5.06,-0.79
1563,349781984,-0.6582,-0.7329,-0.1416,2.68,5.06,-1.22
1564,349786984,-0.6611,-0.7363,-0.1475,2.20,5.06,-1.83
1565,349792389,-0.6626,-0.7349,-0.1450,1.71,4.88,-2.38
1566,349796984,-0.6655,-0.7334,-0.1440,1.34,4.63,-2.87
1567,349801984,-0.6660,-0.7305,-0.1494,0.73,4.70,-3.48
1568,349807455,-0.6655,-0.7314,-0.1436,0.24,4.82,-4.21
1569,349811984,-0.6665,-0.7334,-0.1479,-0.37,4.70,-4.63
1570,349816984,-0.6641,-0.7358,-0.1489,-1.04,4.63,-5.24
1571,349821984,-0.6655,-0.7368,-0.1538,-1.77,4.51,-5.85
1572,349826984,-0.6685,-0.7363,-0.1465,-2.50,4.51,-6.28
1573,349831983,-0.6709,-0.7373,-0.1504,-3.35,4.33,-6.89
1574,349836984,-0.6650,-0.7432,-0.1499,-4.15,4.15,-7.44
1575,349841983,-0.6646,-0.7466,-0.1484,-5.18,4.09,-7.99
1576,349846982,-0.6650,-0.7446,-0.1538,-6.16,3.96,-8.41
1577,349851982,-0.6650,-0.7466,-0.1479,-7.13,3.90,-8.90
1578,349856982,-0.6602,-0.7476,-0.1528,-8.11,3.78,-9.33
1579,349861982,-0.6567,-0.7515,-0.1470,-9.02,3.60,-9.76
1580,349866983,-0.6504,-0.7524,-0.1479,-9.88,3.35,-10.24
1581,349871984,-0.6509,-0.7495,-0.1519,-10.61,3.35,-10.55
1582,349876982,-0.6440,-0.7534,-0.1499,-11.28,2.99,-10.85
1583,349881984,-0.6445,-0.7549,-0.1548,-11.77,2.93,-11.28
1584,349886984,-0.6465,-0.7578,-0.1538,-12.01,2.74,-11.59
1585,349891984,-0.6465,-0.7588,-0.1533,-12.32,2.44,-11.89
1586,349896984,-0.6450,-0.7607,-0.1592,-12.32,2.20,-12.20
1587,349901984,-0.6440,-0.7578,-0.1626,-12.13,2.01,-12.44
1588,349906984,-0.6445,-0.7651,-0.1660,-11.83,1.71,-12.80
1589,349911984,-0.6426,-0.7612,-0.1621,-11.59,1.40,-13.11
1590,349916984,-0.6421,-0.7603,-0.1665,-10.91,1.16,-13.48
1591,349922461,-0.6406,-0.7603,-0.1621,-10.24,0.98,-13.72
1592,349926984,-0.6426,-0.7607,-0.1680,-9.51,0.79,-13.96
1593,349931984,-0.6377,-0.7563,-0.1641,-8.78,0.55,-14.33
1594,349937401,-0.6377,-0.7559,-0.1738,-7.87,0.30,-14.57
1595,349941984,-0.6406,-0.7578,-0.1665,-6.83,0.24,-14.82
1596,349946984,-0.6387,-0.7603,-0.1646,-5.91,0.12,-15.18
1597,349951984,-0.6377,-0.7559,-0.1631,-5.00,-0.06,-15.49
1598,349956984,-0.6387,-0.7529,-0.1675,-4.27,-0.30,-15.85
1599,349961983,-0.6348,-0.7495,-0.1699,-3.54,-0.37,-16.22
1600,349966984,-0.6294,-0.7466,-0.1641,-2.80,-0.61,-16.46
1601,349972260,-0.6279,-0.7476,-0.1646,-2.26,-0.73,-16.89
1602,349976984,-0.6250,-0.7437,-0.1660,-1.95,-1.10,-17.01
1603,349981983,-0.6206,-0.7388,-0.1646,-1.77,-1.34,-17.38
1604,349986984,-0.6196,-0.7437,-0.1724,-1.52,-1.52,-17.74
1605,349991984,-0.6123,-0.7329,-0.1606,-1.59,-1.71,-18.05
1606,349997467,-0.6074,-0.7339,-0.1714,-1.89,-1.89,-18.29
1607,350001984,-0.6040,-0.7334,-0.1660,-2.26,-2.13,-18.60
1608,350006984,-0.6011,-0.7290,-0.1646,-2.62,-2.32,-18.96
1609,350011984,-0.5991,-0.7271,-0.1626,-3.29,-2.74,-19.21
1610,350016984,-0.5996,-0.7227,-0.1650,-3.90,-2.93,-19.39
1611,350021984,-0.5967,-0.7202,-0.1699,-4.63,-3.29,-19.82
1612,350026984,-0.5918,-0.7183,-0.1675,-5.49,-3.41,-20.00
1613,350031984,-0.5879,-0.7188,-0.1631,-6.46,-3.78,-20.37
1614,350036984,-0.5928,-0.7144,-0.1650,-7.32,-3.96,-20.55
1615,350041984,-0.5898,-0.7139,-0.1641,-8.11,-4.33,-20.73
1616,350046985,-0.5864,-0.7075,-0.1680,-9.02,-4.45,-21.04
1617,350051984,-0.5854,-0.7070,-0.1709,-10.00,-4.82,-21.10
1618,350056984,-0.5825,-0.7080,-0.1641,-10.85,-5.06,-21.28
1619,350061984,-0.5796,-0.7056,-0.1699,-11.77,-5.30,-21.52
1620,350066984,-0.5796,-0.7041,-0.1675,-12.56,-5.49,-21.59
1621,350072306,-0.5791,-0.7046,-0.1719,-13.35,-5.67,-21.83
1622,350076984,-0.5796,-0.7012,-0.1621,-14.09,-5.85,-21.95
1623,350081983,-0.5762,-0.7012,-0.1665,-14.82,-6.22,-22.07
1624,350086986,-0.5757,-0.6973,-0.1631,-15.43,-6.28,-22.20
1625,350091984,-0.5703,-0.6958,-0.1738,-16.04,-6.34,-22.20
1626,350096984,-0.5698,-0.6963,-0.1689,-16.40,-6.59,-22.26
1627,350101984,-0.5728,-0.6895,-0.1660,-16.77,-6.65,-22.38
1628,350107363,-0.5684,-0.6880,-0.1704,-17.13,-6.95,-22.32
1629,350111984,-0.5679,-0.6841,-0.1685,-17.38,-7.20,-22.44
1630,350116986,-0.5703,-0.6846,-0.1748,-17.62,-7.44,-22.44
1631,350121984,-0.5674,-0.6846,-0.1680,-17.68,-7.50,-22.38
1632,350126984,-0.5684,-0.6812,-0.1675,-17.68,-7.87,-22.38
1633,350131984,-0.5659,-0.6782,-0.1724,-17.56,-8.17,-22.32
1634,350136984,-0.5674,-0.6812,-0.1699,-17.62,-8.48,-22.13
1635,350141983,-0.5674,-0.6792,-0.1802,-17.26,-8.78,-22.07
1636,350146983,-0.5654,-0.6729,-0.1738,-17.26,-9.15,-21.95
1637,350151982,-0.5635,-0.6724,-0.1768,-17.13,-9.39,-21.83
1638,350156983,-0.5640,-0.6724,-0.1807,-16.77,-10.00,-21.77
1639,350161984,-0.5649,-0.6719,-0.1797,-16.65,-10.30,-21.52
1640,350166986,-0.5596,-0.6670,-0.1816,-16.71,-10.73,-21.40
1641,350171983,-0.5615,-0.6665,-0.1870,-16.40,-11.10,-21.22
1642,350176984,-0.5605,-0.6646,-0.1821,-16.34,-11.46,-21.04
1643,350181984,-0.5581,-0.6646,-0.1855,-16.40,-11.89,-20.79
1644,350187023,-0.5610,-0.6592,-0.1875,-16.40,-12.32,-20.55
1645,350191984,-0.5591,-0.6587,-0.1890,-16.52,-12.80,-20.24
1646,350196987,-0.5581,-0.6597,-0.1865,-16.65,-13.23,-20.00
1647,350201984,-0.5566,-0.6606,-0.1885,-16.89,-13.48,-19.76
1648,350207254,-0.5537,-0.6587,-0.1846,-17.26,-14.02,-19.39
1649,350211984,-0.5552,-0.6577,-0.1865,-17.56,-14.27,-19.09
1650,350216984,-0.5532,-0.6597,-0.1831,-18.05,-14.82,-18.66
1651,350221984,-0.5562,-0.6582,-0.1924,-18.84,-15.18,-18.29
1652,350226984,-0.5566,-0.6636,-0.1895,-19.27,-15.55,-17.80
1653,350231984,-0.5522,-0.6621,-0.1968,-20.00,-15.98,-17.32
1654,350236984,-0.5571,-0.6611,-0.1978,-20.73,-16.28,-16.83
1655,350241984,-0.5493,-0.6577,-0.2007,-21.71,-16.71,-16.34
1656,350246984,-0.5508,-0.6592,-0.1938,-22.26,-17.01,-15.91
1657,350251985,-0.5532,-0.6558,-0.1968,-22.99,-17.26,-15.43
1658,350256984,-0.5474,-0.6611,-0.1963,-23.41,-17.50,-15.00
1659,350261984,-0.5464,-0.6567,-0.1992,-24.09,-17.93,-14.39
1660,350267016,-0.5405,-0.6577,-0.1987,-24.51,-18.11,-13.84
1661,350271983,-0.5391,-0.6606,-0.1978,-24.76,-18.35,-13.35
1662,350276982,-0.5396,-0.6597,-0.2056,-25.18,-18.66,-12.62
1663,350281984,-0.5376,-0.6650,-0.2056,-25.30,-18.96,-12.07
1664,350286984,-0.5396,-0.6577,-0.2036,-25.43,-19.15,-11.59
1665,350291984,-0.5410,-0.6606,-0.2031,-25.37,-19.51,-11.04
1666,350296984,-0.5386,-0.6636,-0.2139,-25.18,-19.82,-10.43
1667,350301984,-0.5381,-0.6665,-0.2192,-24.70,-20.18,-9.82
1668,350306984,-0.5356,-0.6641,-0.2173,-24.27,-20.49,-9.39
1669,350312412,-0.5449,-0.6655,-0.2256,-23.60,-20.73,-8.72
1670,350316984,-0.5415,-0.6655,-0.2212,-23.11,-20.98,-8.23
1671,350322471,-0.5400,-0.6685,-0.2266,-22.26,-21.40,-7.62
1672,350326984,-0.5376,-0.6714,-0.2227,-21.83,-21.59,-7.07
1673,350331984,-0.5400,-0.6758,-0.2256,-20.98,-21.83,-6.40
1674,350336984,-0.5444,-0.6777,-0.2310,-20.24,-22.01,-5.79
1675,350341984,-0.5415,-0.6792,-0.2358,-19.63,-22.32,-5.12
1676,350346984,-0.5454,-0.6821,-0.2349,-18.96,-22.38,-4.57
1677,350351985,-0.5479,-0.6855,-0.2388,-18.23,-22.50,-3.90
1678,350356984,-0.5493,-0.6875,-0.2480,-17.50,-22.62,-3.29
1679,350361984,-0.5562,-0.6870,-0.2407,-16.95,-22.38,-2.50
1680,350366984,-0.5581,-0.6904,-0.2373,-16.22,-22.38,-1.89
1681,350371984,-0.5591,-0.6978,-0.2500,-15.55,-22.32,-1.22
1682,350376984,-0.5601,-0.7002,-0.2559,-14.94,-22.20,-0.61
1683,350381984,-0.5571,-0.7031,-0.2563,-14.57,-22.01,0.30
1684,350386983,-0.5581,-0.7061,-0.2563,-14.27,-21.71,0.91
1685,350391982,-0.5605,-0.7114,-0.2583,-13.96,-21.71,1.65
1686,350396984,-0.5576,-0.7134,-0.2559,-13.84,-21.34,2.50
1687,350401983,-0.5576,-0.7197,-0.2617,-13.78,-21.10,3.35
1688,350406984,-0.5576,-0.7231,-0.2612,-13.66,-20.79,3.96
1689,350411984,-0.5537,-0.7275,-0.2632,-13.54,-20.73,4.94
1690,350416984,-0.5503,-0.7314,-0.2700,-13.41,-20.24,5.79
1691,350421984,-0.5537,-0.7358,-0.2690,-13.29,-19.94,6.71
1692,350426984,-0.5522,-0.7412,-0.2651,-12.99,-19.82,7.44
1693,350431984,-0.5488,-0.7476,-0.2700,-12.68,-19.45,8.29
1694,350436984,-0.5449,-0.7471,-0.2705,-12.13,-19.09,9.15
1695,350441984,-0.5454,-0.7515,-0.2715,-11.46,-18.90,9.82
1696,350446984,-0.5435,-0.7534,-0.2725,-10.73,-18.54,10.55
1697,350451983,-0.5425,-0.7559,-0.2700,-9.57,-18.29,11.22
1698,350456985,-0.5430,-0.7515,-0.2729,-8.54,-17.93,11.77
1699,350462562,-0.5420,-0.7578,-0.2744,-6.77,-17.44,12.32
1700,350466984,-0.5410,-0.7588,-0.2754,-5.43,-17.26,12.74
1701,350471984,-0.5444,-0.7588,-0.2832,-3.72,-16.89,13.17
1702,350476984,-0.5420,-0.7578,-0.2842,-1.71,-16.52,13.41
1703,350481984,-0.5439,-0.7642,-0.2876,0.55,-16.28,13.72
1704,350486984,-0.5444,-0.7671,-0.2959,2.87,-16.10,13.78
1705,350491983,-0.5493,-0.7666,-0.2935,5.43,-15.79,13.90
1706,350496984,-0.5522,-0.7651,-0.2954,7.87,-15.55,13.78
1707,350501984,-0.5527,-0.7656,-0.2964,10.55,-15.43,13.78
1708,350506984,-0.5586,-0.7646,-0.2998,13.17,-15.12,13.48
1709,350511984,-0.5654,-0.7646,-0.3032,15.73,-15.00,13.41
1710,350516984,-0.5669,-0.7637,-0.3013,18.35,-14.82,12.99
1711,350522141,-0.5728,-0.7637,-0.3022,21.28,-14.63,12.50
1712,350526984,-0.5781,-0.7651,-0.3052,23.05,-14.51,12.13
1713,350531982,-0.5811,-0.7637,-0.3115,25.24,-14.33,11.59
1714,350536984,-0.5811,-0.7651,-0.3096,27.07,-14.15,10.98
1715,350541984,-0.5859,-0.7612,-0.3110,28.72,-14.02,10.24
1716,350546984,-0.5859,-0.7598,-0.3071,29.94,-13.90,9.45
1717,350551984,-0.5884,-0.7603,-0.3105,30.79,-13.72,8.66
1718,350557268,-0.5864,-0.7603,-0.3164,31.10,-13.41,7.56
1719,350561984,-0.5830,-0.7583,-0.3110,30.91,-13.35,6.77
1720,350567038,-0.5820,-0.7578,-0.3115,30.18,-12.99,5.73
1721,350571983,-0.5811,-0.7622,-0.3149,28.90,-12.74,4.82
1722,350576986,-0.5806,-0.7646,-0.3125,27.07,-12.50,3.78
1723,350581982,-0.5815,-0.7700,-0.3105,24.57,-12.26,2.74
1724,350586984,-0.5796,-0.7749,-0.3105,21.65,-11.89,1.65
1725,350591985,-0.5835,-0.7759,-0.3081,18.23,-11.59,0.79
1726,350596984,-0.5874,-0.7808,-0.3115,14.39,-11.16,-0.24
1727,350601984,-0.5864,-0.7837,-0.3169,10.12,-10.73,-1.34
1728,350606983,-0.5859,-0.7856,-0.3159,5.73,-10.18,-2.44
1729,350611984,-0.5864,-0.7891,-0.3125,1.22,-9.39,-3.54
1730,350616984,-0.5879,-0.7930,-0.3164,-3.48,-8.60,-4.51
1731,350621984,-0.5869,-0.7979,-0.3223,-8.11,-8.23,-5.55
1732,350626984,-0.5864,-0.8057,-0.3228,-13.66,-7.20,-6.83
1733,350631984,-0.5854,-0.8081,-0.3257,-17.07,-6.71,-7.80
1734,350637451,-0.5776,-0.8120,-0.3301,-22.07,-5.85,-9.15
1735,350641984,-0.5791,-0.8135,-0.3267,-25.37,-5.00,-10.06
1736,350646984,-0.5708,-0.8223,-0.3306,-29.82,-4.27,-11.40
1737,350651984,-0.5679,-0.8271,-0.3311,-33.29,-3.72,-12.38
1738,350656984,-0.5576,-0.8296,-0.3364,-36.22,-2.87,-13.41
1739,350661984,-0.5503,-0.8315,-0.3394,-38.72,-2.32,-14.63
1740,350666984,-0.5415,-0.8354,-0.3384,-41.10,-1.65,-15.55
1741,350671984,-0.5376,-0.8403,-0.3428,-42.80,-0.91,-16.46
1742,350676984,-0.5337,-0.8418,-0.3525,-43.96,-0.37,-17.56
1743,350681984,-0.5298,-0.8467,-0.3540,-45.06,0.00,-18.48
1744,350686984,-0.5244,-0.8442,-0.3560,-45.30,0.30,-19.51
1745,350691984,-0.5161,-0.8506,-0.3608,-45.49,0.67,-20.43
1746,350697370,-0.5127,-0.8525,-0.3613,-45.12,1.16,-21.34
1747,350701987,-0.5088,-0.8579,-0.3638,-44.70,1.46,-22.26
1748,350706984,-0.5059,-0.8511,-0.3696,-43.84,1.83,-23.23
1749,350711984,-0.5083,-0.8511,-0.3682,-42.68,2.32,-24.09
1750,350716984,-0.5088,-0.8472,-0.3730,-41.34,2.68,-25.18
1751,350721984,-0.4980,-0.8467,-0.3682,-39.51,3.11,-26.28
1752,350726984,-0.4966,-0.8447,-0.3696,-37.68,3.48,-27.32
1753,350731986,-0.4946,-0.8384,-0.3726,-35.61,4.15,-28.35
1754,350736984,-0.4922,-0.8354,-0.3638,-33.54,4.70,-29.57
1755,350741983,-0.4956,-0.8345,-0.3682,-31.40,5.43,-30.85
1756,350746982,-0.4995,-0.8286,-0.3730,-29.39,5.98,-32.07
1757,350751982,-0.5015,-0.8218,-0.3745,-27.32,6.77,-33.35
1758,350756982,-0.5083,-0.8174,-0.3701,-25.43,7.44,-34.51
1759,350761983,-0.5117,-0.8125,-0.3735,-23.72,7.99,-35.73
1760,350767007,-0.5195,-0.8125,-0.3804,-22.07,8.90,-36.95
1761,350771984,-0.5166,-0.8115,-0.3779,-20.98,9.45,-38.11
1762,350776984,-0.5107,-0.8052,-0.3818,-19.82,10.06,-39.27
1763,350781986,-0.5107,-0.8032,-0.3774,-19.21,10.79,-40.30
1764,350786984,-0.5156,-0.8013,-0.3823,-18.72,11.28,-41.28
1765,350791987,-0.5249,-0.7974,-0.3730,-18.41,11.95,-42.13
1766,350796984,-0.5259,-0.7891,-0.3726,-18.48,12.62,-43.29
1767,350801983,-0.5220,-0.7856,-0.3730,-18.60,13.35,-44.09
1768,350806984,-0.5195,-0.7788,-0.3657,-18.90,13.96,-44.82
1769,350811984,-0.5229,-0.7739,-0.3652,-19.39,14.57,-45.61
1770,350816984,-0.5288,-0.7637,-0.3604,-19.88,15.43,-46.46
1771,350821983,-0.5327,-0.7612,-0.3647,-20.55,16.04,-47.20
1772,350826984,-0.5303,-0.7563,-0.3643,-21.34,16.71,-47.80
1773,350831984,-0.5317,-0.7524,-0.3618,-22.07,17.44,-48.29
1774,350836984,-0.5303,-0.7427,-0.3599,-22.99,17.99,-48.96
1775,350841984,-0.5283,-0.7373,-0.3564,-24.02,18.54,-49.45
1776,350846983,-0.5278,-0.7334,-0.3491,-25.00,18.96,-49.94
1777,350851984,-0.5200,-0.7319,-0.3579,-26.22,19.70,-50.24
1778,350856984,-0.5186,-0.7251,-0.3550,-27.62,20.00,-50.43
1779,350861984,-0.5161,-0.7256,-0.3555,-28.96,20.43,-50.67
1780,350867345,-0.5122,-0.7183,-0.3477,-30.37,20.85,-50.79
1781,350871984,-0.5098,-0.7197,-0.3486,-31.89,20.91,-50.73
1782,350876984,-0.5063,-0.7212,-0.3438,-33.54,21.22,-50.61
1783,350881984,-0.5020,-0.7139,-0.3481,-35.12,21.34,-50.43
1784,350886984,-0.4951,-0.7129,-0.3433,-36.83,21.40,-50.18
1785,350891984,-0.4883,-0.7095,-0.3423,-38.35,21.46,-49.70
1786,350896984,-0.4785,-0.7056,-0.3379,-40.00,21.59,-49.15
1787,350901983,-0.4746,-0.7036,-0.3394,-41.52,21.65,-48.60
1788,350906984,-0.4692,-0.7056,-0.3354,-42.99,21.52,-47.99
1789,350911986,-0.4619,-0.7036,-0.3296,-44.51,21.34,-47.38
1790,350916983,-0.4556,-0.7012,-0.3301,-45.61,21.10,-46.52
1791,350921984,-0.4478,-0.7017,-0.3325,-46.71,21.10,-45.61
1792,350926984,-0.4424,-0.6973,-0.3350,-47.56,20.79,-44.76
1793,350931984,-0.4365,-0.6973,-0.3315,-48.17,20.37,-43.84
1794,350936984,-0.4258,-0.6968,-0.3296,-48.72,20.12,-42.74
1795,350941984,-0.4214,-0.6934,-0.3208,-48.84,19.51,-41.65
1796,350946984,-0.4165,-0.6934,-0.3267,-48.60,19.21,-40.49
1797,350951984,-0.4097,-0.6943,-0.3291,-48.17,19.02,-39.33
1798,350956984,-0.4004,-0.6963,-0.3257,-47.50,18.35,-37.99
1799,350961986,-0.4019,-0.6938,-0.3257,-46.59,17.74,-36.71
1800,350966984,-0.3950,-0.6948,-0.3218,-45.37,17.20,-35.37
1801,350971984,-0.3950,-0.6924,-0.3203,-43.78,16.52,-34.09
1802,350976984,-0.3945,-0.6914,-0.3203,-42.01,15.85,-32.62
1803,350981984,-0.3916,-0.6948,-0.3232,-40.12,15.30,-31.28
1804,350986983,-0.3882,-0.6934,-0.3276,-37.87,14.63,-29.94
1805,350991984,-0.3906,-0.6914,-0.3311,-35.43,14.09,-28.48
1806,350996984,-0.3916,-0.6914,-0.3291,-32.80,13.23,-26.89
1807,351001984,-0.3877,-0.6899,-0.3325,-30.37,12.38,-25.49
1808,351006984,-0.3901,-0.6890,-0.3306,-27.20,11.59,-24.09
1809,351011987,-0.3896,-0.6890,-0.3398,-24.09,10.91,-22.50
1810,351016983,-0.3872,-0.6855,-0.3354,-20.85,10.18,-21.10
1811,351021984,-0.3867,-0.6875,-0.3315,-17.44,9.45,-19.70
1812,351026984,-0.3853,-0.6855,-0.3335,-13.48,8.60,-18.05
1813,351031984,-0.3765,-0.6816,-0.3359,-10.85,8.17,-16.89
1814,351036986,-0.3740,-0.6826,-0.3330,-7.44,7.50,-15.49
1815,351041983,-0.3735,-0.6807,-0.3315,-4.21,6.83,-14.15
1816,351046982,-0.3701,-0.6787,-0.3335,-1.16,6.10,-12.74
1817,351051982,-0.3701,-0.6763,-0.3213,1.77,5.37,-11.46
1818,351056983,-0.3613,-0.6748,-0.3228,4.63,4.63,-10.18
1819,351061982,-0.3560,-0.6748,-0.3252,7.13,4.02,-8.96
1820,351066982,-0.3550,-0.6724,-0.3237,9.57,3.54,-7.74
1821,351071983,-0.3481,-0.6719,-0.3232,12.38,2.68,-6.04
1822,351076984,-0.3496,-0.6709,-0.3184,13.54,2.32,-5.49
1823,351081987,-0.3506,-0.6709,-0.3286,15.24,1.71,-4.33
1824,351086984,-0.3447,-0.6719,-0.3271,16.71,1.22,-3.23
1825,351091984,-0.3384,-0.6685,-0.3198,17.87,0.61,-2.20
1826,351096984,-0.3433,-0.6685,-0.3237,18.78,0.00,-1.22
1827,351101984,-0.3428,-0.6660,-0.3252,19.57,-0.37,-0.43
1828,351106983,-0.3379,-0.6680,-0.3237,20.06,-0.73,0.49
1829,351111984,-0.3394,-0.6641,-0.3291,20.24,-1.28,1.28
1830,351116985,-0.3364,-0.6699,-0.3296,20.30,-1.71,2.01
1831,351121984,-0.3389,-0.6675,-0.3203,20.30,-2.01,2.80
1832,351126984,-0.3447,-0.6685,-0.3276,20.06,-2.44,3.29
1833,351131984,-0.3521,-0.6694,-0.3340,19.88,-2.74,3.96
1834,351136984,-0.3467,-0.6670,-0.3257,19.70,-3.05,4.45
1835,351141984,-0.3506,-0.6694,-0.3320,19.51,-3.29,5.06
1836,351146984,-0.3521,-0.6689,-0.3286,19.27,-3.66,5.55
1837,351152266,-0.3545,-0.6685,-0.3276,19.15,-3.78,6.04
1838,351156984,-0.3550,-0.6733,-0.3242,18.90,-3.96,6.28
1839,351161984,-0.3555,-0.6719,-0.3281,18.54,-4.33,6.89
1840,351166984,-0.3555,-0.6729,-0.3262,18.29,-4.63,7.13
1841,351171985,-0.3599,-0.6714,-0.3257,17.93,-4.76,7.44
1842,351177633,-0.3569,-0.6753,-0.3237,17.56,-5.00,7.87
1843,351181985,-0.3594,-0.6733,-0.3257,17.13,-5.24,7.93
1844,351186983,-0.3618,-0.6753,-0.3286,16.89,-5.55,8.11
1845,351191982,-0.3618,-0.6758,-0.3350,16.28,-5.55,8.17
1846,351196985,-0.3628,-0.6743,-0.3330,15.79,-5.85,8.41
1847,351201982,-0.3672,-0.6792,-0.3359,14.94,-6.22,8.60
1848,351206982,-0.3647,-0.6787,-0.3389,14.33,-6.52,8.54
1849,351212168,-0.3647,-0.6797,-0.3340,13.54,-6.83,8.78
1850,351216984,-0.3687,-0.6836,-0.3359,12.62,-7.26,8.90
1851,351221983,-0.3682,-0.6821,-0.3398,11.71,-7.62,9.09
1852,351226984,-0.3691,-0.6885,-0.3433,10.67,-7.93,9.15
1853,351231984,-0.3765,-0.6851,-0.3350,9.57,-8.35,9.15
1854,351236984,-0.3716,-0.6895,-0.3413,8.35,-8.54,9.33
1855,351241984,-0.3745,-0.6875,-0.3394,7.20,-8.84,9.39
1856,351246984,-0.3760,-0.6958,-0.3467,6.04,-9.15,9.39
1857,351251984,-0.3760,-0.6973,-0.3413,4.70,-9.57,9.51
1858,351257446,-0.3750,-0.6992,-0.3433,3.17,-10.00,9.76
1859,351261984,-0.3721,-0.6973,-0.3428,2.20,-10.24,9.82
1860,351266984,-0.3755,-0.7036,-0.3467,0.98,-10.79,9.94
1861,351271987,-0.3755,-0.7061,-0.3491,-0.43,-11.28,10.06
1862,351276984,-0.3740,-0.7080,-0.3506,-1.22,-11.52,10.12
1863,351281984,-0.3706,-0.7080,-0.3462,-2.13,-11.95,10.18
1864,351286984,-0.3809,-0.7100,-0.3457,-2.99,-12.38,10.49
1865,351291983,-0.3799,-0.7134,-0.3540,-3.78,-12.80,10.43
1866,351296984,-0.3857,-0.7163,-0.3643,-4.27,-13.35,10.55
1867,351301984,-0.3857,-0.7173,-0.3633,-4.82,-13.72,10.55
1868,351306984,-0.3872,-0.7134,-0.3657,-5.18,-14.33,10.67
1869,351311985,-0.3857,-0.7217,-0.3643,-5.43,-14.70,10.79
1870,351316985,-0.3862,-0.7217,-0.3677,-5.43,-15.24,10.85
1871,351321984,-0.3892,-0.7222,-0.3706,-5.30,-15.79,10.98
1872,351326984,-0.3887,-0.7261,-0.3750,-5.12,-16.34,10.98
1873,351331984,-0.3911,-0.7285,-0.3755,-4.70,-16.89,11.22
1874,351336984,-0.3936,-0.7295,-0.3809,-4.21,-17.32,11.28
1875,351341984,-0.3911,-0.7354,-0.3809,-3.72,-17.99,11.34
1876,351346984,-0.3921,-0.7383,-0.3838,-3.23,-18.35,11.52
1877,351351984,-0.3931,-0.7397,-0.3853,-2.62,-19.02,11.65
1878,351356984,-0.3877,-0.7393,-0.3867,-2.01,-19.45,11.77
1879,351361984,-0.3892,-0.7427,-0.3892,-1.34,-19.94,11.83
1880,351366984,-0.3911,-0.7461,-0.3936,-0.67,-20.43,12.01
1881,351371984,-0.3916,-0.7466,-0.3960,0.00,-20.91,12.13
1882,351376984,-0.3911,-0.7490,-0.3975,0.61,-21.28,12.32
1883,351381984,-0.3853,-0.7495,-0.4019,1.04,-21.71,12.44
1884,351386984,-0.3867,-0.7524,-0.3975,1.65,-22.13,12.68
1885,351391983,-0.3853,-0.7524,-0.3984,1.77,-22.26,12.62
1886,351396984,-0.3833,-0.7598,-0.3960,1.95,-22.50,12.93
1887,351401984,-0.3818,-0.7612,-0.3999,2.01,-22.99,12.93
1888,351406984,-0.3784,-0.7642,-0.4067,1.83,-23.11,13.05
1889,351411984,-0.3745,-0.7686,-0.4058,1.59,-23.41,13.17
1890,351416984,-0.3794,-0.7686,-0.4126,1.22,-23.66,13.23
1891,351421984,-0.3794,-0.7695,-0.4077,0.67,-23.78,13.35
1892,351426982,-0.3862,-0.7686,-0.4126,0.12,-23.78,13.48
1893,351431984,-0.3838,-0.7744,-0.4146,-0.49,-23.90,13.29
1894,351436984,-0.3892,-0.7754,-0.4146,-1.10,-23.78,13.29
1895,351441984,-0.3945,-0.7793,-0.4155,-1.77,-23.78,13.35
1896,351446983,-0.3936,-0.7783,-0.4189,-2.44,-23.48,13.17
1897,351451984,-0.3999,-0.7793,-0.4194,-2.87,-23.29,13.17
1898,351456984,-0.3989,-0.7832,-0.4150,-3.48,-23.11,12.99
1899,351461984,-0.4028,-0.7842,-0.4204,-3.84,-22.56,12.74
1900,351466984,-0.4028,-0.7812,-0.4287,-4.15,-22.20,12.50
1901,351472407,-0.4067,-0.7871,-0.4302,-4.39,-22.01,12.13
1902,351476984,-0.4077,-0.7837,-0.4243,-4.57,-21.40,11.89
1903,351481983,-0.4106,-0.7866,-0.4219,-4.51,-21.10,11.46
1904,351486982,-0.4155,-0.7866,-0.4258,-4.45,-20.61,11.04
1905,351492586,-0.4175,-0.7832,-0.4248,-4.27,-20.24,10.67
1906,351496985,-0.4111,-0.7842,-0.4355,-3.84,-19.70,10.18
1907,351501984,-0.4131,-0.7876,-0.4321,-3.60,-19.21,9.76
1908,351506982,-0.4126,-0.7837,-0.4297,-3.17,-18.84,9.15
1909,351511984,-0.4180,-0.7930,-0.4282,-2.62,-18.29,8.78
1910,351516984,-0.4160,-0.7876,-0.4341,-2.13,-17.93,8.17
1911,351521984,-0.4160,-0.7876,-0.4297,-1.71,-17.38,7.74
1912,351526984,-0.4155,-0.7856,-0.4258,-1.28,-17.01,7.13
1913,351531984,-0.4199,-0.7866,-0.4375,-0.85,-16.40,6.65
1914,351536984,-0.4219,-0.7837,-0.4287,-0.43,-16.10,6.16
1915,351541984,-0.4219,-0.7852,-0.4312,-0.18,-15.49,5.43
1916,351546984,-0.4248,-0.7847,-0.4287,0.24,-15.00,4.82
1917,351551983,-0.4268,-0.7827,-0.4312,0.67,-14.70,4.33
1918,351556984,-0.4219,-0.7783,-0.4277,1.04,-14.39,3.60
1919,351561982,-0.4229,-0.7817,-0.4263,1.52,-13.90,3.05
1920,351566982,-0.4277,-0.7832,-0.4287,1.71,-13.72,2.44
1921,351571984,-0.4233,-0.7808,-0.4316,1.89,-13.23,1.89
1922,351576984,-0.4224,-0.7832,-0.4331,2.07,-13.11,1.40
1923,351581984,-0.4248,-0.7817,-0.4268,1.95,-12.87,0.67
1924,351586984,-0.4297,-0.7783,-0.4331,1.89,-12.56,0.24
1925,351591985,-0.4355,-0.7793,-0.4390,1.83,-12.20,-0.43
1926,351596984,-0.4336,-0.7773,-0.4336,1.71,-11.95,-0.91
1927,351601984,-0.4360,-0.7749,-0.4287,1.59,-11.83,-1.46
1928,351606984,-0.4341,-0.7705,-0.4268,1.28,-11.52,-2.07
1929,351611984,-0.4272,-0.7700,-0.4307,1.04,-11.52,-2.62
1930,351616984,-0.4268,-0.7715,-0.4282,0.67,-11.28,-3.05
1931,351621984,-0.4263,-0.7720,-0.4243,0.30,-11.10,-3.60
1932,351626984,-0.4277,-0.7695,-0.4336,-0.12,-11.04,-4.02
1933,351631984,-0.4253,-0.7651,-0.4355,-0.67,-10.98,-4.45
1934,351636984,-0.4238,-0.7656,-0.4316,-1.40,-10.91,-5.00
1935,351641984,-0.4233,-0.7627,-0.4341,-2.01,-10.85,-5.43
1936,351646985,-0.4199,-0.7612,-0.4312,-2.68,-10.85,-5.91
1937,351651984,-0.4199,-0.7642,-0.4346,-3.60,-10.61,-6.22
1938,351656984,-0.4233,-0.7637,-0.4395,-4.33,-10.67,-6.71
1939,351661984,-0.4282,-0.7603,-0.4287,-5.37,-10.49,-7.01
1940,351666984,-0.4297,-0.7598,-0.4370,-6.34,-10.43,-7.44
1941,351671984,-0.4326,-0.7607,-0.4365,-7.32,-10.30,-7.74
1942,351676984,-0.4336,-0.7617,-0.4302,-8.11,-10.24,-8.05
1943,351681984,-0.4312,-0.7612,-0.4399,-9.15,-10.00,-8.35
1944,351686984,-0.4351,-0.7588,-0.4365,-10.06,-9.94,-8.72
1945,351691984,-0.4316,-0.7573,-0.4429,-10.79,-9.82,-9.02
1946,351696984,-0.4263,-0.7544,-0.4404,-11.40,-9.51,-9.21
1947,351701984,-0.4287,-0.7573,-0.4390,-12.01,-9.45,-9.57
1948,351706985,-0.4253,-0.7588,-0.4341,-12.44,-9.15,-9.88
1949,351711984,-0.4268,-0.7559,-0.4429,-12.50,-8.96,-10.06
1950,351716984,-0.4263,-0.7539,-0.4434,-12.74,-8.96,-10.30
1951,351721983,-0.4204,-0.7520,-0.4429,-12.74,-8.72,-10.55
1952,351726984,-0.4243,-0.7500,-0.4478,-12.68,-8.66,-10.61
1953,351731984,-0.4243,-0.7505,-0.4390,-12.56,-8.60,-10.73
1954,351736984,-0.4204,-0.7466,-0.4429,-12.20,-8.48,-10.79
1955,351741984,-0.4219,-0.7495,-0.4390,-11.83,-8.35,-10.85
1956,351746984,-0.4155,-0.7480,-0.4419,-11.40,-8.23,-10.91
1957,351751984,-0.4189,-0.7534,-0.4424,-11.10,-8.29,-10.91
1958,351756984,-0.4194,-0.7476,-0.4429,-10.73,-8.05,-10.98
1959,351761984,-0.4180,-0.7490,-0.4409,-10.55,-7.93,-10.91
1960,351767176,-0.4189,-0.7437,-0.4482,-10.24,-7.93,-10.91
1961,351771984,-0.4175,-0.7432,-0.4395,-9.76,-7.68,-10.85
1962,351776984,-0.4194,-0.7437,-0.4434,-9.33,-7.62,-10.85
1963,351781984,-0.4180,-0.7417,-0.4419,-8.90,-7.50,-10.73
1964,351786985,-0.4136,-0.7466,-0.4409,-8.54,-7.26,-10.73
1965,351791983,-0.4141,-0.7417,-0.4409,-8.17,-7.01,-10.61
1966,351796982,-0.4155,-0.7393,-0.4399,-7.87,-6.83,-10.55
1967,351801984,-0.4136,-0.7388,-0.4404,-7.38,-6.59,-10.49
1968,351806984,-0.4121,-0.7383,-0.4463,-7.01,-6.52,-10.43
1969,351811984,-0.4131,-0.7378,-0.4414,-6.77,-6.40,-10.24
1970,351816985,-0.4141,-0.7319,-0.4424,-6.34,-5.98,-10.24
1971,351821983,-0.4150,-0.7334,-0.4438,-5.91,-5.61,-10.00
1972,351826984,-0.4121,-0.7368,-0.4434,-5.61,-5.61,-9.82
1973,351831982,-0.4111,-0.7349,-0.4385,-5.06,-5.37,-9.63
1974,351836984,-0.4126,-0.7305,-0.4424,-4.70,-5.00,-9.51
1975,351841983,-0.4077,-0.7290,-0.4443,-4.15,-4.70,-9.33
1976,351847397,-0.4058,-0.7280,-0.4429,-3.41,-4.57,-9.33
1977,351851985,-0.3989,-0.7261,-0.4424,-2.62,-4.39,-9.09
