# skilleye imu stream v1
# device=xiao_esp32c6 imu=mpu6050 addr=0x68
# rate_hz=200 accel_range_g=16 gyro_range_dps=2000 dlpf_hz=94
# units: accel in g, gyro in deg/s, t_us in microseconds since boot (monotonic)
# no shared clock with the camera -- tap the racket once before each take
# so both recordings share a spike to align on
seq,t_us,ax,ay,az,gx,gy,gz
0,331891984,-0.6992,-0.6064,-0.2861,-43.05,-38.84,-34.39
1,331896984,-0.6958,-0.6079,-0.2852,-43.72,-38.41,-34.15
2,331901986,-0.6948,-0.6074,-0.2900,-44.15,-38.35,-33.84
3,331906984,-0.6875,-0.6035,-0.2852,-44.45,-38.17,-33.54
4,331911984,-0.6748,-0.6045,-0.2891,-44.70,-38.11,-33.05
5,331916984,-0.6724,-0.6050,-0.2881,-44.57,-38.11,-32.68
6,331921985,-0.6641,-0.6084,-0.2876,-44.15,-37.87,-32.32
7,331926984,-0.6567,-0.6123,-0.2822,-43.48,-37.87,-31.89
8,331931986,-0.6528,-0.6064,-0.2866,-42.56,-37.99,-31.34
9,331936984,-0.6470,-0.6035,-0.2871,-41.46,-38.11,-30.79
10,331941984,-0.6436,-0.6040,-0.2886,-39.94,-38.17,-30.43
11,331946986,-0.6382,-0.6016,-0.2891,-38.17,-38.41,-29.88
12,331951984,-0.6396,-0.6084,-0.2964,-36.28,-38.72,-29.45
13,331956983,-0.6416,-0.6108,-0.2959,-34.02,-39.02,-29.09
14,331961984,-0.6362,-0.6113,-0.2964,-31.95,-39.27,-28.54
15,331966984,-0.6440,-0.6143,-0.3003,-29.51,-39.76,-27.87
16,331971984,-0.6431,-0.6172,-0.3008,-27.13,-40.00,-27.26
17,331976984,-0.6465,-0.6201,-0.3008,-24.82,-40.55,-26.71
18,331981984,-0.6509,-0.6221,-0.3062,-22.38,-40.79,-26.04
19,331986984,-0.6528,-0.6304,-0.3062,-20.18,-41.22,-25.43
20,331991984,-0.6494,-0.6353,-0.3047,-17.80,-41.71,-24.82
21,331996984,-0.6543,-0.6333,-0.3032,-15.61,-42.13,-24.15
22,332001984,-0.6567,-0.6328,-0.3071,-13.54,-42.50,-23.72
23,332006984,-0.6641,-0.6353,-0.3105,-11.10,-42.87,-23.17
24,332011984,-0.6660,-0.6343,-0.3125,-8.84,-43.23,-22.68
25,332016984,-0.6675,-0.6348,-0.3120,-6.59,-43.72,-22.26
26,332021985,-0.6733,-0.6396,-0.3105,-4.33,-44.21,-21.89
27,332026984,-0.6748,-0.6411,-0.3125,-1.95,-44.45,-21.46
28,332031986,-0.6787,-0.6445,-0.3076,0.12,-44.63,-21.22
29,332036983,-0.6787,-0.6460,-0.3101,2.44,-45.12,-20.85
30,332041984,-0.6826,-0.6465,-0.3037,4.45,-45.37,-20.79
31,332046984,-0.6787,-0.6440,-0.3120,6.46,-45.79,-20.61
32,332051984,-0.6763,-0.6475,-0.3081,8.48,-45.98,-20.49
33,332056984,-0.6807,-0.6484,-0.3042,10.30,-46.40,-20.43
34,332062076,-0.6807,-0.6494,-0.3008,11.89,-46.77,-20.49
35,332066984,-0.6743,-0.6519,-0.2983,13.23,-47.20,-20.30
36,332071984,-0.6714,-0.6523,-0.2969,14.15,-47.56,-20.37
37,332076984,-0.6636,-0.6587,-0.3008,14.88,-48.05,-20.43
38,332081984,-0.6724,-0.6602,-0.3081,15.18,-48.29,-20.30
39,332086983,-0.6694,-0.6631,-0.2983,15.24,-48.72,-20.30
40,332091984,-0.6753,-0.6606,-0.2964,15.00,-48.90,-20.37
41,332096982,-0.6772,-0.6626,-0.2979,14.33,-49.21,-20.37
42,332101982,-0.6768,-0.6646,-0.2988,13.60,-49.33,-20.30
43,332106982,-0.6733,-0.6680,-0.2935,12.62,-49.39,-20.49
44,332111983,-0.6733,-0.6689,-0.2944,11.28,-49.33,-20.61
45,332116986,-0.6758,-0.6689,-0.2964,9.82,-49.45,-20.73
46,332121984,-0.6743,-0.6709,-0.2910,8.23,-49.15,-20.98
47,332126985,-0.6719,-0.6709,-0.2871,6.65,-49.09,-21.16
48,332131984,-0.6714,-0.6680,-0.2822,4.88,-48.90,-21.40
49,332137088,-0.6650,-0.6714,-0.2803,3.23,-48.78,-21.71
50,332141984,-0.6592,-0.6714,-0.2788,1.52,-48.29,-22.13
51,332146984,-0.6543,-0.6763,-0.2739,-0.24,-48.11,-22.68
52,332151984,-0.6514,-0.6787,-0.2729,-2.13,-47.87,-23.05
53,332156984,-0.6465,-0.6812,-0.2754,-3.96,-47.62,-23.48
54,332161983,-0.6387,-0.6826,-0.2734,-5.85,-47.56,-24.02
55,332166986,-0.6377,-0.6831,-0.2778,-7.80,-47.50,-24.39
56,332171985,-0.6338,-0.6851,-0.2808,-9.70,-47.26,-24.88
57,332176982,-0.6294,-0.6904,-0.2793,-11.65,-47.20,-25.37
58,332181984,-0.6274,-0.6929,-0.2778,-13.48,-47.07,-25.85
59,332186984,-0.6226,-0.6929,-0.2769,-15.12,-47.01,-26.34
60,332191984,-0.6196,-0.6943,-0.2769,-16.71,-46.71,-26.71
61,332196988,-0.6147,-0.6934,-0.2769,-18.11,-46.59,-27.20
62,332201984,-0.6182,-0.6938,-0.2754,-19.45,-46.34,-27.62
63,332206984,-0.6177,-0.6953,-0.2808,-20.61,-46.28,-28.23
64,332211984,-0.6196,-0.6943,-0.2837,-21.77,-45.91,-28.78
65,332216984,-0.6211,-0.6904,-0.2769,-22.68,-45.67,-29.33
66,332221984,-0.6226,-0.6885,-0.2778,-23.54,-45.24,-30.00
67,332226984,-0.6250,-0.6880,-0.2754,-24.21,-44.82,-30.61
68,332231984,-0.6201,-0.6841,-0.2764,-24.82,-44.33,-31.34
69,332236986,-0.6172,-0.6807,-0.2759,-25.18,-44.02,-31.95
70,332241984,-0.6143,-0.6782,-0.2749,-25.73,-43.35,-32.50
71,332246984,-0.6138,-0.6821,-0.2827,-26.10,-42.87,-33.35
72,332251984,-0.6089,-0.6743,-0.2764,-26.52,-42.32,-33.96
73,332256984,-0.6050,-0.6738,-0.2759,-27.01,-41.52,-34.82
74,332261984,-0.6016,-0.6743,-0.2729,-27.50,-40.91,-35.37
75,332266984,-0.5933,-0.6724,-0.2705,-27.99,-40.37,-36.16
76,332271984,-0.5952,-0.6768,-0.2739,-28.78,-39.88,-36.89
77,332276987,-0.5894,-0.6709,-0.2778,-29.51,-39.33,-37.44
78,332281984,-0.5869,-0.6660,-0.2773,-30.24,-38.54,-38.05
79,332286984,-0.5840,-0.6699,-0.2744,-31.10,-38.05,-38.60
80,332291984,-0.5820,-0.6611,-0.2769,-32.07,-37.50,-39.02
81,332296984,-0.5820,-0.6646,-0.2764,-33.17,-36.83,-39.63
82,332301984,-0.5811,-0.6621,-0.2783,-34.09,-36.34,-40.06
83,332306984,-0.5840,-0.6670,-0.2744,-35.43,-35.67,-40.37
84,332311984,-0.5845,-0.6641,-0.2788,-36.71,-34.82,-40.79
85,332316984,-0.5859,-0.6616,-0.2915,-37.80,-34.33,-41.10
86,332321984,-0.5903,-0.6665,-0.2778,-39.09,-33.78,-41.34
87,332326984,-0.5962,-0.6650,-0.2861,-40.37,-33.05,-41.46
88,332331985,-0.5981,-0.6597,-0.2852,-41.65,-32.38,-41.65
89,332336984,-0.6055,-0.6636,-0.2817,-43.11,-31.59,-41.83
90,332341984,-0.6074,-0.6631,-0.2852,-44.45,-30.73,-41.77
91,332346984,-0.6104,-0.6680,-0.2915,-45.85,-30.00,-41.77
92,332351982,-0.6157,-0.6611,-0.2876,-47.13,-29.39,-41.65
93,332356982,-0.6201,-0.6641,-0.2827,-48.29,-28.29,-41.59
94,332361984,-0.6167,-0.6611,-0.2935,-49.33,-27.56,-41.34
95,332366983,-0.6138,-0.6631,-0.2920,-50.30,-26.71,-41.22
96,332371983,-0.6187,-0.6621,-0.2876,-51.10,-25.91,-41.10
97,332376984,-0.6187,-0.6592,-0.2876,-51.59,-25.06,-40.73
98,332381983,-0.6196,-0.6636,-0.2925,-52.07,-24.27,-40.61
99,332386982,-0.6133,-0.6675,-0.2920,-52.13,-23.54,-40.24
100,332391982,-0.6152,-0.6714,-0.2964,-52.20,-22.93,-40.12
101,332396982,-0.6147,-0.6724,-0.2935,-52.07,-22.26,-39.88
102,332401986,-0.6079,-0.6748,-0.2935,-51.71,-21.83,-39.63
103,332406983,-0.6064,-0.6753,-0.3008,-51.04,-21.40,-39.45
104,332412010,-0.5957,-0.6772,-0.2949,-50.18,-21.10,-39.39
105,332416986,-0.5977,-0.6816,-0.2979,-48.96,-20.73,-39.33
106,332421984,-0.5962,-0.6846,-0.2988,-47.56,-20.79,-39.21
107,332426984,-0.5918,-0.6860,-0.3032,-45.79,-20.67,-39.09
108,332431985,-0.5918,-0.6836,-0.3003,-43.90,-20.85,-39.15
109,332436984,-0.5786,-0.6899,-0.3071,-42.01,-21.04,-39.02
110,332441986,-0.5737,-0.6948,-0.3052,-39.94,-21.16,-38.96
111,332446984,-0.5767,-0.6982,-0.3047,-37.99,-21.16,-38.90
112,332451984,-0.5732,-0.6992,-0.3062,-35.98,-21.52,-38.84
113,332456984,-0.5752,-0.7056,-0.3062,-34.15,-21.71,-38.66
114,332462417,-0.5698,-0.7070,-0.3071,-32.20,-22.20,-38.60
115,332466984,-0.5684,-0.7065,-0.3105,-30.79,-22.50,-38.66
116,332471985,-0.5635,-0.7070,-0.3057,-29.45,-22.93,-38.60
117,332476984,-0.5591,-0.7031,-0.3052,-28.05,-23.23,-38.60
118,332481984,-0.5581,-0.7075,-0.3062,-26.71,-23.66,-38.60
119,332486984,-0.5591,-0.7061,-0.3047,-25.73,-24.15,-38.60
120,332491984,-0.5610,-0.7095,-0.3047,-24.57,-24.45,-38.66
121,332496984,-0.5581,-0.7139,-0.3076,-23.90,-24.82,-38.66
122,332501984,-0.5610,-0.7109,-0.3115,-23.60,-25.12,-38.66
123,332506984,-0.5566,-0.7124,-0.3076,-23.23,-25.37,-38.66
124,332511984,-0.5625,-0.7144,-0.3047,-23.23,-25.43,-38.60
125,332516984,-0.5601,-0.7119,-0.3052,-23.48,-25.67,-38.54
126,332521984,-0.5684,-0.7173,-0.3013,-23.78,-25.73,-38.48
127,332526984,-0.5723,-0.7178,-0.3081,-24.51,-25.91,-38.41
128,332531984,-0.5708,-0.7227,-0.3120,-25.37,-25.85,-38.29
129,332536984,-0.5757,-0.7261,-0.3149,-26.59,-25.85,-38.17
130,332541984,-0.5757,-0.7319,-0.3154,-27.93,-25.73,-38.05
131,332546986,-0.5679,-0.7310,-0.3145,-29.21,-25.73,-37.99
132,332551984,-0.5718,-0.7314,-0.3179,-30.55,-25.79,-37.87
133,332556984,-0.5684,-0.7324,-0.3174,-31.89,-25.73,-37.87
134,332561984,-0.5640,-0.7314,-0.3174,-32.80,-25.79,-37.80
135,332566984,-0.5601,-0.7324,-0.3223,-33.54,-25.49,-37.74
136,332571983,-0.5557,-0.7358,-0.3232,-34.15,-25.55,-37.87
137,332576984,-0.5518,-0.7334,-0.3154,-34.57,-25.37,-37.93
138,332581983,-0.5498,-0.7349,-0.3247,-35.00,-25.37,-38.05
139,332586984,-0.5386,-0.7344,-0.3237,-35.06,-25.24,-38.17
140,332591984,-0.5371,-0.7334,-0.3223,-35.12,-25.24,-38.11
141,332597471,-0.5298,-0.7388,-0.3301,-34.94,-25.18,-38.35
142,332601984,-0.5273,-0.7344,-0.3237,-34.57,-24.88,-38.60
143,332606984,-0.5205,-0.7344,-0.3315,-34.02,-24.76,-38.72
144,332611984,-0.5176,-0.7368,-0.3267,-33.41,-24.76,-38.78
145,332616984,-0.5146,-0.7388,-0.3296,-32.62,-24.63,-39.02
146,332621984,-0.5132,-0.7402,-0.3315,-32.01,-24.51,-38.96
147,332626984,-0.5142,-0.7446,-0.3364,-31.28,-24.21,-39.09
148,332631984,-0.5161,-0.7476,-0.3379,-30.98,-24.02,-39.27
149,332636985,-0.5186,-0.7529,-0.3438,-30.61,-23.78,-39.21
150,332641984,-0.5166,-0.7568,-0.3428,-30.37,-23.66,-39.33
151,332646984,-0.5166,-0.7529,-0.3398,-30.18,-23.35,-39.39
152,332651984,-0.5181,-0.7563,-0.3398,-29.94,-23.11,-39.33
153,332656984,-0.5107,-0.7607,-0.3413,-29.82,-22.87,-39.33
154,332662458,-0.5103,-0.7603,-0.3413,-29.57,-22.62,-39.39
155,332666984,-0.5122,-0.7632,-0.3325,-29.51,-22.13,-39.57
156,332671983,-0.5127,-0.7666,-0.3452,-29.45,-22.13,-39.39
157,332676982,-0.5117,-0.7700,-0.3418,-29.51,-21.89,-39.27
158,332681984,-0.5083,-0.7695,-0.3428,-29.57,-21.65,-39.33
159,332686982,-0.5015,-0.7715,-0.3472,-29.76,-21.59,-39.15
160,332691982,-0.4971,-0.7749,-0.3491,-29.82,-21.34,-39.02
161,332696982,-0.4888,-0.7754,-0.3472,-29.88,-21.28,-39.02
162,332702117,-0.4858,-0.7808,-0.3442,-29.70,-21.16,-38.96
163,332706984,-0.4844,-0.7837,-0.3496,-29.70,-21.04,-38.72
164,332711983,-0.4863,-0.7871,-0.3521,-29.63,-20.98,-38.60
165,332716984,-0.4795,-0.7915,-0.3550,-29.45,-21.04,-38.54
166,332721984,-0.4814,-0.7983,-0.3545,-29.27,-20.85,-38.41
167,332726984,-0.4751,-0.7964,-0.3516,-28.90,-20.85,-38.35
168,332731984,-0.4741,-0.8008,-0.3511,-28.41,-20.55,-38.41
169,332736984,-0.4771,-0.8027,-0.3569,-27.62,-20.43,-38.60
170,332741984,-0.4717,-0.8037,-0.3594,-26.59,-20.43,-38.72
171,332746983,-0.4692,-0.8062,-0.3564,-25.67,-20.18,-38.84
172,332751984,-0.4639,-0.8076,-0.3555,-24.45,-20.06,-39.02
173,332756986,-0.4629,-0.8076,-0.3477,-23.29,-19.94,-39.27
174,332761984,-0.4609,-0.8101,-0.3525,-22.07,-19.76,-39.70
175,332766984,-0.4634,-0.8164,-0.3530,-21.04,-19.45,-39.94
176,332771984,-0.4575,-0.8179,-0.3574,-20.00,-19.33,-40.43
177,332776984,-0.4565,-0.8193,-0.3486,-19.02,-19.21,-40.73
178,332782391,-0.4561,-0.8262,-0.3501,-18.05,-19.15,-41.16
179,332786984,-0.4536,-0.8291,-0.3564,-17.20,-18.84,-41.59
180,332791984,-0.4561,-0.8276,-0.3540,-16.40,-18.66,-42.01
181,332796984,-0.4590,-0.8364,-0.3535,-15.61,-18.48,-42.38
182,332801984,-0.4575,-0.8374,-0.3579,-14.94,-18.17,-42.93
183,332806984,-0.4565,-0.8394,-0.3525,-14.27,-17.87,-43.41
184,332811984,-0.4604,-0.8457,-0.3506,-13.72,-17.50,-43.96
185,332816984,-0.4575,-0.8501,-0.3564,-13.54,-17.13,-44.63
186,332821984,-0.4604,-0.8506,-0.3545,-13.48,-16.77,-45.37
187,332826984,-0.4585,-0.8555,-0.3521,-13.41,-16.28,-46.10
188,332831984,-0.4551,-0.8569,-0.3555,-13.48,-15.98,-46.89
189,332836984,-0.4482,-0.8618,-0.3481,-13.72,-15.61,-47.74
190,332841984,-0.4434,-0.8643,-0.3491,-14.09,-15.30,-48.60
191,332846984,-0.4409,-0.8677,-0.3467,-14.45,-14.82,-49.57
192,332851986,-0.4399,-0.8750,-0.3457,-14.88,-14.63,-50.61
193,332856984,-0.4341,-0.8745,-0.3408,-15.24,-14.39,-51.59
194,332861984,-0.4272,-0.8823,-0.3389,-15.61,-14.39,-52.38
195,332866984,-0.4287,-0.8804,-0.3481,-16.04,-14.33,-53.41
196,332871984,-0.4224,-0.8789,-0.3428,-16.59,-14.15,-54.39
197,332876984,-0.4199,-0.8774,-0.3457,-17.01,-14.33,-55.30
198,332881983,-0.4199,-0.8818,-0.3423,-17.62,-14.27,-56.10
199,332886984,-0.4185,-0.8813,-0.3481,-18.29,-14.39,-57.01
200,332891983,-0.4204,-0.8848,-0.3359,-19.09,-14.51,-57.99
201,332896984,-0.4185,-0.8896,-0.3340,-20.06,-14.51,-58.84
202,332901984,-0.4180,-0.8887,-0.3335,-21.10,-14.57,-59.63
203,332906984,-0.4082,-0.8877,-0.3296,-22.20,-14.70,-60.73
204,332911984,-0.4028,-0.8887,-0.3267,-22.93,-14.76,-61.28
205,332916984,-0.3975,-0.8867,-0.3237,-23.96,-14.70,-62.32
206,332921984,-0.3994,-0.8867,-0.3267,-24.82,-14.76,-63.05
207,332926984,-0.3960,-0.8906,-0.3247,-25.73,-15.00,-64.02
208,332931983,-0.3892,-0.8896,-0.3203,-26.59,-15.24,-64.94
209,332936984,-0.3789,-0.8916,-0.3164,-27.62,-15.37,-65.79
210,332941984,-0.3716,-0.8921,-0.3208,-28.48,-15.67,-66.71
211,332946984,-0.3633,-0.8901,-0.3169,-29.21,-15.98,-67.62
212,332951984,-0.3594,-0.8936,-0.3145,-29.94,-16.22,-68.54
213,332956986,-0.3516,-0.8955,-0.3110,-30.30,-16.65,-69.57
214,332961984,-0.3452,-0.8906,-0.3062,-30.49,-16.95,-70.55
215,332966984,-0.3364,-0.8911,-0.3096,-30.49,-17.20,-71.46
216,332971984,-0.3354,-0.8921,-0.3022,-30.00,-17.74,-72.44
217,332976984,-0.3359,-0.8896,-0.3076,-29.21,-18.23,-73.35
218,332981983,-0.3354,-0.8882,-0.3032,-28.17,-18.48,-74.27
219,332986982,-0.3354,-0.8887,-0.3057,-26.95,-18.90,-75.18
220,332992107,-0.3340,-0.8926,-0.2954,-25.85,-19.27,-76.04
221,332996984,-0.3267,-0.8984,-0.3037,-24.63,-19.82,-76.89
222,333001982,-0.3223,-0.8994,-0.3013,-23.41,-20.24,-77.74
223,333006982,-0.3140,-0.8945,-0.3047,-21.95,-20.98,-78.48
224,333011983,-0.3066,-0.8916,-0.3032,-20.24,-21.52,-79.27
225,333016984,-0.3027,-0.8877,-0.3037,-18.48,-22.20,-80.00
226,333021984,-0.2925,-0.8901,-0.2998,-16.34,-23.05,-80.73
227,333026984,-0.2886,-0.8828,-0.3096,-14.33,-23.96,-81.40
228,333031984,-0.2886,-0.8857,-0.3066,-12.32,-24.70,-82.07
229,333036984,-0.2861,-0.8872,-0.3110,-10.00,-25.61,-82.62
230,333041984,-0.2886,-0.8857,-0.3135,-8.05,-26.52,-83.05
231,333047387,-0.2832,-0.8887,-0.3105,-5.55,-27.62,-83.66
232,333051984,-0.2832,-0.8872,-0.3096,-4.15,-28.41,-83.90
233,333056986,-0.2837,-0.8901,-0.3091,-2.50,-29.21,-84.21
234,333061984,-0.2847,-0.8945,-0.3057,-1.34,-30.12,-84.57
235,333066984,-0.2803,-0.9014,-0.3081,-0.06,-30.85,-84.88
236,333072486,-0.2744,-0.9019,-0.3022,1.28,-31.83,-85.00
237,333076984,-0.2725,-0.9043,-0.3062,2.20,-32.44,-85.18
238,333081984,-0.2622,-0.9033,-0.3081,3.84,-33.23,-85.18
239,333086983,-0.2529,-0.9053,-0.3179,5.79,-34.21,-85.49
240,333091984,-0.2476,-0.9053,-0.3262,7.99,-35.00,-85.79
241,333096984,-0.2461,-0.9067,-0.3252,11.28,-36.04,-86.04
242,333101984,-0.2412,-0.9067,-0.3379,14.09,-37.01,-86.16
243,333106984,-0.2388,-0.9033,-0.3384,17.26,-38.11,-86.46
244,333111984,-0.2290,-0.9023,-0.3354,20.61,-39.09,-86.59
245,333116986,-0.2251,-0.9019,-0.3398,24.02,-40.00,-86.89
246,333121984,-0.2197,-0.9028,-0.3408,27.56,-40.98,-87.07
247,333126984,-0.2153,-0.9023,-0.3472,30.85,-41.77,-87.44
248,333131984,-0.2163,-0.9009,-0.3413,34.27,-42.87,-87.44
249,333136984,-0.2148,-0.9023,-0.3423,37.32,-43.66,-87.68
250,333141984,-0.2095,-0.9019,-0.3345,40.12,-44.33,-87.80
251,333146984,-0.2124,-0.9023,-0.3403,42.74,-45.06,-87.99
252,333151984,-0.2056,-0.9067,-0.3394,44.88,-45.55,-88.05
253,333156984,-0.2026,-0.9077,-0.3350,46.52,-46.10,-88.11
254,333161986,-0.2017,-0.9121,-0.3350,47.87,-46.46,-88.11
255,333166984,-0.2036,-0.9146,-0.3403,48.72,-46.77,-88.05
256,333171984,-0.1958,-0.9180,-0.3394,49.45,-47.01,-87.99
257,333176984,-0.1934,-0.9233,-0.3467,49.76,-47.13,-87.80
258,333181984,-0.1904,-0.9282,-0.3511,50.24,-47.32,-87.80
259,333186984,-0.1865,-0.9346,-0.3496,50.73,-47.20,-87.74
260,333191982,-0.1855,-0.9312,-0.3540,51.28,-47.26,-87.87
261,333196987,-0.1895,-0.9321,-0.3555,52.32,-47.01,-87.80
262,333201984,-0.1709,-0.9282,-0.3706,53.48,-46.65,-88.05
263,333206986,-0.1733,-0.9331,-0.3716,54.76,-46.28,-88.41
264,333211984,-0.1733,-0.9336,-0.3760,56.10,-45.79,-88.72
265,333216984,-0.1787,-0.9370,-0.3677,57.50,-45.12,-89.02
266,333221984,-0.1807,-0.9375,-0.3706,59.02,-44.57,-89.51
267,333226984,-0.1743,-0.9375,-0.3696,60.49,-43.90,-89.94
268,333231984,-0.1641,-0.9355,-0.3716,62.26,-42.99,-90.24
269,333236984,-0.1567,-0.9336,-0.3677,64.02,-42.26,-90.73
270,333241984,-0.1436,-0.9331,-0.3657,65.91,-41.59,-91.10
271,333246984,-0.1338,-0.9258,-0.3745,68.05,-40.85,-91.52
272,333251984,-0.1191,-0.9258,-0.3740,70.18,-40.43,-91.71
273,333257306,-0.1084,-0.9229,-0.3667,72.13,-40.12,-91.95
274,333261984,-0.0947,-0.9351,-0.3638,73.90,-39.82,-92.07
275,333266986,-0.0825,-0.9346,-0.3682,75.06,-39.76,-91.95
276,333271984,-0.0723,-0.9385,-0.3623,75.61,-39.63,-91.83
277,333276984,-0.0649,-0.9336,-0.3599,75.91,-39.51,-91.71
278,333281984,-0.0571,-0.9307,-0.3569,75.67,-39.51,-91.71
279,333286983,-0.0508,-0.9336,-0.3545,75.00,-39.63,-91.71
280,333291982,-0.0425,-0.9282,-0.3584,73.90,-39.39,-91.59
281,333296982,-0.0347,-0.9287,-0.3491,72.62,-39.09,-91.65
282,333301982,-0.0342,-0.9253,-0.3477,71.04,-38.96,-91.89
283,333306982,-0.0298,-0.9316,-0.3315,69.33,-38.72,-91.89
284,333311984,-0.0317,-0.9346,-0.3354,67.87,-38.17,-92.13
285,333316984,-0.0342,-0.9287,-0.3369,66.46,-37.80,-92.26
286,333321984,-0.0332,-0.9263,-0.3350,65.24,-37.26,-92.56
287,333326984,-0.0278,-0.9209,-0.3267,64.57,-36.65,-92.80
288,333331984,-0.0176,-0.9229,-0.3364,63.96,-36.22,-93.11
289,333336984,-0.0181,-0.9243,-0.3374,63.35,-35.73,-93.41
290,333341984,-0.0088,-0.9194,-0.3374,62.87,-35.37,-93.96
291,333346984,-0.0005,-0.9077,-0.3374,62.32,-35.12,-94.33
292,333351984,0.0063,-0.8989,-0.3389,61.83,-34.82,-94.76
293,333356985,0.0293,-0.8950,-0.3379,61.46,-34.88,-95.24
294,333361984,0.0435,-0.8896,-0.3394,61.04,-35.06,-95.67
295,333366986,0.0566,-0.8779,-0.3315,60.49,-35.49,-96.34
296,333371984,0.0674,-0.8740,-0.3350,59.57,-35.85,-96.83
297,333376984,0.0752,-0.8682,-0.3267,58.54,-36.34,-97.26
298,333381984,0.0835,-0.8574,-0.3218,56.83,-37.13,-97.74
299,333386984,0.0894,-0.8589,-0.3169,54.82,-37.56,-98.05
300,333391984,0.0938,-0.8550,-0.3149,52.26,-38.17,-98.29
301,333396983,0.0859,-0.8525,-0.3037,49.39,-38.84,-98.60
302,333401984,0.0928,-0.8423,-0.3066,46.10,-39.45,-98.72
303,333406984,0.0972,-0.8472,-0.3008,42.50,-40.00,-98.96
304,333412454,0.1050,-0.8428,-0.2915,38.41,-40.61,-99.09
305,333416984,0.1021,-0.8418,-0.2856,34.39,-41.04,-99.09
306,333421984,0.0967,-0.8359,-0.2881,30.00,-41.34,-99.09
307,333426984,0.0933,-0.8306,-0.2842,25.79,-42.13,-99.15
308,333431984,0.0947,-0.8286,-0.2690,21.52,-42.38,-99.02
309,333436984,0.0952,-0.8315,-0.2798,17.38,-42.87,-98.72
310,333441984,0.1050,-0.8247,-0.2778,13.35,-43.60,-98.60
311,333446984,0.1182,-0.8218,-0.2847,9.57,-44.15,-98.29
312,333451984,0.1255,-0.8232,-0.2822,6.28,-44.94,-98.05
313,333456986,0.1328,-0.8174,-0.2812,2.99,-45.49,-97.74
314,333461984,0.1343,-0.8130,-0.2754,-0.06,-46.10,-97.50
315,333466991,0.1484,-0.8154,-0.2842,-3.35,-46.77,-97.07
316,333471984,0.1611,-0.8164,-0.2856,-6.04,-47.26,-96.77
317,333476984,0.1660,-0.8120,-0.2886,-8.11,-47.80,-96.52
318,333481984,0.1660,-0.8091,-0.2769,-10.49,-48.11,-96.10
319,333486984,0.1802,-0.8047,-0.2979,-12.80,-48.48,-95.85
320,333491984,0.1865,-0.8096,-0.2969,-15.43,-49.09,-95.43
321,333496984,0.2007,-0.8003,-0.2881,-17.80,-49.45,-94.88
322,333501984,0.2192,-0.7896,-0.2998,-20.37,-50.18,-94.33
323,333506984,0.2417,-0.7861,-0.3345,-23.11,-50.79,-93.72
324,333511984,0.2729,-0.7720,-0.3955,-25.91,-51.77,-93.05
325,333516984,0.3125,-0.7212,-0.4634,-29.39,-52.93,-92.62
326,333521984,0.3516,-0.6851,-0.4966,-33.48,-54.09,-92.44
327,333526984,0.3628,-0.6641,-0.4868,-37.74,-54.82,-92.44
328,333531984,0.3135,-0.6514,-0.4517,-42.26,-55.18,-92.38
329,333536984,0.2886,-0.6323,-0.4395,-45.98,-55.30,-92.20
330,333541984,0.2808,-0.6167,-0.4170,-48.90,-55.30,-92.13
331,333546984,0.2979,-0.6108,-0.4131,-50.85,-55.67,-92.01
332,333551984,0.3091,-0.6172,-0.4072,-51.89,-55.67,-91.77
333,333556984,0.3164,-0.6289,-0.3794,-52.38,-55.55,-91.40
334,333561984,0.3105,-0.6489,-0.3657,-52.44,-55.24,-90.91
335,333566986,0.2896,-0.6724,-0.3511,-52.01,-54.94,-90.00
336,333571984,0.2783,-0.6865,-0.3208,-51.40,-54.33,-89.02
337,333576984,0.2534,-0.6963,-0.2983,-50.49,-53.41,-87.99
338,333581983,0.2632,-0.6934,-0.2900,-49.02,-52.68,-86.89
339,333586982,0.2603,-0.7041,-0.2798,-47.20,-51.59,-85.85
340,333591982,0.2705,-0.7056,-0.2612,-45.06,-50.79,-84.70
341,333596982,0.2793,-0.7051,-0.2490,-42.87,-49.76,-83.54
342,333601982,0.2842,-0.6992,-0.2588,-40.61,-48.84,-82.38
343,333606982,0.2920,-0.6904,-0.2598,-38.78,-47.93,-81.22
344,333612054,0.3091,-0.6733,-0.2549,-37.13,-47.07,-79.94
345,333616984,0.3247,-0.6553,-0.2529,-35.55,-46.10,-78.78
346,333621984,0.3384,-0.6426,-0.2607,-34.27,-45.37,-77.50
347,333626984,0.3447,-0.6411,-0.2310,-33.11,-44.63,-76.28
348,333631983,0.3496,-0.6362,-0.2451,-31.95,-43.90,-74.88
349,333636982,0.3706,-0.6289,-0.2349,-30.61,-43.29,-73.48
350,333641984,0.3848,-0.6299,-0.2280,-28.78,-42.80,-72.07
351,333646983,0.4023,-0.6260,-0.2417,-26.95,-42.01,-70.55
352,333651984,0.4229,-0.6221,-0.2349,-24.70,-41.77,-68.96
353,333656984,0.4497,-0.6226,-0.2368,-22.38,-41.34,-67.38
354,333662416,0.4639,-0.6289,-0.2480,-19.33,-40.79,-65.43
355,333666984,0.4648,-0.6289,-0.2344,-17.44,-40.43,-64.02
356,333671986,0.4727,-0.6318,-0.2383,-15.24,-39.82,-62.20
357,333677443,0.4800,-0.6343,-0.2485,-12.74,-39.45,-60.24
358,333681984,0.4883,-0.6367,-0.2397,-11.52,-39.15,-58.72
359,333686984,0.4937,-0.6323,-0.2446,-9.88,-38.60,-56.46
360,333691984,0.4937,-0.6313,-0.2593,-9.27,-38.17,-54.82
361,333696984,0.4976,-0.6421,-0.2583,-8.41,-37.62,-52.80
362,333701984,0.4961,-0.6582,-0.2544,-7.93,-37.01,-50.55
363,333706984,0.4946,-0.6802,-0.2461,-7.32,-36.28,-48.35
364,333711984,0.5073,-0.6841,-0.2651,-6.83,-35.37,-46.10
365,333716984,0.5122,-0.7041,-0.2524,-5.91,-34.57,-43.72
366,333721986,0.5205,-0.7061,-0.2520,-4.57,-33.35,-41.28
367,333726984,0.5347,-0.7104,-0.2676,-2.80,-32.50,-38.90
368,333731984,0.5425,-0.7192,-0.2734,-0.61,-31.59,-36.59
369,333736984,0.5532,-0.7324,-0.2666,1.83,-30.43,-34.27
370,333742450,0.5566,-0.7373,-0.2705,4.94,-29.15,-31.71
371,333746984,0.5664,-0.7422,-0.2700,7.20,-28.17,-29.94
372,333751984,0.5649,-0.7466,-0.2725,9.63,-27.13,-27.80
373,333756984,0.5664,-0.7539,-0.2700,11.65,-25.85,-25.73
374,333761985,0.5601,-0.7603,-0.2666,13.29,-24.70,-23.84
375,333766984,0.5596,-0.7588,-0.2637,14.51,-23.54,-22.01
376,333771986,0.5640,-0.7549,-0.2603,14.94,-22.07,-19.88
377,333776984,0.5610,-0.7515,-0.2568,15.00,-21.04,-18.17
378,333781984,0.5654,-0.7500,-0.2583,14.21,-19.63,-16.52
379,333786984,0.5703,-0.7500,-0.2637,13.23,-18.60,-15.00
380,333791984,0.5703,-0.7554,-0.2690,11.77,-17.50,-13.35
381,333796984,0.5674,-0.7515,-0.2676,10.12,-16.16,-11.77
382,333801984,0.5723,-0.7520,-0.2759,8.60,-15.06,-10.06
383,333806983,0.5674,-0.7593,-0.2852,7.01,-14.02,-8.48
384,333811984,0.5776,-0.7686,-0.2925,5.67,-12.80,-6.83
385,333816984,0.5767,-0.7778,-0.2954,4.57,-11.59,-5.00
386,333821984,0.5713,-0.7822,-0.3027,3.66,-10.49,-3.29
387,333826984,0.5679,-0.7842,-0.3145,3.35,-9.33,-1.83
388,333831984,0.5601,-0.7793,-0.3208,3.72,-8.11,-0.43
389,333836984,0.5537,-0.7749,-0.3237,4.33,-6.65,0.91
390,333841984,0.5527,-0.7710,-0.3281,5.43,-5.37,1.95
391,333846984,0.5474,-0.7651,-0.3237,7.07,-3.90,2.93
392,333851984,0.5439,-0.7554,-0.3159,9.02,-2.32,3.72
393,333856984,0.5405,-0.7437,-0.3135,11.46,-0.79,4.33
394,333862381,0.5356,-0.7339,-0.3193,14.39,0.67,4.63
395,333866984,0.5391,-0.7227,-0.3125,17.74,2.26,4.94
396,333871984,0.5439,-0.7070,-0.3008,21.40,3.78,5.00
397,333876984,0.5479,-0.7002,-0.3042,25.00,5.12,5.00
398,333881984,0.5513,-0.6855,-0.3022,28.84,6.46,4.82
399,333886982,0.5508,-0.6738,-0.2876,32.62,7.68,4.57
400,333891982,0.5527,-0.6670,-0.2803,36.16,8.84,4.15
401,333896983,0.5586,-0.6519,-0.2769,39.33,9.63,3.66
402,333901984,0.5645,-0.6455,-0.2656,42.20,10.67,3.05
403,333906984,0.5640,-0.6440,-0.2446,44.76,11.65,2.56
404,333911984,0.5664,-0.6348,-0.2466,46.59,12.32,1.89
405,333916982,0.5625,-0.6440,-0.2412,48.05,12.80,1.34
406,333921984,0.5654,-0.6411,-0.2437,49.09,13.48,0.73
407,333926984,0.5713,-0.6353,-0.2310,49.33,14.02,0.06
408,333931984,0.5654,-0.6396,-0.2305,49.33,14.57,-0.61
409,333936984,0.5674,-0.6479,-0.2261,48.54,15.00,-1.40
410,333941984,0.5645,-0.6514,-0.2275,47.50,15.43,-2.07
411,333947462,0.5698,-0.6558,-0.2217,45.55,15.79,-2.74
412,333951984,0.5708,-0.6572,-0.2158,43.54,16.65,-3.48
413,333956984,0.5732,-0.6665,-0.2251,41.22,16.89,-4.09
414,333961984,0.5732,-0.6733,-0.2241,38.54,17.32,-4.70
415,333966986,0.5796,-0.6724,-0.2261,35.73,17.93,-5.24
416,333971984,0.5874,-0.6738,-0.2212,33.11,18.54,-5.91
417,333976986,0.5889,-0.6875,-0.2192,30.55,19.02,-6.34
418,333981984,0.5776,-0.6919,-0.2197,28.54,19.33,-6.89
419,333986985,0.5742,-0.7056,-0.2285,26.89,19.88,-7.44
420,333991984,0.5693,-0.7183,-0.2305,25.61,20.30,-7.74
421,333996984,0.5664,-0.7256,-0.2363,24.63,20.73,-7.99
422,334001984,0.5723,-0.7349,-0.2368,23.84,20.91,-8.17
423,334006984,0.5708,-0.7417,-0.2358,23.35,21.10,-8.23
424,334011983,0.5703,-0.7485,-0.2476,22.93,21.40,-8.29
425,334016984,0.5776,-0.7529,-0.2505,22.44,21.59,-8.41
426,334021984,0.5796,-0.7554,-0.2524,21.83,21.89,-8.35
427,334026984,0.5820,-0.7632,-0.2471,21.22,22.13,-8.29
428,334031984,0.5762,-0.7642,-0.2466,20.49,22.32,-8.29
429,334036984,0.5645,-0.7651,-0.2529,19.57,22.74,-8.29
430,334041984,0.5508,-0.7715,-0.2549,18.29,23.11,-8.41
431,334046984,0.5439,-0.7749,-0.2495,16.95,23.35,-8.11
432,334051984,0.5371,-0.7881,-0.2505,15.43,23.78,-7.93
433,334056984,0.5405,-0.7910,-0.2598,14.15,24.02,-7.50
434,334061984,0.5469,-0.7954,-0.2549,13.05,24.33,-7.07
435,334066984,0.5498,-0.8027,-0.2588,12.32,24.57,-6.52
436,334071984,0.5503,-0.8008,-0.2661,11.89,24.94,-6.04
437,334076984,0.5537,-0.8008,-0.2686,11.89,25.12,-5.55
438,334081984,0.5483,-0.8027,-0.2671,12.20,25.49,-5.00
439,334086984,0.5513,-0.8037,-0.2671,12.93,25.61,-4.45
440,334091984,0.5591,-0.7979,-0.2627,13.60,25.79,-3.96
441,334096984,0.5659,-0.7993,-0.2622,14.70,25.61,-3.35
442,334101984,0.5728,-0.7930,-0.2563,15.79,25.55,-2.80
443,334106983,0.5752,-0.7783,-0.2441,17.13,25.24,-2.44
444,334111984,0.5767,-0.7646,-0.2358,18.48,24.88,-2.20
445,334116986,0.5771,-0.7588,-0.2354,20.00,24.15,-2.13
446,334121983,0.5869,-0.7480,-0.2236,21.59,23.41,-2.20
447,334126984,0.5918,-0.7388,-0.2119,23.17,22.68,-2.44
448,334131984,0.5933,-0.7241,-0.2056,24.63,21.71,-2.68
449,334136984,0.5947,-0.7173,-0.1992,25.98,20.61,-3.17
450,334141984,0.5996,-0.7114,-0.1870,27.13,19.57,-3.60
451,334146984,0.5977,-0.7090,-0.1763,27.99,18.41,-4.39
452,334151984,0.6006,-0.7080,-0.1665,28.41,17.38,-4.94
453,334156984,0.6084,-0.7095,-0.1562,28.41,16.16,-5.79
454,334161984,0.6040,-0.7056,-0.1357,28.17,15.24,-6.40
455,334166984,0.6250,-0.7100,-0.1392,27.50,14.21,-7.01
456,334171985,0.6274,-0.7158,-0.1338,26.40,13.05,-7.87
457,334176984,0.6260,-0.7192,-0.1226,24.82,12.20,-8.29
458,334181983,0.6201,-0.7275,-0.1191,22.99,11.46,-8.84
459,334186983,0.6196,-0.7305,-0.1172,20.91,10.43,-9.21
460,334191983,0.6187,-0.7354,-0.1118,18.78,9.70,-9.70
461,334196984,0.6226,-0.7407,-0.1226,16.71,8.90,-10.00
462,334201982,0.6226,-0.7437,-0.1177,14.63,8.05,-10.24
463,334206999,0.6182,-0.7456,-0.1284,12.74,7.50,-10.49
464,334212685,0.6099,-0.7466,-0.1323,10.12,6.46,-10.67
465,334217399,0.6104,-0.7432,-0.1416,7.99,5.61,-10.85
466,334221985,0.6108,-0.7432,-0.1455,6.28,5.00,-10.85
467,334227386,0.6045,-0.7358,-0.1606,3.60,3.84,-10.98
468,334231986,0.5991,-0.7285,-0.1602,1.89,3.17,-10.91
469,334236984,0.5903,-0.7266,-0.1782,-0.06,2.32,-10.73
470,334242367,0.5933,-0.7358,-0.1909,-2.50,1.10,-10.61
471,334246984,0.5962,-0.7368,-0.1978,-4.09,0.24,-10.49
472,334251986,0.5952,-0.7324,-0.2056,-6.28,-0.73,-10.37
473,334256984,0.5884,-0.7295,-0.2183,-8.23,-1.65,-10.06
474,334261984,0.5928,-0.7271,-0.2305,-10.37,-2.68,-9.88
475,334266984,0.5967,-0.7266,-0.2363,-12.62,-3.78,-9.51
476,334271984,0.5923,-0.7178,-0.2310,-15.12,-4.82,-9.09
477,334276986,0.6025,-0.7158,-0.2393,-17.62,-5.73,-8.48
478,334281984,0.6060,-0.7080,-0.2412,-20.24,-6.71,-7.80
479,334286985,0.6016,-0.6978,-0.2524,-22.80,-7.74,-7.13
480,334291984,0.6060,-0.6943,-0.2563,-25.24,-8.60,-6.59
481,334296984,0.6089,-0.6919,-0.2681,-27.44,-9.51,-5.85
482,334301984,0.5811,-0.6851,-0.2788,-29.27,-10.37,-5.00
483,334306983,0.5859,-0.7021,-0.2651,-31.16,-11.16,-4.21
484,334311984,0.5854,-0.7031,-0.2788,-32.99,-11.89,-3.48
485,334316984,0.5552,-0.6870,-0.2866,-34.33,-12.44,-2.74
486,334321988,0.5396,-0.6860,-0.2896,-35.55,-13.17,-2.26
487,334326987,0.5229,-0.6816,-0.2949,-36.22,-13.54,-2.01
488,334331988,0.5107,-0.6646,-0.3237,-36.77,-14.09,-1.77
489,334337010,0.5234,-0.6616,-0.3179,-37.26,-14.21,-1.59
490,334341982,0.5200,-0.6748,-0.3164,-37.87,-14.33,-1.65
491,334346985,0.4639,-0.7246,-0.3301,-39.02,-14.21,-1.52
492,334351984,0.4751,-0.6631,-0.3525,-41.52,-13.96,-1.59
493,334356984,0.5112,-0.6602,-0.3457,-43.11,-13.78,-1.83
494,334361984,0.5356,-0.6528,-0.3496,-44.82,-13.35,-2.20
495,334366984,0.5278,-0.6421,-0.3550,-46.59,-12.80,-2.68
496,334371982,0.5029,-0.6450,-0.3618,-48.35,-12.20,-3.17
497,334376985,0.4980,-0.6484,-0.3613,-50.43,-11.71,-3.60
498,334381982,0.5029,-0.6572,-0.3638,-52.26,-11.16,-3.84
499,334386986,0.5195,-0.6680,-0.3716,-54.45,-10.43,-4.27
500,334391984,0.5278,-0.6787,-0.3901,-56.22,-9.88,-4.57
501,334396984,0.5449,-0.6860,-0.4097,-57.80,-9.21,-4.88
502,334401984,0.5610,-0.6938,-0.4395,-59.21,-8.48,-5.18
503,334406984,0.5776,-0.7056,-0.4824,-60.30,-7.93,-5.61
504,334411984,0.6055,-0.7153,-0.5254,-61.46,-7.07,-5.79
505,334416983,0.6362,-0.7241,-0.5854,-62.44,-5.91,-6.10
506,334421984,0.6553,-0.7329,-0.6216,-63.17,-4.82,-6.34
507,334426984,0.6650,-0.7368,-0.6592,-64.21,-3.35,-6.65
508,334431984,0.6768,-0.7412,-0.6865,-65.30,-1.83,-7.07
509,334436984,0.6821,-0.7275,-0.7100,-66.77,0.30,-7.62
510,334441984,0.6987,-0.7031,-0.7324,-68.72,2.50,-8.23
511,334447101,0.7222,-0.6597,-0.7510,-71.95,5.61,-9.21
512,334451984,0.7661,-0.6152,-0.7842,-75.55,8.05,-10.00
513,334456984,0.8066,-0.5693,-0.8164,-80.37,10.85,-10.91
514,334461984,0.7769,-0.5562,-0.8311,-85.43,13.23,-11.52
515,334466984,0.6465,-0.5693,-0.8364,-94.09,17.07,-12.13
516,334471984,0.5576,-0.5928,-0.8335,-100.24,19.82,-12.38
517,334476984,0.4844,-0.6074,-0.8130,-107.56,23.48,-12.44
518,334481986,0.4731,-0.6138,-0.7847,-113.78,27.26,-12.38
519,334486983,0.4941,-0.6221,-0.7422,-118.90,31.04,-12.32
520,334491986,0.5068,-0.6250,-0.7266,-122.74,34.94,-12.26
521,334496984,0.5098,-0.5933,-0.7266,-125.98,39.45,-12.01
522,334501984,0.4976,-0.5962,-0.7144,-126.95,42.50,-12.01
523,334506983,0.4883,-0.6055,-0.7227,-127.62,47.20,-11.77
524,334511984,0.5005,-0.5962,-0.7241,-127.13,50.91,-11.52
525,334516984,0.5112,-0.5889,-0.7227,-125.91,54.63,-11.04
526,334521983,0.5220,-0.5801,-0.7222,-124.02,58.48,-10.37
527,334526984,0.5239,-0.5635,-0.7266,-121.34,62.07,-9.63
528,334531984,0.5239,-0.5337,-0.7339,-118.29,65.49,-8.54
529,334536984,0.5254,-0.5312,-0.7173,-114.82,68.96,-7.44
530,334541984,0.5288,-0.5269,-0.7144,-111.04,72.38,-6.04
531,334546984,0.5356,-0.5303,-0.7026,-107.01,75.43,-4.45
532,334551984,0.5322,-0.5312,-0.6782,-102.74,78.48,-2.80
533,334556984,0.5190,-0.5190,-0.6675,-98.84,81.34,-0.91
534,334561984,0.5107,-0.4849,-0.6475,-95.30,84.39,0.85
535,334566984,0.5181,-0.4683,-0.6396,-92.13,86.04,2.62
536,334571984,0.5327,-0.4673,-0.6245,-89.09,87.74,4.45
537,334576984,0.5303,-0.4629,-0.5947,-86.52,90.61,6.52
538,334581985,0.5122,-0.4785,-0.5747,-84.39,93.05,8.54
539,334586984,0.4932,-0.4658,-0.5488,-82.99,95.37,10.61
540,334591986,0.4966,-0.4404,-0.5483,-81.71,97.62,12.56
541,334596984,0.5205,-0.4302,-0.5220,-80.24,99.63,14.57
542,334601984,0.5337,-0.4312,-0.4941,-78.78,102.01,16.95
543,334606984,0.5142,-0.4390,-0.4912,-77.20,103.78,19.09
544,334611984,0.4941,-0.4492,-0.4673,-75.61,105.73,21.40
545,334616984,0.4785,-0.4370,-0.4478,-74.51,107.68,23.72
546,334621983,0.4761,-0.4199,-0.4385,-73.11,109.51,26.04
547,334626984,0.4888,-0.4360,-0.4209,-71.59,111.40,28.41
548,334631984,0.4990,-0.4517,-0.4048,-69.76,113.17,30.98
549,334636988,0.4858,-0.4590,-0.3916,-67.80,114.94,33.54
550,334641984,0.4712,-0.4609,-0.3691,-65.79,116.59,36.04
551,334646986,0.4526,-0.4629,-0.3511,-63.29,118.29,38.72
552,334651984,0.4478,-0.4604,-0.3433,-60.79,119.94,41.28
553,334656984,0.4448,-0.4658,-0.3213,-58.11,121.52,43.84
554,334661984,0.4399,-0.4673,-0.3066,-55.37,123.17,46.46
555,334666984,0.4312,-0.4673,-0.2832,-52.44,124.94,48.96
556,334672401,0.4209,-0.4731,-0.2734,-49.39,126.28,51.46
557,334676984,0.4136,-0.4775,-0.2534,-46.34,128.05,54.09
558,334681984,0.4058,-0.4810,-0.2393,-43.05,129.51,56.52
559,334686985,0.3960,-0.4810,-0.2324,-40.00,130.98,58.78
560,334691984,0.3853,-0.4712,-0.2104,-36.77,132.44,61.22
561,334696986,0.3711,-0.4766,-0.1831,-33.90,134.02,63.35
562,334701984,0.3716,-0.5000,-0.1650,-31.28,135.61,65.79
563,334706984,0.3701,-0.5073,-0.1504,-28.84,137.13,68.05
564,334711984,0.3574,-0.5127,-0.1357,-26.65,138.48,70.37
565,334716984,0.3569,-0.5137,-0.1123,-24.21,140.24,72.74
566,334721983,0.3501,-0.5063,-0.0957,-21.83,141.65,75.12
567,334726984,0.3394,-0.5098,-0.0728,-19.63,143.11,77.26
568,334731984,0.3311,-0.5190,-0.0576,-17.56,144.51,79.57
569,334736984,0.3218,-0.5210,-0.0386,-15.98,145.98,81.89
570,334741986,0.3218,-0.5342,-0.0190,-14.39,147.26,84.76
571,334746984,0.3271,-0.5532,0.0000,-13.05,148.54,86.10
572,334751984,0.3218,-0.5513,0.0278,-11.83,149.82,88.11
573,334756984,0.3223,-0.5625,0.0371,-10.43,151.04,91.34
574,334761984,0.3281,-0.5767,0.0547,-8.90,152.26,94.02
575,334766987,0.3188,-0.5879,0.0742,-7.50,153.29,96.77
576,334771984,0.3193,-0.6006,0.1016,-5.98,154.33,99.45
577,334776984,0.3149,-0.6147,0.1245,-4.70,155.43,102.13
578,334781983,0.2993,-0.6294,0.1465,-3.11,156.22,104.76
579,334786983,0.2949,-0.6387,0.1719,-1.65,157.26,107.26
580,334791982,0.2812,-0.6450,0.1899,-0.12,158.11,109.63
581,334796985,0.2773,-0.6475,0.2114,0.98,159.09,112.07
582,334801984,0.2686,-0.6479,0.2290,1.95,159.82,114.27
583,334806982,0.2559,-0.6479,0.2495,2.62,160.43,116.34
584,334811986,0.2559,-0.6479,0.2642,3.17,161.28,118.29
585,334816984,0.2407,-0.6470,0.3042,3.54,161.95,120.18
586,334822102,0.2300,-0.6411,0.3213,3.60,162.68,122.01
587,334826983,0.2256,-0.6470,0.3442,3.23,163.11,123.72
588,334831984,0.2080,-0.6470,0.3657,2.87,163.41,125.55
589,334836984,0.1953,-0.6431,0.3857,2.38,163.84,127.07
590,334842409,0.1709,-0.6367,0.4131,1.95,164.21,128.54
591,334846987,0.1689,-0.6514,0.4268,1.46,164.63,130.18
592,334851984,0.1631,-0.6641,0.4443,1.28,164.82,131.83
593,334856984,0.1470,-0.6704,0.4531,1.10,165.00,133.41
594,334862471,0.1382,-0.6831,0.4741,1.28,164.88,135.18
595,334866984,0.1294,-0.6885,0.4888,1.71,164.39,136.95
596,334871984,0.1191,-0.6895,0.5010,2.38,163.90,138.60
597,334876984,0.1030,-0.6978,0.5181,3.11,163.23,140.37
598,334881984,0.0972,-0.7041,0.5332,3.84,162.13,142.01
599,334886984,0.0796,-0.7095,0.5557,4.57,160.55,143.72
600,334891985,0.0405,-0.7119,0.5728,4.76,159.15,145.18
601,334896984,0.0479,-0.7095,0.5825,4.94,157.80,146.16
602,334901986,0.0454,-0.7134,0.6035,4.70,155.91,147.38
603,334906984,-0.0054,-0.7095,0.6147,4.63,153.84,148.72
604,334911983,-0.0361,-0.7085,0.6294,4.39,151.59,149.82
605,334916982,-0.0015,-0.7617,0.6606,3.96,149.27,151.04
606,334921984,-0.0454,-0.7998,0.7104,3.41,146.95,152.50
607,334926982,-0.0107,-0.7822,0.7153,2.62,143.90,154.21
608,334931985,-0.0186,-0.8062,0.7383,2.13,141.65,155.12
609,334936984,-0.0845,-0.8184,0.7988,1.89,138.90,156.52
610,334941984,-0.0669,-0.8057,0.7979,2.01,136.22,157.74
611,334946984,-0.0918,-0.8457,0.8081,2.93,132.93,158.78
612,334951984,-0.1377,-0.8799,0.8794,4.02,129.70,160.24
613,334956984,-0.1060,-0.8774,0.9082,5.49,126.46,161.34
614,334961983,-0.1055,-0.9160,0.9258,7.44,122.87,162.38
615,334966984,-0.1626,-0.9575,0.9541,9.82,118.90,163.48
616,334971985,-0.1660,-0.9658,0.9785,12.80,114.76,164.51
617,334976984,-0.1431,-1.0225,1.0156,16.52,110.49,165.24
618,334981984,-0.1841,-1.0430,1.0381,20.67,105.98,166.16
619,334986984,-0.1797,-1.0557,1.0420,24.88,100.98,166.71
620,334991984,-0.1543,-1.0444,1.0469,29.02,95.61,167.07
621,334996984,-0.1851,-1.0557,1.0972,33.90,90.12,167.26
622,335001986,-0.2295,-1.0869,1.1597,38.78,84.88,167.32
623,335006984,-0.2466,-1.1387,1.1504,42.99,78.66,167.32
624,335012041,-0.2095,-1.1943,1.1558,47.44,71.89,167.01
625,335016983,-0.2471,-1.1953,1.2153,51.28,65.12,166.71
626,335022395,-0.2988,-1.2036,1.2651,55.67,56.65,166.04
627,335026984,-0.2915,-1.1943,1.2642,58.54,50.79,165.18
628,335031983,-0.2324,-1.1826,1.2754,61.77,42.99,164.15
629,335036984,-0.2646,-1.2280,1.3311,65.06,35.00,163.05
630,335041984,-0.3340,-1.2529,1.3926,68.11,27.01,161.95
631,335046984,-0.3477,-1.2954,1.4253,70.49,19.02,160.49
632,335051984,-0.3428,-1.3384,1.4263,72.01,10.55,159.02
633,335056983,-0.3110,-1.3564,1.4497,73.29,1.89,157.44
634,335061984,-0.3672,-1.3481,1.4976,74.27,-7.13,155.79
635,335067480,-0.3994,-1.3667,1.5308,73.78,-17.93,153.54
636,335071984,-0.4014,-1.3496,1.5405,72.74,-27.32,151.16
637,335076984,-0.4082,-1.3423,1.5688,71.40,-35.00,149.15
638,335081984,-0.4268,-1.3667,1.5918,69.82,-45.79,146.52
639,335086984,-0.4453,-1.3901,1.6055,67.93,-54.63,143.72
640,335091983,-0.4688,-1.3906,1.6138,66.16,-64.27,140.85
641,335096983,-0.4712,-1.4072,1.6279,64.02,-74.51,137.80
642,335101982,-0.4790,-1.4111,1.6460,61.46,-84.88,134.76
643,335106983,-0.4937,-1.4087,1.6489,58.78,-95.49,131.59
644,335111982,-0.4678,-1.3999,1.6079,56.46,-106.28,128.29
645,335116986,-0.5371,-1.4541,1.6689,55.06,-117.01,125.24
646,335121984,-0.6577,-1.4873,1.7056,53.48,-127.74,122.32
647,335126984,-0.6802,-1.5195,1.7036,52.32,-138.78,119.09
648,335132101,-0.6997,-1.5435,1.7266,52.20,-152.32,115.06
649,335136984,-0.7974,-1.5757,1.7441,52.32,-163.66,111.65
650,335141984,-0.8003,-1.5576,1.6978,51.89,-172.44,108.78
651,335146983,-0.8345,-1.5420,1.6743,50.79,-183.90,105.00
652,335151984,-0.8662,-1.5459,1.6860,49.57,-195.49,100.91
653,335156984,-0.8716,-1.5708,1.6763,48.48,-206.89,96.83
654,335161984,-0.8716,-1.5874,1.6338,47.13,-218.35,92.80
655,335166984,-0.8804,-1.5879,1.6084,45.67,-231.65,88.72
656,335171984,-0.8984,-1.5928,1.6064,45.00,-240.43,85.91
657,335176984,-0.9141,-1.5933,1.5767,44.21,-251.16,81.65
658,335181984,-0.9292,-1.6006,1.5308,43.60,-261.83,78.05
659,335186984,-0.9390,-1.6157,1.5015,43.29,-272.56,74.76
660,335191983,-0.9565,-1.6328,1.4707,43.29,-285.37,71.10
661,335196988,-0.9746,-1.6382,1.4424,43.35,-295.73,68.23
662,335201984,-0.9863,-1.6484,1.4048,44.09,-306.16,65.55
663,335206986,-0.9922,-1.6489,1.3652,44.70,-316.65,62.99
664,335211984,-1.0146,-1.6182,1.3398,45.49,-326.95,60.37
665,335216984,-1.0317,-1.6401,1.3086,46.22,-337.13,57.74
666,335221985,-1.0527,-1.6416,1.2754,47.13,-347.32,55.37
667,335226984,-1.0708,-1.6274,1.2358,48.60,-356.95,53.11
668,335231984,-1.0923,-1.6221,1.1904,50.55,-366.65,51.10
669,335236984,-1.1128,-1.6172,1.1479,52.56,-375.91,49.21
670,335241984,-1.1294,-1.6064,1.1060,55.06,-384.82,47.50
671,335247428,-1.1416,-1.5889,1.0649,57.44,-393.29,46.10
672,335251984,-1.1611,-1.5776,1.0161,59.76,-401.16,44.88
673,335256984,-1.1787,-1.5728,0.9634,61.77,-408.90,43.78
674,335262404,-1.1978,-1.5713,0.9023,63.72,-416.22,43.11
675,335267483,-1.2227,-1.5771,0.8442,65.67,-423.23,42.93
676,335271984,-1.2300,-1.5850,0.7832,67.68,-429.76,42.99
677,335276984,-1.2466,-1.5840,0.7261,69.76,-436.16,43.35
678,335282218,-1.2622,-1.5898,0.6694,72.07,-441.71,43.96
679,335286984,-1.2676,-1.5879,0.6123,74.27,-447.26,44.63
680,335291984,-1.2837,-1.5928,0.5659,76.46,-452.07,45.49
681,335296984,-1.3003,-1.5977,0.5142,78.17,-456.10,46.28
682,335301984,-1.3174,-1.6016,0.4790,79.45,-459.94,47.13
683,335306984,-1.3291,-1.6055,0.4155,79.88,-463.11,47.87
684,335311986,-1.3301,-1.6079,0.3677,79.51,-465.67,48.54
685,335316984,-1.3184,-1.6050,0.3154,78.17,-467.50,48.90
686,335321984,-1.3115,-1.5830,0.2617,75.91,-468.60,48.90
687,335326983,-1.3193,-1.5610,0.1938,73.17,-468.54,48.29
688,335331984,-1.3262,-1.5493,0.1309,69.94,-467.38,46.83
689,335336984,-1.3062,-1.5400,0.0513,66.89,-464.70,44.63
690,335341983,-1.2764,-1.5552,-0.0708,64.02,-460.91,41.83
691,335347021,-1.2671,-1.5840,-0.2002,61.46,-455.67,38.60
692,335351983,-1.2588,-1.6040,-0.3276,59.27,-449.76,35.30
693,335357377,-1.2505,-1.6074,-0.4380,56.71,-443.35,31.52
694,335361984,-1.2148,-1.6118,-0.5254,53.41,-436.22,27.44
695,335367448,-1.1914,-1.5820,-0.5884,49.15,-428.05,22.80
696,335371984,-1.1743,-1.5576,-0.6387,43.41,-419.02,17.01
697,335376984,-1.1592,-1.5596,-0.6904,36.34,-409.15,10.67
698,335381984,-1.1338,-1.5581,-0.7168,28.41,-398.41,3.84
699,335386984,-1.0884,-1.5508,-0.7637,19.82,-386.71,-3.23
700,335391982,-1.0493,-1.5083,-0.8242,11.77,-374.63,-10.85
701,335396982,-1.0283,-1.5024,-0.8320,4.27,-361.83,-18.72
702,335401983,-0.9941,-1.4780,-0.8911,-3.54,-345.91,-28.60
703,335407092,-0.9507,-1.4746,-0.9297,-7.56,-335.00,-35.43
704,335411985,-0.8901,-1.4521,-0.9756,-11.34,-321.28,-43.84
705,335416984,-0.8296,-1.4341,-1.0122,-13.48,-307.32,-52.32
706,335421984,-0.7671,-1.4121,-1.0420,-14.51,-293.23,-60.37
707,335426985,-0.7036,-1.3853,-1.0605,-14.33,-279.27,-68.17
708,335431984,-0.6460,-1.3540,-1.0684,-13.41,-265.43,-75.49
709,335436984,-0.6025,-1.3184,-1.0757,-12.26,-251.83,-82.56
710,335441984,-0.5679,-1.2803,-1.0718,-11.10,-238.41,-88.96
711,335446984,-0.5298,-1.2437,-1.0576,-10.06,-225.43,-95.00
712,335451984,-0.4888,-1.2080,-1.0488,-9.39,-212.62,-100.43
713,335457043,-0.4434,-1.1753,-1.0298,-9.09,-200.24,-105.37
714,335461983,-0.4019,-1.1440,-1.0132,-8.96,-188.23,-109.63
715,335466984,-0.3604,-1.1113,-1.0015,-8.90,-176.40,-113.41
716,335471984,-0.3345,-1.0693,-0.9878,-8.78,-165.18,-116.77
717,335476984,-0.3057,-1.0283,-0.9697,-8.48,-154.21,-119.39
718,335481984,-0.2842,-0.9932,-0.9463,-7.93,-143.78,-121.77
719,335486984,-0.2593,-0.9619,-0.9272,-7.20,-133.66,-123.48
720,335491984,-0.2349,-0.9365,-0.9043,-5.98,-123.84,-124.70
721,335496984,-0.2041,-0.9092,-0.8877,-4.02,-114.57,-125.37
722,335501984,-0.1758,-0.8853,-0.8677,-1.77,-105.55,-125.43
723,335506984,-0.1431,-0.8682,-0.8496,1.10,-97.01,-125.06
724,335511984,-0.1060,-0.8438,-0.8257,4.33,-88.78,-124.21
725,335516991,-0.0703,-0.8198,-0.8052,7.68,-80.55,-122.87
726,335521984,-0.0361,-0.7983,-0.7803,10.98,-72.87,-121.22
727,335526984,-0.0054,-0.7705,-0.7686,14.45,-65.73,-119.27
728,335531984,0.0254,-0.7471,-0.7432,17.50,-58.66,-117.01
729,335536986,0.0454,-0.7212,-0.7236,20.24,-52.07,-114.51
730,335541983,0.0801,-0.6968,-0.7026,22.74,-45.73,-111.83
731,335547199,0.1123,-0.6733,-0.6841,24.15,-39.51,-108.90
732,335551984,0.1348,-0.6533,-0.6685,25.06,-33.60,-105.73
733,335556984,0.1416,-0.6416,-0.6367,25.67,-27.80,-102.38
734,335561984,0.1748,-0.6128,-0.6201,25.73,-21.22,-98.29
735,335566984,0.2007,-0.5889,-0.6172,25.43,-16.89,-95.30
736,335571984,0.2173,-0.5732,-0.6118,24.63,-11.95,-91.71
737,335576984,0.2300,-0.5610,-0.5791,23.60,-6.77,-87.74
738,335581984,0.2461,-0.5537,-0.5571,22.44,-1.83,-83.66
739,335586983,0.2632,-0.5464,-0.5420,21.16,2.74,-79.63
740,335591984,0.2783,-0.5400,-0.5200,19.76,7.13,-75.43
741,335597426,0.2959,-0.5259,-0.4941,17.99,12.20,-70.37
742,335601984,0.3101,-0.5229,-0.4673,17.01,15.37,-67.01
743,335606984,0.3140,-0.5215,-0.4561,15.61,18.84,-62.74
744,335612501,0.3521,-0.5098,-0.4248,14.21,23.11,-57.62
745,335616984,0.3730,-0.5044,-0.3911,12.80,26.34,-53.54
746,335621985,0.3838,-0.5049,-0.3940,11.40,28.66,-50.30
747,335626984,0.3901,-0.5059,-0.3633,9.63,31.34,-46.22
748,335631984,0.4023,-0.4995,-0.3257,7.80,33.84,-42.38
749,335636984,0.4185,-0.4971,-0.3184,5.79,36.10,-38.54
750,335641984,0.4277,-0.4961,-0.3008,3.78,38.29,-34.82
751,335646984,0.4355,-0.5034,-0.2715,1.77,40.06,-31.10
752,335651984,0.4443,-0.5068,-0.2422,0.00,41.77,-27.56
753,335656984,0.4482,-0.5166,-0.2310,-1.89,43.17,-24.09
754,335661984,0.4619,-0.5190,-0.2017,-3.48,44.39,-20.61
755,335666984,0.4712,-0.5298,-0.1772,-4.94,45.43,-17.32
756,335671984,0.4766,-0.5342,-0.1548,-6.16,46.40,-14.21
757,335676984,0.4814,-0.5439,-0.1367,-7.38,47.38,-11.10
758,335681984,0.4897,-0.5527,-0.1050,-8.48,47.93,-7.93
759,335686983,0.4956,-0.5596,-0.0879,-9.57,48.41,-5.24
760,335691982,0.4985,-0.5640,-0.0728,-10.67,48.84,-2.56
761,335696982,0.5093,-0.5684,-0.0620,-11.95,48.90,-0.06
762,335701982,0.5132,-0.5806,-0.0400,-13.48,49.02,2.32
763,335706982,0.5225,-0.5869,-0.0264,-15.18,48.96,4.63
764,335711983,0.5278,-0.5962,-0.0205,-17.01,49.02,6.77
765,335716984,0.5386,-0.6060,-0.0010,-19.02,48.84,8.90
766,335721985,0.5513,-0.6128,0.0161,-21.10,48.60,10.91
767,335726984,0.5625,-0.6182,0.0220,-23.35,48.41,12.68
768,335731984,0.5649,-0.6216,0.0400,-25.61,48.05,14.39
769,335736984,0.5771,-0.6309,0.0527,-27.68,47.68,16.04
770,335741984,0.5874,-0.6445,0.0610,-29.51,47.07,17.56
771,335746984,0.5913,-0.6538,0.0596,-31.46,46.59,19.02
772,335751988,0.6011,-0.6709,0.0630,-33.78,45.55,20.79
773,335756983,0.6040,-0.6812,0.0752,-35.43,44.88,22.01
774,335762480,0.6064,-0.6875,0.0776,-38.41,43.60,23.66
775,335766984,0.6064,-0.6968,0.0776,-40.55,42.56,24.76
776,335771984,0.6045,-0.7031,0.0713,-43.48,41.28,26.10
777,335776984,0.6001,-0.7139,0.0718,-46.65,39.70,27.38
778,335781984,0.5996,-0.7129,0.0679,-49.88,38.05,28.66
779,335787326,0.5972,-0.7178,0.0596,-54.02,35.91,29.94
780,335791984,0.5957,-0.7202,0.0596,-56.71,34.39,30.67
781,335796984,0.5957,-0.7246,0.0522,-60.00,32.74,31.59
782,335801983,0.5952,-0.7227,0.0488,-63.17,30.85,32.50
783,335806984,0.5898,-0.7256,0.0464,-66.16,28.96,32.99
784,335811984,0.5859,-0.7314,0.0386,-68.96,27.07,33.66
785,335816984,0.5752,-0.7441,0.0356,-71.65,25.18,34.02
786,335821986,0.5645,-0.7549,0.0254,-74.21,23.48,34.57
787,335826984,0.5625,-0.7666,0.0171,-76.71,21.89,34.94
788,335831984,0.5625,-0.7803,0.0073,-79.70,19.88,35.37
789,335836984,0.5571,-0.7827,0.0020,-81.83,18.78,35.67
790,335841984,0.5532,-0.7891,-0.0151,-84.45,17.74,35.85
791,335846985,0.5435,-0.7920,-0.0259,-87.26,16.52,35.85
792,335851984,0.5332,-0.7935,-0.0342,-90.85,15.79,35.85
793,335856984,0.5215,-0.7974,-0.0513,-93.23,15.43,35.55
794,335861983,0.5107,-0.7983,-0.0703,-96.22,14.76,35.18
795,335866984,0.4917,-0.8027,-0.0811,-99.33,14.76,34.88
796,335872463,0.4883,-0.8042,-0.0986,-102.80,14.57,34.39
797,335876984,0.4756,-0.8018,-0.1084,-105.43,14.51,34.09
798,335881983,0.4805,-0.8052,-0.1118,-107.38,14.70,33.84
799,335886984,0.4810,-0.8101,-0.1328,-109.94,14.94,33.48
800,335891983,0.4888,-0.7896,-0.1460,-111.65,15.12,33.17
801,335896984,0.4966,-0.7905,-0.1611,-112.74,15.55,33.23
802,335901983,0.5107,-0.8125,-0.1787,-113.29,15.91,33.29
803,335906984,0.4995,-0.8174,-0.1812,-113.66,16.34,33.41
804,335911983,0.4956,-0.8091,-0.1675,-114.21,16.89,33.60
805,335916984,0.4990,-0.8076,-0.1729,-114.82,17.26,34.02
806,335921984,0.5020,-0.8081,-0.1763,-115.55,17.87,34.51
807,335926983,0.5015,-0.8145,-0.1528,-116.46,18.29,34.94
808,335932447,0.5024,-0.8154,-0.1553,-117.50,18.90,35.43
809,335937216,0.5029,-0.8535,-0.1787,-118.35,19.33,36.04
810,335941984,0.4883,-0.8354,-0.1958,-119.57,19.76,36.95
811,335946984,0.5205,-0.9160,-0.2217,-120.98,20.24,37.62
812,335951984,0.5166,-0.8521,-0.3145,-123.48,20.55,38.84
813,335957056,0.4722,-0.7866,-0.2964,-126.77,21.16,39.21
814,335961984,0.4468,-0.7715,-0.2231,-130.00,22.56,39.45
815,335966984,0.4199,-0.7588,-0.2373,-132.62,23.72,39.88
816,335971983,0.3848,-0.7759,-0.2471,-134.39,24.70,40.30
817,335976984,0.3311,-0.7842,-0.2495,-135.37,25.55,41.16
818,335981984,0.3550,-0.7935,-0.2212,-136.04,26.52,41.89
819,335986984,0.3462,-0.7686,-0.2441,-136.77,27.50,42.62
820,335991983,0.3330,-0.7505,-0.2563,-137.38,28.48,43.54
821,335996982,0.3359,-0.7427,-0.2290,-137.87,29.33,44.33
822,336001982,0.3359,-0.7480,-0.2192,-138.78,30.06,45.49
823,336006986,0.3530,-0.7534,-0.2314,-139.63,30.73,46.52
824,336012168,0.3545,-0.7515,-0.2227,-140.55,31.22,47.93
825,336016983,0.3467,-0.7451,-0.2173,-141.28,31.77,49.21
826,336021984,0.3398,-0.7427,-0.2231,-142.44,32.26,50.91
827,336026985,0.3438,-0.7295,-0.2378,-143.35,32.74,52.50
828,336031984,0.3379,-0.7251,-0.2349,-144.57,33.17,54.45
829,336036983,0.3228,-0.7158,-0.2368,-145.98,33.78,56.16
830,336041984,0.3120,-0.7114,-0.2437,-147.13,34.15,57.99
831,336047482,0.3013,-0.7095,-0.2637,-148.11,34.94,60.00
832,336051984,0.2856,-0.6963,-0.2925,-148.66,35.49,61.89
833,336056984,0.2764,-0.6953,-0.2930,-148.41,36.10,63.90
834,336061984,0.2783,-0.7007,-0.3188,-147.62,37.01,65.85
835,336066984,0.2788,-0.6987,-0.3306,-146.65,37.93,67.80
836,336071984,0.2773,-0.6978,-0.3306,-145.85,38.72,69.70
837,336076984,0.2725,-0.7021,-0.3276,-144.82,39.76,71.65
838,336081986,0.2646,-0.7036,-0.3296,-143.84,40.61,73.54
839,336086984,0.2603,-0.7085,-0.3384,-143.05,41.46,75.61
840,336091984,0.2524,-0.7124,-0.3350,-142.32,42.32,77.56
841,336097132,0.2534,-0.7104,-0.3345,-141.71,43.23,79.88
842,336101984,0.2603,-0.7065,-0.3384,-141.04,43.90,82.20
843,336106984,0.2642,-0.7080,-0.3394,-140.79,44.70,84.27
844,336111984,0.2598,-0.7207,-0.3369,-140.49,45.37,87.07
845,336116985,0.2534,-0.7251,-0.3413,-140.30,46.28,88.72
846,336121987,0.2456,-0.7305,-0.3457,-140.37,47.01,92.38
847,336126984,0.2417,-0.7305,-0.3389,-140.43,47.44,94.51
848,336131986,0.2354,-0.7334,-0.3364,-140.67,47.99,97.20
849,336136984,0.2363,-0.7319,-0.3359,-141.28,48.66,99.94
850,336141984,0.2329,-0.7300,-0.3296,-142.07,49.09,102.56
851,336147468,0.2256,-0.7261,-0.3271,-143.05,49.63,105.24
852,336151984,0.2144,-0.7207,-0.3247,-144.09,50.18,107.87
853,336156984,0.2114,-0.7163,-0.3271,-145.37,50.55,110.49
854,336161984,0.1987,-0.7095,-0.3208,-146.52,50.91,112.93
855,336166984,0.1880,-0.6973,-0.3145,-147.62,51.10,115.30
856,336171984,0.1724,-0.6880,-0.3169,-148.90,51.34,117.68
857,336176983,0.1533,-0.6812,-0.3169,-150.12,51.28,119.82
858,336181984,0.1450,-0.6782,-0.3096,-151.34,51.34,122.07
859,336186984,0.1323,-0.6777,-0.3105,-152.68,51.16,124.09
860,336191982,0.1201,-0.6763,-0.3057,-154.27,50.91,125.98
861,336196985,0.1069,-0.6748,-0.3096,-155.91,50.61,127.99
862,336201982,0.0942,-0.6768,-0.3032,-157.68,50.24,129.94
863,336206982,0.0791,-0.6758,-0.3062,-159.45,49.88,132.01
864,336211985,0.0723,-0.6812,-0.3071,-161.28,49.15,134.21
865,336216984,0.0640,-0.6836,-0.3101,-163.05,48.60,136.28
866,336221984,0.0566,-0.6943,-0.3101,-164.88,47.62,138.72
867,336226984,0.0557,-0.7139,-0.3232,-166.77,46.65,141.22
868,336231985,0.0469,-0.7344,-0.3169,-169.02,45.18,144.09
869,336236984,0.0400,-0.7559,-0.3311,-171.10,43.66,147.20
870,336241984,0.0342,-0.7690,-0.3271,-173.11,42.07,150.43
871,336246984,0.0283,-0.7734,-0.3281,-175.06,40.24,153.84
872,336251984,0.0190,-0.7759,-0.3267,-176.34,38.54,157.13
873,336256984,0.0112,-0.7715,-0.3247,-177.26,36.59,160.67
874,336261983,-0.0015,-0.7695,-0.3301,-177.50,34.39,163.84
875,336266986,-0.0103,-0.7642,-0.3330,-177.07,32.38,167.01
876,336271984,-0.0176,-0.7588,-0.3340,-175.85,30.43,169.94
877,336276984,-0.0293,-0.7578,-0.3330,-174.27,28.41,172.80
878,336281984,-0.0449,-0.7578,-0.3442,-171.89,26.22,175.30
879,336286983,-0.0620,-0.7510,-0.3506,-168.90,24.09,177.68
880,336291982,-0.0757,-0.7476,-0.3569,-165.49,22.44,179.94
881,336296982,-0.0903,-0.7388,-0.3540,-161.52,20.67,182.01
882,336302840,-0.1123,-0.7417,-0.3657,-156.34,18.66,184.39
883,336306985,-0.1211,-0.7495,-0.3696,-152.50,17.13,186.04
884,336311984,-0.1289,-0.7715,-0.3926,-147.87,15.18,188.17
885,336316984,-0.1382,-0.7954,-0.4092,-143.23,13.41,190.55
886,336321984,-0.1465,-0.8042,-0.4102,-138.78,11.46,193.23
887,336326984,-0.1523,-0.8081,-0.4111,-134.39,9.39,195.98
888,336331986,-0.1602,-0.8066,-0.4165,-130.18,7.44,198.90
889,336336984,-0.1646,-0.7964,-0.4258,-125.73,5.49,201.52
890,336341984,-0.1650,-0.7881,-0.4316,-120.30,2.93,204.88
891,336346984,-0.1675,-0.7808,-0.4351,-116.52,1.22,206.89
892,336351984,-0.1758,-0.7705,-0.4438,-111.89,-0.79,209.27
893,336356984,-0.1836,-0.7651,-0.4404,-107.13,-2.74,211.59
894,336361984,-0.1982,-0.7524,-0.4521,-102.26,-4.57,213.78
895,336366984,-0.2124,-0.7407,-0.4512,-97.62,-6.40,215.73
896,336371982,-0.2261,-0.7358,-0.4497,-93.05,-8.29,217.62
897,336376984,-0.2383,-0.7412,-0.4556,-88.54,-9.94,219.33
898,336381984,-0.2534,-0.7446,-0.4648,-84.21,-11.52,221.34
899,336386984,-0.2705,-0.7471,-0.4707,-80.06,-12.99,223.23
900,336391984,-0.2910,-0.7529,-0.4702,-76.10,-14.33,225.18
901,336396984,-0.3042,-0.7500,-0.4810,-72.07,-15.43,226.95
902,336401984,-0.3203,-0.7510,-0.4849,-67.93,-16.16,228.60
903,336406984,-0.3301,-0.7539,-0.4971,-63.41,-16.83,230.24
904,336411984,-0.3467,-0.7607,-0.5156,-59.02,-17.50,231.65
905,336416984,-0.3711,-0.7676,-0.5298,-54.27,-17.87,233.05
906,336421984,-0.3901,-0.7705,-0.5366,-49.51,-18.11,234.45
907,336426986,-0.4082,-0.7681,-0.5464,-44.63,-18.11,235.79
908,336431983,-0.4238,-0.7681,-0.5586,-39.70,-18.29,237.07
909,336436986,-0.4297,-0.7754,-0.5654,-34.51,-18.41,238.35
910,336441984,-0.4375,-0.7837,-0.5781,-28.60,-18.78,240.00
911,336446984,-0.4429,-0.7856,-0.5815,-24.39,-18.90,241.34
912,336451984,-0.4517,-0.7891,-0.5845,-19.45,-19.33,243.29
913,336456984,-0.4614,-0.7866,-0.5752,-14.45,-19.51,245.06
914,336461985,-0.4688,-0.7891,-0.5767,-9.39,-19.94,246.95
915,336466984,-0.4775,-0.7949,-0.5830,-4.57,-20.12,249.02
916,336471984,-0.4897,-0.7964,-0.5874,0.61,-20.12,250.98
917,336476984,-0.5044,-0.7949,-0.5942,7.38,-20.00,253.23
918,336481984,-0.5151,-0.7954,-0.5938,12.32,-19.63,254.63
919,336486984,-0.5376,-0.7876,-0.6021,18.90,-19.15,256.46
920,336491984,-0.5537,-0.7803,-0.6055,26.10,-18.11,257.93
921,336496984,-0.5688,-0.7690,-0.6167,34.09,-16.95,259.33
922,336501984,-0.5864,-0.7661,-0.6211,42.56,-15.49,260.37
923,336507477,-0.6064,-0.7612,-0.6309,53.41,-13.29,261.52
924,336511984,-0.6240,-0.7544,-0.6304,61.16,-11.77,262.13
925,336517476,-0.6401,-0.7422,-0.6338,73.17,-9.15,263.05
926,336521984,-0.6436,-0.7407,-0.6309,81.34,-7.26,263.66
927,336526984,-0.6548,-0.7412,-0.6304,91.71,-4.51,264.33
928,336531984,-0.6670,-0.7329,-0.6333,102.20,-1.83,265.00
929,336536986,-0.6719,-0.7402,-0.6323,112.74,1.34,265.43
930,336541984,-0.6802,-0.7412,-0.6309,122.87,4.57,265.91
931,336546984,-0.6924,-0.7402,-0.6362,132.56,8.23,266.28
932,336551984,-0.7095,-0.7373,-0.6387,142.87,12.01,266.46
933,336556984,-0.7241,-0.7397,-0.6475,152.44,15.91,266.40
934,336561986,-0.7490,-0.7378,-0.6528,161.22,20.12,266.16
935,336566984,-0.7666,-0.7402,-0.6558,169.27,24.51,265.67
936,336571984,-0.7861,-0.7505,-0.6567,176.04,28.96,264.88
937,336576985,-0.8003,-0.7559,-0.6597,181.52,33.29,263.84
938,336581984,-0.8042,-0.7593,-0.6582,185.67,38.17,262.56
939,336586983,-0.8130,-0.7646,-0.6597,188.41,42.56,260.98
940,336591984,-0.8218,-0.7729,-0.6528,189.63,47.20,259.33
941,336596984,-0.8364,-0.7817,-0.6533,189.76,51.46,257.32
942,336601983,-0.8486,-0.7861,-0.6543,188.11,56.89,254.51
943,336606982,-0.8613,-0.7930,-0.6548,185.91,60.18,252.56
944,336611986,-0.8770,-0.7944,-0.6538,182.32,64.27,249.82
945,336616982,-0.8916,-0.8022,-0.6460,177.07,67.80,246.89
946,336621984,-0.8896,-0.7964,-0.6470,169.15,72.01,243.11
947,336626984,-0.8892,-0.8008,-0.6289,161.46,74.82,239.82
948,336631985,-0.8833,-0.8076,-0.6284,152.68,77.44,236.34
949,336636984,-0.8818,-0.8105,-0.6133,143.17,79.76,233.05
950,336641986,-0.8896,-0.8052,-0.6069,132.50,81.65,229.70
951,336646984,-0.8911,-0.8032,-0.5981,123.66,82.74,226.40
952,336651984,-0.8975,-0.7930,-0.5928,113.60,85.18,222.87
953,336656984,-0.9043,-0.7886,-0.5874,103.96,85.98,219.27
954,336661984,-0.9097,-0.7852,-0.5874,94.51,85.73,215.91
955,336666984,-0.9180,-0.7793,-0.5786,85.24,85.61,212.38
956,336671984,-0.9243,-0.7744,-0.5703,76.10,85.61,208.72
957,336676984,-0.9297,-0.7754,-0.5649,66.89,85.61,204.94
958,336681984,-0.9282,-0.7783,-0.5645,57.99,85.55,201.04
959,336687479,-0.9165,-0.7788,-0.5542,49.33,85.49,197.13
960,336691984,-0.9058,-0.7754,-0.5469,40.98,85.43,193.29
961,336696984,-0.9048,-0.7690,-0.5430,33.35,85.24,189.33
962,336701984,-0.8989,-0.7690,-0.5347,26.52,83.23,185.43
963,336706984,-0.8970,-0.7578,-0.5391,20.98,82.80,181.40
964,336711984,-0.8960,-0.7490,-0.5342,16.52,82.32,177.38
965,336716984,-0.8950,-0.7402,-0.5376,13.05,81.34,173.23
966,336721984,-0.8940,-0.7324,-0.5371,10.79,80.24,169.15
967,336726984,-0.8896,-0.7319,-0.5352,9.39,79.15,165.06
968,336731984,-0.8877,-0.7227,-0.5371,9.02,78.05,161.10
969,336736984,-0.8853,-0.7178,-0.5288,9.27,76.71,157.13
970,336741986,-0.8716,-0.7139,-0.5288,10.12,75.18,153.48
971,336746984,-0.8652,-0.7148,-0.5317,11.52,73.60,149.82
972,336752425,-0.8608,-0.7090,-0.5337,13.41,71.89,146.22
973,336756987,-0.8516,-0.7104,-0.5371,15.73,69.88,143.05
974,336761984,-0.8364,-0.7065,-0.5454,18.29,67.80,139.82
975,336766984,-0.8193,-0.7051,-0.5400,21.40,65.61,136.83
976,336771984,-0.8008,-0.7051,-0.5332,24.63,63.41,133.96
977,336776986,-0.7900,-0.6982,-0.5259,28.41,61.22,131.04
978,336782198,-0.7798,-0.6895,-0.5200,32.32,58.96,128.35
979,336786984,-0.7720,-0.6816,-0.5220,36.46,56.95,125.49
980,336791984,-0.7710,-0.6738,-0.5137,40.91,54.82,122.80
981,336797400,-0.7598,-0.6655,-0.5029,45.49,52.80,120.12
982,336801984,-0.7549,-0.6621,-0.4937,50.00,51.10,117.56
983,336806984,-0.7520,-0.6577,-0.4922,54.39,49.39,114.94
984,336811984,-0.7500,-0.6558,-0.4863,58.66,48.05,112.56
985,336816984,-0.7437,-0.6528,-0.4751,62.62,46.40,110.06
986,336822057,-0.7446,-0.6499,-0.4717,66.28,45.00,107.93
987,336826983,-0.7432,-0.6484,-0.4702,69.76,43.78,105.79
988,336831984,-0.7437,-0.6436,-0.4629,72.80,42.68,103.72
989,336836985,-0.7388,-0.6436,-0.4614,75.67,41.22,101.89
990,336841984,-0.7354,-0.6431,-0.4536,78.29,40.06,99.94
991,336846986,-0.7290,-0.6440,-0.4492,80.55,39.02,98.23
992,336851984,-0.7236,-0.6411,-0.4478,82.62,37.68,96.65
993,336856984,-0.7183,-0.6387,-0.4487,84.63,36.28,95.12
994,336861984,-0.7168,-0.6377,-0.4453,86.40,35.18,93.72
995,336866984,-0.7134,-0.6357,-0.4336,88.11,34.02,92.13
996,336871984,-0.7104,-0.6333,-0.4321,89.57,32.99,90.43
997,336876984,-0.7046,-0.6338,-0.4287,90.67,31.71,88.66
998,336881986,-0.7002,-0.6348,-0.4219,91.52,30.79,87.93
999,336886982,-0.6978,-0.6357,-0.4219,92.01,29.70,86.71
1000,336891982,-0.6958,-0.6348,-0.4106,92.80,28.66,86.16
1001,336896982,-0.6938,-0.6338,-0.4126,93.05,27.80,84.27
1002,336901982,-0.6787,-0.6318,-0.4121,93.60,26.77,82.68
1003,336906982,-0.6768,-0.6309,-0.4131,94.27,25.67,81.04
1004,336911985,-0.6714,-0.6309,-0.4038,94.76,24.82,79.57
1005,336916987,-0.6655,-0.6289,-0.4048,95.49,23.84,78.17
1006,336921984,-0.6685,-0.6226,-0.3970,96.46,22.87,76.65
1007,336926984,-0.6655,-0.6191,-0.3931,97.44,21.95,75.18
1008,336931984,-0.6631,-0.6230,-0.3921,98.48,21.10,73.66
1009,336936983,-0.6621,-0.6221,-0.3901,99.45,20.24,72.01
1010,336941984,-0.6621,-0.6245,-0.3862,100.61,19.45,70.37
1011,336946986,-0.6562,-0.6201,-0.3779,101.59,18.54,68.78
1012,336951984,-0.6553,-0.6177,-0.3760,102.50,17.87,67.13
1013,336956984,-0.6553,-0.6196,-0.3677,103.23,17.07,65.61
1014,336961984,-0.6553,-0.6196,-0.3701,103.90,16.28,63.90
1015,336966984,-0.6562,-0.6191,-0.3652,104.15,15.49,62.26
1016,336971984,-0.6548,-0.6177,-0.3599,104.21,14.70,60.55
1017,336976984,-0.6504,-0.6206,-0.3481,104.09,13.90,59.09
1018,336981984,-0.6475,-0.6230,-0.3472,103.72,13.23,57.62
1019,336986984,-0.6465,-0.6196,-0.3452,103.05,12.50,56.04
1020,336991984,-0.6470,-0.6230,-0.3447,102.32,11.52,54.45
1021,336996984,-0.6455,-0.6230,-0.3369,101.52,10.67,53.05
1022,337001984,-0.6475,-0.6216,-0.3418,100.61,10.00,51.40
1023,337006985,-0.6519,-0.6201,-0.3413,99.51,8.90,49.94
1024,337011984,-0.6470,-0.6201,-0.3462,98.48,8.05,48.54
1025,337017230,-0.6475,-0.6191,-0.3350,97.32,7.13,46.89
1026,337021984,-0.6499,-0.6206,-0.3306,96.04,6.04,45.55
1027,337026984,-0.6509,-0.6118,-0.3291,95.06,5.18,44.02
1028,337031984,-0.6523,-0.6143,-0.3257,93.90,4.33,42.56
1029,337036984,-0.6533,-0.6118,-0.3208,92.50,3.60,40.98
1030,337041984,-0.6592,-0.6118,-0.3159,91.04,2.80,39.45
1031,337046984,-0.6582,-0.6079,-0.3135,89.27,2.07,37.99
