# skilleye imu stream v1
# device=xiao_esp32c6 imu=mpu6050 addr=0x68
# rate_hz=200 accel_range_g=16 gyro_range_dps=2000 dlpf_hz=94
# units: accel in g, gyro in deg/s, t_us in microseconds since boot (monotonic)
# no shared clock with the camera -- tap the racket once before each take
# so both recordings share a spike to align on
seq,t_us,ax,ay,az,gx,gy,gz
0,667674205,-0.7148,-0.5273,-0.3335,6.28,12.99,1.40
1,667678848,-0.7173,-0.5342,-0.3345,6.40,13.17,1.34
2,667683847,-0.7095,-0.5288,-0.3301,6.40,13.29,1.34
3,667688847,-0.7075,-0.5293,-0.3330,6.34,13.41,1.40
4,667693847,-0.7075,-0.5298,-0.3350,6.40,13.54,1.46
5,667698847,-0.7026,-0.5312,-0.3325,6.40,13.66,1.59
6,667703848,-0.7051,-0.5273,-0.3286,6.46,13.66,1.71
7,667708847,-0.7085,-0.5259,-0.3262,6.46,13.54,1.71
8,667713938,-0.7070,-0.5259,-0.3247,6.59,13.60,1.83
9,667718846,-0.7090,-0.5239,-0.3223,6.71,13.54,1.95
10,667724116,-0.7114,-0.5293,-0.3271,6.83,13.54,1.95
11,667728847,-0.7061,-0.5234,-0.3228,7.13,13.54,2.26
12,667733847,-0.7065,-0.5264,-0.3237,7.26,13.41,2.26
13,667738847,-0.7075,-0.5254,-0.3179,7.56,13.41,2.26
14,667743847,-0.7070,-0.5254,-0.3213,7.80,13.41,2.38
15,667748846,-0.7114,-0.5234,-0.3247,7.93,13.17,2.38
16,667753847,-0.7090,-0.5239,-0.3188,8.23,13.11,2.50
17,667758847,-0.7080,-0.5234,-0.3203,8.29,13.23,2.50
18,667764218,-0.7095,-0.5225,-0.3198,8.54,13.29,2.62
19,667768847,-0.7119,-0.5205,-0.3184,8.66,13.05,2.68
20,667773846,-0.7158,-0.5181,-0.3135,8.84,12.93,2.74
21,667778849,-0.7090,-0.5205,-0.3203,8.90,12.80,2.74
22,667783847,-0.7036,-0.5229,-0.3188,8.96,12.68,2.74
23,667789219,-0.7109,-0.5225,-0.3203,9.15,12.68,2.80
24,667793847,-0.7080,-0.5239,-0.3110,9.02,12.56,2.93
25,667798847,-0.7070,-0.5244,-0.3125,8.96,12.44,3.05
26,667803849,-0.7119,-0.5239,-0.3174,9.02,12.26,3.05
27,667808847,-0.7148,-0.5215,-0.3154,8.96,12.07,3.29
28,667813847,-0.7129,-0.5205,-0.3145,9.02,12.01,3.35
29,667818847,-0.7080,-0.5200,-0.3110,9.09,11.89,3.41
30,667823847,-0.7104,-0.5210,-0.3174,9.21,11.59,3.41
31,667828847,-0.7109,-0.5181,-0.3105,9.39,11.59,3.60
32,667833847,-0.7134,-0.5146,-0.3145,9.39,11.28,3.60
33,667838846,-0.7134,-0.5176,-0.3125,9.70,11.16,3.54
34,667843847,-0.7090,-0.5171,-0.3120,9.88,11.04,3.60
35,667848993,-0.7183,-0.5166,-0.3120,10.00,10.85,3.66
36,667853847,-0.7124,-0.5151,-0.3115,10.12,10.67,3.60
37,667858847,-0.7168,-0.5151,-0.3076,10.06,10.55,3.54
38,667863848,-0.7163,-0.5122,-0.3071,9.94,10.43,3.48
39,667868849,-0.7129,-0.5166,-0.3091,9.88,10.12,3.48
40,667873944,-0.7129,-0.5132,-0.3071,9.57,10.18,3.41
41,667878847,-0.7144,-0.5137,-0.3066,9.33,10.06,3.41
42,667883846,-0.7100,-0.5122,-0.3086,8.96,9.94,3.29
43,667889108,-0.7109,-0.5151,-0.3042,8.41,9.76,3.23
44,667893847,-0.7090,-0.5146,-0.3052,8.05,9.63,3.17
45,667898846,-0.7129,-0.5156,-0.3081,7.56,9.33,3.17
46,667903845,-0.7251,-0.5195,-0.3062,7.26,9.27,3.23
47,667908845,-0.7197,-0.5171,-0.3013,6.77,9.09,3.23
48,667913849,-0.7246,-0.5171,-0.3032,6.52,8.96,3.23
49,667918847,-0.7236,-0.5171,-0.3057,6.10,8.72,3.17
50,667923846,-0.7231,-0.5146,-0.3081,5.98,8.48,3.17
51,667928847,-0.7236,-0.5151,-0.3066,5.98,7.99,3.11
52,667933847,-0.7290,-0.5117,-0.3076,5.91,7.80,2.93
53,667938847,-0.7231,-0.5127,-0.3042,6.04,7.56,2.99
54,667943847,-0.7158,-0.5122,-0.3130,6.10,7.38,2.99
55,667948846,-0.7212,-0.5117,-0.3130,6.16,6.89,2.87
56,667953847,-0.7178,-0.5132,-0.3042,6.34,6.65,2.87
57,667959069,-0.7188,-0.5137,-0.3018,6.46,6.10,2.80
58,667963847,-0.7163,-0.5122,-0.3003,6.52,5.61,2.87
59,667969132,-0.7153,-0.5122,-0.3052,6.46,5.18,2.87
60,667973847,-0.7114,-0.5166,-0.3042,6.40,4.82,2.74
61,667978847,-0.7173,-0.5132,-0.3115,6.28,4.39,2.68
62,667983846,-0.7173,-0.5161,-0.3076,6.04,3.90,2.62
63,667989092,-0.7129,-0.5220,-0.3105,5.49,3.23,2.56
64,667993847,-0.7085,-0.5234,-0.3115,5.24,2.87,2.56
65,667998847,-0.7134,-0.5312,-0.3120,4.63,2.50,2.68
66,668003847,-0.7144,-0.5327,-0.3115,4.02,2.01,2.62
67,668008848,-0.7134,-0.5347,-0.3086,2.80,1.28,2.44
68,668013847,-0.7148,-0.5376,-0.3101,1.77,0.79,2.32
69,668018847,-0.7139,-0.5410,-0.3169,0.79,0.37,2.13
70,668023846,-0.7104,-0.5391,-0.3130,-0.43,-0.30,1.83
71,668028847,-0.7124,-0.5425,-0.3154,-1.22,-0.67,1.22
72,668033846,-0.7100,-0.5454,-0.3198,-2.38,-1.28,0.91
73,668038847,-0.7158,-0.5449,-0.3184,-3.54,-1.77,0.24
74,668043847,-0.7163,-0.5464,-0.3203,-4.51,-2.26,-0.30
75,668048847,-0.7173,-0.5493,-0.3164,-5.67,-2.87,-0.98
76,668053847,-0.7246,-0.5566,-0.3286,-6.77,-3.17,-1.65
77,668058847,-0.7217,-0.5547,-0.3301,-7.87,-3.72,-2.38
78,668063847,-0.7153,-0.5591,-0.3267,-9.09,-4.15,-3.05
79,668068847,-0.7188,-0.5635,-0.3276,-10.06,-4.70,-3.66
80,668073847,-0.7178,-0.5684,-0.3379,-11.10,-5.24,-4.33
81,668078845,-0.7144,-0.5728,-0.3403,-12.01,-5.85,-5.06
82,668083849,-0.7085,-0.5757,-0.3394,-12.80,-6.34,-5.79
83,668088846,-0.7017,-0.5801,-0.3506,-13.72,-7.01,-6.46
84,668094194,-0.6997,-0.5835,-0.3511,-14.57,-7.50,-7.01
85,668098847,-0.6909,-0.5815,-0.3530,-15.12,-7.99,-7.80
86,668104072,-0.6816,-0.5815,-0.3540,-15.85,-8.72,-8.35
87,668108847,-0.6855,-0.5859,-0.3467,-16.46,-9.09,-9.27
88,668113848,-0.6826,-0.5845,-0.3467,-16.89,-9.51,-10.06
89,668118848,-0.6821,-0.5894,-0.3467,-17.44,-10.00,-10.91
90,668123847,-0.6836,-0.5830,-0.3511,-17.93,-10.37,-11.89
91,668128847,-0.6855,-0.5874,-0.3457,-18.60,-10.61,-12.87
92,668133847,-0.6812,-0.5879,-0.3501,-19.51,-10.91,-14.02
93,668138847,-0.6812,-0.5908,-0.3452,-20.49,-10.98,-14.94
94,668143847,-0.6812,-0.5942,-0.3472,-21.71,-11.16,-16.10
95,668148847,-0.6812,-0.5991,-0.3447,-23.29,-11.22,-17.26
96,668153847,-0.6875,-0.5972,-0.3452,-25.06,-11.28,-18.60
97,668158847,-0.6836,-0.6074,-0.3530,-27.01,-11.28,-19.76
98,668163847,-0.6875,-0.6147,-0.3379,-29.39,-11.04,-20.98
99,668168847,-0.6836,-0.6196,-0.3467,-32.01,-10.98,-22.26
100,668174129,-0.6860,-0.6270,-0.3457,-34.94,-11.04,-23.41
101,668178878,-0.6753,-0.6357,-0.3501,-38.05,-11.16,-24.70
102,668183846,-0.6821,-0.6411,-0.3481,-41.22,-11.28,-25.91
103,668188848,-0.6782,-0.6411,-0.3486,-44.45,-11.52,-27.32
104,668193846,-0.6709,-0.6460,-0.3560,-47.13,-11.83,-28.72
105,668198850,-0.6660,-0.6455,-0.3564,-49.57,-12.20,-30.06
106,668203846,-0.6523,-0.6484,-0.3560,-51.71,-12.62,-31.71
107,668208845,-0.6460,-0.6592,-0.3574,-53.66,-13.48,-33.41
108,668213845,-0.6426,-0.6655,-0.3633,-55.12,-14.02,-35.18
109,668218845,-0.6509,-0.6748,-0.3579,-56.65,-14.45,-37.01
110,668225136,-0.6772,-0.6885,-0.3657,-58.05,-14.82,-39.39
111,668228848,-0.6865,-0.6958,-0.3647,-58.90,-15.12,-40.85
112,668233847,-0.6890,-0.7085,-0.3770,-59.70,-15.49,-42.87
113,668238847,-0.6885,-0.7173,-0.3770,-60.61,-15.61,-44.94
114,668244120,-0.6865,-0.7295,-0.3740,-61.16,-15.79,-46.89
115,668248847,-0.6772,-0.7373,-0.3789,-61.59,-15.85,-48.96
116,668253848,-0.6719,-0.7427,-0.3882,-61.71,-16.16,-51.04
117,668258847,-0.6646,-0.7490,-0.3857,-61.52,-16.22,-53.11
118,668264198,-0.6753,-0.7544,-0.3926,-60.43,-16.34,-55.37
119,668268847,-0.6675,-0.7573,-0.3921,-58.90,-16.34,-57.74
120,668273846,-0.6646,-0.7646,-0.3960,-56.95,-16.34,-60.30
121,668278847,-0.6582,-0.7666,-0.4121,-54.57,-16.16,-62.68
122,668283847,-0.6631,-0.7744,-0.4023,-51.83,-15.98,-65.18
123,668288847,-0.6670,-0.7881,-0.4077,-48.90,-15.55,-67.74
124,668293847,-0.6543,-0.7959,-0.4082,-45.55,-15.55,-70.37
125,668299139,-0.6519,-0.8062,-0.4180,-42.07,-15.00,-72.80
126,668303847,-0.6587,-0.8145,-0.4277,-38.41,-14.63,-75.37
127,668308852,-0.6743,-0.8247,-0.4336,-34.63,-14.39,-78.05
128,668313847,-0.6855,-0.8320,-0.4448,-30.98,-14.21,-80.73
129,668318849,-0.6904,-0.8340,-0.4424,-27.32,-13.90,-83.29
130,668323845,-0.6899,-0.8413,-0.4502,-24.15,-13.78,-85.85
131,668328850,-0.6929,-0.8457,-0.4556,-21.16,-13.72,-88.41
132,668333848,-0.6948,-0.8569,-0.4565,-18.60,-13.48,-90.85
133,668338847,-0.6934,-0.8555,-0.4526,-16.04,-13.54,-93.41
134,668343886,-0.7061,-0.8594,-0.4600,-13.72,-13.35,-96.04
135,668348846,-0.7075,-0.8652,-0.4668,-11.52,-13.35,-98.48
136,668354212,-0.7119,-0.8579,-0.4644,-8.78,-13.17,-101.46
137,668359201,-0.7075,-0.8535,-0.4688,-6.95,-13.35,-103.48
138,668363847,-0.7026,-0.8535,-0.4648,-4.51,-13.54,-105.85
139,668368847,-0.7085,-0.8608,-0.4648,-2.44,-13.84,-108.23
140,668373847,-0.7119,-0.8633,-0.4736,-0.73,-14.21,-110.49
141,668378846,-0.7114,-0.8599,-0.4761,0.61,-14.76,-112.56
142,668383848,-0.7070,-0.8623,-0.4795,1.77,-15.37,-114.82
143,668388845,-0.7017,-0.8584,-0.4858,2.56,-16.04,-116.83
144,668393845,-0.6958,-0.8623,-0.4878,3.35,-16.77,-118.96
145,668398849,-0.7017,-0.8560,-0.5005,4.09,-17.50,-120.85
146,668403846,-0.7061,-0.8564,-0.5015,4.57,-18.29,-122.74
147,668408847,-0.6987,-0.8584,-0.5049,5.18,-19.09,-124.63
148,668413845,-0.6885,-0.8638,-0.5039,5.61,-19.45,-126.59
149,668418846,-0.6875,-0.8662,-0.5054,5.98,-19.88,-128.29
150,668423847,-0.6821,-0.8682,-0.5078,6.71,-20.43,-130.12
151,668428848,-0.6753,-0.8740,-0.5122,7.32,-20.30,-131.89
152,668433847,-0.6670,-0.8813,-0.5044,7.80,-20.55,-133.35
153,668438847,-0.6680,-0.8853,-0.5078,8.05,-20.49,-134.94
154,668443847,-0.6650,-0.8867,-0.5020,8.05,-20.30,-136.59
155,668448846,-0.6553,-0.8916,-0.5039,7.93,-20.00,-138.05
156,668453847,-0.6470,-0.8911,-0.5063,7.93,-20.00,-139.51
157,668458847,-0.6323,-0.8872,-0.5083,8.05,-19.82,-140.98
158,668463847,-0.6177,-0.8745,-0.5112,8.60,-19.57,-142.50
159,668468988,-0.6025,-0.8682,-0.5166,9.57,-19.70,-144.39
160,668473847,-0.5854,-0.8701,-0.5161,10.37,-19.82,-145.49
161,668479141,-0.5801,-0.8779,-0.5215,11.22,-20.30,-147.20
162,668483847,-0.5708,-0.8804,-0.5210,11.34,-20.24,-148.29
163,668488847,-0.5615,-0.8838,-0.5200,11.34,-20.18,-149.76
164,668493847,-0.5640,-0.8867,-0.5264,10.91,-20.06,-151.04
165,668498845,-0.5630,-0.8950,-0.5312,10.06,-19.70,-152.38
166,668503847,-0.5654,-0.8975,-0.5361,8.84,-19.27,-153.54
167,668508846,-0.5630,-0.8999,-0.5371,6.95,-18.60,-154.88
168,668513847,-0.5635,-0.9028,-0.5312,4.82,-17.74,-156.34
169,668518845,-0.5439,-0.9062,-0.5361,2.26,-17.07,-157.68
170,668523846,-0.5444,-0.9170,-0.5327,-0.30,-15.98,-158.96
171,668528847,-0.5400,-0.9194,-0.5273,-2.62,-14.94,-160.18
172,668533847,-0.5293,-0.9185,-0.5234,-4.33,-14.02,-161.52
173,668539181,-0.5210,-0.9097,-0.5254,-5.55,-12.93,-163.05
174,668543847,-0.5054,-0.9038,-0.5239,-5.67,-12.20,-164.15
175,668548847,-0.4932,-0.8945,-0.5156,-5.00,-11.28,-165.79
176,668554233,-0.4873,-0.8926,-0.5117,-3.60,-10.55,-167.07
177,668558847,-0.4766,-0.8906,-0.5054,-2.26,-10.12,-167.99
178,668563847,-0.4751,-0.8955,-0.4976,0.18,-9.51,-169.57
179,668569131,-0.4731,-0.8906,-0.4956,2.07,-8.90,-170.73
180,668573847,-0.4604,-0.8882,-0.4834,3.66,-8.35,-171.83
181,668579145,-0.4551,-0.8926,-0.4741,5.00,-8.11,-172.93
182,668583847,-0.4546,-0.8970,-0.4741,5.91,-8.05,-173.96
183,668588848,-0.4395,-0.9009,-0.4678,6.22,-7.80,-174.76
184,668593846,-0.4385,-0.9014,-0.4561,6.04,-7.44,-175.67
185,668599221,-0.4321,-0.9004,-0.4468,5.43,-7.38,-176.40
186,668603847,-0.4258,-0.9033,-0.4434,4.57,-7.07,-176.95
187,668609136,-0.4175,-0.9165,-0.4385,3.23,-6.83,-177.38
188,668613847,-0.4087,-0.9258,-0.4326,1.52,-6.40,-177.74
189,668618856,-0.4067,-0.9355,-0.4248,-0.30,-6.10,-177.80
190,668624195,-0.4043,-0.9409,-0.4199,-1.83,-5.61,-177.93
191,668628847,-0.3857,-0.9478,-0.4170,-3.48,-5.43,-177.74
192,668634075,-0.3696,-0.9551,-0.4141,-4.82,-5.24,-177.68
193,668638847,-0.3535,-0.9507,-0.3979,-5.73,-5.18,-177.62
194,668644157,-0.3384,-0.9512,-0.3931,-5.98,-5.18,-177.56
195,668648847,-0.3345,-0.9521,-0.3799,-6.34,-5.12,-177.80
196,668654031,-0.3193,-0.9468,-0.3696,-6.40,-5.49,-178.11
197,668658847,-0.3052,-0.9458,-0.3691,-6.34,-5.91,-178.60
198,668663847,-0.2910,-0.9414,-0.3618,-6.28,-6.52,-179.15
199,668669325,-0.2754,-0.9434,-0.3516,-5.98,-7.13,-179.82
200,668673848,-0.2598,-0.9448,-0.3516,-5.30,-7.93,-180.18
201,668678847,-0.2495,-0.9395,-0.3486,-4.51,-8.60,-180.55
202,668683847,-0.2344,-0.9380,-0.3418,-3.48,-9.88,-180.91
203,668688847,-0.2197,-0.9375,-0.3315,-2.13,-10.85,-181.10
204,668693847,-0.1997,-0.9307,-0.3267,-1.04,-12.07,-181.34
205,668698847,-0.1855,-0.9272,-0.3198,0.06,-13.23,-181.59
206,668703846,-0.1548,-0.9209,-0.3223,0.85,-14.70,-181.65
207,668708847,-0.1313,-0.9180,-0.3228,1.46,-16.10,-181.52
208,668713847,-0.1245,-0.9170,-0.3193,1.77,-17.44,-181.52
209,668718996,-0.1147,-0.9150,-0.3198,2.07,-18.78,-181.40
210,668723847,-0.1084,-0.9136,-0.3208,2.13,-20.24,-181.22
211,668728847,-0.1084,-0.9121,-0.3237,2.26,-21.59,-180.98
212,668733957,-0.1016,-0.9209,-0.3291,2.26,-22.74,-180.73
213,668738847,-0.0908,-0.9253,-0.3398,2.44,-23.96,-180.18
214,668743847,-0.0820,-0.9219,-0.3379,3.35,-25.12,-179.82
215,668748847,-0.0708,-0.9097,-0.3335,4.76,-26.22,-179.33
216,668754282,-0.0684,-0.8916,-0.3335,7.07,-27.26,-179.09
217,668758847,-0.0684,-0.8794,-0.3359,9.63,-28.05,-179.15
218,668763847,-0.0527,-0.8730,-0.3403,12.32,-29.09,-179.09
219,668768849,-0.0332,-0.8657,-0.3369,15.12,-30.00,-179.15
220,668773846,-0.0151,-0.8628,-0.3340,17.68,-31.04,-179.33
221,668779078,0.0093,-0.8569,-0.3203,19.88,-32.13,-179.45
222,668783847,0.0449,-0.8511,-0.3335,21.04,-33.23,-179.51
223,668789090,0.0737,-0.8486,-0.3350,21.16,-34.57,-179.70
224,668793847,0.1123,-0.8418,-0.3389,20.18,-35.98,-179.70
225,668798846,0.1538,-0.8413,-0.3428,18.41,-37.62,-179.63
226,668803847,0.1890,-0.8306,-0.3408,16.10,-39.45,-179.51
227,668808846,0.2310,-0.8184,-0.3418,12.80,-40.98,-179.33
228,668813845,0.2642,-0.8037,-0.3296,9.33,-42.74,-179.09
229,668818848,0.2886,-0.7935,-0.3252,5.37,-44.02,-178.78
230,668823846,0.3066,-0.7920,-0.3291,1.34,-45.55,-178.29
231,668828847,0.3257,-0.7788,-0.3428,-2.87,-46.77,-177.62
232,668833847,0.3354,-0.7715,-0.3398,-7.68,-47.74,-177.01
233,668839118,0.3457,-0.7593,-0.3267,-12.99,-48.48,-176.22
234,668843847,0.3481,-0.7471,-0.3218,-18.72,-48.78,-175.67
235,668848975,0.3599,-0.7437,-0.3193,-24.76,-48.84,-175.18
236,668853847,0.3604,-0.7422,-0.3169,-30.67,-48.48,-174.63
237,668858847,0.3682,-0.7256,-0.3179,-36.04,-47.68,-174.15
238,668864146,0.3564,-0.7119,-0.3242,-40.43,-46.71,-173.72
239,668868847,0.3574,-0.6919,-0.3291,-43.84,-45.73,-173.41
240,668873847,0.3643,-0.6948,-0.5684,-46.28,-43.54,-173.05
241,668879194,0.3867,-0.6626,-0.3687,-48.17,-42.62,-172.99
242,668883847,0.3984,-0.6763,-0.3081,-48.90,-40.91,-172.74
243,668889094,0.3784,-0.6416,-0.4175,-49.45,-38.05,-172.80
244,668893847,0.3770,-0.6050,-0.4189,-48.72,-34.21,-172.68
245,668898847,0.3765,-0.5684,-0.3120,-47.32,-32.26,-172.68
246,668903847,0.3726,-0.5688,-0.3423,-45.85,-31.10,-172.74
247,668908846,0.4072,-0.6387,-0.4023,-43.66,-27.38,-172.07
248,668913847,0.3945,-0.6084,-0.3618,-40.91,-23.60,-171.34
249,668918847,0.3857,-0.5244,-0.2876,-37.87,-21.04,-170.67
250,668923847,0.3809,-0.4307,-0.3257,-34.76,-18.66,-170.06
251,668928847,0.3916,-0.3818,-0.3770,-31.52,-15.98,-169.21
252,668933847,0.4136,-0.3823,-0.3008,-28.41,-13.66,-168.23
253,668938847,0.4272,-0.4346,-0.2539,-24.88,-12.07,-166.71
254,668943847,0.4443,-0.4844,-0.2871,-21.71,-10.55,-165.00
255,668948847,0.4600,-0.4907,-0.2900,-18.90,-9.51,-163.05
256,668953847,0.4595,-0.4463,-0.2266,-16.59,-8.72,-161.04
257,668958847,0.4697,-0.3794,-0.1968,-14.45,-7.74,-159.02
258,668964334,0.4697,-0.3745,-0.1885,-12.44,-6.28,-156.59
259,668968847,0.4688,-0.3071,-0.2031,-10.85,-5.12,-155.18
260,668973847,0.4917,-0.2979,-0.1934,-9.21,-5.18,-152.74
261,668978847,0.4941,-0.3135,-0.1978,-7.44,-3.35,-151.22
262,668984085,0.5142,-0.2671,-0.2007,-5.18,-0.91,-148.90
263,668988847,0.5103,-0.3076,-0.1943,-3.48,1.34,-147.01
264,668993847,0.5151,-0.2764,-0.1782,-1.40,2.07,-144.76
265,668998847,0.5239,-0.2383,-0.1694,1.04,4.21,-142.44
266,669004249,0.5366,-0.2319,-0.1895,4.39,2.74,-139.51
267,669008847,0.5371,-0.1973,-0.1484,6.77,3.35,-137.44
268,669013847,0.5410,-0.2007,-0.1426,9.94,3.17,-135.00
269,669018847,0.5342,-0.2007,-0.1177,13.41,4.94,-132.44
270,669023846,0.5400,-0.2036,-0.1387,17.01,3.11,-129.57
271,669028845,0.5347,-0.1855,-0.1636,20.85,4.02,-127.20
272,669033847,0.5273,-0.1572,-0.1733,24.57,4.82,-124.82
273,669038847,0.5225,-0.1289,-0.1646,28.41,5.00,-122.44
274,669044069,0.5308,-0.1333,-0.1611,32.62,5.24,-119.76
275,669048847,0.5391,-0.1152,-0.1909,35.24,4.82,-117.93
276,669054147,0.5522,-0.1064,-0.1943,38.78,4.09,-115.18
277,669058847,0.5518,-0.1157,-0.1821,40.85,3.29,-113.48
278,669063847,0.5586,-0.1157,-0.1880,42.80,2.50,-111.34
279,669068847,0.5703,-0.1152,-0.2090,44.51,1.40,-109.33
280,669074022,0.5854,-0.1133,-0.2437,45.73,0.12,-107.13
281,669078847,0.5576,-0.0552,-0.2466,46.40,-0.91,-105.61
282,669083847,0.5156,-0.0039,-0.2485,46.34,-3.05,-104.33
283,669088848,0.4902,0.0073,-0.3228,45.91,-3.72,-103.05
284,669093847,0.5176,0.0435,-0.2812,45.98,-5.55,-102.38
285,669098846,0.5103,-0.0151,-0.2720,46.34,-6.52,-102.13
286,669103845,0.5151,0.0166,-0.3560,46.34,-8.84,-102.32
287,669108847,0.5435,0.0864,-0.3989,45.37,-12.13,-102.87
288,669113846,0.5747,0.1216,-0.3760,43.23,-14.82,-103.41
289,669118850,0.6108,0.1738,-0.3809,39.70,-17.68,-103.96
290,669124306,0.6465,0.2236,-0.3984,34.45,-20.24,-104.27
291,669128847,0.6665,0.2476,-0.4023,27.26,-23.35,-104.09
292,669133848,0.6724,0.2300,-0.3691,18.54,-25.85,-103.29
293,669138847,0.7090,0.2021,-0.3105,8.11,-28.35,-102.07
294,669143847,0.7700,0.2046,-0.2622,-3.72,-30.85,-100.37
295,669148847,0.7866,0.2090,-0.2842,-16.65,-33.60,-98.23
296,669154112,0.7432,0.2393,-0.2925,-29.57,-36.95,-95.55
297,669158847,0.6641,0.2505,-0.3452,-41.95,-40.91,-92.50
298,669164128,0.5991,0.2222,-0.4561,-53.23,-45.43,-88.96
299,669168847,0.6060,0.1909,-0.5186,-62.93,-50.18,-84.94
300,669174204,0.6812,0.1626,-0.5317,-71.10,-54.51,-80.85
301,669178847,0.7788,0.1362,-0.5532,-77.44,-58.17,-76.95
302,669183847,0.8643,0.1001,-0.5981,-82.50,-61.40,-73.11
303,669188848,0.9263,0.0645,-0.6357,-86.16,-63.96,-69.39
304,669193847,0.9282,0.0435,-0.6943,-88.23,-66.28,-65.85
305,669198851,0.9219,0.0259,-0.8213,-88.90,-68.41,-62.56
306,669203848,0.9297,0.0317,-1.0474,-88.60,-69.63,-59.33
307,669208983,1.0557,0.0513,-1.1611,-87.01,-70.67,-56.52
308,669213847,1.2100,0.0894,-1.1338,-84.45,-69.88,-54.02
309,669218847,1.3042,0.1733,-1.1333,-81.34,-67.32,-52.26
310,669224155,1.2349,0.1802,-1.1782,-77.62,-64.39,-50.55
311,669228847,1.0894,0.1606,-1.2070,-74.45,-61.04,-48.72
312,669233847,0.9360,0.1465,-1.2373,-72.50,-56.95,-46.59
313,669238847,0.8535,0.1592,-1.2461,-71.22,-52.38,-44.21
314,669243847,0.8247,0.1572,-1.2617,-70.24,-47.44,-42.13
315,669248847,0.8027,0.1567,-1.2803,-69.70,-41.71,-40.24
316,669253847,0.7915,0.2148,-1.3540,-70.18,-35.61,-38.60
317,669258847,0.7578,0.2598,-1.3589,-71.16,-29.09,-37.62
318,669263847,0.7095,0.2549,-1.3452,-73.41,-21.40,-36.77
319,669269175,0.6831,0.2646,-1.3477,-77.07,-13.54,-36.10
320,669273847,0.6660,0.2729,-1.3560,-81.28,-5.12,-35.37
321,669278849,0.6606,0.2793,-1.3550,-86.04,3.66,-34.63
322,669283849,0.6509,0.2891,-1.3545,-90.18,12.56,-33.78
323,669288958,0.6382,0.2959,-1.3574,-93.78,21.52,-32.87
324,669293847,0.6206,0.3052,-1.3569,-96.65,30.73,-31.71
325,669298847,0.5991,0.2988,-1.3521,-98.66,39.63,-30.24
326,669303846,0.5830,0.3066,-1.3306,-99.76,48.48,-28.54
327,669308847,0.5605,0.3032,-1.3115,-99.94,57.32,-26.65
328,669313847,0.5361,0.3071,-1.2817,-99.63,65.85,-24.45
329,669318847,0.5249,0.3071,-1.2568,-98.35,74.09,-22.07
330,669323847,0.4966,0.3076,-1.2344,-96.52,81.71,-19.45
331,669328849,0.4912,0.3091,-1.1914,-94.51,88.72,-16.65
332,669333845,0.4692,0.3086,-1.1763,-92.38,95.85,-13.78
333,669338847,0.4497,0.3184,-1.1411,-90.49,102.74,-10.85
334,669343847,0.4351,0.3101,-1.0918,-89.09,108.90,-7.68
335,669348847,0.4209,0.3047,-1.0386,-88.05,115.91,-3.84
336,669353847,0.4077,0.3008,-1.0107,-88.23,120.12,-1.16
337,669359066,0.4009,0.3086,-0.9717,-88.66,125.18,2.20
338,669363847,0.3813,0.3003,-0.9370,-89.94,129.88,5.61
339,669368987,0.4038,0.3857,-0.8770,-91.71,134.15,9.21
340,669373847,0.4072,0.3325,-0.8442,-93.11,138.29,12.80
341,669379156,0.2681,0.2603,-0.8472,-95.91,141.95,17.01
342,669383847,0.2690,0.2451,-0.8232,-99.09,145.06,21.34
343,669388847,0.2827,0.2388,-0.7642,-101.95,148.17,25.55
344,669393847,0.2935,0.2544,-0.7192,-104.70,151.10,30.00
345,669398846,0.2749,0.2764,-0.6953,-107.80,153.78,34.21
346,669403847,0.2563,0.2793,-0.6792,-110.91,156.28,38.54
347,669408845,0.2256,0.2480,-0.6265,-114.33,158.54,42.99
348,669413845,0.2183,0.2222,-0.5791,-117.62,160.85,47.56
349,669418848,0.2061,0.2021,-0.5474,-120.91,162.93,52.26
350,669423847,0.1943,0.1895,-0.5034,-124.21,164.94,56.95
351,669428847,0.1855,0.1787,-0.4663,-127.26,166.95,61.65
352,669433848,0.1714,0.1704,-0.4258,-130.18,169.09,66.65
353,669438847,0.1650,0.1533,-0.3877,-132.74,170.67,71.52
354,669443846,0.1509,0.1304,-0.3447,-135.24,172.44,76.65
355,669449106,0.1304,0.1074,-0.3135,-137.68,174.27,82.26
356,669453847,0.1206,0.0859,-0.2773,-140.24,175.85,86.77
357,669459107,0.1162,0.0713,-0.2456,-142.87,177.13,93.05
358,669463847,0.0952,0.0503,-0.2134,-145.43,178.60,99.02
359,669470214,0.0757,0.0293,-0.1665,-149.27,180.43,107.68
360,669473847,0.0679,0.0229,-0.1445,-150.79,181.16,111.46
361,669478847,0.0479,0.0073,-0.1143,-153.48,182.26,117.80
362,669483846,0.0312,-0.0132,-0.0684,-156.40,183.60,125.73
363,669488847,0.0205,-0.0205,-0.0400,-158.35,184.70,131.16
364,669494171,0.0161,-0.0391,0.0044,-160.91,186.04,139.21
365,669498847,0.0078,-0.0503,0.0386,-162.44,187.07,144.76
366,669503847,-0.0112,-0.0688,0.0811,-164.21,188.54,151.77
367,669508849,-0.0298,-0.0757,0.1201,-165.73,190.12,158.84
368,669513877,-0.0532,-0.0981,0.1519,-166.65,191.83,166.10
369,669518845,-0.0884,-0.1318,0.1851,-167.68,193.72,173.60
370,669523847,-0.1260,-0.1680,0.2178,-168.29,195.37,181.22
371,669528847,-0.1621,-0.2002,0.2495,-168.90,197.26,189.27
372,669534088,-0.2041,-0.2515,0.2944,-169.45,199.02,199.45
373,669538847,-0.2266,-0.2842,0.3066,-169.82,200.24,206.40
374,669543847,-0.2563,-0.3296,0.3604,-170.12,201.77,215.37
375,669548847,-0.2915,-0.3755,0.4038,-170.30,203.23,224.82
376,669554313,-0.3262,-0.4365,0.4546,-170.55,205.18,236.65
377,669558847,-0.3481,-0.4810,0.4902,-170.61,206.34,244.76
378,669564103,-0.4004,-0.5420,0.5464,-170.37,208.35,257.68
379,669568847,-0.4287,-0.6108,0.5894,-170.06,209.57,266.28
380,669573847,-0.4536,-0.6704,0.6577,-169.09,211.40,277.32
381,669578847,-0.5264,-0.7524,0.7241,-166.28,212.80,288.60
382,669583847,-0.5913,-0.8179,0.7754,-161.40,214.15,300.18
383,669589170,-0.6904,-0.9004,0.8711,-151.28,215.61,313.78
384,669593847,-0.7603,-0.9380,0.9131,-142.07,216.65,322.80
385,669598847,-0.6938,-0.8940,1.0259,-127.99,217.62,333.60
386,669603846,-0.8208,-1.0161,1.0952,-111.22,218.90,343.60
387,669608854,-0.9668,-1.1870,1.1333,-86.34,218.78,355.85
388,669613847,-1.0142,-1.2539,1.1460,-66.10,218.23,363.72
389,669618845,-1.1323,-1.3359,1.2720,-29.09,216.77,374.82
390,669623847,-1.2393,-1.4160,1.3589,6.10,214.63,383.35
391,669628847,-1.3638,-1.5293,1.6006,43.84,211.71,390.91
392,669633847,-1.5107,-1.6011,1.7021,83.84,208.84,397.74
393,669638851,-1.5952,-1.6426,1.8252,124.33,204.63,403.48
394,669643847,-1.5259,-1.6821,2.0137,165.79,198.29,407.93
395,669648847,-1.3921,-1.6914,2.2578,206.34,189.51,411.95
396,669653847,-1.2871,-1.7207,2.4878,245.24,178.60,415.18
397,669658846,-1.1255,-1.7505,2.7104,281.28,164.63,418.11
398,669663846,-0.9614,-1.7974,3.0415,313.05,146.10,420.73
399,669668847,-0.9434,-1.8491,3.4033,336.28,125.00,423.54
400,669673846,-0.9512,-1.7915,3.6992,346.59,100.67,425.85
401,669678849,-1.0986,-1.7583,4.0518,341.71,71.83,427.56
402,669683847,-1.2134,-1.7896,4.3770,320.43,38.78,429.51
403,669688847,-1.3281,-1.8799,4.6060,283.84,1.10,431.83
404,669693847,-1.5171,-1.9990,4.8140,236.22,-42.26,434.63
405,669698845,-1.6167,-2.0806,4.9346,183.84,-90.12,436.95
406,669703845,-1.6279,-2.1284,4.9561,134.15,-142.99,438.41
407,669708849,-1.6475,-2.2148,4.9189,97.07,-199.15,438.60
408,669713846,-1.7256,-2.3442,4.8594,75.67,-256.46,438.48
409,669718846,-1.8540,-2.4756,4.7759,71.40,-313.35,437.80
410,669723847,-1.9780,-2.6035,4.6382,82.99,-368.84,437.07
411,669728849,-2.0532,-2.7012,4.4487,107.38,-422.50,436.46
412,669733847,-2.1284,-2.7754,4.2588,139.45,-473.54,436.04
413,669738847,-2.2617,-2.8506,4.0586,174.02,-522.74,436.10
414,669743847,-2.3994,-2.9160,3.7681,205.61,-568.72,436.65
415,669748847,-2.5103,-2.9790,3.4966,232.01,-611.89,437.38
416,669753847,-2.6343,-3.0947,3.1865,252.26,-651.22,438.78
417,669758847,-2.7803,-3.2559,2.8604,267.56,-687.13,440.85
418,669764191,-2.9585,-3.4507,2.5220,280.06,-718.96,443.60
419,669768847,-3.1519,-3.6592,2.1636,291.28,-746.34,447.13
420,669774032,-3.2930,-3.8760,1.7412,301.04,-769.94,450.79
421,669778847,-3.3838,-4.0825,1.2983,308.23,-788.90,453.96
422,669783847,-2.9053,-4.0991,0.6748,310.73,-803.11,455.24
423,669788847,-3.0630,-4.2646,0.5259,312.38,-811.95,453.84
424,669794150,-3.2393,-4.4146,0.3970,306.10,-814.27,449.76
425,669798847,-3.3325,-4.5039,0.2568,284.94,-809.15,440.24
426,669804235,-3.3145,-4.4282,0.0269,252.56,-795.06,426.10
427,669808848,-3.3262,-3.8926,-0.5771,213.96,-774.45,402.99
428,669813847,-3.4014,-3.8438,-1.1860,172.74,-748.84,371.83
429,669818847,-3.1641,-4.1279,-1.5928,129.63,-722.44,337.01
430,669823858,-2.7129,-4.2471,-1.9341,84.02,-692.93,298.90
431,669828847,-2.6406,-4.1621,-2.2720,42.68,-657.74,255.73
432,669833847,-2.5938,-4.0215,-2.5708,6.71,-620.37,207.80
433,669838846,-2.3633,-3.9146,-2.8589,-23.35,-580.91,156.40
434,669843847,-2.0913,-3.8359,-3.1250,-47.87,-539.09,103.41
435,669848847,-1.8501,-3.7563,-3.2749,-66.65,-495.98,50.67
436,669853847,-1.6533,-3.6338,-3.2925,-80.24,-452.74,-0.43
437,669858847,-1.4424,-3.4995,-3.2881,-88.29,-409.33,-48.84
438,669863847,-1.2383,-3.3340,-3.2197,-91.16,-366.22,-93.72
439,669869142,-1.0781,-3.1348,-3.1025,-87.87,-324.70,-134.82
440,669873847,-0.9565,-2.9136,-2.9561,-78.54,-285.79,-172.07
441,669878847,-0.8306,-2.6855,-2.7827,-65.30,-250.18,-205.12
442,669883847,-0.7197,-2.4678,-2.5986,-51.04,-217.68,-234.21
443,669888846,-0.6113,-2.2471,-2.4160,-37.62,-188.54,-259.51
444,669893847,-0.4980,-2.0376,-2.2402,-25.24,-162.26,-280.85
445,669898847,-0.4106,-1.8555,-2.0840,-14.21,-139.02,-298.54
446,669903847,-0.3228,-1.6831,-1.9087,-4.76,-118.29,-312.93
447,669909028,-0.2363,-1.5220,-1.7383,2.87,-99.70,-324.21
448,669913847,-0.1538,-1.3789,-1.5825,8.60,-83.05,-332.26
449,669918847,-0.0850,-1.2397,-1.4521,13.48,-68.29,-337.74
450,669923847,-0.0396,-1.1211,-1.3076,17.80,-55.12,-340.49
451,669928847,-0.0195,-0.9761,-1.1743,21.28,-43.35,-341.28
452,669933847,0.0181,-0.9009,-1.0747,23.41,-32.93,-339.94
453,669938846,0.0850,-0.8213,-0.9717,24.45,-24.02,-336.65
454,669943848,0.1460,-0.7397,-0.8867,25.18,-16.59,-331.46
455,669948845,0.1426,-0.6260,-0.8135,26.28,-10.30,-324.94
456,669953847,0.1230,-0.5693,-0.7163,26.71,-5.30,-317.56
457,669958846,0.1816,-0.5283,-0.6411,26.16,-1.34,-308.90
458,669963847,0.2354,-0.4673,-0.5698,25.61,1.83,-299.39
459,669968846,0.1802,-0.4141,-0.4570,24.21,4.57,-289.33
460,669973850,0.1646,-0.2461,-0.4023,20.43,6.83,-279.51
461,669978847,0.3091,-0.2236,-0.4204,15.55,8.60,-270.06
462,669983847,0.3506,-0.2021,-0.3560,10.00,9.76,-259.94
463,669988847,0.3110,-0.1924,-0.2612,4.82,11.16,-249.39
464,669993845,0.2983,-0.0884,-0.2344,-1.22,12.26,-238.84
465,669998847,0.3931,-0.0488,-0.2129,-6.59,12.93,-229.09
466,670003845,0.4517,-0.0444,-0.1807,-9.70,13.41,-218.78
467,670008845,0.4028,-0.0366,-0.1753,-11.59,13.54,-208.72
468,670013845,0.3779,-0.0015,-0.1606,-12.80,13.66,-198.66
469,670018845,0.3662,0.0229,-0.0767,-13.54,13.48,-188.90
470,670023891,0.3833,0.0747,-0.0752,-15.55,13.41,-179.82
471,670029025,0.5103,0.0713,-0.1289,-16.10,13.11,-170.49
472,670034021,0.5049,0.0869,-0.1191,-15.91,12.44,-159.51
473,670038847,0.4893,0.1011,-0.0718,-15.43,12.20,-152.26
474,670043846,0.5015,0.0986,-0.0732,-14.88,11.77,-143.29
475,670048985,0.5293,0.1143,-0.0840,-13.84,10.85,-132.80
476,670053847,0.5376,0.1118,-0.0688,-13.48,10.37,-126.04
477,670058847,0.5396,0.1167,-0.0596,-13.54,9.63,-117.80
478,670063937,0.5347,0.1196,-0.0679,-14.33,8.90,-110.06
479,670068847,0.5479,0.1250,-0.0557,-16.16,8.05,-102.62
480,670073847,0.5547,0.1250,-0.0352,-18.72,7.32,-95.43
481,670078847,0.5586,0.1118,-0.0278,-22.26,6.52,-88.41
482,670083846,0.5762,0.0981,-0.0283,-26.46,5.79,-81.89
483,670088847,0.5840,0.0894,-0.0220,-31.34,4.76,-75.49
484,670093846,0.5850,0.0703,-0.0195,-36.77,3.96,-69.21
485,670098845,0.5908,0.0566,-0.0059,-42.62,3.11,-63.41
486,670103849,0.5977,0.0503,0.0127,-48.41,2.26,-57.93
487,670108846,0.5962,0.0435,0.0166,-54.21,1.46,-52.87
488,670114272,0.6025,0.0381,0.0332,-60.91,0.73,-47.13
489,670118848,0.6104,0.0474,0.0396,-64.88,0.12,-43.54
490,670123848,0.6187,0.0156,0.0532,-70.49,-0.55,-38.29
491,670128846,0.6372,0.0020,0.0645,-74.39,-1.16,-33.96
492,670133847,0.6504,-0.0020,0.0713,-77.50,-1.77,-29.70
493,670138847,0.6689,-0.0264,0.0771,-79.51,-2.07,-25.37
494,670143847,0.6880,-0.0151,0.0791,-80.43,-2.74,-21.16
495,670148847,0.6938,-0.0264,0.0908,-80.61,-3.29,-17.26
496,670153847,0.7119,-0.0259,0.1074,-80.24,-3.96,-13.54
497,670158847,0.7251,-0.0352,0.1152,-79.21,-4.21,-10.18
498,670163848,0.7334,-0.0454,0.1128,-77.62,-4.82,-6.83
499,670168847,0.7422,-0.0596,0.1172,-75.73,-5.43,-3.72
500,670173847,0.7500,-0.0654,0.1133,-73.54,-6.10,-0.61
501,670178846,0.7568,-0.0698,0.1064,-71.10,-7.07,2.13
502,670183954,0.7637,-0.0752,0.1104,-68.72,-7.93,4.82
503,670188847,0.7651,-0.0791,0.0938,-66.46,-9.21,7.26
504,670194062,0.7710,-0.0889,0.0903,-64.51,-10.55,9.63
505,670198849,0.7744,-0.1074,0.0796,-63.05,-11.95,12.07
506,670203847,0.7734,-0.1162,0.0688,-62.01,-13.78,14.27
507,670208847,0.7671,-0.1270,0.0649,-61.65,-15.43,16.65
508,670213847,0.7734,-0.1406,0.0518,-61.89,-17.26,19.09
509,670218849,0.7681,-0.1475,0.0352,-62.80,-19.27,21.22
510,670223847,0.7637,-0.1597,0.0371,-64.39,-21.28,23.48
511,670228847,0.7744,-0.1562,0.0391,-66.65,-23.17,25.55
512,670233848,0.7739,-0.1631,0.0527,-69.27,-24.82,27.62
513,670238847,0.7739,-0.1577,0.0532,-72.38,-26.46,29.33
514,670243847,0.7778,-0.1621,0.0669,-75.79,-27.74,30.91
515,670249250,0.7856,-0.1655,0.0796,-79.33,-28.78,32.38
516,670253847,0.7832,-0.1768,0.0811,-83.11,-29.70,33.72
517,670258847,0.7856,-0.1748,0.0708,-86.83,-30.49,34.88
518,670263847,0.7837,-0.1787,0.0776,-90.18,-31.34,36.10
519,670268847,0.7817,-0.1855,0.0854,-93.48,-32.13,37.07
520,670273846,0.7881,-0.1963,0.0791,-96.52,-33.05,38.23
521,670279173,0.7798,-0.1997,0.0684,-99.57,-33.84,39.09
522,670283848,0.7949,-0.2144,0.0664,-102.38,-35.00,40.06
523,670288847,0.7832,-0.2231,0.0581,-105.24,-36.22,41.22
524,670293847,0.7798,-0.2285,0.0635,-108.11,-37.38,42.26
525,670298847,0.7671,-0.2324,0.0640,-110.79,-38.72,43.41
526,670304199,0.7563,-0.2363,0.0527,-113.23,-39.88,44.57
527,670308847,0.7388,-0.2500,0.0620,-115.55,-41.40,45.73
528,670313846,0.7241,-0.2515,0.0601,-117.32,-42.38,47.07
529,670318845,0.7070,-0.2603,0.0547,-118.84,-43.54,48.41
530,670323846,0.7002,-0.2656,0.0547,-120.00,-44.57,49.88
531,670328847,0.6938,-0.2700,0.0435,-120.73,-45.61,51.40
532,670333846,0.6919,-0.2788,0.0420,-121.28,-46.28,52.87
533,670338847,0.6934,-0.2808,-0.0210,-121.77,-46.89,54.51
534,670343847,0.6782,-0.2568,-0.0151,-123.05,-47.87,56.04
535,670349223,0.6895,-0.2827,0.0229,-124.27,-48.29,57.56
536,670353847,0.7754,-0.3457,-0.0215,-125.98,-48.35,59.45
537,670358847,0.7432,-0.2905,-0.1069,-129.51,-49.15,61.16
538,670363847,0.7158,-0.2700,-0.1577,-133.41,-49.94,62.38
539,670368847,0.6851,-0.2734,-0.1812,-137.50,-50.79,63.35
540,670374161,0.6880,-0.2754,-0.1348,-141.77,-50.79,64.39
541,670378847,0.6855,-0.2607,-0.1084,-145.98,-50.37,65.24
542,670383846,0.6895,-0.2612,-0.0547,-149.70,-50.00,65.98
543,670388848,0.6821,-0.2852,-0.0513,-153.23,-49.45,66.77
544,670393847,0.6650,-0.3154,-0.0840,-156.77,-49.51,67.56
545,670399001,0.6392,-0.3354,-0.0991,-159.94,-50.00,68.60
546,670403847,0.5830,-0.3550,-0.1128,-162.87,-50.61,69.39
547,670408849,0.5845,-0.3950,-0.1196,-165.61,-51.46,70.12
548,670413846,0.5952,-0.3857,-0.1313,-168.11,-52.32,70.98
549,670418847,0.5972,-0.3525,-0.1567,-170.55,-52.80,71.46
550,670423847,0.6079,-0.3203,-0.1680,-172.62,-53.35,71.77
551,670428847,0.6021,-0.3076,-0.1738,-174.39,-53.72,71.89
552,670433848,0.6006,-0.3179,-0.1885,-176.04,-54.09,72.13
553,670438847,0.5942,-0.3413,-0.2100,-177.13,-54.57,72.26
554,670443846,0.5977,-0.3657,-0.2241,-177.93,-55.06,72.44
555,670448847,0.6069,-0.3677,-0.2407,-178.41,-56.28,72.99
556,670453847,0.6157,-0.3730,-0.2495,-178.41,-57.01,73.29
557,670458847,0.6484,-0.3662,-0.2729,-178.11,-58.35,73.90
558,670463847,0.6753,-0.3672,-0.2729,-177.56,-59.39,74.51
559,670468847,0.7041,-0.3696,-0.2964,-176.71,-60.79,75.37
560,670473847,0.7188,-0.3901,-0.3052,-175.67,-62.13,76.65
561,670478847,0.7192,-0.4014,-0.3218,-174.33,-63.23,77.87
562,670484023,0.7280,-0.4150,-0.3213,-173.11,-64.82,79.39
563,670488847,0.7231,-0.4126,-0.3252,-171.77,-66.16,80.98
564,670493847,0.7197,-0.3960,-0.3257,-170.24,-67.26,82.62
565,670498847,0.7168,-0.3818,-0.3276,-168.72,-68.35,83.96
566,670503846,0.7124,-0.3711,-0.3379,-167.13,-69.39,86.52
567,670508847,0.6948,-0.3662,-0.3472,-165.49,-70.37,87.62
568,670513847,0.6914,-0.3467,-0.3481,-163.35,-71.46,87.99
569,670518847,0.6782,-0.3530,-0.3579,-162.07,-71.95,89.76
570,670523847,0.6597,-0.3442,-0.3491,-160.30,-72.74,91.46
571,670528847,0.6436,-0.3335,-0.3608,-158.72,-73.48,92.74
572,670533848,0.6104,-0.3281,-0.3618,-157.01,-73.96,93.90
573,670538846,0.5977,-0.3125,-0.3599,-155.55,-74.33,95.06
574,670543847,0.5938,-0.3081,-0.3657,-154.02,-74.76,96.10
575,670549181,0.5767,-0.2969,-0.3711,-152.62,-75.37,97.26
576,670553847,0.5742,-0.3018,-0.3770,-151.77,-75.91,97.93
577,670558847,0.5596,-0.2959,-0.3774,-151.04,-76.77,98.78
578,670563847,0.5547,-0.2974,-0.3882,-150.73,-77.80,99.45
579,670568847,0.5527,-0.3018,-0.3906,-150.79,-78.90,100.18
580,670574267,0.5645,-0.3218,-0.4072,-151.65,-80.73,101.22
581,670578847,0.5845,-0.3350,-0.4199,-152.74,-82.20,101.95
582,670584083,0.6187,-0.3677,-0.4336,-155.00,-84.88,103.48
583,670588847,0.6396,-0.3838,-0.4409,-156.89,-86.65,104.63
584,670593847,0.6621,-0.3970,-0.4326,-159.63,-89.33,106.04
585,670598846,0.6660,-0.4077,-0.4336,-162.62,-91.89,107.74
586,670603845,0.6606,-0.4038,-0.4419,-165.79,-94.45,109.33
587,670608845,0.6509,-0.4028,-0.4390,-168.60,-97.01,110.61
588,670613847,0.6294,-0.3965,-0.4380,-171.65,-99.57,111.77
589,670618845,0.6001,-0.3916,-0.4429,-174.57,-101.77,112.68
590,670623845,0.5776,-0.3823,-0.4351,-177.32,-103.90,113.54
591,670628847,0.5513,-0.3804,-0.4404,-179.82,-105.85,113.96
592,670633847,0.5288,-0.3838,-0.4370,-181.89,-107.74,114.45
593,670638847,0.4956,-0.3809,-0.4517,-184.33,-109.76,115.00
594,670643847,0.4717,-0.3760,-0.4600,-185.49,-111.28,115.18
595,670648936,0.4487,-0.3784,-0.4717,-186.71,-113.41,115.55
596,670653847,0.4297,-0.3760,-0.4814,-187.44,-115.06,115.85
597,670658846,0.4028,-0.3745,-0.4854,-187.99,-116.59,115.85
598,670663847,0.3911,-0.3818,-0.5073,-188.29,-118.41,115.98
599,670668847,0.3848,-0.3936,-0.5254,-188.54,-120.12,116.16
600,670673847,0.3892,-0.4082,-0.5405,-188.72,-121.95,116.52
601,670678847,0.3887,-0.4092,-0.5420,-188.54,-123.78,117.07
602,670683847,0.3682,-0.4106,-0.5327,-187.93,-125.37,117.68
603,670688847,0.3633,-0.4028,-0.5454,-186.83,-127.01,117.99
604,670693847,0.3472,-0.3994,-0.5396,-185.12,-128.48,118.48
605,670698846,0.3364,-0.3940,-0.5469,-182.74,-129.94,118.84
606,670704325,0.3262,-0.3857,-0.5454,-179.57,-131.46,119.27
607,670708847,0.3120,-0.3823,-0.5508,-175.73,-132.93,119.70
608,670713854,0.3125,-0.3794,-0.5557,-171.46,-134.63,120.24
609,670718846,0.3154,-0.3857,-0.5688,-166.83,-136.40,120.79
610,670723847,0.3169,-0.4004,-0.5898,-162.01,-138.35,121.59
611,670729177,0.3335,-0.4082,-0.5918,-156.95,-140.67,122.50
612,670733847,0.3418,-0.4155,-0.6011,-151.77,-143.11,123.66
613,670738847,0.3403,-0.4263,-0.6143,-146.46,-145.61,124.94
614,670743847,0.3545,-0.4316,-0.6357,-141.40,-148.48,126.34
615,670748846,0.3672,-0.4453,-0.6509,-136.34,-151.65,127.93
616,670754246,0.3833,-0.4565,-0.6626,-131.59,-154.63,129.57
617,670758847,0.3760,-0.4590,-0.6763,-126.77,-157.74,131.10
618,670763846,0.3696,-0.4668,-0.6870,-122.32,-160.61,132.87
619,670769435,0.3564,-0.4727,-0.7021,-118.11,-163.66,134.39
620,670773847,0.3271,-0.4683,-0.7124,-113.96,-166.22,135.79
621,670778847,0.2886,-0.4624,-0.7227,-110.12,-168.54,137.20
622,670783847,0.2456,-0.4595,-0.7271,-106.46,-170.37,138.17
623,670788847,0.2017,-0.4512,-0.7368,-102.68,-172.01,138.96
624,670794150,0.1641,-0.4492,-0.7334,-98.90,-173.41,139.82
625,670798847,0.1289,-0.4414,-0.7427,-94.94,-174.57,140.55
626,670804145,0.0957,-0.4375,-0.7412,-90.73,-175.85,141.22
627,670808847,0.0698,-0.4297,-0.7437,-85.79,-177.07,141.83
628,670814194,0.0425,-0.4272,-0.7422,-80.73,-178.29,142.44
629,670818847,0.0229,-0.4248,-0.7446,-74.88,-179.88,143.05
630,670824110,0.0049,-0.4302,-0.7622,-68.90,-181.40,144.02
631,670828847,-0.0107,-0.4375,-0.7817,-62.50,-183.05,145.00
632,670833847,-0.0356,-0.4326,-0.7915,-56.52,-184.70,146.10
633,670838847,-0.0708,-0.4248,-0.7949,-50.43,-185.91,146.95
634,670843847,-0.1123,-0.4165,-0.7959,-44.57,-186.77,147.80
635,670848848,-0.1519,-0.4209,-0.8018,-38.96,-187.38,148.78
636,670853847,-0.1685,-0.4292,-0.8149,-33.48,-187.93,149.57
637,670858847,-0.1914,-0.4321,-0.8198,-28.17,-188.60,150.73
638,670863847,-0.2158,-0.4331,-0.8247,-22.87,-189.27,151.95
639,670869217,-0.2310,-0.4331,-0.8286,-17.50,-189.82,153.17
640,670873847,-0.2451,-0.4321,-0.8354,-11.59,-190.98,154.63
641,670878847,-0.2627,-0.4316,-0.8311,-5.67,-192.01,156.28
642,670883847,-0.2759,-0.4224,-0.8271,0.73,-193.23,157.99
643,670889112,-0.3037,-0.4160,-0.8232,7.50,-194.76,159.82
644,670893847,-0.3271,-0.4102,-0.8164,14.94,-196.34,161.71
645,670898847,-0.3438,-0.4058,-0.8086,22.68,-198.35,163.78
646,670903845,-0.3638,-0.4126,-0.8130,30.98,-200.61,166.22
647,670908845,-0.4043,-0.4277,-0.8511,40.85,-203.66,169.51
648,670913847,-0.4531,-0.4341,-0.8633,47.20,-205.91,171.71
649,670918846,-0.5063,-0.4243,-0.8687,54.27,-208.48,174.45
650,670923846,-0.5498,-0.4180,-0.8633,60.30,-209.82,176.95
651,670928847,-0.5972,-0.4180,-0.8735,64.82,-210.67,179.21
652,670933846,-0.6392,-0.4150,-0.8892,67.80,-210.98,181.10
653,670938847,-0.6963,-0.4141,-0.8999,69.39,-210.79,182.74
654,670943847,-0.7402,-0.4136,-0.9062,69.45,-210.30,184.21
655,670948845,-0.7632,-0.4131,-0.9155,68.66,-209.57,185.43
656,670953847,-0.7935,-0.4116,-0.9268,66.89,-209.09,186.52
657,670959086,-0.8154,-0.4053,-0.9316,64.82,-208.90,187.80
658,670963847,-0.8491,-0.3984,-0.9268,62.68,-208.41,188.90
659,670969134,-0.8691,-0.3926,-0.9136,60.43,-208.66,189.88
660,670973847,-0.8940,-0.3853,-0.9043,58.54,-209.02,191.34
661,670978847,-0.9277,-0.3975,-0.8970,57.26,-209.51,192.80
662,670983847,-0.9736,-0.4126,-0.8989,56.46,-210.12,194.63
663,670988847,-1.0376,-0.4268,-0.8989,55.85,-210.61,196.89
664,670994141,-1.0928,-0.4326,-0.8945,54.88,-210.73,199.27
665,670998847,-1.1279,-0.4258,-0.8833,53.41,-210.06,201.40
666,671003847,-1.1553,-0.4258,-0.8789,51.46,-208.60,203.29
667,671008847,-1.1719,-0.4307,-0.8716,49.21,-206.65,205.00
668,671013847,-1.1831,-0.4292,-0.8789,46.77,-204.39,206.65
669,671018855,-1.2031,-0.4243,-0.8911,44.51,-201.71,208.05
670,671023846,-1.2212,-0.4170,-0.9111,42.38,-198.84,209.15
671,671028847,-1.2432,-0.4014,-0.9268,40.85,-196.10,210.12
672,671033847,-1.2715,-0.3853,-0.9399,40.12,-193.17,210.85
673,671039102,-1.3047,-0.3608,-0.9395,39.82,-189.21,211.34
674,671043847,-1.3188,-0.3501,-0.9360,40.37,-186.46,211.34
675,671048847,-1.3286,-0.3389,-0.9150,41.46,-182.50,211.28
676,671053847,-1.3413,-0.3467,-0.8999,43.35,-178.48,211.22
677,671058846,-1.3472,-0.3535,-0.8955,45.67,-173.84,211.46
678,671063848,-1.3618,-0.3569,-0.8818,48.29,-169.09,212.01
679,671068846,-1.3740,-0.3594,-0.8623,51.46,-163.60,212.68
680,671074437,-1.3799,-0.3584,-0.8545,55.85,-156.71,213.41
681,671078849,-1.3701,-0.3579,-0.8506,59.09,-152.01,213.96
682,671083847,-1.3545,-0.3564,-0.8521,63.60,-145.79,214.88
683,671088847,-1.3369,-0.3486,-0.8550,68.66,-139.63,215.49
684,671093847,-1.3169,-0.3301,-0.8633,74.45,-133.29,216.16
685,671099114,-1.3022,-0.3096,-0.8750,82.74,-125.98,216.52
686,671103847,-1.2812,-0.2915,-0.8755,89.09,-121.16,216.71
687,671109118,-1.2583,-0.2700,-0.8677,99.82,-113.78,216.59
688,671113847,-1.2417,-0.2563,-0.8604,107.68,-108.72,216.34
689,671119201,-1.2148,-0.2393,-0.8545,120.61,-101.04,215.73
690,671123847,-1.1978,-0.2251,-0.8418,131.89,-94.39,215.24
691,671128847,-1.1792,-0.2261,-0.8311,140.49,-89.15,214.57
692,671134137,-1.1348,-0.2212,-0.8120,154.21,-81.16,213.90
693,671138847,-1.1138,-0.2212,-0.8071,163.17,-75.55,213.48
694,671144116,-1.0703,-0.2217,-0.7935,176.52,-67.26,212.62
695,671148848,-1.0415,-0.2227,-0.7886,185.12,-61.71,212.07
696,671153847,-1.0068,-0.2261,-0.7778,195.30,-55.00,211.34
697,671158845,-0.9658,-0.2158,-0.7803,204.88,-48.35,210.30
698,671164188,-0.9287,-0.2114,-0.7715,215.91,-40.49,209.02
699,671168847,-0.8833,-0.2056,-0.7593,224.45,-34.09,207.68
700,671173847,-0.8535,-0.1836,-0.7524,232.38,-27.68,205.98
701,671178847,-0.8950,-0.1616,-0.7568,240.06,-21.52,203.90
702,671183847,-0.9009,-0.1514,-0.7446,247.50,-15.37,201.40
703,671189224,-0.9004,-0.1479,-0.7437,255.00,-9.39,198.66
704,671193846,-0.9067,-0.1333,-0.7349,262.20,-3.41,195.73
705,671198848,-0.9087,-0.1353,-0.7324,268.96,2.01,192.68
706,671203847,-0.8994,-0.1440,-0.7236,275.24,7.74,189.51
707,671208847,-0.8945,-0.1465,-0.7207,280.91,12.80,186.28
708,671213845,-0.8916,-0.1562,-0.7148,285.61,17.68,183.05
709,671218845,-0.8726,-0.1602,-0.7085,289.63,22.26,179.57
710,671223845,-0.8560,-0.1650,-0.7036,292.74,26.52,176.40
711,671229085,-0.8384,-0.1714,-0.7075,295.18,30.37,173.05
712,671233847,-0.8306,-0.1733,-0.6997,296.77,33.66,169.70
713,671239248,-0.8125,-0.1689,-0.6919,297.68,36.77,166.34
714,671243847,-0.8052,-0.1680,-0.6870,297.93,39.70,163.05
715,671248847,-0.8042,-0.1772,-0.6821,297.26,42.50,159.57
716,671253847,-0.8018,-0.1836,-0.6694,296.04,44.94,156.28
717,671258847,-0.8062,-0.1895,-0.6562,294.21,47.38,153.05
718,671263846,-0.8022,-0.1978,-0.6416,291.65,49.57,149.76
719,671268889,-0.8003,-0.2095,-0.6396,288.29,51.71,146.65
720,671273846,-0.7939,-0.2163,-0.6309,284.33,53.54,143.60
721,671279251,-0.7832,-0.2256,-0.6211,279.63,55.43,140.73
722,671283847,-0.7773,-0.2314,-0.6123,274.33,57.07,137.93
723,671288847,-0.7754,-0.2422,-0.6089,268.60,58.54,135.06
724,671293847,-0.7666,-0.2446,-0.6069,262.50,59.88,132.44
725,671298847,-0.7686,-0.2544,-0.6060,256.16,61.04,130.06
726,671303847,-0.7646,-0.2627,-0.5957,249.51,61.77,127.50
727,671308847,-0.7646,-0.2646,-0.5884,242.68,62.80,125.12
728,671313847,-0.7627,-0.2666,-0.5986,235.73,63.35,122.99
729,671318847,-0.7666,-0.2725,-0.5864,228.54,63.90,120.67
730,671323847,-0.7642,-0.2642,-0.5811,221.59,64.33,118.48
731,671328848,-0.7632,-0.2690,-0.5776,214.57,64.51,116.16
732,671333847,-0.7583,-0.2642,-0.5801,207.80,64.51,113.84
733,671338847,-0.7588,-0.2666,-0.5679,200.85,64.57,111.59
734,671343849,-0.7500,-0.2700,-0.5693,193.90,64.45,109.33
735,671348847,-0.7554,-0.2754,-0.5601,187.01,64.39,107.13
736,671353848,-0.7559,-0.2886,-0.5532,180.00,64.15,105.12
737,671358846,-0.7485,-0.2915,-0.5435,172.87,64.09,102.93
738,671363847,-0.7500,-0.3008,-0.5361,165.73,63.90,100.98
739,671368846,-0.7402,-0.3027,-0.5288,158.78,63.78,99.15
740,671374423,-0.7388,-0.3057,-0.5195,150.79,63.66,96.83
741,671378849,-0.7314,-0.3120,-0.5278,145.55,63.48,95.30
742,671383850,-0.7251,-0.3091,-0.5210,139.33,63.17,93.41
743,671388847,-0.7153,-0.3135,-0.5151,132.93,62.80,91.59
744,671393848,-0.7080,-0.3149,-0.5151,129.33,62.32,89.33
745,671398847,-0.7041,-0.3149,-0.5107,123.60,61.89,87.99
746,671403847,-0.7002,-0.3110,-0.5151,119.15,61.28,86.52
747,671408847,-0.6943,-0.3120,-0.5073,115.24,60.73,85.12
748,671413847,-0.6934,-0.3101,-0.5103,111.77,60.06,82.99
749,671418847,-0.6943,-0.3110,-0.5068,108.60,59.57,81.10
750,671424130,-0.6987,-0.3101,-0.5107,106.10,58.72,79.27
751,671429355,-0.6934,-0.3140,-0.5010,103.11,57.68,77.13
752,671433847,-0.6934,-0.3140,-0.4990,101.52,57.07,75.61
753,671439146,-0.6924,-0.3164,-0.4990,99.82,56.22,73.84
754,671443847,-0.6885,-0.3188,-0.4888,98.29,55.37,72.01
755,671449028,-0.6841,-0.3218,-0.4922,97.07,54.33,70.43
756,671453847,-0.6826,-0.3237,-0.4932,96.04,53.48,68.84
757,671458847,-0.6748,-0.3252,-0.4917,95.37,52.56,67.20
758,671463847,-0.6753,-0.3267,-0.4810,94.70,51.46,65.49
759,671468846,-0.6670,-0.3247,-0.4849,94.33,50.30,63.90
760,671474032,-0.6602,-0.3257,-0.4858,94.27,49.21,62.38
761,671478847,-0.6572,-0.3271,-0.4839,94.45,47.99,60.67
762,671483847,-0.6494,-0.3242,-0.4868,94.82,46.77,59.39
763,671488846,-0.6426,-0.3223,-0.4834,95.61,45.30,57.68
764,671493847,-0.6445,-0.3203,-0.4849,96.52,44.21,56.10
765,671498845,-0.6484,-0.3213,-0.4780,97.74,42.74,54.39
766,671503847,-0.6475,-0.3174,-0.4810,99.09,41.52,52.93
767,671508901,-0.6392,-0.3174,-0.4780,100.79,40.00,51.28
768,671513847,-0.6343,-0.3125,-0.4805,102.68,38.48,49.70
769,671518846,-0.6426,-0.3120,-0.4897,104.76,37.07,47.99
770,671523846,-0.6426,-0.3135,-0.4829,107.44,35.24,46.16
771,671528847,-0.6416,-0.3159,-0.4873,109.09,33.96,45.00
772,671533847,-0.6445,-0.3179,-0.4854,111.34,32.32,43.48
773,671538847,-0.6421,-0.3232,-0.4805,113.41,30.61,42.01
774,671543847,-0.6396,-0.3232,-0.4780,115.49,29.21,40.79
775,671548851,-0.6440,-0.3232,-0.4834,117.99,27.32,39.15
776,671553847,-0.6318,-0.3228,-0.4858,119.45,25.85,38.05
777,671558847,-0.6377,-0.3208,-0.4810,121.71,23.90,36.52
778,671563847,-0.6362,-0.3242,-0.4805,123.05,22.56,35.49
779,671568847,-0.6333,-0.3223,-0.4814,124.63,20.73,34.15
780,671573847,-0.6353,-0.3193,-0.4893,125.61,19.02,32.99
781,671578847,-0.6260,-0.3193,-0.4937,126.59,17.26,31.77
782,671583847,-0.6284,-0.3223,-0.4941,127.26,15.49,30.67
783,671589353,-0.6250,-0.3232,-0.4990,127.62,13.23,29.27
784,671593847,-0.6265,-0.3257,-0.4907,127.01,11.89,28.35
785,671598847,-0.6235,-0.3242,-0.4844,126.52,9.94,27.32
786,671603847,-0.6187,-0.3242,-0.4844,125.79,8.48,26.34
787,671608847,-0.6230,-0.3232,-0.4839,124.39,6.71,25.24
788,671613846,-0.6250,-0.3281,-0.4785,122.50,5.18,24.33
789,671619077,-0.6187,-0.3354,-0.4775,119.88,3.41,23.11
790,671623847,-0.6211,-0.3330,-0.4751,117.87,2.26,22.38
791,671628847,-0.6162,-0.3394,-0.4751,115.00,0.98,21.59
792,671633848,-0.6108,-0.3364,-0.4736,111.95,-0.37,20.73
793,671638847,-0.6064,-0.3423,-0.4717,108.54,-1.83,20.00
794,671643847,-0.6079,-0.3389,-0.4639,105.24,-3.11,19.09
795,671648847,-0.5928,-0.3394,-0.4619,101.59,-4.45,18.29
796,671653847,-0.5952,-0.3428,-0.4619,98.11,-5.79,17.56
797,671658847,-0.5942,-0.3359,-0.4580,94.33,-7.13,16.89
798,671663847,-0.6021,-0.3442,-0.4619,90.55,-8.35,16.10
799,671669300,-0.5952,-0.3423,-0.4629,85.85,-9.82,15.00
800,671673847,-0.5957,-0.3403,-0.4658,82.74,-10.61,14.51
801,671678847,-0.5972,-0.3477,-0.4668,77.80,-12.07,13.66
802,671683967,-0.5972,-0.3525,-0.4702,73.78,-13.23,12.93
803,671688847,-0.6108,-0.3516,-0.4634,69.57,-14.21,12.32
804,671694183,-0.6089,-0.3560,-0.4712,65.55,-15.18,11.59
805,671698847,-0.6206,-0.3584,-0.4692,61.59,-16.28,10.91
806,671703847,-0.6226,-0.3564,-0.4692,57.74,-17.38,10.24
807,671708846,-0.6250,-0.3618,-0.4688,54.09,-18.11,9.57
808,671713845,-0.6206,-0.3550,-0.4790,50.61,-19.09,8.90
809,671718847,-0.6240,-0.3579,-0.4795,47.26,-19.82,8.23
810,671723896,-0.6191,-0.3574,-0.4839,44.27,-20.61,7.56
811,671728847,-0.6152,-0.3633,-0.4790,41.46,-21.46,6.77
812,671733847,-0.6182,-0.3643,-0.4888,38.78,-22.38,6.16
813,671738847,-0.6230,-0.3652,-0.4912,36.28,-23.05,5.61
814,671743846,-0.6206,-0.3628,-0.4922,33.78,-23.84,4.82
815,671749234,-0.6245,-0.3677,-0.4956,31.59,-24.76,4.09
816,671753847,-0.6328,-0.3706,-0.4951,29.39,-25.61,3.48
817,671758847,-0.6250,-0.3696,-0.5020,27.26,-26.16,2.80
818,671763847,-0.6338,-0.3730,-0.5024,25.18,-26.65,2.20
819,671768845,-0.6289,-0.3750,-0.5073,23.11,-27.32,1.59
820,671773845,-0.6274,-0.3745,-0.5039,21.10,-27.80,0.98
821,671778845,-0.6299,-0.3760,-0.5029,19.27,-28.35,0.43
822,671784231,-0.6299,-0.3755,-0.5049,17.38,-28.66,-0.12
823,671788847,-0.6343,-0.3711,-0.5044,15.61,-29.27,-0.73
824,671793932,-0.6357,-0.3804,-0.5093,13.96,-29.51,-1.28
825,671798985,-0.6309,-0.3809,-0.5127,12.13,-29.82,-1.71
826,671803847,-0.6274,-0.3901,-0.5171,10.43,-29.94,-2.20
827,671808847,-0.6230,-0.3882,-0.5195,8.54,-30.24,-2.50
828,671813847,-0.6250,-0.3921,-0.5215,6.71,-30.37,-2.93
829,671818847,-0.6274,-0.3940,-0.5283,4.70,-30.67,-3.29
830,671823847,-0.6250,-0.3975,-0.5288,3.05,-30.79,-3.48
831,671829322,-0.6250,-0.3989,-0.5342,1.40,-30.85,-3.84
832,671833847,-0.6201,-0.3999,-0.5342,-0.06,-30.91,-4.21
833,671838847,-0.6182,-0.3979,-0.5439,-1.40,-30.91,-4.51
834,671843847,-0.6250,-0.4009,-0.5474,-2.56,-31.04,-4.70
835,671848847,-0.6216,-0.3931,-0.5581,-3.48,-31.16,-5.12
836,671854009,-0.6235,-0.3936,-0.5542,-4.09,-31.10,-5.49
837,671858847,-0.6274,-0.3950,-0.5522,-4.70,-31.10,-5.85
838,671863847,-0.6294,-0.3960,-0.5503,-5.18,-30.98,-6.28
839,671868847,-0.6309,-0.3916,-0.5542,-5.55,-30.79,-6.52
840,671873847,-0.6265,-0.3926,-0.5586,-5.98,-30.61,-7.01
841,671878847,-0.6289,-0.3936,-0.5576,-6.40,-30.49,-7.44
842,671883972,-0.6230,-0.3955,-0.5640,-6.89,-30.00,-7.87
843,671889258,-0.6245,-0.3979,-0.5571,-7.50,-29.63,-8.23
844,671893907,-0.6230,-0.4048,-0.5649,-8.17,-29.21,-8.48
845,671898847,-0.6172,-0.4058,-0.5664,-8.90,-28.84,-8.84
846,671903847,-0.6157,-0.4023,-0.5732,-9.88,-28.41,-9.15
847,671908847,-0.6147,-0.4077,-0.5718,-10.61,-27.99,-9.33
848,671913848,-0.6216,-0.4072,-0.5718,-11.59,-27.38,-9.51
849,671918847,-0.6206,-0.4043,-0.5776,-12.07,-27.07,-9.70
850,671923847,-0.6235,-0.4048,-0.5757,-12.74,-26.65,-9.76
851,671929297,-0.6216,-0.4067,-0.5786,-13.35,-26.16,-9.94
852,671934239,-0.6274,-0.4048,-0.5786,-13.90,-25.61,-10.12
853,671939347,-0.6250,-0.4102,-0.5830,-14.51,-24.94,-10.24
854,671943847,-0.6250,-0.4092,-0.5791,-14.94,-24.21,-10.37
855,671948847,-0.6265,-0.4106,-0.5713,-15.61,-23.66,-10.49
856,671953847,-0.6265,-0.4048,-0.5825,-16.04,-22.87,-10.67
857,671958847,-0.6289,-0.4077,-0.5771,-16.46,-22.13,-10.73
858,671963847,-0.6309,-0.4077,-0.5815,-16.77,-21.34,-10.85
859,671969228,-0.6265,-0.4082,-0.5825,-17.32,-20.55,-10.85
860,671973848,-0.6313,-0.4102,-0.5859,-17.80,-20.12,-11.04
861,671978845,-0.6270,-0.4067,-0.5898,-18.48,-19.39,-10.98
862,671983847,-0.6348,-0.4072,-0.5845,-19.02,-18.60,-11.10
863,671988847,-0.6299,-0.4053,-0.5898,-19.51,-18.23,-11.10
864,671994295,-0.6255,-0.4038,-0.5815,-19.70,-17.32,-11.16
865,671998847,-0.6235,-0.4019,-0.5859,-19.70,-16.95,-11.34
866,672003847,-0.6226,-0.3999,-0.5864,-19.57,-16.28,-11.28
867,672008848,-0.6250,-0.3994,-0.5854,-19.33,-15.67,-11.28
868,672013847,-0.6270,-0.3950,-0.5859,-18.96,-15.12,-11.22
869,672018896,-0.6284,-0.3936,-0.5830,-18.41,-14.57,-11.22
870,672023846,-0.6416,-0.3955,-0.5913,-17.93,-13.90,-11.34
871,672029154,-0.6357,-0.3960,-0.5894,-17.38,-13.41,-11.28
872,672033847,-0.6353,-0.3955,-0.5894,-16.71,-12.99,-11.22
873,672038847,-0.6440,-0.3940,-0.5840,-16.22,-12.26,-11.22
874,672043846,-0.6367,-0.3970,-0.5908,-15.61,-11.71,-11.10
875,672048847,-0.6421,-0.3960,-0.5820,-15.12,-11.22,-10.91
876,672053847,-0.6382,-0.3989,-0.5854,-14.51,-10.79,-10.79
877,672058846,-0.6318,-0.3975,-0.5835,-13.78,-10.06,-10.61
878,672063845,-0.6313,-0.3945,-0.5830,-13.23,-9.76,-10.30
879,672068845,-0.6270,-0.3936,-0.5771,-12.44,-9.39,-10.18
880,672073845,-0.6353,-0.3877,-0.5811,-11.83,-8.90,-9.82
881,672078845,-0.6304,-0.3877,-0.5767,-10.98,-8.35,-9.57
882,672083847,-0.6382,-0.3940,-0.5737,-10.55,-8.11,-9.27
883,672088847,-0.6313,-0.3916,-0.5737,-10.00,-7.56,-8.96
884,672093847,-0.6328,-0.3926,-0.5815,-9.63,-7.26,-8.72
885,672098847,-0.6299,-0.3882,-0.5762,-9.27,-6.65,-8.54
886,672103847,-0.6323,-0.3877,-0.5762,-8.84,-6.10,-8.05
887,672108847,-0.6313,-0.3872,-0.5737,-8.48,-5.85,-7.87
888,672113847,-0.6357,-0.3848,-0.5669,-8.23,-5.24,-7.62
889,672119349,-0.6294,-0.3779,-0.5693,-7.87,-4.57,-7.26
890,672123847,-0.6274,-0.3784,-0.5664,-7.62,-4.15,-7.07
891,672129006,-0.6396,-0.3774,-0.5645,-7.56,-3.54,-6.89
892,672134240,-0.6357,-0.3789,-0.5615,-7.38,-2.93,-6.52
893,672138847,-0.6401,-0.3823,-0.5635,-7.44,-2.56,-6.34
894,672143847,-0.6382,-0.3828,-0.5635,-7.32,-1.89,-5.98
895,672149172,-0.6460,-0.3823,-0.5620,-7.38,-1.22,-5.49
896,672153847,-0.6436,-0.3838,-0.5615,-7.38,-0.73,-5.12
897,672158846,-0.6440,-0.3862,-0.5649,-7.62,-0.24,-4.82
898,672163847,-0.6479,-0.3892,-0.5586,-7.68,0.30,-4.33
899,672168847,-0.6504,-0.3838,-0.5527,-7.80,0.85,-3.90
900,672173846,-0.6465,-0.3838,-0.5630,-7.68,1.40,-3.48
901,672178847,-0.6504,-0.3853,-0.5625,-7.62,1.89,-2.93
902,672183847,-0.6440,-0.3833,-0.5562,-7.38,2.44,-2.50
903,672189111,-0.6489,-0.3823,-0.5513,-6.95,2.99,-1.95
904,672193846,-0.6431,-0.3809,-0.5508,-6.65,3.35,-1.77
905,672198850,-0.6460,-0.3857,-0.5508,-6.04,3.90,-1.28
906,672203846,-0.6401,-0.3765,-0.5513,-5.30,4.33,-0.85
907,672208845,-0.6494,-0.3794,-0.5425,-4.63,4.63,-0.49
908,672213845,-0.6470,-0.3784,-0.5459,-4.02,5.18,-0.12
909,672218847,-0.6392,-0.3770,-0.5386,-3.11,5.55,0.18
910,672223847,-0.6406,-0.3745,-0.5381,-2.32,5.79,0.55
911,672229025,-0.6465,-0.3735,-0.5342,-1.46,6.28,0.91
912,672233847,-0.6479,-0.3755,-0.5303,-0.49,6.59,1.28
913,672239212,-0.6499,-0.3760,-0.5337,0.24,7.01,1.71
914,672243847,-0.6475,-0.3804,-0.5308,1.16,7.20,2.01
915,672248847,-0.6538,-0.3750,-0.5259,1.89,7.50,2.38
916,672253847,-0.6567,-0.3794,-0.5273,2.38,7.68,2.74
917,672259290,-0.6626,-0.3804,-0.5269,2.99,7.87,3.29
918,672263847,-0.6602,-0.3843,-0.5220,3.54,8.23,3.60
919,672268917,-0.6558,-0.3833,-0.5225,3.90,8.54,4.09
920,672273847,-0.6553,-0.3848,-0.5239,4.27,8.72,4.39
921,672278847,-0.6602,-0.3833,-0.5190,4.51,9.09,4.82
922,672283847,-0.6548,-0.3843,-0.5190,4.94,9.02,5.24
923,672288847,-0.6533,-0.3833,-0.5215,5.18,9.21,5.67
924,672293959,-0.6489,-0.3794,-0.5210,5.49,9.21,6.04
925,672298847,-0.6538,-0.3789,-0.5156,5.91,9.27,6.34
926,672303847,-0.6523,-0.3789,-0.5151,6.40,9.45,6.65
927,672308847,-0.6523,-0.3789,-0.5117,6.89,9.33,6.95
928,672313847,-0.6460,-0.3779,-0.5127,7.26,9.15,7.32
929,672318847,-0.6460,-0.3755,-0.5122,7.74,9.09,7.50
930,672324006,-0.6499,-0.3750,-0.5088,8.23,8.78,7.68
931,672328847,-0.6416,-0.3755,-0.5117,8.48,8.66,7.93
932,672333847,-0.6416,-0.3765,-0.5068,8.78,8.48,8.23
933,672338847,-0.6377,-0.3760,-0.5029,8.96,8.35,8.35
934,672343847,-0.6401,-0.3784,-0.5029,9.15,8.23,8.60
935,672348847,-0.6367,-0.3770,-0.5039,9.27,8.05,8.78
936,672353924,-0.6406,-0.3809,-0.5010,9.33,7.93,9.02
937,672358846,-0.6470,-0.3799,-0.5029,9.27,7.93,9.15
938,672363845,-0.6567,-0.3833,-0.5024,9.39,7.80,9.27
939,672368845,-0.6528,-0.3877,-0.5044,9.09,7.62,9.45
940,672373845,-0.6494,-0.3828,-0.5010,8.84,7.38,9.82
941,672378845,-0.6567,-0.3877,-0.5132,8.60,7.26,10.00
942,672383847,-0.6562,-0.3867,-0.5083,8.35,6.95,10.18
943,672389248,-0.6523,-0.3862,-0.5122,8.11,6.83,10.43
944,672393847,-0.6577,-0.3848,-0.5063,8.05,6.65,10.55
945,672399183,-0.6567,-0.3882,-0.5063,7.68,6.28,10.79
946,672403847,-0.6597,-0.3887,-0.5083,7.68,6.04,10.98
947,672408847,-0.6572,-0.3945,-0.5073,7.56,5.98,11.22
948,672413847,-0.6523,-0.3892,-0.5010,7.50,5.79,11.46
949,672418847,-0.6523,-0.3896,-0.5020,7.56,5.43,11.65
950,672423938,-0.6460,-0.3921,-0.4985,7.68,5.24,11.71
951,672428846,-0.6543,-0.3999,-0.4990,7.87,5.00,12.01
952,672433847,-0.6426,-0.3960,-0.4985,8.11,4.76,12.20
953,672438847,-0.6436,-0.3945,-0.5010,8.11,4.57,12.26
954,672444019,-0.6421,-0.3975,-0.5059,8.41,4.09,12.32
955,672448847,-0.6436,-0.3999,-0.5020,8.72,3.96,12.50
956,672453847,-0.6396,-0.3960,-0.5068,8.90,3.66,12.50
957,672458847,-0.6411,-0.4023,-0.5029,9.02,3.48,12.62
958,672463847,-0.6460,-0.4009,-0.5078,9.15,3.29,12.74
959,672469314,-0.6455,-0.4009,-0.5088,9.39,3.05,12.80
960,672473847,-0.6504,-0.4023,-0.5034,9.51,3.05,12.80
961,672478847,-0.6470,-0.3970,-0.5068,9.88,2.80,12.68
962,672483847,-0.6475,-0.4009,-0.4976,10.00,2.74,12.74
963,672488846,-0.6426,-0.3999,-0.4946,10.24,2.62,12.68
964,672493847,-0.6499,-0.4053,-0.5000,10.67,2.62,12.62
965,672498847,-0.6460,-0.4019,-0.4902,10.91,2.74,12.56
966,672503847,-0.6450,-0.3994,-0.4927,11.04,2.80,12.62
967,672508847,-0.6514,-0.4053,-0.4995,10.98,2.74,12.50
968,672513849,-0.6465,-0.4087,-0.4941,11.04,2.74,12.38
969,672518847,-0.6396,-0.4077,-0.4883,10.98,2.80,12.32
970,672523847,-0.6426,-0.4116,-0.4966,10.79,2.74,12.32
971,672528876,-0.6416,-0.4141,-0.4937,10.37,2.50,12.50
972,672533847,-0.6401,-0.4165,-0.4961,9.88,2.68,12.44
973,672538847,-0.6406,-0.4189,-0.4907,9.45,2.62,12.50
974,672543847,-0.6489,-0.4170,-0.4858,8.90,2.50,12.50
975,672548847,-0.6436,-0.4146,-0.4878,8.41,2.26,12.56
976,672553847,-0.6470,-0.4170,-0.4834,7.99,2.56,12.50
977,672558847,-0.6436,-0.4126,-0.4829,7.68,2.56,12.44
978,672563847,-0.6411,-0.4199,-0.4863,7.44,2.26,12.38
979,672568847,-0.6421,-0.4175,-0.4893,7.38,2.32,12.26
980,672573847,-0.6426,-0.4189,-0.4829,7.26,2.32,12.13
981,672578847,-0.6455,-0.4150,-0.4819,7.32,2.07,12.13
982,672583847,-0.6479,-0.4175,-0.4912,7.44,1.95,11.95
983,672588987,-0.6504,-0.4214,-0.4824,7.44,1.89,11.89
984,672593847,-0.6533,-0.4204,-0.4854,7.62,1.71,11.71
985,672598847,-0.6475,-0.4229,-0.4902,7.80,1.59,11.59
986,672603977,-0.6519,-0.4272,-0.4819,8.05,1.34,11.46
987,672608847,-0.6470,-0.4209,-0.4863,8.41,1.22,11.22
988,672613847,-0.6475,-0.4229,-0.4858,8.84,1.10,11.16
989,672619285,-0.6538,-0.4253,-0.4883,9.27,0.73,10.91
990,672623847,-0.6528,-0.4258,-0.4858,9.82,0.49,10.79
991,672628847,-0.6553,-0.4243,-0.4863,10.37,0.30,10.73
992,672633995,-0.6592,-0.4258,-0.4902,11.10,0.00,10.49
993,672638847,-0.6558,-0.4292,-0.4849,11.71,-0.30,10.43
994,672643847,-0.6553,-0.4263,-0.4844,12.32,-0.55,10.37
995,672648847,-0.6558,-0.4277,-0.4839,13.05,-0.79,10.12
996,672653848,-0.6533,-0.4253,-0.4883,13.66,-1.04,10.06
997,672658846,-0.6509,-0.4268,-0.4829,14.27,-1.28,9.88
998,672663847,-0.6582,-0.4253,-0.4849,14.88,-1.59,9.57
999,672669503,-0.6592,-0.4253,-0.4805,15.73,-1.77,9.27
1000,672673847,-0.6616,-0.4243,-0.4790,16.10,-2.01,9.15
1001,672678846,-0.6504,-0.4248,-0.4819,16.71,-2.13,8.90
1002,672683847,-0.6548,-0.4248,-0.4805,17.13,-2.56,8.66
1003,672688848,-0.6514,-0.4185,-0.4795,17.50,-2.80,8.41
1004,672693850,-0.6538,-0.4258,-0.4844,17.87,-3.11,7.99
1005,672698846,-0.6499,-0.4277,-0.4858,18.05,-3.23,7.74
1006,672703847,-0.6553,-0.4272,-0.4858,18.23,-3.60,7.50
1007,672708847,-0.6553,-0.4268,-0.4854,18.17,-3.84,7.38
1008,672713847,-0.6519,-0.4268,-0.4814,18.17,-4.15,7.13
1009,672718946,-0.6558,-0.4268,-0.4800,17.99,-4.33,6.77
1010,672723847,-0.6538,-0.4277,-0.4819,17.80,-4.57,6.52
1011,672728847,-0.6592,-0.4248,-0.4834,17.50,-4.94,6.40
1012,672733970,-0.6621,-0.4263,-0.4863,17.07,-5.12,6.10
1013,672738847,-0.6562,-0.4277,-0.4878,16.77,-5.24,5.79
1014,672743954,-0.6577,-0.4272,-0.4800,16.22,-5.43,5.61
1015,672748850,-0.6519,-0.4277,-0.4834,15.79,-5.73,5.37
1016,672753847,-0.6572,-0.4268,-0.4805,15.18,-5.91,5.12
1017,672759119,-0.6528,-0.4243,-0.4829,14.63,-6.16,4.94
1018,672763845,-0.6528,-0.4248,-0.4780,13.84,-6.22,4.51
1019,672768847,-0.6592,-0.4238,-0.4810,13.17,-6.34,4.09
1020,672773847,-0.6528,-0.4282,-0.4849,12.62,-6.40,3.90
1021,672778847,-0.6562,-0.4277,-0.4824,11.77,-6.65,3.60
1022,672783973,-0.6626,-0.4263,-0.4844,11.16,-6.65,3.29
1023,672788849,-0.6548,-0.4229,-0.4839,10.37,-6.77,2.99
1024,672793847,-0.6646,-0.4282,-0.4878,9.39,-7.01,2.68
1025,672798847,-0.6567,-0.4268,-0.4810,8.60,-7.26,2.44
1026,672803847,-0.6631,-0.4351,-0.4883,7.62,-7.38,2.26
1027,672808847,-0.6572,-0.4346,-0.4824,6.59,-7.68,2.01
1028,672813848,-0.6616,-0.4292,-0.4839,5.67,-7.68,1.77
1029,672818847,-0.6650,-0.4307,-0.4800,4.57,-7.87,1.59
1030,672823847,-0.6626,-0.4326,-0.4907,3.72,-8.11,1.40
1031,672828847,-0.6597,-0.4341,-0.4863,2.87,-8.23,1.22
1032,672833847,-0.6621,-0.4341,-0.4863,2.01,-8.29,1.04
1033,672838847,-0.6582,-0.4355,-0.4868,1.65,-8.29,0.79
1034,672843847,-0.6577,-0.4321,-0.4937,1.10,-8.54,0.55
1035,672848847,-0.6528,-0.4316,-0.4980,0.91,-8.66,0.43
1036,672853847,-0.6533,-0.4341,-0.4917,0.61,-8.72,0.18
1037,672858849,-0.6489,-0.4297,-0.4912,0.73,-8.84,0.00
1038,672863847,-0.6494,-0.4351,-0.5000,0.73,-9.02,-0.24
1039,672868847,-0.6567,-0.4321,-0.4976,1.04,-9.15,-0.37
1040,672873861,-0.6533,-0.4331,-0.5005,1.34,-9.21,-0.55
1041,672878847,-0.6548,-0.4351,-0.4937,1.71,-9.51,-0.79
1042,672883967,-0.6597,-0.4292,-0.5000,2.07,-9.39,-0.85
1043,672888846,-0.6509,-0.4268,-0.4976,2.56,-9.45,-1.16
1044,672893848,-0.6543,-0.4282,-0.4941,3.05,-9.45,-1.28
1045,672898847,-0.6567,-0.4346,-0.4995,3.35,-9.39,-1.46
1046,672903847,-0.6587,-0.4316,-0.4995,3.60,-9.45,-1.71
1047,672908847,-0.6616,-0.4341,-0.4995,3.96,-9.39,-1.83
1048,672913848,-0.6641,-0.4351,-0.5034,4.02,-9.39,-1.95
1049,672918847,-0.6543,-0.4316,-0.5039,4.09,-9.27,-2.01
1050,672923847,-0.6558,-0.4326,-0.5049,4.15,-9.02,-2.20
1051,672928847,-0.6582,-0.4346,-0.5034,4.21,-8.84,-2.38
1052,672933847,-0.6611,-0.4341,-0.5020,4.15,-8.84,-2.44
1053,672938847,-0.6577,-0.4336,-0.5020,4.21,-8.90,-2.74
1054,672943960,-0.6602,-0.4316,-0.5054,4.02,-8.72,-2.87
1055,672948847,-0.6528,-0.4336,-0.5044,4.09,-8.60,-3.11
1056,672953847,-0.6553,-0.4302,-0.4995,3.84,-8.60,-3.29
1057,672958847,-0.6494,-0.4297,-0.4980,3.78,-8.41,-3.60
1058,672963846,-0.6460,-0.4287,-0.5029,3.54,-8.29,-3.78
1059,672968849,-0.6528,-0.4297,-0.5000,3.35,-8.29,-3.96
1060,672974070,-0.6558,-0.4297,-0.4985,3.05,-8.35,-4.15
1061,672978847,-0.6577,-0.4297,-0.4980,2.87,-8.35,-4.45
1062,672983847,-0.6606,-0.4312,-0.5010,2.44,-8.23,-4.51
1063,672988847,-0.6558,-0.4302,-0.5020,2.01,-8.23,-4.82
1064,672993847,-0.6553,-0.4263,-0.5010,1.59,-8.11,-4.94
1065,672998847,-0.6558,-0.4243,-0.5039,1.22,-8.05,-5.12
1066,673003847,-0.6592,-0.4224,-0.5054,0.85,-7.87,-5.24
1067,673009148,-0.6650,-0.4229,-0.4985,0.30,-7.56,-5.43
1068,673013847,-0.6606,-0.4233,-0.4897,0.12,-7.44,-5.73
1069,673018975,-0.6665,-0.4233,-0.4937,-0.30,-7.26,-5.91
1070,673023847,-0.6572,-0.4204,-0.4912,-0.55,-7.01,-6.22
1071,673028847,-0.6577,-0.4175,-0.4854,-0.79,-6.77,-6.46
1072,673033847,-0.6558,-0.4194,-0.4937,-1.22,-6.52,-6.71
1073,673039179,-0.6562,-0.4170,-0.4858,-1.52,-6.40,-6.89
1074,673043847,-0.6660,-0.4214,-0.4897,-1.95,-6.22,-7.13
1075,673048847,-0.6558,-0.4170,-0.4868,-2.38,-6.04,-7.20
1076,673053846,-0.6650,-0.4199,-0.4883,-3.17,-5.98,-7.26
1077,673058847,-0.6611,-0.4224,-0.4863,-3.78,-5.85,-7.38
1078,673063976,-0.6621,-0.4248,-0.4863,-4.51,-5.91,-7.44
1079,673068847,-0.6562,-0.4219,-0.4932,-5.30,-6.10,-7.50
1080,673073847,-0.6514,-0.4224,-0.4917,-6.04,-6.16,-7.32
1081,673078847,-0.6470,-0.4214,-0.4922,-6.71,-6.04,-7.38
1082,673083847,-0.6484,-0.4180,-0.4902,-7.32,-6.28,-7.13
1083,673089055,-0.6499,-0.4209,-0.4805,-7.80,-6.40,-7.26
1084,673093846,-0.6543,-0.4160,-0.4839,-8.17,-6.40,-7.07
1085,673098845,-0.6631,-0.4185,-0.4810,-8.41,-6.52,-6.95
1086,673103847,-0.6626,-0.4185,-0.4805,-8.84,-6.65,-7.01
1087,673108847,-0.6660,-0.4160,-0.4873,-9.15,-6.52,-7.01
1088,673113957,-0.6602,-0.4204,-0.4912,-9.39,-6.65,-6.89
1089,673118848,-0.6665,-0.4185,-0.4844,-9.94,-6.71,-6.65
1090,673123847,-0.6680,-0.4229,-0.4858,-10.18,-6.59,-6.65
1091,673128847,-0.6768,-0.4258,-0.4888,-10.55,-6.46,-6.52
1092,673134341,-0.6763,-0.4229,-0.4912,-10.91,-6.46,-6.34
1093,673138847,-0.6724,-0.4233,-0.4888,-11.28,-6.46,-6.34
1094,673144008,-0.6782,-0.4292,-0.4941,-11.65,-6.34,-6.04
1095,673149279,-0.6699,-0.4287,-0.4941,-11.89,-6.34,-5.91
1096,673153847,-0.6699,-0.4360,-0.4980,-12.13,-6.34,-5.85
1097,673159150,-0.6631,-0.4287,-0.4976,-12.44,-6.22,-5.67
1098,673163847,-0.6602,-0.4297,-0.4917,-12.38,-6.28,-5.55
1099,673168850,-0.6602,-0.4346,-0.4946,-12.07,-6.40,-5.37
1100,673173847,-0.6533,-0.4316,-0.4951,-11.71,-6.34,-5.30
1101,673179338,-0.6543,-0.4277,-0.4941,-11.28,-6.04,-5.18
1102,673183847,-0.6514,-0.4292,-0.4868,-10.67,-5.98,-5.12
1103,673188847,-0.6509,-0.4253,-0.4897,-10.24,-5.79,-5.06
1104,673193846,-0.6445,-0.4316,-0.4932,-9.51,-5.67,-5.06
1105,673198849,-0.6489,-0.4302,-0.4854,-8.72,-5.43,-4.94
1106,673203847,-0.6436,-0.4287,-0.4829,-8.05,-5.12,-5.00
1107,673208847,-0.6455,-0.4277,-0.4858,-7.32,-4.94,-4.94
1108,673214017,-0.6460,-0.4316,-0.4814,-6.34,-4.57,-4.94
1109,673218847,-0.6484,-0.4312,-0.4888,-5.85,-4.51,-4.88
1110,673223847,-0.6582,-0.4297,-0.4844,-5.00,-4.09,-4.82
1111,673228847,-0.6533,-0.4312,-0.4858,-4.51,-3.84,-4.70
1112,673233847,-0.6626,-0.4351,-0.4810,-3.90,-3.60,-4.70
1113,673239182,-0.6558,-0.4360,-0.4829,-3.60,-3.35,-4.57
1114,673243847,-0.6650,-0.4360,-0.4795,-3.35,-3.11,-4.27
1115,673248847,-0.6582,-0.4395,-0.4819,-2.99,-3.11,-4.21
1116,673253847,-0.6660,-0.4355,-0.4814,-2.93,-3.05,-3.96
1117,673258847,-0.6582,-0.4385,-0.4829,-2.68,-2.87,-3.96
1118,673263847,-0.6646,-0.4385,-0.4878,-2.50,-2.99,-3.72
1119,673268935,-0.6670,-0.4370,-0.4819,-2.07,-2.93,-3.48
1120,673273846,-0.6675,-0.4385,-0.4785,-1.77,-2.87,-3.29
1121,673278845,-0.6646,-0.4312,-0.4766,-1.22,-2.93,-3.17
1122,673283849,-0.6646,-0.4316,-0.4746,-0.55,-2.93,-2.99
1123,673288847,-0.6704,-0.4316,-0.4717,0.12,-3.11,-2.87
1124,673294048,-0.6665,-0.4268,-0.4736,0.85,-2.99,-2.87
1125,673298847,-0.6709,-0.4243,-0.4678,1.71,-3.11,-2.87
1126,673303845,-0.6675,-0.4307,-0.4746,2.38,-3.05,-2.80
1127,673308847,-0.6680,-0.4292,-0.4727,3.05,-2.99,-2.87
1128,673313847,-0.6626,-0.4268,-0.4707,3.72,-3.05,-2.93
1129,673318850,-0.6650,-0.4248,-0.4658,4.33,-3.23,-2.99
1130,673323847,-0.6675,-0.4238,-0.4634,4.70,-3.05,-2.93
1131,673328847,-0.6655,-0.4287,-0.4595,5.06,-3.23,-3.05
1132,673333847,-0.6670,-0.4326,-0.4624,5.18,-3.35,-3.11
1133,673338847,-0.6636,-0.4277,-0.4629,5.18,-3.41,-2.99
1134,673343847,-0.6587,-0.4272,-0.4668,5.24,-3.72,-3.11
1135,673348847,-0.6621,-0.4331,-0.4609,5.24,-3.90,-3.05
1136,673353847,-0.6592,-0.4331,-0.4658,5.06,-4.15,-2.99
1137,673358847,-0.6621,-0.4336,-0.4736,5.00,-4.51,-2.99
1138,673363847,-0.6592,-0.4272,-0.4702,5.18,-4.88,-2.93
1139,673368847,-0.6577,-0.4282,-0.4697,5.43,-5.37,-2.87
1140,673373847,-0.6611,-0.4277,-0.4673,5.73,-5.73,-2.87
1141,673378890,-0.6611,-0.4253,-0.4614,6.16,-6.22,-2.87
1142,673383847,-0.6577,-0.4209,-0.4629,6.65,-6.65,-2.87
1143,673388845,-0.6567,-0.4175,-0.4629,7.32,-7.01,-3.17
1144,673393847,-0.6572,-0.4194,-0.4614,8.05,-7.50,-3.29
1145,673398847,-0.6572,-0.4141,-0.4595,8.66,-7.80,-3.35
1146,673403847,-0.6572,-0.4155,-0.4590,9.33,-7.99,-3.48
1147,673408847,-0.6567,-0.4136,-0.4629,9.88,-8.66,-3.66
1148,673413846,-0.6514,-0.4141,-0.4624,10.18,-8.90,-3.90
1149,673418847,-0.6606,-0.4136,-0.4600,10.43,-9.27,-4.02
1150,673423847,-0.6577,-0.4199,-0.4678,10.18,-9.70,-4.27
1151,673428847,-0.6562,-0.4175,-0.4609,9.88,-9.88,-4.27
1152,673433852,-0.6650,-0.4199,-0.4692,9.21,-10.24,-4.51
1153,673438858,-0.6660,-0.4175,-0.4727,8.48,-10.49,-4.57
1154,673443847,-0.6577,-0.4189,-0.4722,7.62,-10.79,-4.63
1155,673448997,-0.6626,-0.4175,-0.4741,6.83,-11.16,-4.88
1156,673453847,-0.6631,-0.4189,-0.4712,5.91,-11.34,-4.76
1157,673459030,-0.6631,-0.4170,-0.4741,5.00,-11.65,-4.82
1158,673464290,-0.6587,-0.4185,-0.4761,4.15,-11.83,-4.94
1159,673468847,-0.6636,-0.4150,-0.4751,3.35,-12.07,-5.12
1160,673473986,-0.6641,-0.4121,-0.4658,2.62,-12.13,-5.30
1161,673478847,-0.6675,-0.4097,-0.4727,2.01,-12.20,-5.37
1162,673483847,-0.6665,-0.4150,-0.4736,1.40,-12.38,-5.49
1163,673488847,-0.6714,-0.4092,-0.4839,0.61,-12.32,-5.79
1164,673493846,-0.6699,-0.4111,-0.4795,-0.12,-12.32,-5.91
1165,673498847,-0.6685,-0.4092,-0.4756,-0.55,-12.26,-6.10
1166,673503847,-0.6714,-0.4097,-0.4756,-1.22,-11.95,-6.28
1167,673508845,-0.6665,-0.4082,-0.4780,-1.83,-11.89,-6.52
1168,673514326,-0.6675,-0.4097,-0.4810,-2.50,-11.89,-6.71
1169,673519067,-0.6738,-0.4141,-0.4800,-2.93,-11.77,-6.83
1170,673523847,-0.6704,-0.4077,-0.4873,-3.41,-11.71,-6.89
1171,673528968,-0.6670,-0.4077,-0.4878,-3.96,-11.65,-7.01
1172,673534232,-0.6655,-0.4072,-0.4897,-4.63,-11.46,-7.26
1173,673538849,-0.6675,-0.4102,-0.4907,-5.30,-11.28,-7.32
1174,673543847,-0.6631,-0.4087,-0.4917,-5.85,-10.91,-7.26
1175,673548846,-0.6641,-0.4077,-0.4902,-6.52,-10.73,-7.38
1176,673553847,-0.6665,-0.4087,-0.4868,-7.13,-10.67,-7.44
1177,673558847,-0.6665,-0.4116,-0.4878,-7.74,-10.37,-7.44
1178,673563847,-0.6704,-0.4097,-0.4927,-8.29,-10.00,-7.50
1179,673568845,-0.6646,-0.4121,-0.4937,-8.84,-9.76,-7.50
1180,673573847,-0.6606,-0.4141,-0.4883,-9.39,-9.51,-7.44
1181,673578847,-0.6602,-0.4111,-0.4917,-9.70,-9.27,-7.38
1182,673583847,-0.6616,-0.4048,-0.4932,-9.94,-9.02,-7.32
1183,673588849,-0.6670,-0.4082,-0.4956,-10.24,-8.78,-7.20
1184,673593848,-0.6611,-0.4082,-0.4961,-10.49,-8.66,-7.20
1185,673598847,-0.6646,-0.4097,-0.5029,-10.49,-8.48,-6.89
1186,673603852,-0.6641,-0.4062,-0.5054,-10.49,-8.05,-6.89
1187,673608847,-0.6621,-0.4072,-0.4980,-10.49,-7.93,-6.83
1188,673613847,-0.6646,-0.4077,-0.5049,-10.18,-7.68,-6.77
1189,673618847,-0.6562,-0.4048,-0.5010,-10.00,-7.32,-6.65
1190,673623847,-0.6602,-0.4033,-0.5049,-9.57,-7.20,-6.46
1191,673628847,-0.6626,-0.4097,-0.5088,-9.15,-6.95,-6.40
1192,673633847,-0.6611,-0.4077,-0.5073,-8.84,-6.65,-6.22
1193,673638847,-0.6655,-0.4004,-0.5068,-8.54,-6.34,-6.04
1194,673643847,-0.6631,-0.4033,-0.5098,-8.11,-5.91,-5.91
1195,673648981,-0.6597,-0.4087,-0.5034,-7.74,-5.85,-5.67
1196,673653847,-0.6538,-0.4033,-0.5029,-7.32,-5.43,-5.49
1197,673658847,-0.6543,-0.4048,-0.5010,-7.01,-5.24,-5.24
1198,673663847,-0.6509,-0.4053,-0.5015,-6.77,-4.82,-5.12
1199,673668851,-0.6558,-0.4033,-0.5005,-6.65,-4.39,-4.70
1200,673673847,-0.6543,-0.4043,-0.4966,-6.59,-4.33,-4.45
1201,673678847,-0.6572,-0.4014,-0.5015,-6.59,-3.84,-4.27
1202,673683847,-0.6494,-0.4058,-0.4961,-6.40,-3.54,-3.78
1203,673688847,-0.6499,-0.4014,-0.4966,-6.46,-3.17,-3.54
1204,673693847,-0.6489,-0.4009,-0.4961,-6.65,-2.87,-3.23
1205,673698978,-0.6538,-0.4058,-0.4990,-6.71,-2.44,-2.87
1206,673704249,-0.6504,-0.4033,-0.4907,-6.95,-2.32,-2.50
1207,673708847,-0.6514,-0.4033,-0.4976,-7.01,-2.01,-2.26
1208,673713846,-0.6616,-0.4028,-0.5049,-7.07,-1.71,-1.95
1209,673718847,-0.6606,-0.4038,-0.4980,-7.20,-1.40,-1.65
1210,673723847,-0.6587,-0.4062,-0.5010,-7.07,-1.10,-1.22
1211,673728847,-0.6626,-0.4053,-0.5034,-7.07,-0.85,-0.85
1212,673733847,-0.6655,-0.4062,-0.4980,-6.95,-0.61,-0.55
1213,673739329,-0.6685,-0.4053,-0.5083,-6.71,-0.43,-0.06
1214,673743847,-0.6714,-0.4053,-0.5044,-6.52,-0.24,0.30
1215,673748849,-0.6626,-0.4019,-0.5039,-6.28,-0.06,0.55
1216,673753847,-0.6567,-0.3984,-0.4961,-6.04,0.18,1.04
1217,673758847,-0.6616,-0.4023,-0.4937,-5.49,0.49,1.40
1218,673764083,-0.6548,-0.4009,-0.5010,-5.00,0.79,1.77
1219,673768847,-0.6572,-0.3994,-0.4976,-4.57,1.10,2.13
1220,673773846,-0.6646,-0.4053,-0.4971,-4.02,1.10,2.50
1221,673778999,-0.6636,-0.4097,-0.4985,-3.48,1.52,3.11
1222,673783847,-0.6641,-0.4062,-0.5039,-3.11,1.52,3.29
1223,673788847,-0.6724,-0.4082,-0.5005,-2.56,1.83,3.90
1224,673793847,-0.6729,-0.4111,-0.4971,-2.01,1.71,4.15
1225,673798847,-0.6626,-0.4097,-0.5024,-1.46,2.07,4.51
1226,673803847,-0.6714,-0.4097,-0.5020,-0.79,1.95,5.00
1227,673808847,-0.6704,-0.4106,-0.5029,-0.30,2.01,5.30
1228,673813968,-0.6699,-0.4067,-0.4941,0.61,2.20,5.73
1229,673818848,-0.6680,-0.4097,-0.4971,1.04,2.13,6.16
1230,673823847,-0.6660,-0.4092,-0.4937,1.77,2.32,6.65
1231,673828847,-0.6699,-0.4072,-0.4966,2.44,2.26,6.95
1232,673833847,-0.6602,-0.4072,-0.4912,3.05,2.50,7.26
1233,673838847,-0.6606,-0.4077,-0.4902,3.60,2.50,7.56
1234,673843847,-0.6592,-0.4087,-0.4849,4.09,2.74,7.93
1235,673848962,-0.6548,-0.4092,-0.4897,4.63,2.99,8.23
1236,673853847,-0.6572,-0.4043,-0.4863,5.18,3.11,8.41
1237,673858846,-0.6602,-0.4077,-0.4868,5.55,3.29,8.78
1238,673863845,-0.6514,-0.4058,-0.4839,6.04,3.41,8.90
1239,673868845,-0.6553,-0.4121,-0.4780,6.34,3.54,9.21
1240,673873848,-0.6494,-0.4053,-0.4766,6.59,3.90,9.45
1241,673878847,-0.6582,-0.4121,-0.4829,6.77,3.90,9.63
1242,673883847,-0.6558,-0.4146,-0.4775,7.01,4.02,9.88
1243,673888847,-0.6587,-0.4141,-0.4761,6.95,4.21,10.06
1244,673893847,-0.6611,-0.4185,-0.4771,7.07,4.33,10.37
1245,673898847,-0.6592,-0.4146,-0.4790,7.01,4.57,10.61
1246,673903973,-0.6646,-0.4150,-0.4814,7.13,4.45,10.85
1247,673908847,-0.6655,-0.4209,-0.4761,7.13,4.45,11.10
1248,673913847,-0.6675,-0.4165,-0.4766,7.32,4.51,11.16
1249,673918849,-0.6665,-0.4121,-0.4814,7.50,4.51,11.40
1250,673923847,-0.6685,-0.4170,-0.4805,7.87,4.57,11.52
1251,673929021,-0.6699,-0.4121,-0.4858,8.29,4.63,11.59
1252,673934292,-0.6709,-0.4155,-0.4766,8.84,4.57,11.65
1253,673938847,-0.6694,-0.4189,-0.4746,9.27,4.63,11.65
1254,673943847,-0.6650,-0.4082,-0.4761,9.94,4.70,11.71
1255,673948847,-0.6685,-0.4136,-0.4810,10.49,4.70,11.77
1256,673953847,-0.6626,-0.4126,-0.4751,11.10,4.70,11.83
1257,673958847,-0.6685,-0.4131,-0.4771,11.77,4.57,11.77
1258,673963847,-0.6660,-0.4150,-0.4731,12.20,4.45,11.65
1259,673969030,-0.6675,-0.4126,-0.4727,12.80,4.51,11.71
1260,673973847,-0.6694,-0.4141,-0.4707,13.23,4.33,11.65
1261,673978993,-0.6665,-0.4116,-0.4790,13.60,4.33,11.65
1262,673983847,-0.6719,-0.4136,-0.4761,13.78,4.21,11.65
1263,673988971,-0.6689,-0.4136,-0.4736,13.96,4.02,11.65
1264,673994232,-0.6719,-0.4121,-0.4712,13.96,3.90,11.65
1265,673998847,-0.6719,-0.4121,-0.4756,13.90,3.54,11.65
1266,674003853,-0.6768,-0.4204,-0.4814,13.66,3.48,11.65
1267,674008848,-0.6709,-0.4146,-0.4702,13.60,3.29,11.65
1268,674013852,-0.6719,-0.4160,-0.4653,13.11,3.05,11.65
1269,674019044,-0.6738,-0.4170,-0.4707,12.74,2.87,11.83
1270,674023847,-0.6768,-0.4214,-0.4717,12.38,2.56,11.83
1271,674028847,-0.6758,-0.4180,-0.4722,11.89,2.38,11.89
1272,674033847,-0.6777,-0.4194,-0.4736,11.34,2.26,11.95
1273,674038847,-0.6753,-0.4199,-0.4692,10.79,2.13,11.89
1274,674043846,-0.6738,-0.4233,-0.4707,10.30,2.01,12.01
1275,674048847,-0.6685,-0.4189,-0.4824,9.76,1.83,11.95
1276,674054026,-0.6758,-0.4204,-0.4692,9.45,1.71,12.20
1277,674058847,-0.6694,-0.4229,-0.4683,9.21,1.71,12.20
1278,674064009,-0.6689,-0.4238,-0.4692,8.84,1.71,12.26
1279,674069266,-0.6641,-0.4204,-0.4692,8.54,1.59,12.32
1280,674073847,-0.6650,-0.4253,-0.4692,8.54,1.52,12.26
1281,674078971,-0.6616,-0.4268,-0.4727,8.35,1.34,12.32
1282,674083847,-0.6655,-0.4238,-0.4736,8.41,1.28,12.44
1283,674088966,-0.6646,-0.4263,-0.4741,8.48,1.22,12.50
1284,674094172,-0.6626,-0.4287,-0.4736,8.60,0.98,12.56
1285,674098847,-0.6670,-0.4316,-0.4785,8.90,0.73,12.50
1286,674103963,-0.6602,-0.4336,-0.4805,9.33,0.55,12.56
1287,674108847,-0.6626,-0.4312,-0.4766,9.51,0.43,12.56
1288,674113847,-0.6592,-0.4292,-0.4824,10.12,0.24,12.62
1289,674118847,-0.6567,-0.4302,-0.4810,10.67,0.06,12.56
1290,674124276,-0.6577,-0.4282,-0.4839,11.52,-0.12,12.62
1291,674128847,-0.6587,-0.4287,-0.4858,12.13,-0.30,12.56
1292,674133847,-0.6548,-0.4282,-0.4834,12.80,-0.55,12.50
1293,674138964,-0.6626,-0.4326,-0.4829,13.72,-0.73,12.44
1294,674143847,-0.6558,-0.4297,-0.4844,14.51,-0.85,12.32
1295,674149000,-0.6621,-0.4287,-0.4854,15.37,-0.73,12.07
1296,674153847,-0.6694,-0.4292,-0.4902,16.16,-0.91,11.95
1297,674158864,-0.6714,-0.4302,-0.4878,16.89,-0.79,11.77
1298,674163846,-0.6729,-0.4238,-0.4849,17.62,-0.61,11.52
1299,674168845,-0.6689,-0.4224,-0.4839,18.11,-0.61,11.34
1300,674173845,-0.6768,-0.4258,-0.4834,18.60,-0.49,11.04
1301,674178845,-0.6787,-0.4258,-0.4854,18.72,-0.24,10.85
1302,674183847,-0.6733,-0.4214,-0.4844,18.78,-0.18,10.61
1303,674188847,-0.6826,-0.4224,-0.4819,18.72,0.24,10.30
1304,674193846,-0.6797,-0.4248,-0.4878,18.54,0.30,10.18
1305,674198852,-0.6704,-0.4248,-0.4824,17.93,0.61,9.76
1306,674203959,-0.6787,-0.4272,-0.4878,17.26,0.79,9.51
1307,674208847,-0.6919,-0.4302,-0.4829,16.28,1.40,9.33
1308,674213848,-0.6846,-0.4248,-0.4829,15.37,1.46,9.09
1309,674218847,-0.6855,-0.4243,-0.4810,14.21,1.77,8.90
1310,674223846,-0.6841,-0.4248,-0.4839,12.99,2.38,8.72
1311,674228847,-0.6836,-0.4312,-0.4766,11.65,2.56,8.48
1312,674233847,-0.6792,-0.4253,-0.4775,10.18,2.99,8.23
1313,674239015,-0.6870,-0.4272,-0.4766,8.41,3.35,7.93
1314,674243847,-0.6792,-0.4258,-0.4741,7.26,3.66,7.74
1315,674249009,-0.6772,-0.4272,-0.4766,5.49,4.09,7.44
1316,674253847,-0.6787,-0.4277,-0.4746,4.45,4.39,7.38
1317,674258847,-0.6724,-0.4272,-0.4727,2.99,4.70,7.07
1318,674263847,-0.6816,-0.4321,-0.4756,1.52,5.06,6.95
1319,674268847,-0.6704,-0.4312,-0.4692,0.30,5.30,6.77
1320,674274205,-0.6724,-0.4326,-0.4736,-1.10,5.79,6.40
1321,674278847,-0.6738,-0.4292,-0.4727,-1.95,5.98,6.28
1322,674283969,-0.6777,-0.4302,-0.4727,-2.99,6.40,5.98
1323,674288847,-0.6792,-0.4312,-0.4697,-3.66,6.52,5.79
1324,674293991,-0.6758,-0.4268,-0.4761,-4.27,6.95,5.67
1325,674298847,-0.6782,-0.4277,-0.4683,-4.76,7.01,5.55
1326,674303847,-0.6738,-0.4316,-0.4658,-5.18,7.13,5.37
1327,674308847,-0.6797,-0.4297,-0.4673,-5.43,7.20,5.18
1328,674313847,-0.6709,-0.4355,-0.4648,-5.49,7.44,5.18
1329,674318859,-0.6714,-0.4331,-0.4688,-5.49,7.26,5.12
1330,674323847,-0.6724,-0.4287,-0.4590,-5.49,7.26,5.06
1331,674329021,-0.6699,-0.4331,-0.4575,-5.43,7.38,4.94
1332,674333847,-0.6743,-0.4390,-0.4556,-5.43,7.38,5.06
1333,674338847,-0.6787,-0.4331,-0.4590,-5.06,7.13,5.00
1334,674343979,-0.6772,-0.4307,-0.4595,-4.70,7.07,5.00
1335,674348847,-0.6753,-0.4307,-0.4570,-4.45,6.95,5.00
1336,674354000,-0.6753,-0.4336,-0.4517,-3.90,6.95,5.00
1337,674358847,-0.6748,-0.4277,-0.4556,-3.41,6.89,5.00
1338,674363847,-0.6733,-0.4331,-0.4580,-2.93,6.65,5.06
1339,674368847,-0.6743,-0.4307,-0.4512,-2.38,6.65,5.18
1340,674373970,-0.6729,-0.4302,-0.4478,-1.83,6.52,5.06
1341,674378847,-0.6729,-0.4272,-0.4492,-1.28,6.40,5.30
1342,674383848,-0.6738,-0.4321,-0.4502,-0.85,6.22,5.30
1343,674389289,-0.6777,-0.4307,-0.4512,-0.37,5.91,5.30
1344,674393847,-0.6826,-0.4297,-0.4458,0.00,5.91,5.43
1345,674398847,-0.6792,-0.4282,-0.4468,0.43,5.49,5.55
1346,674403848,-0.6846,-0.4341,-0.4487,0.85,5.18,5.61
1347,674408974,-0.6782,-0.4326,-0.4478,1.52,5.06,5.79
1348,674413847,-0.6836,-0.4365,-0.4482,1.89,4.57,5.85
1349,674418847,-0.6753,-0.4312,-0.4458,2.50,4.39,6.04
1350,674423847,-0.6733,-0.4321,-0.4409,3.11,4.09,6.16
1351,674428847,-0.6719,-0.4326,-0.4453,3.66,3.72,6.22
1352,674434001,-0.6675,-0.4346,-0.4395,4.21,3.17,6.16
1353,674439352,-0.6733,-0.4321,-0.4399,5.00,2.80,6.40
1354,674444056,-0.6670,-0.4272,-0.4385,5.73,2.32,6.52
1355,674449301,-0.6699,-0.4312,-0.4429,6.34,1.95,6.59
1356,674453847,-0.6729,-0.4297,-0.4438,7.07,1.40,6.65
1357,674458846,-0.6816,-0.4326,-0.4414,7.74,0.98,6.65
1358,674463845,-0.6851,-0.4297,-0.4478,8.41,0.55,6.65
1359,674468845,-0.6812,-0.4268,-0.4453,8.96,0.12,6.65
1360,674473845,-0.6841,-0.4282,-0.4478,9.57,-0.24,6.52
1361,674478845,-0.6807,-0.4268,-0.4434,9.94,-0.91,6.40
1362,674483847,-0.6919,-0.4282,-0.4487,10.43,-1.16,6.22
1363,674488847,-0.6851,-0.4233,-0.4438,10.85,-1.52,6.10
1364,674493847,-0.6768,-0.4238,-0.4404,11.34,-2.13,5.91
1365,674498996,-0.6831,-0.4214,-0.4404,11.83,-2.56,5.79
1366,674503847,-0.6772,-0.4263,-0.4370,12.07,-2.87,5.55
1367,674508847,-0.6743,-0.4214,-0.4409,12.38,-3.11,5.37
1368,674513846,-0.6748,-0.4214,-0.4365,12.74,-3.54,5.12
1369,674518847,-0.6733,-0.4199,-0.4380,12.99,-3.90,4.82
1370,674523846,-0.6709,-0.4209,-0.4414,13.23,-4.33,4.70
1371,674528848,-0.6719,-0.4214,-0.4404,13.41,-4.63,4.45
1372,674533847,-0.6733,-0.4233,-0.4458,13.35,-5.00,4.21
1373,674538847,-0.6729,-0.4229,-0.4360,13.29,-5.24,3.96
1374,674543847,-0.6733,-0.4224,-0.4468,13.05,-5.55,3.84
1375,674548847,-0.6729,-0.4229,-0.4395,12.74,-5.67,3.60
1376,674553849,-0.6763,-0.4194,-0.4312,12.50,-5.98,3.29
1377,674558846,-0.6777,-0.4185,-0.4365,12.13,-6.16,2.99
1378,674563847,-0.6733,-0.4160,-0.4375,11.46,-6.16,2.80
1379,674568847,-0.6748,-0.4150,-0.4399,10.91,-6.40,2.44
1380,674574013,-0.6821,-0.4175,-0.4414,10.30,-6.59,2.20
1381,674578847,-0.6812,-0.4146,-0.4424,9.39,-6.77,1.89
1382,674583976,-0.6919,-0.4204,-0.4448,8.72,-6.77,1.59
1383,674588847,-0.6875,-0.4165,-0.4399,7.80,-6.95,1.34
1384,674593847,-0.6851,-0.4141,-0.4443,6.83,-6.95,1.04
1385,674598847,-0.6851,-0.4160,-0.4380,5.49,-7.13,0.73
1386,674603847,-0.6851,-0.4170,-0.4399,4.63,-7.13,0.55
1387,674608847,-0.6899,-0.4170,-0.4414,3.54,-7.26,0.30
1388,674613847,-0.6943,-0.4180,-0.4424,2.50,-7.38,0.06
1389,674619117,-0.6934,-0.4204,-0.4448,1.52,-7.50,-0.18
1390,674623847,-0.6851,-0.4189,-0.4443,0.61,-7.74,-0.37
1391,674628847,-0.6826,-0.4180,-0.4463,-0.06,-7.99,-0.55
1392,674633847,-0.6855,-0.4194,-0.4492,-0.85,-8.17,-0.73
1393,674638849,-0.6924,-0.4194,-0.4536,-1.34,-8.41,-0.98
1394,674643846,-0.6948,-0.4229,-0.4517,-1.71,-8.72,-1.10
1395,674649025,-0.6880,-0.4224,-0.4531,-2.01,-9.21,-1.34
1396,674653847,-0.6885,-0.4199,-0.4556,-2.13,-9.45,-1.52
1397,674659000,-0.6899,-0.4229,-0.4619,-2.01,-9.88,-1.71
1398,674663847,-0.6890,-0.4258,-0.4556,-1.95,-10.24,-1.83
1399,674668847,-0.6846,-0.4199,-0.4580,-1.71,-10.55,-1.95
1400,674673847,-0.6772,-0.4189,-0.4561,-1.28,-10.85,-2.13
1401,674679398,-0.6826,-0.4233,-0.4619,-0.79,-11.10,-2.32
1402,674683848,-0.6855,-0.4185,-0.4604,-0.24,-11.52,-2.50
1403,674688849,-0.6787,-0.4199,-0.4629,0.43,-11.71,-2.56
1404,674694305,-0.6758,-0.4194,-0.4619,1.22,-12.01,-2.74
1405,674698847,-0.6724,-0.4160,-0.4639,1.77,-12.26,-2.87
1406,674703970,-0.6772,-0.4180,-0.4688,2.50,-12.50,-2.87
1407,674708847,-0.6792,-0.4238,-0.4644,3.05,-12.56,-2.99
1408,674713930,-0.6753,-0.4189,-0.4692,3.48,-12.93,-3.11
1409,674718846,-0.6694,-0.4160,-0.4658,3.84,-13.17,-3.11
1410,674723847,-0.6689,-0.4165,-0.4697,4.27,-13.35,-3.17
1411,674728981,-0.6699,-0.4160,-0.4712,4.63,-13.48,-3.29
1412,674733848,-0.6699,-0.4224,-0.4741,4.82,-13.78,-3.17
1413,674738846,-0.6782,-0.4185,-0.4766,4.94,-13.96,-3.23
1414,674743847,-0.6680,-0.4121,-0.4790,5.06,-14.09,-3.23
1415,674748847,-0.6748,-0.4219,-0.4775,4.88,-14.39,-3.29
1416,674753847,-0.6719,-0.4204,-0.4844,4.63,-14.51,-3.23
1417,674758847,-0.6641,-0.4175,-0.4878,4.33,-14.76,-3.23
1418,674763847,-0.6641,-0.4180,-0.4863,3.96,-14.82,-3.35
1419,674768845,-0.6685,-0.4146,-0.4927,3.48,-15.00,-3.41
1420,674773848,-0.6680,-0.4170,-0.4927,2.68,-15.12,-3.35
1421,674778846,-0.6626,-0.4189,-0.4893,2.01,-15.06,-3.35
1422,674783847,-0.6709,-0.4170,-0.4902,1.10,-15.06,-3.54
1423,674788847,-0.6699,-0.4146,-0.4932,0.12,-15.12,-3.54
1424,674793845,-0.6660,-0.4136,-0.4878,-1.16,-14.82,-3.48
1425,674799295,-0.6714,-0.4194,-0.4941,-2.56,-14.57,-3.72
1426,674803847,-0.6768,-0.4180,-0.4946,-3.54,-14.39,-3.78
1427,674808846,-0.6738,-0.4194,-0.4937,-4.70,-14.15,-3.84
1428,674813847,-0.6768,-0.4180,-0.5044,-6.34,-13.72,-3.90
1429,674818847,-0.6748,-0.4224,-0.4985,-7.74,-13.29,-4.02
1430,674823855,-0.6704,-0.4194,-0.4971,-9.21,-12.74,-4.09
1431,674829009,-0.6714,-0.4214,-0.5005,-10.67,-12.26,-4.15
1432,674833847,-0.6709,-0.4214,-0.5005,-11.95,-11.59,-4.21
1433,674838847,-0.6748,-0.4253,-0.5059,-13.29,-10.91,-4.09
1434,674843847,-0.6836,-0.4263,-0.5083,-14.39,-10.43,-4.09
1435,674848850,-0.6787,-0.4287,-0.5044,-15.49,-9.82,-4.09
1436,674853846,-0.6758,-0.4238,-0.5044,-16.52,-9.21,-4.15
1437,674858888,-0.6758,-0.4243,-0.4985,-17.13,-8.41,-4.09
1438,674863846,-0.6768,-0.4253,-0.5000,-17.74,-7.50,-4.02
1439,674868847,-0.6792,-0.4248,-0.5000,-17.99,-6.83,-4.15
1440,674873847,-0.6831,-0.4287,-0.4932,-18.05,-5.91,-4.09
1441,674878847,-0.6870,-0.4272,-0.5005,-18.17,-5.12,-4.15
1442,674883848,-0.6875,-0.4263,-0.5024,-18.11,-4.39,-4.02
1443,674888847,-0.6919,-0.4292,-0.5000,-17.87,-3.48,-3.96
1444,674893847,-0.6919,-0.4238,-0.4985,-17.68,-2.74,-4.02
1445,674898847,-0.6885,-0.4243,-0.5010,-17.44,-1.95,-3.96
1446,674903847,-0.7007,-0.4253,-0.5029,-17.07,-1.40,-3.78
1447,674909024,-0.6899,-0.4282,-0.5000,-16.65,-0.79,-3.72
1448,674913847,-0.6895,-0.4233,-0.4971,-16.16,-0.18,-3.66
1449,674918847,-0.6890,-0.4292,-0.4956,-15.55,0.37,-3.60
1450,674923847,-0.6821,-0.4297,-0.5020,-14.70,0.85,-3.35
1451,674928847,-0.6826,-0.4336,-0.4976,-14.02,1.22,-3.17
1452,674933847,-0.6826,-0.4297,-0.4961,-13.11,1.52,-3.11
1453,674938847,-0.6797,-0.4302,-0.4956,-12.13,1.83,-3.05
1454,674943847,-0.6841,-0.4297,-0.4927,-10.91,2.13,-2.87
1455,674948847,-0.6787,-0.4233,-0.4907,-9.70,2.38,-2.80
1456,674954020,-0.6841,-0.4229,-0.4932,-8.29,2.50,-2.68
1457,674958848,-0.6753,-0.4238,-0.4932,-6.89,2.74,-2.62
1458,674963848,-0.6831,-0.4175,-0.4878,-5.49,2.80,-2.50
1459,674968847,-0.6802,-0.4209,-0.4844,-4.02,3.05,-2.50
1460,674973956,-0.6738,-0.4155,-0.4902,-2.80,2.99,-2.44
1461,674978847,-0.6719,-0.4175,-0.4795,-1.59,3.05,-2.38
1462,674983957,-0.6729,-0.4175,-0.4780,-0.61,2.99,-2.26
1463,674988847,-0.6704,-0.4141,-0.4775,0.18,3.17,-2.13
1464,674993847,-0.6777,-0.4150,-0.4829,0.85,3.11,-2.07
1465,674998946,-0.6758,-0.4136,-0.4741,1.16,3.11,-1.89
1466,675003847,-0.6733,-0.4087,-0.4805,1.34,2.99,-1.83
1467,675008990,-0.6724,-0.4126,-0.4756,1.40,2.87,-1.71
1468,675013847,-0.6758,-0.4146,-0.4736,1.22,2.80,-1.59
1469,675018847,-0.6787,-0.4165,-0.4702,0.85,2.74,-1.40
1470,675023847,-0.6719,-0.4141,-0.4658,0.24,2.56,-1.22
1471,675028847,-0.6685,-0.4150,-0.4683,-0.43,2.50,-0.98
1472,675033846,-0.6665,-0.4189,-0.4634,-1.22,2.26,-0.73
1473,675038847,-0.6680,-0.4189,-0.4653,-2.13,2.32,-0.49
1474,675043847,-0.6670,-0.4165,-0.4629,-3.17,2.07,-0.18
1475,675048847,-0.6680,-0.4194,-0.4663,-4.02,1.95,0.12
1476,675053847,-0.6680,-0.4219,-0.4624,-4.76,1.89,0.43
1477,675058846,-0.6597,-0.4180,-0.4551,-5.49,1.83,0.67
1478,675063847,-0.6636,-0.4199,-0.4595,-6.16,1.71,0.91
1479,675068847,-0.6694,-0.4233,-0.4609,-6.59,1.77,1.16
1480,675073845,-0.6733,-0.4199,-0.4600,-6.77,1.77,1.52
1481,675078849,-0.6636,-0.4219,-0.4575,-6.52,1.71,1.71
1482,675083846,-0.6665,-0.4219,-0.4634,-6.34,1.59,1.95
1483,675088847,-0.6733,-0.4243,-0.4600,-5.67,1.71,2.13
1484,675093848,-0.6763,-0.4248,-0.4507,-4.82,1.65,2.32
1485,675098847,-0.6758,-0.4224,-0.4619,-3.78,1.65,2.50
1486,675103983,-0.6777,-0.4204,-0.4624,-2.56,1.46,2.50
1487,675108847,-0.6851,-0.4224,-0.4600,-1.16,1.52,2.50
1488,675114282,-0.6846,-0.4146,-0.4580,0.43,1.46,2.56
1489,675118848,-0.6909,-0.4136,-0.4624,1.65,1.34,2.50
1490,675123847,-0.7002,-0.4199,-0.4697,2.99,1.16,2.44
1491,675128846,-0.6938,-0.4189,-0.4702,4.39,1.10,2.38
1492,675133847,-0.7002,-0.4136,-0.4697,5.85,0.73,2.26
1493,675139236,-0.6934,-0.4150,-0.4644,7.26,0.67,2.13
1494,675143847,-0.6909,-0.4165,-0.4600,8.35,0.61,1.95
1495,675148849,-0.6982,-0.4141,-0.4673,9.33,0.49,1.77
1496,675153847,-0.6982,-0.4111,-0.4580,10.06,0.30,1.65
1497,675158847,-0.6987,-0.4126,-0.4624,10.73,0.30,1.28
1498,675163847,-0.6973,-0.4131,-0.4595,11.28,0.00,1.10
1499,675169140,-0.6963,-0.4141,-0.4600,11.46,-0.24,0.85
1500,675173847,-0.6899,-0.4106,-0.4531,11.46,-0.24,0.67
1501,675178847,-0.6934,-0.4111,-0.4600,11.34,-0.43,0.49
1502,675183848,-0.6934,-0.4146,-0.4502,10.98,-0.67,0.30
1503,675188847,-0.6831,-0.4175,-0.4482,10.43,-0.85,0.12
1504,675194307,-0.6812,-0.4126,-0.4531,9.39,-1.04,0.12
1505,675198849,-0.6797,-0.4146,-0.4502,8.78,-1.10,-0.12
1506,675204175,-0.6763,-0.4170,-0.4443,7.50,-1.46,-0.30
1507,675208847,-0.6807,-0.4116,-0.4487,6.59,-1.22,-0.43
1508,675214181,-0.6772,-0.4141,-0.4463,5.43,-1.40,-0.49
1509,675218847,-0.6719,-0.4072,-0.4429,4.70,-1.46,-0.67
1510,675223849,-0.6772,-0.4087,-0.4507,3.72,-1.40,-0.91
1511,675228847,-0.6768,-0.4097,-0.4434,3.11,-1.71,-1.10
1512,675233846,-0.6792,-0.4106,-0.4482,2.20,-1.83,-1.34
1513,675239217,-0.6738,-0.4067,-0.4507,1.65,-2.01,-1.52
1514,675243847,-0.6787,-0.4087,-0.4497,1.40,-2.07,-1.71
1515,675248846,-0.6738,-0.4082,-0.4492,1.10,-2.20,-1.89
1516,675253847,-0.6802,-0.4023,-0.4497,1.04,-2.44,-2.13
1517,675258848,-0.6807,-0.4038,-0.4507,1.10,-2.56,-2.26
1518,675263847,-0.6748,-0.4014,-0.4541,1.22,-2.74,-2.50
1519,675269016,-0.6792,-0.4043,-0.4438,1.52,-3.11,-2.62
1520,675273847,-0.6841,-0.4038,-0.4492,1.77,-3.29,-2.80
1521,675278847,-0.6777,-0.4009,-0.4414,2.01,-3.60,-2.93
1522,675283847,-0.6797,-0.4014,-0.4487,2.38,-3.78,-3.05
1523,675288849,-0.6846,-0.4033,-0.4463,2.68,-4.09,-3.23
1524,675293846,-0.6777,-0.4004,-0.4556,2.93,-4.39,-3.29
1525,675298847,-0.6855,-0.4028,-0.4585,3.29,-4.88,-3.29
1526,675303846,-0.6812,-0.4023,-0.4575,3.35,-5.06,-3.35
1527,675308847,-0.6816,-0.4038,-0.4546,3.66,-5.61,-3.54
1528,675313847,-0.6777,-0.3989,-0.4585,3.78,-6.10,-3.48
1529,675318847,-0.6797,-0.3994,-0.4590,3.78,-6.52,-3.54
1530,675323849,-0.6816,-0.3999,-0.4536,3.90,-6.83,-3.54
1531,675329371,-0.6729,-0.3936,-0.4604,3.72,-7.07,-3.72
1532,675333846,-0.6890,-0.3965,-0.4624,3.54,-7.44,-3.78
1533,675338847,-0.6860,-0.3945,-0.4585,3.29,-7.74,-3.78
1534,675343847,-0.6738,-0.3896,-0.4561,3.11,-8.05,-3.78
1535,675348847,-0.6826,-0.3921,-0.4565,2.80,-8.35,-3.84
1536,675353845,-0.6841,-0.3911,-0.4629,2.38,-8.48,-4.09
1537,675358845,-0.6758,-0.3911,-0.4634,1.77,-8.72,-4.09
1538,675363845,-0.6758,-0.3892,-0.4604,1.28,-8.96,-4.15
1539,675368845,-0.6719,-0.3901,-0.4575,0.43,-9.02,-4.21
1540,675373848,-0.6807,-0.3955,-0.4619,-0.24,-9.15,-4.15
1541,675378846,-0.6846,-0.4014,-0.4634,-0.98,-9.21,-4.15
1542,675383847,-0.6724,-0.3931,-0.4595,-2.07,-9.21,-4.21
1543,675388847,-0.6719,-0.3916,-0.4707,-2.99,-9.33,-4.15
1544,675393847,-0.6689,-0.3901,-0.4609,-3.84,-9.45,-4.09
1545,675399429,-0.6777,-0.3965,-0.4658,-4.88,-9.09,-4.09
1546,675403847,-0.6714,-0.3945,-0.4673,-5.67,-9.09,-4.02
1547,675408847,-0.6699,-0.3921,-0.4639,-6.46,-8.90,-3.96
1548,675413846,-0.6738,-0.3975,-0.4678,-7.26,-8.78,-3.84
1549,675418848,-0.6729,-0.3940,-0.4727,-7.93,-8.66,-3.78
1550,675423847,-0.6753,-0.3926,-0.4712,-8.35,-8.41,-3.72
1551,675428847,-0.6816,-0.3979,-0.4683,-9.09,-8.17,-3.54
1552,675434205,-0.6831,-0.3994,-0.4751,-9.63,-7.93,-3.60
1553,675438964,-0.6748,-0.3926,-0.4849,-10.30,-7.74,-3.29
1554,675443847,-0.6782,-0.3965,-0.4775,-10.73,-7.50,-3.11
1555,675448846,-0.6846,-0.3984,-0.4780,-10.98,-7.20,-2.99
1556,675453849,-0.6870,-0.3984,-0.4858,-11.46,-7.01,-2.87
1557,675458848,-0.6802,-0.3970,-0.4800,-11.52,-6.77,-2.74
1558,675463847,-0.6841,-0.3960,-0.4824,-11.71,-6.52,-2.56
1559,675468847,-0.6919,-0.3979,-0.4800,-11.77,-6.34,-2.44
1560,675473894,-0.6899,-0.3984,-0.4868,-11.77,-6.10,-2.32
1561,675478846,-0.6919,-0.3994,-0.4819,-11.59,-5.79,-2.13
1562,675483847,-0.6880,-0.3984,-0.4824,-11.34,-5.43,-2.01
1563,675488848,-0.6841,-0.3970,-0.4878,-11.04,-5.12,-2.01
1564,675493847,-0.6797,-0.3984,-0.4849,-10.55,-4.82,-1.71
1565,675498847,-0.6768,-0.3955,-0.4868,-10.18,-4.63,-1.59
1566,675503846,-0.6782,-0.3921,-0.4888,-9.63,-4.33,-1.34
1567,675508847,-0.6792,-0.3975,-0.4849,-9.27,-4.02,-1.10
1568,675514021,-0.6763,-0.4009,-0.4863,-8.72,-3.78,-0.91
1569,675519477,-0.6704,-0.3955,-0.4863,-7.87,-3.35,-0.67
1570,675523847,-0.6685,-0.3989,-0.4849,-7.56,-3.23,-0.43
1571,675528847,-0.6675,-0.3989,-0.4819,-6.95,-2.99,-0.24
1572,675533848,-0.6680,-0.3965,-0.4800,-6.46,-2.80,0.00
1573,675538849,-0.6680,-0.3989,-0.4751,-5.91,-2.68,0.30
1574,675543850,-0.6719,-0.3984,-0.4858,-5.43,-2.44,0.55
1575,675548847,-0.6772,-0.3975,-0.4814,-4.76,-2.32,0.91
1576,675554235,-0.6733,-0.4033,-0.4858,-4.09,-2.07,1.16
1577,675558847,-0.6641,-0.3979,-0.4805,-3.54,-2.13,1.46
1578,675563846,-0.6660,-0.3999,-0.4907,-2.93,-2.01,1.83
1579,675568847,-0.6670,-0.3979,-0.4912,-2.26,-1.95,2.01
1580,675573847,-0.6709,-0.3999,-0.4878,-1.59,-1.77,2.44
1581,675579336,-0.6694,-0.3984,-0.4810,-0.85,-1.83,2.74
1582,675583847,-0.6704,-0.3989,-0.4858,-0.24,-1.83,2.87
1583,675588847,-0.6680,-0.3965,-0.4771,0.55,-2.01,3.29
1584,675593847,-0.6689,-0.3945,-0.4849,1.16,-2.01,3.60
1585,675598847,-0.6729,-0.4004,-0.4873,1.83,-1.95,3.84
1586,675603847,-0.6738,-0.3975,-0.4844,2.44,-1.89,4.09
1587,675608847,-0.6758,-0.3975,-0.4829,3.11,-1.95,4.39
1588,675613847,-0.6807,-0.3999,-0.4907,3.60,-1.83,4.70
1589,675618846,-0.6704,-0.3999,-0.4849,3.96,-1.95,5.00
1590,675623847,-0.6719,-0.4023,-0.4839,4.45,-1.89,5.24
1591,675628847,-0.6704,-0.4014,-0.4829,4.63,-2.01,5.55
1592,675633848,-0.6626,-0.3994,-0.4868,5.06,-2.07,5.91
1593,675638847,-0.6689,-0.4019,-0.4878,5.37,-2.07,6.04
1594,675643847,-0.6685,-0.3989,-0.4883,5.73,-2.26,6.34
1595,675649343,-0.6733,-0.4067,-0.4946,6.04,-2.32,6.59
1596,675653847,-0.6772,-0.4062,-0.4868,6.22,-2.38,6.83
1597,675658847,-0.6802,-0.4014,-0.4893,6.34,-2.44,6.95
1598,675663845,-0.6753,-0.4053,-0.4897,6.46,-2.44,7.13
1599,675668846,-0.6714,-0.4023,-0.4873,6.65,-2.50,7.26
1600,675673849,-0.6743,-0.4087,-0.4883,6.89,-2.44,7.32
1601,675678846,-0.6704,-0.4053,-0.4897,7.07,-2.56,7.38
1602,675683847,-0.6753,-0.4067,-0.4868,7.13,-2.62,7.44
1603,675688846,-0.6782,-0.4048,-0.4868,7.32,-2.50,7.56
1604,675693847,-0.6792,-0.4038,-0.4941,7.26,-2.62,7.56
1605,675699357,-0.6772,-0.4058,-0.4932,7.50,-2.38,7.68
1606,675703847,-0.6738,-0.4062,-0.4907,7.50,-2.50,7.56
1607,675709053,-0.6743,-0.4067,-0.4927,7.62,-2.20,7.62
1608,675713847,-0.6729,-0.4087,-0.4932,7.74,-2.13,7.68
1609,675718848,-0.6680,-0.4106,-0.4888,7.74,-2.01,7.62
1610,675723847,-0.6602,-0.4097,-0.4878,7.93,-1.95,7.56
1611,675728998,-0.6670,-0.4106,-0.4927,7.93,-1.89,7.56
1612,675734164,-0.6636,-0.4126,-0.4888,7.93,-1.65,7.56
1613,675738847,-0.6699,-0.4077,-0.4893,7.87,-1.52,7.50
1614,675743847,-0.6782,-0.4155,-0.4971,7.80,-1.59,7.56
1615,675748882,-0.6802,-0.4131,-0.4946,7.80,-1.40,7.44
1616,675753847,-0.6772,-0.4116,-0.4976,7.87,-1.10,7.38
1617,675758847,-0.6831,-0.4121,-0.4937,7.80,-0.98,7.32
1618,675763847,-0.6855,-0.4116,-0.4932,7.80,-0.91,7.13
1619,675769150,-0.6899,-0.4106,-0.4990,7.80,-0.67,7.13
1620,675773847,-0.6934,-0.4150,-0.5005,7.93,-0.43,7.07
1621,675778849,-0.6846,-0.4116,-0.4937,7.93,-0.18,6.89
1622,675783847,-0.6831,-0.4121,-0.4897,7.93,-0.06,6.71
1623,675788847,-0.6934,-0.4126,-0.4893,7.87,0.30,6.52
1624,675794309,-0.6831,-0.4067,-0.4917,7.87,0.55,6.46
1625,675798847,-0.6841,-0.4106,-0.4883,7.87,0.79,6.34
1626,675803847,-0.6934,-0.4165,-0.4907,7.62,1.10,6.10
1627,675808847,-0.6777,-0.4106,-0.4834,7.44,1.40,5.91
1628,675813847,-0.6733,-0.4082,-0.4902,7.07,1.46,5.85
1629,675818848,-0.6753,-0.4121,-0.4868,6.83,1.65,5.79
1630,675823847,-0.6753,-0.4141,-0.4824,6.52,1.71,5.73
1631,675828846,-0.6787,-0.4165,-0.4868,6.10,2.01,5.61
1632,675833847,-0.6772,-0.4126,-0.4907,5.67,2.01,5.55
1633,675838890,-0.6768,-0.4121,-0.4878,5.18,2.20,5.61
1634,675844329,-0.6738,-0.4136,-0.4824,4.88,2.32,5.43
1635,675848847,-0.6748,-0.4141,-0.4771,4.51,2.38,5.30
1636,675853847,-0.6709,-0.4111,-0.4800,4.39,2.74,5.30
1637,675858847,-0.6729,-0.4092,-0.4736,4.33,2.74,5.06
1638,675863846,-0.6719,-0.4097,-0.4790,4.21,2.68,5.06
1639,675868847,-0.6763,-0.4092,-0.4707,4.15,3.05,4.94
1640,675873848,-0.6855,-0.4116,-0.4780,4.21,2.93,4.82
1641,675878849,-0.6846,-0.4097,-0.4775,4.27,3.11,4.70
1642,675883847,-0.6826,-0.4092,-0.4814,4.39,3.05,4.57
1643,675888847,-0.6787,-0.4077,-0.4731,4.33,3.23,4.51
1644,675893847,-0.6846,-0.4072,-0.4717,4.51,3.23,4.45
1645,675898847,-0.6851,-0.4067,-0.4692,4.57,3.17,4.39
1646,675904171,-0.6890,-0.4062,-0.4766,4.51,3.17,4.27
1647,675909338,-0.6846,-0.4072,-0.4712,4.45,3.11,4.21
1648,675913847,-0.6895,-0.4062,-0.4688,4.33,2.80,4.09
1649,675918879,-0.6787,-0.4009,-0.4663,4.21,2.93,4.15
1650,675924247,-0.6851,-0.4028,-0.4653,3.84,2.87,4.21
1651,675928847,-0.6870,-0.4082,-0.4663,3.72,2.74,4.09
1652,675933847,-0.6938,-0.4053,-0.4668,3.54,2.56,4.02
1653,675938847,-0.6934,-0.4111,-0.4663,3.11,2.38,3.96
1654,675943847,-0.6880,-0.4087,-0.4639,2.74,2.26,4.02
1655,675948847,-0.6851,-0.4087,-0.4629,2.50,2.20,3.96
1656,675953847,-0.6816,-0.4058,-0.4600,2.13,1.89,3.78
1657,675958846,-0.6782,-0.4062,-0.4663,1.95,1.89,3.96
1658,675963845,-0.6826,-0.4033,-0.4565,1.59,1.77,3.84
1659,675968847,-0.6777,-0.4062,-0.4600,1.52,1.65,3.90
1660,675973845,-0.6821,-0.4043,-0.4580,1.46,1.59,3.90
1661,675978846,-0.6797,-0.4043,-0.4634,1.34,1.52,3.90
1662,675983850,-0.6821,-0.4014,-0.4609,1.40,1.28,3.84
1663,675988849,-0.6851,-0.4048,-0.4561,1.52,0.98,3.84
1664,675993850,-0.6865,-0.4058,-0.4609,1.52,0.98,3.78
1665,675998846,-0.6797,-0.4048,-0.4648,1.77,0.85,3.84
1666,676003847,-0.6865,-0.4062,-0.4590,1.83,0.61,3.84
1667,676009043,-0.6899,-0.4058,-0.4526,2.01,0.61,3.84
1668,676013847,-0.6934,-0.4062,-0.4531,2.13,0.37,3.90
1669,676018847,-0.6821,-0.4033,-0.4546,2.20,0.37,3.84
1670,676023847,-0.6807,-0.4014,-0.4580,2.20,0.30,3.78
1671,676028847,-0.6831,-0.4062,-0.4604,2.20,0.12,3.90
1672,676033847,-0.6851,-0.4033,-0.4590,2.20,0.06,3.84
1673,676038846,-0.6875,-0.4092,-0.4634,2.26,0.12,3.84
1674,676043847,-0.6899,-0.4067,-0.4629,2.07,0.12,3.84
1675,676048847,-0.6855,-0.4116,-0.4580,1.89,0.18,3.78
1676,676053847,-0.6821,-0.4058,-0.4600,1.77,0.24,3.90
1677,676058847,-0.6836,-0.4062,-0.4580,1.77,0.18,3.90
1678,676063847,-0.6836,-0.4077,-0.4590,1.65,0.18,3.84
1679,676068905,-0.6816,-0.4097,-0.4639,1.77,0.00,3.90
1680,676073845,-0.6870,-0.4062,-0.4678,1.83,0.12,4.02
1681,676078847,-0.6846,-0.4106,-0.4648,1.89,0.00,3.96
1682,676083847,-0.6865,-0.4048,-0.4648,2.13,-0.06,3.96
1683,676089299,-0.6880,-0.4097,-0.4634,2.50,-0.24,3.90
1684,676093847,-0.6855,-0.4062,-0.4624,2.80,-0.43,3.90
1685,676098846,-0.6797,-0.4072,-0.4673,3.29,-0.30,3.90
1686,676103847,-0.6841,-0.4014,-0.4595,3.60,-0.55,3.78
1687,676108846,-0.6797,-0.4033,-0.4678,3.96,-0.73,3.72
1688,676113847,-0.6899,-0.4072,-0.4644,4.45,-0.73,3.72
1689,676119219,-0.6812,-0.4058,-0.4644,4.82,-0.85,3.66
1690,676123847,-0.6807,-0.4038,-0.4639,4.94,-0.79,3.60
1691,676128847,-0.6851,-0.4028,-0.4673,5.12,-0.98,3.66
1692,676133847,-0.6846,-0.4053,-0.4629,5.18,-1.04,3.54
1693,676138846,-0.6851,-0.4072,-0.4668,5.06,-1.16,3.66
1694,676143847,-0.6909,-0.4077,-0.4600,4.82,-1.10,3.54
1695,676148847,-0.6904,-0.4053,-0.4570,4.63,-1.16,3.54
1696,676154089,-0.6875,-0.4077,-0.4619,4.15,-1.28,3.54
1697,676158846,-0.6797,-0.4053,-0.4634,3.78,-1.34,3.66
1698,676163847,-0.6826,-0.4058,-0.4556,3.48,-1.34,3.60
1699,676168847,-0.6821,-0.4062,-0.4634,3.11,-1.34,3.60
1700,676173847,-0.6782,-0.4072,-0.4575,2.68,-1.52,3.60
1701,676178846,-0.6836,-0.4058,-0.4585,2.38,-1.59,3.60
1702,676183847,-0.6865,-0.4106,-0.4668,2.07,-1.83,3.54
1703,676188846,-0.6885,-0.4097,-0.4634,1.89,-1.71,3.60
1704,676193847,-0.6890,-0.4116,-0.4688,1.71,-1.77,3.60
1705,676198847,-0.6699,-0.4053,-0.4673,1.71,-1.89,3.60
1706,676203847,-0.6782,-0.4106,-0.4639,1.83,-2.07,3.60
1707,676208847,-0.6753,-0.4106,-0.4634,2.13,-2.01,3.54
1708,676213847,-0.6812,-0.4136,-0.4663,2.32,-2.20,3.54
1709,676218847,-0.6812,-0.4106,-0.4619,2.50,-2.20,3.60
1710,676223847,-0.6860,-0.4136,-0.4629,3.05,-2.38,3.41
1711,676228847,-0.6802,-0.4131,-0.4604,3.48,-2.44,3.54
1712,676233847,-0.6821,-0.4146,-0.4644,3.96,-2.80,3.60
1713,676238847,-0.6841,-0.4082,-0.4663,4.45,-2.56,3.35
1714,676243847,-0.6924,-0.4141,-0.4712,5.00,-2.80,3.54
1715,676248846,-0.6821,-0.4111,-0.4683,5.30,-2.87,3.41
1716,676253847,-0.6787,-0.4102,-0.4683,5.67,-2.93,3.41
1717,676258846,-0.6821,-0.4087,-0.4648,5.98,-3.05,3.29
1718,676263847,-0.6875,-0.4116,-0.4648,6.28,-3.23,3.29
1719,676268847,-0.6875,-0.4131,-0.4692,6.59,-3.17,3.23
1720,676273847,-0.6807,-0.4116,-0.4707,6.59,-3.35,3.17
1721,676278847,-0.6792,-0.4092,-0.4678,6.71,-3.35,3.05
1722,676283847,-0.6846,-0.4092,-0.4722,6.77,-3.60,2.87
1723,676288947,-0.6851,-0.4097,-0.4717,6.77,-3.66,2.80
1724,676293847,-0.6768,-0.4082,-0.4668,6.59,-3.66,2.74
1725,676298847,-0.6719,-0.4102,-0.4653,6.52,-3.90,2.56
1726,676304286,-0.6709,-0.4043,-0.4731,6.34,-3.96,2.44
1727,676308847,-0.6753,-0.4058,-0.4717,5.98,-4.15,2.26
1728,676313909,-0.6768,-0.4077,-0.4712,5.85,-4.02,2.20
1729,676318846,-0.6875,-0.4116,-0.4746,5.61,-4.21,1.95
1730,676323845,-0.6880,-0.4092,-0.4692,5.18,-4.27,1.89
1731,676328847,-0.6851,-0.4092,-0.4790,4.82,-4.39,1.65
1732,676333847,-0.6865,-0.4087,-0.4697,4.33,-4.57,1.52
1733,676338846,-0.6802,-0.4092,-0.4746,4.02,-4.39,1.40
1734,676343847,-0.6807,-0.4053,-0.4702,3.66,-4.45,1.28
1735,676348846,-0.6738,-0.4087,-0.4731,3.35,-4.39,1.10
1736,676353847,-0.6699,-0.4097,-0.4678,3.11,-4.39,0.98
1737,676358847,-0.6787,-0.4092,-0.4717,2.74,-4.33,0.79
1738,676363847,-0.6875,-0.4102,-0.4717,2.44,-4.02,0.67
1739,676368847,-0.6797,-0.4087,-0.4771,2.07,-4.09,0.43
1740,676374053,-0.6855,-0.4077,-0.4722,1.77,-3.90,0.37
1741,676378847,-0.6909,-0.4102,-0.4790,1.40,-3.84,0.24
1742,676383847,-0.6953,-0.4102,-0.4731,1.10,-3.60,0.12
1743,676388847,-0.6953,-0.4106,-0.4795,0.91,-3.66,0.00
1744,676393914,-0.6978,-0.4111,-0.4819,0.67,-3.41,-0.12
1745,676398846,-0.7007,-0.4062,-0.4780,0.43,-3.11,-0.30
1746,676403847,-0.6938,-0.4048,-0.4775,0.30,-3.17,-0.37
1747,676408846,-0.6909,-0.4048,-0.4839,0.18,-3.11,-0.43
1748,676413849,-0.6904,-0.4023,-0.4819,0.18,-2.93,-0.55
1749,676418847,-0.6875,-0.4038,-0.4731,0.18,-2.80,-0.73
1750,676423847,-0.6821,-0.4019,-0.4810,0.06,-2.44,-0.67
1751,676428847,-0.6860,-0.4014,-0.4756,0.18,-2.44,-0.73
1752,676433846,-0.6851,-0.4053,-0.4785,0.06,-2.32,-0.85
1753,676439100,-0.6865,-0.4053,-0.4736,0.06,-2.07,-0.79
1754,676443847,-0.6836,-0.4048,-0.4775,-0.12,-2.01,-0.73
1755,676448846,-0.6816,-0.4043,-0.4741,-0.30,-1.89,-0.73
1756,676453847,-0.6831,-0.4062,-0.4771,-0.30,-1.89,-0.61
1757,676458847,-0.6826,-0.4082,-0.4751,-0.30,-1.89,-0.67
1758,676463847,-0.6714,-0.4062,-0.4771,-0.43,-1.95,-0.55
1759,676468847,-0.6719,-0.4087,-0.4766,-0.49,-1.89,-0.49
1760,676473848,-0.6758,-0.4062,-0.4775,-0.43,-1.95,-0.30
1761,676479345,-0.6772,-0.4028,-0.4756,-0.37,-1.89,-0.12
1762,676483847,-0.6738,-0.4048,-0.4775,-0.24,-2.07,-0.12
1763,676488847,-0.6724,-0.4038,-0.4766,0.00,-2.13,-0.06
1764,676493847,-0.6719,-0.4067,-0.4678,0.37,-2.32,0.12
1765,676499171,-0.6733,-0.4033,-0.4722,0.85,-2.20,0.24
1766,676503847,-0.6724,-0.4033,-0.4751,1.28,-2.32,0.37
1767,676508847,-0.6655,-0.4004,-0.4790,1.83,-2.26,0.49
1768,676513847,-0.6777,-0.4019,-0.4727,2.38,-2.32,0.49
1769,676518847,-0.6675,-0.3975,-0.4751,2.80,-2.20,0.61
1770,676524266,-0.6636,-0.3960,-0.4688,3.23,-2.26,0.67
1771,676528847,-0.6675,-0.3975,-0.4736,3.72,-2.26,0.67
1772,676533847,-0.6753,-0.4009,-0.4756,4.09,-2.32,0.79
1773,676538847,-0.6826,-0.4033,-0.4697,4.51,-2.38,0.98
1774,676543847,-0.6831,-0.3994,-0.4717,4.70,-2.26,0.98
1775,676548849,-0.6870,-0.3984,-0.4751,4.94,-2.20,1.04
1776,676553847,-0.6904,-0.4009,-0.4688,5.12,-2.26,1.04
1777,676558846,-0.6870,-0.3994,-0.4731,5.06,-2.20,1.28
1778,676563845,-0.6846,-0.3955,-0.4731,5.06,-2.01,1.16
1779,676568847,-0.6846,-0.3945,-0.4766,4.94,-2.01,1.28
1780,676573847,-0.6777,-0.3960,-0.4746,4.88,-2.07,1.40
1781,676578846,-0.6836,-0.3994,-0.4741,4.63,-1.95,1.46
1782,676583847,-0.6880,-0.3975,-0.4692,4.51,-1.89,1.40
1783,676588932,-0.6870,-0.3979,-0.4727,4.33,-1.95,1.46
1784,676593848,-0.6807,-0.3931,-0.4741,4.09,-1.89,1.46
1785,676599099,-0.6787,-0.3931,-0.4717,3.96,-1.77,1.59
1786,676603847,-0.6812,-0.3921,-0.4741,3.60,-1.83,1.59
1787,676608847,-0.6890,-0.3970,-0.4756,3.41,-1.83,1.52
1788,676613845,-0.6753,-0.3931,-0.4692,3.23,-1.77,1.46
1789,676618845,-0.6738,-0.3911,-0.4717,3.23,-1.71,1.59
1790,676623845,-0.6812,-0.3965,-0.4673,3.05,-1.77,1.59
1791,676628849,-0.6929,-0.3960,-0.4731,2.87,-1.89,1.59
1792,676633846,-0.6885,-0.3945,-0.4800,2.68,-1.83,1.52
1793,676639108,-0.6929,-0.3936,-0.4771,2.56,-1.83,1.65
1794,676643847,-0.6846,-0.3960,-0.4663,2.32,-1.83,1.52
1795,676648848,-0.6812,-0.3931,-0.4736,2.13,-1.83,1.59
1796,676653849,-0.6787,-0.3921,-0.4766,1.83,-1.71,1.65
1797,676658847,-0.6826,-0.3901,-0.4756,1.40,-1.71,1.71
1798,676663847,-0.6919,-0.3984,-0.4717,1.04,-1.77,1.77
1799,676669142,-0.6890,-0.3960,-0.4712,0.85,-1.71,1.83
1800,676673847,-0.6919,-0.3979,-0.4707,0.73,-1.59,1.89
1801,676678988,-0.6812,-0.3936,-0.4648,0.24,-1.46,1.89
1802,676683846,-0.6753,-0.3931,-0.4712,0.06,-1.52,1.95
1803,676688847,-0.6753,-0.3892,-0.4673,-0.06,-1.34,2.13
1804,676693847,-0.6748,-0.3936,-0.4668,-0.18,-1.40,2.13
1805,676698847,-0.6860,-0.3970,-0.4648,-0.37,-1.22,2.13
1806,676703847,-0.6836,-0.3999,-0.4697,-0.37,-1.34,2.26
1807,676708847,-0.6787,-0.3965,-0.4678,-0.49,-1.22,2.44
1808,676713847,-0.6724,-0.3931,-0.4683,-0.30,-1.16,2.38
1809,676718847,-0.6758,-0.3936,-0.4707,-0.12,-1.10,2.44
1810,676724183,-0.6812,-0.3970,-0.4731,0.06,-1.10,2.38
1811,676728847,-0.6851,-0.3979,-0.4692,0.18,-1.10,2.62
1812,676734133,-0.6768,-0.3921,-0.4727,0.61,-1.04,2.62
1813,676738847,-0.6968,-0.3970,-0.4707,0.73,-0.91,2.74
1814,676743847,-0.6870,-0.3926,-0.4678,0.98,-0.98,2.93
1815,676748847,-0.6733,-0.3936,-0.4683,1.28,-0.79,2.93
1816,676753847,-0.6870,-0.3970,-0.4639,1.52,-0.73,3.11
1817,676758847,-0.6943,-0.3989,-0.4629,1.83,-0.79,3.05
1818,676763847,-0.6895,-0.3960,-0.4717,2.01,-0.85,3.35
1819,676768885,-0.6826,-0.3979,-0.4678,2.26,-0.91,3.48
1820,676773847,-0.6914,-0.3999,-0.4717,2.44,-0.91,3.66
1821,676778846,-0.6938,-0.3984,-0.4727,2.44,-0.98,3.72
1822,676783847,-0.6748,-0.3975,-0.4722,2.68,-0.91,3.84
1823,676788846,-0.6938,-0.3984,-0.4653,2.80,-0.85,3.90
1824,676793847,-0.6787,-0.3970,-0.4702,3.05,-0.91,4.09
1825,676798847,-0.6914,-0.4019,-0.4712,3.11,-1.04,4.09
1826,676803847,-0.6885,-0.4038,-0.4707,3.05,-1.16,4.27
1827,676808945,-0.6919,-0.4062,-0.4658,3.05,-1.04,4.39
1828,676813849,-0.6885,-0.3979,-0.4648,3.17,-1.16,4.45
1829,676818847,-0.6724,-0.4038,-0.4673,3.11,-1.16,4.51
1830,676823847,-0.6714,-0.3984,-0.4648,3.05,-1.10,4.57
1831,676828847,-0.6831,-0.4053,-0.4727,3.11,-1.22,4.76
1832,676833847,-0.6787,-0.4004,-0.4678,2.99,-1.34,4.88
1833,676838847,-0.6763,-0.4028,-0.4712,2.99,-1.28,4.94
1834,676843849,-0.6826,-0.3965,-0.4712,2.99,-1.22,5.00
1835,676848847,-0.6855,-0.3984,-0.4683,3.11,-1.22,5.12
1836,676853847,-0.6865,-0.4038,-0.4697,3.23,-1.22,5.12
1837,676858847,-0.6899,-0.4048,-0.4736,3.29,-1.22,5.24
1838,676863847,-0.6851,-0.4072,-0.4736,3.48,-1.40,5.24
1839,676868847,-0.6865,-0.4062,-0.4814,3.78,-1.46,5.30
1840,676873847,-0.6787,-0.4038,-0.4800,3.90,-1.46,5.30
1841,676878847,-0.6758,-0.4028,-0.4800,3.96,-1.52,5.43
1842,676883847,-0.6787,-0.4048,-0.4819,4.15,-1.59,5.49
1843,676889482,-0.6758,-0.4067,-0.4751,4.21,-1.71,5.49
1844,676893848,-0.6831,-0.4092,-0.4756,4.27,-1.77,5.61
1845,676898847,-0.6846,-0.4043,-0.4751,4.21,-1.83,5.61
1846,676903846,-0.6807,-0.4087,-0.4741,4.15,-1.89,5.73
1847,676909101,-0.6816,-0.4111,-0.4814,4.15,-2.01,5.73
1848,676913847,-0.6841,-0.4092,-0.4780,4.02,-1.95,5.67
1849,676918847,-0.6753,-0.4111,-0.4731,3.90,-2.01,5.73
1850,676923847,-0.6846,-0.4155,-0.4800,3.84,-2.07,5.73
1851,676928847,-0.6787,-0.4077,-0.4785,3.84,-2.07,5.79
1852,676934116,-0.6816,-0.4087,-0.4810,3.84,-2.01,5.79
1853,676938847,-0.6841,-0.4141,-0.4819,3.66,-2.01,5.79
1854,676944199,-0.6797,-0.4131,-0.4829,3.72,-1.95,5.85
1855,676948847,-0.6792,-0.4150,-0.4844,3.60,-1.83,5.79
1856,676954261,-0.6831,-0.4189,-0.4854,3.48,-1.77,5.79
1857,676958847,-0.6772,-0.4116,-0.4839,3.48,-1.71,5.73
1858,676963847,-0.6743,-0.4155,-0.4795,3.41,-1.52,5.55
1859,676968848,-0.6777,-0.4165,-0.4844,3.29,-1.28,5.61
1860,676973847,-0.6802,-0.4180,-0.4844,3.29,-0.85,5.43
1861,676978849,-0.6855,-0.4199,-0.4863,3.35,-0.73,5.43
1862,676983847,-0.6816,-0.4214,-0.4854,3.23,-0.55,5.30
1863,676988847,-0.6812,-0.4209,-0.4854,3.23,-0.43,5.24
1864,676993847,-0.6821,-0.4204,-0.4849,3.23,-0.12,5.18
1865,676999007,-0.6841,-0.4204,-0.4922,3.17,0.12,5.12
1866,677003847,-0.6851,-0.4214,-0.4902,3.29,0.30,5.00
1867,677008847,-0.6851,-0.4219,-0.4893,3.29,0.49,4.88
1868,677013847,-0.6919,-0.4219,-0.4917,3.23,0.91,4.76
1869,677019604,-0.6973,-0.4243,-0.4932,3.17,0.98,4.70
1870,677023848,-0.7026,-0.4224,-0.4883,3.05,1.16,4.57
1871,677028847,-0.6978,-0.4219,-0.4946,3.11,1.52,4.45
1872,677033847,-0.6929,-0.4185,-0.4927,2.99,1.89,4.39
1873,677039188,-0.6938,-0.4189,-0.4897,3.23,2.13,4.09
1874,677043847,-0.6963,-0.4209,-0.4873,3.29,2.38,4.09
1875,677049054,-0.6948,-0.4229,-0.4863,3.54,2.56,3.96
1876,677053847,-0.6958,-0.4199,-0.4810,3.66,2.80,3.78
1877,677059180,-0.6865,-0.4229,-0.4795,3.90,3.11,3.60
1878,677063848,-0.6782,-0.4229,-0.4746,4.15,3.29,3.60
1879,677068847,-0.6816,-0.4209,-0.4785,4.21,3.54,3.35
1880,677073847,-0.6851,-0.4185,-0.4775,4.33,3.60,3.23
1881,677078847,-0.6807,-0.4204,-0.4771,4.33,3.84,3.29
1882,677083846,-0.6792,-0.4219,-0.4746,4.70,4.09,2.99
1883,677088847,-0.6831,-0.4185,-0.4771,4.57,4.09,2.99
1884,677093870,-0.6821,-0.4189,-0.4810,4.57,4.27,2.99
1885,677098847,-0.6826,-0.4150,-0.4746,4.82,4.45,2.93
1886,677103847,-0.6885,-0.4189,-0.4761,4.76,4.45,2.80
1887,677108847,-0.6875,-0.4189,-0.4722,4.76,4.70,2.74
1888,677113847,-0.6797,-0.4170,-0.4658,4.88,4.63,2.56
1889,677118848,-0.6797,-0.4126,-0.4702,5.00,4.57,2.44
1890,677123847,-0.6782,-0.4111,-0.4644,5.12,4.51,2.38
1891,677128847,-0.6816,-0.4160,-0.4722,5.24,4.45,2.26
1892,677133847,-0.6841,-0.4155,-0.4653,5.55,4.51,2.13
1893,677138850,-0.6895,-0.4150,-0.4731,5.73,4.33,2.13
1894,677143849,-0.6904,-0.4121,-0.4668,5.79,4.33,1.89
1895,677148850,-0.6860,-0.4116,-0.4678,5.91,4.09,1.77
1896,677153847,-0.6880,-0.4092,-0.4722,5.98,3.90,1.59
1897,677158847,-0.6870,-0.4116,-0.4648,6.16,3.66,1.65
1898,677163847,-0.6875,-0.4092,-0.4585,6.10,3.60,1.40
1899,677168846,-0.6870,-0.4087,-0.4619,6.10,3.41,1.34
1900,677173847,-0.6914,-0.4072,-0.4619,6.04,3.35,1.22
1901,677178847,-0.6968,-0.4121,-0.4585,6.04,3.05,1.10
1902,677183847,-0.6924,-0.4062,-0.4590,5.79,2.87,0.85
1903,677188847,-0.6948,-0.4072,-0.4546,5.61,2.74,0.73
1904,677193846,-0.6924,-0.4043,-0.4565,5.30,2.44,0.49
1905,677198849,-0.6826,-0.4033,-0.4551,4.94,2.20,0.37
1906,677203847,-0.6851,-0.4033,-0.4507,4.63,2.20,0.12
1907,677209079,-0.6914,-0.4043,-0.4556,4.15,1.71,0.12
1908,677213847,-0.6860,-0.4067,-0.4517,3.72,1.71,0.06
1909,677218847,-0.6895,-0.4058,-0.4551,3.29,1.46,-0.12
1910,677223849,-0.6831,-0.4038,-0.4551,2.74,1.16,-0.30
1911,677228846,-0.6821,-0.3994,-0.4551,2.32,1.10,-0.37
1912,677233847,-0.6885,-0.4014,-0.4521,1.83,0.79,-0.43
1913,677239220,-0.6909,-0.4019,-0.4507,1.65,0.67,-0.55
1914,677243847,-0.6870,-0.3994,-0.4512,1.40,0.61,-0.73
1915,677249066,-0.6875,-0.3989,-0.4512,1.10,0.49,-0.91
1916,677253847,-0.6870,-0.3955,-0.4482,0.85,0.30,-0.91
1917,677258847,-0.6963,-0.3945,-0.4478,0.73,0.12,-1.04
1918,677263888,-0.6914,-0.4014,-0.4473,0.67,0.00,-1.22
1919,677268848,-0.6895,-0.3960,-0.4512,0.61,-0.12,-1.28
1920,677273847,-0.6904,-0.3999,-0.4497,0.49,-0.12,-1.34
1921,677278873,-0.6846,-0.3984,-0.4487,0.55,-0.24,-1.34
1922,677284112,-0.6870,-0.3984,-0.4443,0.49,-0.43,-1.46
1923,677288847,-0.6904,-0.3970,-0.4541,0.49,-0.49,-1.52
1924,677293845,-0.6870,-0.4004,-0.4512,0.61,-0.61,-1.46
1925,677298847,-0.6909,-0.3999,-0.4419,0.55,-0.73,-1.40
1926,677303847,-0.6948,-0.3960,-0.4492,0.73,-0.98,-1.40
1927,677309065,-0.6841,-0.3950,-0.4497,0.91,-1.04,-1.40
1928,677313846,-0.6831,-0.3975,-0.4551,1.16,-1.28,-1.22
1929,677318846,-0.6841,-0.3945,-0.4536,1.40,-1.40,-1.34
1930,677323845,-0.6831,-0.3921,-0.4482,1.77,-1.59,-1.28
1931,677328847,-0.6880,-0.3945,-0.4521,1.89,-2.07,-1.16
1932,677333846,-0.6841,-0.3887,-0.4512,2.13,-2.20,-1.10
1933,677338848,-0.6904,-0.3926,-0.4536,2.50,-2.32,-1.04
1934,677343847,-0.6890,-0.3950,-0.4590,2.80,-2.56,-0.98
1935,677348932,-0.6895,-0.3882,-0.4546,3.17,-2.74,-0.91
1936,677353847,-0.6816,-0.3892,-0.4541,3.48,-3.11,-0.79
1937,677358847,-0.6865,-0.3906,-0.4531,3.72,-3.35,-0.73
1938,677363850,-0.6890,-0.3940,-0.4570,3.90,-3.41,-0.61
1939,677369198,-0.6899,-0.3931,-0.4556,4.02,-3.72,-0.55
1940,677373847,-0.6860,-0.3911,-0.4556,4.02,-3.78,-0.43
1941,677378847,-0.6836,-0.3921,-0.4580,3.90,-4.09,-0.24
1942,677383847,-0.6851,-0.3916,-0.4595,3.66,-4.27,-0.18
1943,677388847,-0.6831,-0.3906,-0.4624,3.60,-4.39,-0.06
1944,677393847,-0.6797,-0.3950,-0.4624,3.35,-4.39,-0.06
1945,677398847,-0.6841,-0.3960,-0.4609,2.93,-4.51,0.18
1946,677403847,-0.6797,-0.3901,-0.4619,2.56,-4.57,0.24
1947,677408847,-0.6812,-0.3940,-0.4692,2.26,-4.82,0.30
1948,677413847,-0.6851,-0.3960,-0.4600,1.77,-4.88,0.43
1949,677419067,-0.6890,-0.3926,-0.4629,1.46,-4.94,0.55
1950,677423847,-0.6885,-0.3940,-0.4629,1.16,-4.76,0.67
1951,677428847,-0.6855,-0.3931,-0.4692,0.98,-4.82,0.73
1952,677433847,-0.6777,-0.3940,-0.4688,0.85,-4.94,0.73
1953,677438847,-0.6782,-0.3936,-0.4683,0.79,-5.00,0.91
1954,677443847,-0.6826,-0.3984,-0.4648,0.79,-5.06,1.04
1955,677448847,-0.6821,-0.3955,-0.4663,0.85,-5.06,1.10
1956,677453848,-0.6812,-0.3979,-0.4736,0.91,-5.06,1.34
1957,677459184,-0.6782,-0.3975,-0.4771,1.10,-5.12,1.46
1958,677463847,-0.6831,-0.4019,-0.4775,1.28,-5.00,1.59
1959,677468964,-0.6777,-0.3979,-0.4771,1.40,-5.06,1.65
1960,677473847,-0.6855,-0.3950,-0.4683,1.71,-5.00,1.83
1961,677479169,-0.6870,-0.4014,-0.4795,2.01,-4.88,1.89
1962,677483847,-0.6802,-0.3955,-0.4771,2.13,-5.00,2.01
1963,677489129,-0.6821,-0.3984,-0.4795,2.20,-4.88,2.07
1964,677493847,-0.6826,-0.4014,-0.4839,2.56,-4.70,2.26
1965,677498847,-0.6772,-0.4019,-0.4785,2.68,-4.57,2.38
1966,677503847,-0.6812,-0.4048,-0.4834,2.74,-4.63,2.56
1967,677508847,-0.6792,-0.4038,-0.4800,3.05,-4.51,2.68
1968,677513847,-0.6797,-0.4058,-0.4878,3.23,-4.45,2.68
1969,677518847,-0.6729,-0.4028,-0.4863,3.54,-4.27,2.74
1970,677523847,-0.6699,-0.4043,-0.4873,3.78,-4.27,2.93
1971,677528847,-0.6660,-0.4077,-0.4839,3.96,-4.15,2.87
1972,677533847,-0.6724,-0.4082,-0.4897,4.21,-4.02,2.99
1973,677538848,-0.6660,-0.4067,-0.4834,4.63,-3.96,2.99
1974,677543847,-0.6685,-0.4058,-0.4844,4.88,-3.84,3.11
1975,677548847,-0.6714,-0.4043,-0.4907,5.18,-3.66,3.05
1976,677553847,-0.6777,-0.4067,-0.4839,5.55,-3.60,3.05
1977,677559132,-0.6772,-0.4072,-0.4902,5.79,-3.48,3.23
1978,677563848,-0.6787,-0.4087,-0.4854,5.73,-3.41,3.17
1979,677568847,-0.6777,-0.4062,-0.4961,5.85,-3.23,3.23
1980,677573846,-0.6851,-0.4126,-0.4961,5.79,-3.17,3.35
1981,677578847,-0.6768,-0.4072,-0.4976,5.79,-2.99,3.05
1982,677583847,-0.6797,-0.4067,-0.4966,5.49,-2.80,3.05
1983,677588847,-0.6729,-0.4092,-0.4937,5.18,-2.62,3.11
1984,677594029,-0.6758,-0.4106,-0.4907,4.94,-2.44,3.11
1985,677598846,-0.6753,-0.4087,-0.4927,4.57,-2.50,3.05
1986,677603845,-0.6694,-0.4092,-0.4868,4.33,-2.20,2.99
1987,677608845,-0.6660,-0.4106,-0.4893,4.09,-1.95,2.93
1988,677613845,-0.6675,-0.4058,-0.4854,3.72,-1.83,2.93
1989,677618845,-0.6621,-0.4077,-0.4814,3.41,-1.71,2.80
1990,677623846,-0.6675,-0.4106,-0.4849,2.93,-1.52,2.68
1991,677629235,-0.6660,-0.4092,-0.4912,2.62,-1.40,2.62
1992,677633848,-0.6743,-0.4106,-0.4878,2.38,-1.40,2.62
1993,677638846,-0.6714,-0.4116,-0.4878,2.01,-1.34,2.50
1994,677643848,-0.6733,-0.4111,-0.4946,1.83,-1.22,2.44
1995,677648847,-0.6768,-0.4102,-0.4912,1.52,-1.10,2.44
1996,677653847,-0.6816,-0.4111,-0.4839,1.34,-1.04,2.44
1997,677658847,-0.6826,-0.4097,-0.4946,1.22,-0.98,2.38
1998,677663847,-0.6836,-0.4111,-0.4893,1.04,-0.85,2.38
1999,677668847,-0.6899,-0.4126,-0.4902,0.91,-0.85,2.20
2000,677673847,-0.6865,-0.4150,-0.4888,0.85,-0.61,2.13
2001,677678847,-0.6816,-0.4146,-0.4873,0.73,-0.67,2.32
2002,677683847,-0.6826,-0.4155,-0.4888,0.73,-0.67,2.20
2003,677688847,-0.6802,-0.4175,-0.4888,0.73,-0.49,2.20
2004,677693847,-0.6724,-0.4141,-0.4878,0.67,-0.43,2.20
2005,677698847,-0.6729,-0.4170,-0.4868,0.61,-0.43,2.20
2006,677703847,-0.6792,-0.4170,-0.4873,0.67,-0.24,2.20
2007,677708848,-0.6729,-0.4180,-0.4873,0.61,-0.24,2.26
2008,677713851,-0.6621,-0.4194,-0.4814,0.67,-0.18,2.20
2009,677718846,-0.6606,-0.4160,-0.4844,0.79,-0.12,2.20
2010,677723849,-0.6597,-0.4165,-0.4824,1.10,0.00,2.13
2011,677728848,-0.6636,-0.4165,-0.4844,1.16,0.18,2.07
2012,677733848,-0.6567,-0.4126,-0.4805,1.59,0.24,2.07
2013,677738847,-0.6641,-0.4170,-0.4829,1.77,0.43,2.01
2014,677743846,-0.6670,-0.4146,-0.4800,2.13,0.43,1.89
2015,677748998,-0.6704,-0.4141,-0.4805,2.56,0.55,1.77
2016,677753847,-0.6729,-0.4194,-0.4810,2.80,0.67,1.83
2017,677759083,-0.6704,-0.4121,-0.4756,3.11,0.79,1.71
2018,677763847,-0.6753,-0.4165,-0.4814,3.35,1.04,1.71
2019,677768847,-0.6836,-0.4170,-0.4839,3.54,1.04,1.59
2020,677773847,-0.6807,-0.4160,-0.4888,3.66,1.28,1.46
2021,677779169,-0.6875,-0.4160,-0.4907,3.66,1.34,1.40
2022,677783847,-0.6841,-0.4146,-0.4839,3.60,1.46,1.40
2023,677788847,-0.6855,-0.4160,-0.4814,3.60,1.59,1.34
2024,677793847,-0.6841,-0.4141,-0.4800,3.35,1.59,1.40
2025,677798847,-0.6846,-0.4136,-0.4775,3.23,1.83,1.16
2026,677803847,-0.6821,-0.4121,-0.4727,3.11,1.83,1.16
2027,677808846,-0.6758,-0.4082,-0.4790,2.80,1.89,1.10
2028,677813847,-0.6758,-0.4111,-0.4741,2.50,2.01,1.04
2029,677818847,-0.6890,-0.4111,-0.4727,2.38,1.83,0.91
2030,677823845,-0.6704,-0.4058,-0.4688,2.01,1.77,0.85
2031,677828847,-0.6714,-0.4062,-0.4644,1.71,2.01,0.55
2032,677833847,-0.6714,-0.4062,-0.4629,1.28,1.83,0.43
2033,677838849,-0.6689,-0.4058,-0.4648,0.98,1.83,0.37
2034,677843846,-0.6675,-0.4053,-0.4619,0.73,1.65,0.24
2035,677848847,-0.6748,-0.4106,-0.4624,0.37,1.46,0.12
2036,677853847,-0.6709,-0.4043,-0.4614,0.00,1.40,-0.06
2037,677858846,-0.6709,-0.4004,-0.4502,-0.30,1.40,-0.18
2038,677863847,-0.6694,-0.4028,-0.4531,-0.85,1.22,-0.37
2039,677869064,-0.6753,-0.4033,-0.4536,-1.22,1.10,-0.55
2040,677873847,-0.6729,-0.4033,-0.4556,-1.77,1.10,-0.67
2041,677879053,-0.6704,-0.4028,-0.4565,-2.32,0.98,-0.73
2042,677883847,-0.6685,-0.3994,-0.4385,-2.87,0.79,-0.98
2043,677889225,-0.6660,-0.3940,-0.4404,-3.35,0.91,-1.34
2044,677893847,-0.6626,-0.3916,-0.4360,-3.90,0.73,-1.52
2045,677898847,-0.6587,-0.3911,-0.4312,-4.39,0.98,-1.89
2046,677903847,-0.6646,-0.3872,-0.4214,-5.00,1.04,-2.26
2047,677908845,-0.6558,-0.3857,-0.4253,-5.55,0.98,-2.62
2048,677913845,-0.6592,-0.3789,-0.4136,-6.22,1.22,-3.11
2049,677918847,-0.6650,-0.3813,-0.4102,-7.01,1.22,-3.48
2050,677923846,-0.6572,-0.3770,-0.4146,-7.74,1.40,-3.90
2051,677928847,-0.6597,-0.3794,-0.4097,-8.90,1.28,-4.39
2052,677933847,-0.6689,-0.3804,-0.4023,-10.12,1.28,-4.70
2053,677938847,-0.6772,-0.3794,-0.4023,-11.34,1.28,-5.12
2054,677943847,-0.6865,-0.3804,-0.4033,-12.74,1.46,-5.55
2055,677948987,-0.6846,-0.3770,-0.4028,-14.21,1.22,-5.85
2056,677953847,-0.6865,-0.3735,-0.4058,-15.85,1.10,-6.52
2057,677959239,-0.6968,-0.3760,-0.4014,-17.62,0.91,-6.95
2058,677963847,-0.6992,-0.3760,-0.3911,-19.45,0.43,-7.26
2059,677969098,-0.7056,-0.3735,-0.3945,-21.22,0.18,-7.74
2060,677973847,-0.7041,-0.3691,-0.3892,-23.05,-0.30,-8.23
2061,677979160,-0.7114,-0.3745,-0.3877,-24.88,-0.73,-8.78
2062,677983847,-0.7124,-0.3716,-0.3896,-26.59,-1.28,-9.21
2063,677988847,-0.7114,-0.3726,-0.3940,-28.29,-1.95,-9.70
2064,677993958,-0.7109,-0.3745,-0.3936,-29.76,-2.62,-10.24
2065,677998847,-0.7173,-0.3701,-0.3926,-31.10,-3.60,-10.61
2066,678003847,-0.7144,-0.3711,-0.3945,-32.20,-4.51,-11.28
2067,678008847,-0.7119,-0.3647,-0.4038,-32.99,-5.61,-11.71
2068,678013847,-0.7075,-0.3657,-0.4043,-33.48,-6.71,-12.07
2069,678018846,-0.7051,-0.3599,-0.4062,-33.66,-7.99,-12.87
2070,678023847,-0.7070,-0.3564,-0.4028,-33.29,-9.15,-13.29
2071,678028847,-0.7002,-0.3535,-0.4014,-32.93,-10.30,-13.96
2072,678034167,-0.7104,-0.3525,-0.4019,-32.26,-11.46,-14.51
2073,678038847,-0.7080,-0.3457,-0.3994,-31.40,-12.44,-15.30
2074,678043847,-0.7134,-0.3398,-0.3945,-30.43,-13.41,-15.91
2075,678049273,-0.7251,-0.3384,-0.3926,-29.33,-14.82,-16.71
2076,678053847,-0.7183,-0.3311,-0.3940,-28.84,-15.49,-17.20
2077,678058847,-0.7231,-0.3384,-0.3926,-28.17,-16.34,-17.80
2078,678064265,-0.7231,-0.3330,-0.3984,-27.93,-17.26,-18.60
2079,678068847,-0.7266,-0.3335,-0.3901,-27.99,-17.93,-19.09
2080,678074130,-0.7188,-0.3252,-0.3853,-28.35,-18.84,-19.70
2081,678078847,-0.7217,-0.3252,-0.3882,-28.90,-19.51,-20.12
2082,678083847,-0.7236,-0.3218,-0.3867,-29.88,-20.18,-20.73
2083,678088847,-0.7246,-0.3213,-0.3887,-31.34,-20.85,-21.34
2084,678093847,-0.7256,-0.3213,-0.3892,-33.11,-21.34,-21.83
2085,678098847,-0.7305,-0.3208,-0.3828,-35.37,-22.26,-22.38
2086,678103847,-0.7314,-0.3237,-0.3838,-37.99,-22.68,-22.87
2087,678108847,-0.7310,-0.3218,-0.3843,-40.85,-23.17,-23.35
2088,678113848,-0.7373,-0.3223,-0.3833,-44.33,-23.72,-23.72
2089,678119018,-0.7412,-0.3242,-0.3921,-48.72,-24.33,-24.27
2090,678123846,-0.7437,-0.3237,-0.3892,-51.95,-24.70,-24.63
2091,678128847,-0.7446,-0.3228,-0.3838,-56.16,-25.12,-25.00
2092,678134128,-0.7495,-0.3271,-0.3833,-61.59,-25.61,-25.49
2093,678138847,-0.7451,-0.3247,-0.3862,-65.18,-26.04,-25.67
2094,678143847,-0.7554,-0.3242,-0.3901,-70.00,-26.16,-26.04
2095,678148847,-0.7612,-0.3306,-0.3877,-74.94,-26.71,-26.40
2096,678154274,-0.7563,-0.3306,-0.3896,-80.73,-27.20,-26.77
2097,678158847,-0.7607,-0.3389,-0.3936,-84.76,-27.80,-26.83
2098,678164018,-0.7651,-0.3374,-0.3936,-90.49,-28.41,-27.26
2099,678168847,-0.7705,-0.3413,-0.3950,-94.27,-28.72,-27.38
2100,678174159,-0.7637,-0.3413,-0.3979,-99.70,-29.70,-27.68
2101,678178849,-0.7720,-0.3472,-0.4028,-103.78,-30.43,-28.05
2102,678183847,-0.7729,-0.3506,-0.3950,-106.89,-31.04,-28.17
2103,678188848,-0.7681,-0.3452,-0.4033,-110.37,-32.01,-28.54
2104,678193846,-0.7759,-0.3525,-0.4092,-113.35,-32.80,-28.84
2105,678198849,-0.7783,-0.3535,-0.4077,-116.10,-33.78,-29.02
2106,678203847,-0.7759,-0.3560,-0.4146,-118.29,-34.76,-29.45
2107,678208847,-0.7764,-0.3599,-0.4111,-120.43,-36.10,-29.88
2108,678213846,-0.7715,-0.3604,-0.4189,-121.52,-36.95,-30.24
2109,678218847,-0.7700,-0.3677,-0.4248,-122.80,-38.41,-30.67
2110,678223849,-0.7646,-0.3682,-0.4209,-123.35,-39.63,-31.04
2111,678228847,-0.7646,-0.3745,-0.4297,-123.78,-40.67,-31.40
2112,678233847,-0.7656,-0.3774,-0.4277,-123.90,-41.59,-31.83
2113,678239052,-0.7656,-0.3818,-0.4355,-123.78,-42.99,-32.32
2114,678243847,-0.7705,-0.3848,-0.4419,-123.41,-43.96,-32.74
2115,678248847,-0.7769,-0.3882,-0.4463,-122.80,-45.06,-33.17
2116,678253847,-0.7915,-0.3911,-0.4590,-121.95,-46.28,-33.48
2117,678258847,-0.7979,-0.3970,-0.4653,-120.79,-47.44,-34.02
2118,678263847,-0.8003,-0.4014,-0.4731,-119.51,-48.66,-34.39
2119,678268847,-0.8086,-0.4053,-0.4854,-118.05,-49.94,-34.88
2120,678273847,-0.8057,-0.4106,-0.4946,-116.34,-51.28,-35.12
