# skilleye imu stream v1
# device=xiao_esp32c6 imu=mpu6050 addr=0x68
# rate_hz=200 accel_range_g=16 gyro_range_dps=2000 dlpf_hz=94
# units: accel in g, gyro in deg/s, t_us in microseconds since boot (monotonic)
# no shared clock with the camera -- tap the racket once before each take
# so both recordings share a spike to align on
seq,t_us,ax,ay,az,gx,gy,gz
0,96289787,0.6909,-0.7134,0.0586,5.55,2.56,-3.23
1,96294961,0.6914,-0.7173,0.0605,5.18,2.56,-3.41
2,96299847,0.6963,-0.7144,0.0532,5.06,2.26,-3.54
3,96304786,0.6929,-0.7168,0.0532,4.94,2.07,-3.72
4,96309787,0.6987,-0.7158,0.0557,4.76,1.95,-3.84
5,96314788,0.7012,-0.7144,0.0610,4.70,2.01,-3.78
6,96319787,0.7026,-0.7144,0.0532,4.70,1.89,-3.78
7,96324786,0.7051,-0.7158,0.0513,4.63,2.01,-3.78
8,96329787,0.7051,-0.7109,0.0542,4.51,1.89,-3.66
9,96334787,0.7051,-0.7114,0.0503,4.63,1.95,-3.72
10,96339787,0.7021,-0.7056,0.0498,4.57,2.07,-3.54
11,96344785,0.7070,-0.7065,0.0430,4.63,2.01,-3.48
12,96350362,0.7056,-0.7075,0.0435,4.51,2.13,-3.23
13,96354788,0.7061,-0.6987,0.0439,4.51,2.20,-3.23
14,96359787,0.7046,-0.6982,0.0405,4.51,2.32,-2.99
15,96364786,0.7041,-0.6992,0.0415,4.45,2.32,-2.87
16,96369787,0.7056,-0.6934,0.0464,4.33,2.32,-2.68
17,96374787,0.7065,-0.6914,0.0488,4.27,2.44,-2.50
18,96379787,0.7075,-0.6885,0.0459,3.90,2.44,-2.38
19,96384786,0.7070,-0.6851,0.0366,3.78,2.74,-2.07
20,96389787,0.7046,-0.6831,0.0391,3.54,2.87,-1.83
21,96394785,0.7085,-0.6826,0.0405,3.29,2.87,-1.52
22,96399786,0.7070,-0.6792,0.0347,3.11,3.11,-1.28
23,96404787,0.7119,-0.6807,0.0386,2.62,2.99,-0.79
24,96409787,0.7100,-0.6816,0.0415,2.44,3.29,-0.55
25,96415298,0.7129,-0.6753,0.0361,2.01,3.17,-0.12
26,96419789,0.7114,-0.6753,0.0396,1.77,3.41,0.43
27,96424787,0.7139,-0.6753,0.0371,1.52,3.54,0.79
28,96429788,0.7144,-0.6724,0.0371,1.10,3.48,1.34
29,96434785,0.7109,-0.6733,0.0327,0.85,3.66,1.71
30,96439786,0.7124,-0.6733,0.0381,0.55,3.60,2.38
31,96444788,0.7065,-0.6699,0.0327,0.24,3.66,2.87
32,96449996,0.7007,-0.6689,0.0293,-0.06,3.60,3.29
33,96454787,0.7046,-0.6636,0.0273,-0.55,3.48,3.72
34,96459788,0.6997,-0.6597,0.0234,-0.91,3.23,4.27
35,96464789,0.6973,-0.6519,0.0288,-1.40,2.99,4.82
36,96469785,0.6914,-0.6558,0.0244,-1.71,2.93,5.37
37,96474787,0.6860,-0.6553,0.0278,-2.01,2.62,5.98
38,96479786,0.6855,-0.6489,0.0210,-2.50,2.38,6.40
39,96484787,0.6875,-0.6431,0.0200,-2.80,2.07,7.01
40,96489785,0.6895,-0.6440,0.0117,-3.11,1.59,7.50
41,96494811,0.6890,-0.6450,0.0200,-3.54,1.52,8.11
42,96499787,0.6865,-0.6489,0.0195,-3.66,1.10,8.72
43,96504786,0.6851,-0.6470,0.0254,-4.09,0.61,9.33
44,96509785,0.6909,-0.6509,0.0137,-4.27,0.06,9.94
45,96514787,0.6851,-0.6514,0.0122,-4.45,-0.06,10.67
46,96519788,0.6865,-0.6553,0.0166,-4.63,-0.49,11.40
47,96524787,0.6880,-0.6587,0.0093,-4.82,-1.10,12.07
48,96530076,0.6895,-0.6626,0.0049,-4.76,-1.65,12.80
49,96534788,0.6934,-0.6729,0.0146,-4.63,-1.89,13.60
50,96539787,0.6943,-0.6807,0.0107,-4.45,-2.38,14.57
51,96544786,0.6938,-0.6851,0.0098,-4.57,-2.74,15.49
52,96549787,0.6953,-0.6890,0.0029,-4.76,-3.05,16.28
53,96554788,0.6875,-0.6885,0.0059,-5.12,-3.54,17.38
54,96559787,0.6899,-0.6909,-0.0010,-5.55,-3.96,17.99
55,96565014,0.6914,-0.6997,0.0073,-6.59,-4.27,19.15
56,96569788,0.6914,-0.7100,0.0117,-7.32,-4.70,19.94
57,96574787,0.6909,-0.7183,0.0142,-8.48,-4.88,20.85
58,96579787,0.6953,-0.7183,0.0171,-9.76,-5.12,21.71
59,96584786,0.6929,-0.7261,0.0127,-11.22,-5.37,22.62
60,96589787,0.6943,-0.7290,0.0151,-12.56,-5.79,23.41
61,96594787,0.6914,-0.7314,0.0103,-13.84,-5.98,24.21
62,96599787,0.6851,-0.7324,0.0024,-15.00,-6.40,25.06
63,96604786,0.6802,-0.7402,0.0029,-16.28,-6.77,25.61
64,96609819,0.6802,-0.7495,-0.0024,-17.38,-7.07,26.40
65,96614787,0.6782,-0.7554,-0.0034,-18.29,-7.56,27.01
66,96619788,0.6768,-0.7607,-0.0044,-19.09,-8.17,27.62
67,96624786,0.6753,-0.7676,-0.0054,-19.57,-8.60,28.29
68,96629787,0.6772,-0.7739,-0.0049,-19.94,-8.96,28.84
69,96634787,0.6714,-0.7793,-0.0049,-20.37,-9.39,29.45
70,96639787,0.6636,-0.7856,-0.0117,-20.61,-9.82,30.00
71,96644786,0.6592,-0.7856,-0.0093,-20.98,-10.24,30.43
72,96649787,0.6509,-0.7939,-0.0137,-21.22,-10.79,30.85
73,96654814,0.6465,-0.7949,-0.0166,-21.65,-11.22,31.22
74,96659787,0.6382,-0.8008,-0.0190,-22.07,-11.59,31.59
75,96664788,0.6338,-0.8013,-0.0186,-22.56,-12.07,31.83
76,96669787,0.6279,-0.8032,-0.0205,-23.17,-12.56,32.13
77,96674786,0.6250,-0.8052,-0.0200,-23.96,-13.11,32.26
78,96679787,0.6216,-0.8110,-0.0195,-24.82,-13.35,32.38
79,96684787,0.6226,-0.8174,-0.0151,-25.73,-13.78,32.32
80,96689787,0.6187,-0.8208,-0.0166,-26.77,-14.09,32.32
81,96694786,0.6182,-0.8232,-0.0059,-27.80,-14.33,32.32
82,96700426,0.6206,-0.8188,-0.0073,-29.15,-14.57,32.13
83,96704790,0.6172,-0.8242,-0.0063,-30.12,-14.63,31.95
84,96709786,0.6099,-0.8208,-0.0015,-31.22,-14.70,31.71
85,96714785,0.6084,-0.8193,0.0024,-32.50,-14.63,31.34
86,96719867,0.6084,-0.8154,0.0000,-33.78,-14.63,30.73
87,96724787,0.6021,-0.8164,-0.0020,-34.88,-14.39,30.12
88,96729787,0.5986,-0.8164,-0.0044,-35.98,-14.21,29.45
89,96734787,0.5942,-0.8159,-0.0049,-36.83,-14.09,28.66
90,96739786,0.5884,-0.8223,-0.0015,-37.68,-14.02,27.74
91,96744787,0.5845,-0.8179,-0.0078,-38.17,-13.72,27.13
92,96749786,0.5850,-0.8208,-0.0098,-38.60,-13.60,26.34
93,96754785,0.5825,-0.8213,-0.0107,-38.84,-13.48,25.67
94,96759785,0.5767,-0.8198,-0.0059,-39.09,-13.23,25.06
95,96764891,0.5786,-0.8174,-0.0151,-39.09,-12.93,24.33
96,96769788,0.5747,-0.8154,-0.0132,-39.02,-12.44,23.66
97,96774787,0.5723,-0.8130,-0.0166,-38.90,-12.32,23.05
98,96779787,0.5737,-0.8149,-0.0142,-38.48,-12.01,22.50
99,96784787,0.5713,-0.8164,-0.0220,-37.93,-11.77,21.77
100,96789787,0.5698,-0.8198,-0.0195,-37.13,-11.28,21.04
101,96794787,0.5698,-0.8252,-0.0195,-36.22,-11.04,20.55
102,96799788,0.5708,-0.8271,-0.0156,-35.37,-10.61,19.94
103,96804785,0.5747,-0.8340,-0.0190,-34.09,-10.30,19.39
104,96809788,0.5776,-0.8364,-0.0264,-32.80,-9.88,18.90
105,96814786,0.5728,-0.8384,-0.0254,-31.65,-9.39,18.54
106,96819785,0.5806,-0.8354,-0.0225,-30.37,-8.84,18.11
107,96824787,0.5771,-0.8354,-0.0234,-29.33,-8.29,17.68
108,96829787,0.5767,-0.8364,-0.0225,-28.23,-7.80,17.20
109,96834787,0.5732,-0.8311,-0.0244,-27.32,-7.32,16.65
110,96839786,0.5728,-0.8325,-0.0273,-26.59,-6.71,16.28
111,96844919,0.5737,-0.8262,-0.0220,-25.79,-6.22,15.79
112,96849788,0.5723,-0.8223,-0.0293,-25.06,-5.55,15.18
113,96854786,0.5669,-0.8213,-0.0249,-24.45,-4.88,14.70
114,96859785,0.5674,-0.8140,-0.0322,-24.02,-4.09,14.09
115,96865270,0.5610,-0.8115,-0.0361,-23.35,-3.41,13.23
116,96869788,0.5571,-0.8076,-0.0293,-22.87,-2.99,12.68
117,96874786,0.5542,-0.8086,-0.0283,-22.38,-2.26,12.01
118,96879931,0.5586,-0.8037,-0.0371,-22.13,-1.65,11.28
119,96884789,0.5605,-0.8037,-0.0425,-21.59,-0.91,10.61
120,96889786,0.5547,-0.8047,-0.0425,-21.04,-0.43,9.94
121,96894787,0.5581,-0.8013,-0.0381,-20.73,0.18,9.21
122,96899787,0.5596,-0.8013,-0.0366,-20.18,0.91,8.54
123,96904787,0.5615,-0.8003,-0.0376,-19.57,1.71,7.87
124,96909787,0.5630,-0.8042,-0.0425,-18.96,2.38,7.26
125,96914785,0.5674,-0.8013,-0.0430,-18.54,3.17,6.59
126,96919785,0.5630,-0.8027,-0.0483,-17.87,3.78,6.10
127,96924787,0.5708,-0.8018,-0.0498,-17.26,4.39,5.43
128,96929788,0.5693,-0.8047,-0.0464,-16.71,5.00,4.82
129,96934787,0.5747,-0.7988,-0.0435,-16.16,5.61,4.21
130,96939788,0.5635,-0.8105,-0.0703,-15.61,6.40,3.48
131,96945164,0.5557,-0.8120,-0.0776,-15.55,6.83,3.17
132,96949788,0.5757,-0.7954,-0.0649,-15.79,7.32,2.74
133,96954786,0.5859,-0.7744,-0.0327,-15.98,7.74,2.07
134,96959785,0.5977,-0.7603,-0.0244,-15.98,8.78,1.22
135,96964787,0.6099,-0.7607,-0.0259,-15.85,9.51,0.37
136,96969788,0.6021,-0.7720,-0.0366,-15.67,10.43,-0.43
137,96974787,0.5947,-0.7832,-0.0415,-15.55,11.04,-1.16
138,96979787,0.5957,-0.7871,-0.0552,-15.24,11.65,-1.71
139,96984787,0.6016,-0.7803,-0.0610,-14.45,12.01,-2.13
140,96989788,0.6035,-0.7754,-0.0596,-13.48,12.56,-2.74
141,96994785,0.6030,-0.7744,-0.0596,-12.26,13.11,-3.29
142,96999787,0.6050,-0.7734,-0.0586,-10.67,13.41,-3.84
143,97004788,0.6128,-0.7729,-0.0654,-9.09,13.60,-4.33
144,97009787,0.6167,-0.7739,-0.0610,-7.50,13.90,-4.70
145,97014789,0.6211,-0.7705,-0.0605,-5.73,14.15,-5.12
146,97019787,0.6343,-0.7720,-0.0620,-3.96,14.33,-5.55
147,97024785,0.6343,-0.7783,-0.0562,-2.32,14.39,-5.85
148,97029787,0.6377,-0.7812,-0.0615,-0.49,14.02,-6.04
149,97034789,0.6431,-0.7778,-0.0669,1.28,14.02,-6.22
150,97039786,0.6489,-0.7783,-0.0684,3.11,13.66,-6.34
151,97044787,0.6538,-0.7798,-0.0640,4.45,13.11,-6.22
152,97049786,0.6543,-0.7715,-0.0654,5.67,12.56,-6.16
153,97054785,0.6577,-0.7754,-0.0693,6.71,11.83,-6.10
154,97059785,0.6558,-0.7671,-0.0645,7.38,11.16,-5.85
155,97064785,0.6577,-0.7617,-0.0615,7.68,10.30,-5.79
156,97069787,0.6528,-0.7544,-0.0547,7.62,9.39,-5.61
157,97074788,0.6504,-0.7451,-0.0576,7.26,8.41,-5.67
158,97079787,0.6504,-0.7441,-0.0581,6.52,7.50,-5.61
159,97084787,0.6475,-0.7363,-0.0566,5.43,6.65,-5.67
160,97089787,0.6401,-0.7378,-0.0620,4.27,5.85,-5.79
161,97094789,0.6426,-0.7354,-0.0581,2.87,4.76,-5.91
162,97099787,0.6440,-0.7300,-0.0591,1.40,3.78,-5.98
163,97104787,0.6406,-0.7329,-0.0586,-0.06,2.87,-6.16
164,97109786,0.6455,-0.7300,-0.0596,-1.46,2.13,-6.16
165,97114788,0.6440,-0.7339,-0.0596,-2.87,1.28,-6.22
166,97119786,0.6406,-0.7319,-0.0640,-4.02,0.30,-6.28
167,97124787,0.6406,-0.7275,-0.0532,-5.00,-0.55,-6.52
168,97129787,0.6387,-0.7251,-0.0562,-5.79,-1.16,-6.52
169,97134790,0.6343,-0.7266,-0.0664,-6.40,-1.83,-6.71
170,97139787,0.6333,-0.7231,-0.0698,-6.65,-2.50,-6.83
171,97144787,0.6260,-0.7197,-0.0669,-6.77,-2.99,-6.95
172,97149788,0.6289,-0.7197,-0.0791,-6.71,-3.72,-7.07
173,97154787,0.6245,-0.7227,-0.0762,-6.10,-3.96,-7.38
174,97159787,0.6270,-0.7275,-0.0742,-5.37,-4.70,-7.68
175,97164785,0.6187,-0.7290,-0.0811,-4.51,-5.06,-7.80
176,97169787,0.6182,-0.7266,-0.0781,-3.11,-5.55,-8.17
177,97174789,0.6157,-0.7314,-0.0864,-1.65,-5.85,-8.60
178,97179786,0.6143,-0.7344,-0.0776,-0.30,-6.10,-8.72
179,97184788,0.6118,-0.7324,-0.0767,1.83,-6.46,-8.96
180,97189785,0.6084,-0.7354,-0.0815,3.60,-6.65,-9.27
181,97194790,0.6064,-0.7344,-0.0859,6.16,-7.26,-9.57
182,97199786,0.6069,-0.7319,-0.0850,8.05,-7.50,-9.88
183,97204787,0.6011,-0.7334,-0.0918,10.24,-7.87,-10.18
184,97209786,0.6045,-0.7329,-0.0972,12.62,-8.11,-10.67
185,97214787,0.6016,-0.7295,-0.0967,14.88,-8.41,-10.91
186,97219786,0.6030,-0.7310,-0.0991,17.13,-8.72,-11.34
187,97224787,0.6016,-0.7280,-0.0991,19.27,-8.96,-11.65
188,97229787,0.6021,-0.7310,-0.1040,21.52,-9.51,-11.95
189,97234787,0.6069,-0.7271,-0.1099,23.66,-9.88,-12.44
190,97239786,0.6069,-0.7251,-0.1128,25.55,-10.37,-12.87
191,97244787,0.6035,-0.7222,-0.1123,27.44,-10.91,-13.23
192,97249786,0.6064,-0.7241,-0.1113,29.33,-11.52,-13.54
193,97254787,0.6099,-0.7217,-0.1074,31.22,-12.20,-13.90
194,97259787,0.6133,-0.7227,-0.1108,32.99,-12.99,-14.27
195,97264785,0.6074,-0.7168,-0.1069,34.88,-13.66,-14.63
196,97270139,0.6128,-0.7202,-0.1167,36.83,-14.51,-15.00
197,97274787,0.6118,-0.7192,-0.1152,38.41,-15.24,-15.30
198,97279786,0.6201,-0.7139,-0.1118,40.00,-15.98,-15.43
199,97284787,0.6172,-0.7153,-0.1172,41.71,-16.95,-15.73
200,97289786,0.6206,-0.7109,-0.1226,43.23,-17.80,-15.98
201,97294785,0.6255,-0.7134,-0.1274,44.63,-18.66,-16.04
202,97299787,0.6240,-0.7119,-0.1353,45.98,-19.63,-16.22
203,97304787,0.6230,-0.7065,-0.1426,47.13,-20.79,-16.28
204,97309786,0.6255,-0.7070,-0.1436,48.11,-21.77,-16.34
205,97314787,0.6245,-0.7056,-0.1509,49.09,-22.93,-16.46
206,97319787,0.6279,-0.7095,-0.1567,49.76,-24.33,-16.52
207,97324785,0.6240,-0.7080,-0.1660,50.24,-25.30,-16.52
208,97329787,0.6230,-0.7095,-0.1650,50.37,-26.77,-16.46
209,97334787,0.6265,-0.7075,-0.1704,50.18,-27.87,-16.22
210,97339788,0.6313,-0.7100,-0.1733,49.94,-29.09,-16.04
211,97344787,0.6382,-0.7051,-0.1860,49.21,-30.06,-15.98
212,97349787,0.6450,-0.7104,-0.1807,48.23,-31.22,-15.73
213,97354787,0.6460,-0.7036,-0.1768,46.83,-32.38,-15.49
214,97359787,0.6479,-0.7007,-0.1782,45.43,-33.11,-15.24
215,97364785,0.6416,-0.6934,-0.1870,44.02,-34.02,-15.06
216,97369785,0.6382,-0.6953,-0.1899,42.50,-34.82,-14.70
217,97374787,0.6426,-0.6953,-0.1826,40.98,-35.61,-14.51
218,97379787,0.6436,-0.7017,-0.1875,39.45,-35.98,-14.15
219,97384787,0.6396,-0.7095,-0.1938,37.87,-36.46,-13.66
220,97389786,0.6479,-0.7139,-0.2061,36.28,-36.89,-13.05
221,97394787,0.6509,-0.7222,-0.2056,34.76,-37.26,-12.38
222,97399786,0.6538,-0.7285,-0.2036,32.93,-37.44,-11.77
223,97405173,0.6499,-0.7275,-0.2109,30.85,-37.74,-10.85
224,97409788,0.6479,-0.7383,-0.2036,29.33,-37.80,-10.12
225,97414786,0.6431,-0.7368,-0.2036,27.32,-37.74,-9.15
226,97419787,0.6372,-0.7393,-0.2061,25.61,-37.62,-8.35
227,97424786,0.6128,-0.7529,-0.0728,24.15,-36.52,-7.26
228,97429787,0.6074,-0.7954,0.2339,24.51,-30.67,-5.30
229,97434787,0.6748,-0.6782,0.1519,26.52,-19.82,-3.29
230,97439787,0.7476,-0.4985,-0.3560,27.32,-10.79,-2.87
231,97445031,0.6870,-0.4736,-0.3931,27.87,-6.04,-3.90
232,97449787,0.5322,-0.5640,-0.4185,29.76,-3.23,-5.00
233,97454787,0.4014,-0.6504,-0.3945,33.41,-1.59,-5.67
234,97459786,0.3677,-0.7139,-0.3350,37.99,-0.12,-5.73
235,97464787,0.4199,-0.7344,-0.2715,42.68,1.52,-5.67
236,97469786,0.5093,-0.7363,-0.2407,46.59,3.17,-5.24
237,97474785,0.5791,-0.7319,-0.2227,49.57,5.43,-4.94
238,97479789,0.6006,-0.7422,-0.1772,51.52,8.05,-4.27
239,97484880,0.6050,-0.7695,-0.1294,52.74,10.79,-3.41
240,97489788,0.5972,-0.8096,-0.1182,53.84,13.60,-2.13
241,97494787,0.5947,-0.8564,-0.0986,54.45,16.10,-0.79
242,97499787,0.6304,-0.8569,-0.1069,55.00,18.48,1.16
243,97504787,0.7925,-0.6484,-0.3184,54.57,18.78,1.04
244,97509787,0.7129,-0.8379,-0.0015,53.35,19.63,0.49
245,97514787,0.7559,-0.8008,-0.0454,52.07,21.04,0.61
246,97519788,0.7764,-0.8408,-0.0825,49.94,21.71,-0.61
247,97524787,0.7422,-0.9209,-0.0732,47.62,21.77,-1.59
248,97529787,0.7241,-0.9683,0.0562,45.37,22.13,-2.01
249,97534787,0.7227,-0.9844,0.0928,43.35,22.62,-1.89
250,97539787,0.7300,-1.0317,0.0088,40.98,22.20,-0.98
251,97544789,0.7300,-1.0420,0.0635,38.48,21.71,0.55
252,97549786,0.6895,-1.0342,0.1851,36.22,21.77,2.26
253,97554785,0.7251,-1.0029,0.2378,34.33,22.93,3.84
254,97559787,0.7271,-0.9790,0.2139,33.29,24.15,4.70
255,97564787,0.7080,-0.9282,0.2578,33.54,25.73,5.24
256,97569787,0.6997,-0.9263,0.2563,34.88,27.32,5.30
257,97574785,0.8091,-0.8716,0.2266,37.68,28.72,5.24
258,97579785,0.8809,-0.8208,0.2139,41.77,29.57,4.70
259,97584789,0.8755,-0.8008,0.2441,47.44,30.24,3.72
260,97589786,0.8672,-0.8096,0.1948,54.39,30.55,2.62
261,97595077,0.8052,-0.7935,0.1821,62.56,29.82,1.46
262,97599788,0.7266,-0.7939,0.1992,71.46,29.02,-0.12
263,97605068,0.7051,-0.7803,0.1753,81.16,27.56,-1.46
264,97609788,0.6738,-0.7871,0.1616,91.34,25.79,-2.93
265,97614787,0.6104,-0.7773,0.1812,101.16,23.96,-4.39
266,97619787,0.5522,-0.7690,0.2119,109.76,22.01,-5.85
267,97624787,0.5581,-0.6953,0.1851,116.65,20.37,-7.38
268,97629787,0.5776,-0.7168,0.2007,121.40,18.54,-9.02
269,97634785,0.6338,-0.7437,0.1987,124.57,16.77,-10.18
270,97639785,0.7075,-0.7510,0.1509,126.65,15.00,-11.28
271,97644787,0.7500,-0.6987,0.1724,126.95,13.41,-12.62
272,97649788,0.7100,-0.7373,0.2021,126.22,12.01,-13.48
273,97654787,0.6787,-0.7236,0.2183,123.66,10.73,-13.90
274,97659787,0.6665,-0.7051,0.2349,120.37,9.39,-14.39
275,97664785,0.6782,-0.7236,0.2822,116.77,8.35,-15.12
276,97669785,0.7290,-0.7349,0.3037,113.48,7.13,-15.79
277,97674785,0.7422,-0.7402,0.3252,110.00,6.22,-16.46
278,97679854,0.7446,-0.7461,0.3530,106.28,5.12,-17.13
279,97684965,0.7500,-0.7476,0.3706,102.20,4.21,-17.80
280,97689787,0.7500,-0.7524,0.3970,97.56,3.48,-18.35
281,97694787,0.7861,-0.7578,0.4277,92.32,2.74,-18.84
282,97699787,0.7954,-0.7661,0.4502,86.59,2.38,-19.09
283,97704785,0.8096,-0.7676,0.4644,80.67,1.89,-19.33
284,97709787,0.8213,-0.7739,0.4863,74.63,1.52,-19.51
285,97714786,0.8447,-0.7744,0.5000,68.72,1.16,-19.51
286,97719787,0.8672,-0.7739,0.5098,62.87,0.67,-19.51
287,97724793,0.8672,-0.7778,0.5142,56.40,0.30,-19.51
288,97729788,0.8579,-0.7871,0.5225,52.74,-0.18,-19.51
289,97734867,0.8423,-0.7852,0.5278,48.78,-0.91,-19.45
290,97739788,0.8296,-0.7871,0.5376,46.10,-1.52,-19.45
291,97744812,0.8237,-0.7842,0.5459,44.45,-2.32,-19.57
292,97749788,0.8213,-0.7852,0.5566,43.72,-3.54,-20.00
293,97754785,0.8091,-0.7861,0.5688,43.96,-4.45,-20.37
294,97759787,0.7983,-0.7817,0.5845,44.88,-5.43,-21.04
295,97764787,0.7876,-0.7788,0.6021,46.46,-6.34,-21.89
296,97769787,0.7769,-0.7729,0.6216,48.78,-7.38,-22.93
297,97774786,0.7754,-0.7803,0.6250,51.83,-8.11,-23.90
298,97779785,0.7632,-0.7656,0.6313,55.55,-9.39,-24.94
299,97784787,0.7534,-0.7598,0.6479,59.63,-10.61,-26.34
300,97789787,0.7456,-0.7544,0.6499,64.15,-11.77,-27.62
301,97794787,0.6450,-0.7656,0.6772,69.15,-12.93,-28.66
302,97799787,0.6733,-0.7124,0.6514,74.88,-14.27,-30.12
303,97804785,0.6221,-0.7280,0.6973,80.98,-15.61,-31.46
304,97809897,0.5488,-0.7202,0.6494,87.56,-17.13,-32.62
305,97814787,0.5273,-0.7402,0.6704,94.33,-18.78,-33.72
306,97819788,0.5391,-0.7217,0.8037,101.22,-20.00,-34.76
307,97824785,0.6465,-0.7422,0.6597,109.39,-21.59,-36.16
308,97829785,0.6245,-0.7886,0.7822,116.46,-23.23,-37.13
309,97834788,0.5938,-0.7510,0.8765,125.79,-24.76,-38.29
310,97839787,0.6553,-0.6714,0.7261,130.91,-25.98,-39.94
311,97844785,0.6895,-0.7461,0.8721,138.78,-27.80,-41.52
312,97849785,0.7256,-0.7451,0.8701,146.16,-29.21,-42.44
313,97855165,0.7676,-0.7549,0.8550,153.54,-31.83,-43.96
314,97859788,0.7837,-0.7720,0.8354,157.68,-34.02,-44.82
315,97865201,0.8213,-0.7632,0.8833,162.01,-37.07,-46.34
316,97869787,0.8374,-0.7344,0.9136,164.15,-39.09,-47.56
317,97874785,0.8574,-0.7544,0.9033,166.34,-41.89,-49.09
318,97879785,0.8643,-0.7290,0.9614,167.50,-44.82,-50.79
319,97884787,0.8623,-0.7036,0.9844,168.29,-47.87,-52.56
320,97889787,0.8545,-0.6484,0.9829,169.02,-50.67,-54.45
321,97894787,0.8481,-0.6772,0.8291,169.39,-54.51,-56.04
322,97899787,0.8296,-0.6431,0.8711,170.24,-58.84,-57.07
323,97904785,0.8003,-0.5996,0.9321,171.52,-62.38,-58.05
324,97909956,0.7900,-0.5996,0.8452,173.29,-67.07,-59.39
325,97914789,0.7671,-0.5522,0.8032,174.39,-70.37,-59.82
326,97919786,0.7280,-0.5488,0.8428,176.04,-74.15,-60.37
327,97925109,0.7612,-0.5786,0.8662,178.11,-78.48,-60.91
328,97929787,0.7842,-0.5903,0.8223,179.39,-81.34,-61.04
329,97934787,0.7749,-0.5605,0.8232,180.79,-85.12,-61.34
330,97939787,0.7534,-0.5625,0.8467,181.89,-88.66,-61.77
331,97945147,0.7515,-0.5479,0.8477,182.56,-92.93,-62.01
332,97949788,0.7524,-0.5259,0.8257,182.56,-95.18,-62.20
333,97954787,0.7539,-0.5015,0.8354,182.13,-98.48,-62.50
334,97959787,0.7451,-0.4878,0.8530,181.04,-101.52,-62.68
335,97964843,0.7241,-0.4834,0.8418,179.39,-104.39,-62.44
336,97969788,0.7080,-0.4453,0.8452,177.32,-107.13,-62.13
337,97974787,0.7188,-0.4199,0.8452,174.51,-109.88,-62.01
338,97979787,0.7192,-0.4023,0.8394,171.77,-112.38,-61.65
339,97984785,0.7183,-0.3882,0.8184,168.72,-114.70,-61.34
340,97989787,0.7129,-0.3789,0.7979,165.91,-116.89,-60.67
341,97994789,0.7134,-0.3730,0.7607,163.17,-119.33,-60.00
342,97999786,0.7383,-0.3550,0.7515,160.98,-121.46,-59.21
343,98004787,0.7188,-0.3716,0.7588,158.72,-123.60,-58.23
344,98009786,0.7031,-0.3687,0.7524,156.40,-125.43,-56.95
345,98014787,0.6929,-0.3193,0.7720,154.45,-127.13,-56.04
346,98019786,0.7285,-0.3462,0.7168,153.54,-128.60,-55.55
347,98024787,0.7539,-0.3340,0.7432,153.17,-129.94,-54.94
348,98029786,0.7583,-0.3193,0.7422,153.48,-131.34,-53.78
349,98034787,0.7676,-0.2812,0.7241,154.02,-132.80,-52.87
350,98039786,0.7803,-0.2720,0.7446,155.12,-133.90,-52.13
351,98044878,0.8032,-0.2837,0.7617,156.65,-134.63,-51.28
352,98049785,0.8022,-0.3125,0.7275,158.72,-135.55,-50.24
353,98054980,0.7896,-0.3232,0.6943,161.10,-136.52,-49.02
354,98059787,0.7671,-0.3242,0.7134,164.02,-137.32,-47.44
355,98065185,0.7368,-0.3164,0.7188,167.26,-138.11,-45.61
356,98069787,0.7241,-0.2900,0.7041,169.76,-138.29,-44.21
357,98074787,0.7119,-0.2881,0.6826,172.80,-138.54,-42.62
358,98079788,0.7036,-0.2935,0.6807,175.85,-138.84,-40.98
359,98084785,0.6978,-0.3003,0.6787,178.84,-138.60,-39.15
360,98089787,0.7090,-0.3135,0.6489,181.65,-138.35,-37.26
361,98094787,0.7393,-0.3179,0.6362,184.33,-138.17,-35.24
362,98099786,0.7905,-0.2930,0.6450,186.77,-137.38,-33.17
363,98104787,0.8418,-0.2734,0.6328,188.84,-136.71,-31.28
364,98109786,0.8101,-0.2642,0.6084,190.55,-135.79,-29.63
365,98114789,0.7676,-0.2461,0.6245,192.20,-134.70,-28.23
366,98119786,0.7388,-0.2354,0.6025,193.29,-133.23,-27.07
367,98124787,0.7251,-0.2368,0.5728,194.21,-131.77,-26.28
368,98129787,0.7148,-0.2373,0.5659,194.70,-130.37,-25.43
369,98134787,0.7041,-0.2368,0.5718,193.96,-128.48,-24.63
370,98139786,0.7490,-0.2612,0.5410,192.07,-127.01,-23.66
371,98144785,0.8125,-0.2842,0.5156,189.51,-125.73,-22.38
372,98149787,0.8496,-0.2988,0.4839,186.22,-124.15,-20.85
373,98154787,0.8706,-0.3042,0.4688,182.38,-122.74,-19.39
374,98159787,0.8716,-0.3096,0.4575,178.23,-121.22,-18.17
375,98164787,0.8516,-0.3076,0.4346,173.90,-119.63,-17.01
376,98169788,0.8335,-0.3013,0.4229,170.12,-118.17,-15.73
377,98174787,0.8110,-0.2979,0.4277,166.34,-116.52,-14.76
378,98179787,0.7925,-0.3057,0.4409,163.35,-114.57,-13.96
379,98184787,0.7876,-0.3159,0.4419,160.91,-112.93,-13.05
380,98189786,0.7925,-0.3237,0.4365,158.60,-110.98,-12.13
381,98194788,0.7974,-0.3340,0.4316,156.83,-109.02,-11.28
382,98199787,0.7935,-0.3364,0.4258,155.43,-106.95,-10.43
383,98204787,0.7861,-0.3457,0.4360,154.82,-104.70,-9.51
384,98209788,0.7642,-0.3569,0.4209,155.00,-102.26,-8.41
385,98214785,0.7388,-0.3706,0.3882,155.55,-99.76,-7.13
386,98219787,0.7100,-0.3936,0.3638,156.71,-97.56,-5.79
387,98224787,0.7051,-0.4067,0.3188,158.48,-95.67,-4.09
388,98229786,0.7144,-0.4033,0.2861,160.49,-94.27,-2.26
389,98235200,0.7217,-0.3979,0.2930,162.32,-92.99,-0.43
390,98239787,0.7241,-0.3906,0.2910,164.63,-91.95,1.22
391,98244787,0.7368,-0.3818,0.2681,166.52,-91.16,2.93
392,98249787,0.7388,-0.3818,0.2681,168.35,-90.30,4.51
393,98254785,0.7441,-0.3853,0.2729,170.12,-89.45,5.98
394,98259786,0.7402,-0.3867,0.2876,171.52,-88.48,7.62
395,98264788,0.7368,-0.3931,0.2910,172.74,-87.44,9.09
396,98269787,0.7344,-0.4043,0.2798,173.66,-86.52,10.61
397,98274787,0.7344,-0.4092,0.2881,174.51,-85.55,12.01
398,98279787,0.7344,-0.4194,0.2837,175.18,-84.63,13.54
399,98284786,0.7261,-0.4204,0.2759,175.85,-83.78,15.06
400,98289785,0.7178,-0.4307,0.2676,176.89,-82.74,16.34
401,98294789,0.7153,-0.4438,0.2563,177.87,-81.89,17.87
402,98299787,0.7100,-0.4580,0.2441,178.90,-80.91,19.33
403,98304787,0.6987,-0.4766,0.2285,179.63,-80.24,20.79
404,98309787,0.7012,-0.5015,0.2109,180.18,-79.45,22.44
405,98314787,0.6860,-0.5063,0.1816,180.37,-78.60,24.02
406,98319787,0.6743,-0.5229,0.1704,180.06,-78.17,25.43
407,98324787,0.6650,-0.5225,0.1587,179.33,-77.56,26.83
408,98329787,0.6572,-0.5254,0.1509,178.48,-76.83,27.99
409,98334787,0.6416,-0.5347,0.1533,176.83,-76.16,28.90
410,98339787,0.6431,-0.5347,0.1421,174.88,-75.55,29.94
411,98344786,0.6465,-0.5366,0.1406,172.93,-74.88,30.67
412,98349785,0.6445,-0.5396,0.1338,170.43,-74.27,31.34
413,98354787,0.6465,-0.5469,0.1367,167.80,-73.78,32.01
414,98359956,0.6494,-0.5542,0.1362,165.06,-73.23,32.62
415,98364788,0.6484,-0.5640,0.1401,161.77,-72.62,33.17
416,98369786,0.6460,-0.5791,0.1426,158.54,-72.13,33.78
417,98374787,0.6445,-0.5874,0.1548,155.24,-71.59,34.27
418,98379787,0.6479,-0.5835,0.1670,151.65,-71.04,34.70
419,98384822,0.6499,-0.5977,0.1670,148.17,-70.43,35.18
420,98389785,0.6567,-0.6055,0.1660,144.57,-69.76,35.55
421,98394786,0.6602,-0.6113,0.1665,140.98,-69.27,35.79
422,98399789,0.6641,-0.6104,0.1646,137.26,-68.72,35.91
423,98404786,0.6670,-0.6128,0.1689,133.17,-68.23,35.98
424,98409787,0.6670,-0.6143,0.1636,129.76,-67.74,35.79
425,98414786,0.6743,-0.6084,0.1704,126.77,-67.20,35.61
426,98419787,0.6846,-0.6099,0.1763,122.87,-66.52,35.43
427,98424786,0.6919,-0.6123,0.1831,119.45,-65.79,35.24
428,98429787,0.6968,-0.6191,0.1938,116.22,-65.06,35.12
429,98434787,0.6943,-0.6177,0.2026,113.66,-64.27,35.00
430,98440082,0.6846,-0.6221,0.1953,111.34,-63.72,35.00
431,98444789,0.6724,-0.6255,0.2012,109.57,-62.80,35.06
432,98449786,0.6675,-0.6294,0.1963,107.99,-62.07,35.18
433,98454785,0.6636,-0.6304,0.1890,107.13,-61.16,35.37
434,98459787,0.6602,-0.6377,0.1802,106.52,-60.37,35.73
435,98464788,0.6685,-0.6387,0.1572,106.46,-59.63,36.22
436,98469786,0.6670,-0.6401,0.1528,107.01,-59.02,36.65
437,98474832,0.6777,-0.6416,0.1372,108.29,-58.60,37.13
438,98479789,0.6768,-0.6440,0.1216,110.00,-58.05,37.80
439,98484787,0.6860,-0.6367,0.1226,112.50,-57.50,38.54
440,98489785,0.6948,-0.6431,0.1211,115.79,-56.89,39.33
441,98494785,0.6929,-0.6450,0.1240,118.84,-56.28,40.12
442,98499785,0.6855,-0.6470,0.1240,123.29,-55.85,41.40
443,98504785,0.6675,-0.6426,0.1172,129.27,-55.24,42.74
444,98509787,0.6548,-0.6431,0.1128,132.99,-54.88,44.21
445,98514839,0.6440,-0.6255,0.1138,139.70,-54.33,46.40
446,98519787,0.6465,-0.6216,0.1211,143.72,-54.15,47.87
447,98524787,0.6499,-0.5972,0.1177,148.60,-53.90,49.57
448,98529787,0.6240,-0.5947,0.0991,152.62,-53.66,51.22
449,98534786,0.6069,-0.5884,0.1040,155.98,-53.72,53.11
450,98539785,0.5962,-0.5830,0.1011,159.09,-53.54,55.12
451,98544787,0.5898,-0.5767,0.1055,161.46,-53.41,57.07
452,98549786,0.5840,-0.5728,0.1006,163.17,-53.35,59.15
453,98555262,0.5684,-0.5640,0.1040,164.21,-53.05,61.59
454,98559789,0.5557,-0.5693,0.1016,164.15,-52.87,63.23
455,98564786,0.5298,-0.5630,0.1069,163.60,-52.99,65.49
456,98569787,0.5693,-0.5547,0.1323,162.38,-52.56,67.44
457,98574786,0.7012,-0.5444,0.2388,158.72,-50.85,69.39
458,98579787,0.5928,-0.5400,0.0859,153.05,-49.51,71.34
459,98584786,0.5728,-0.5088,0.0269,147.62,-49.76,73.29
460,98589785,0.5542,-0.5029,0.0991,142.44,-49.45,75.18
461,98594785,0.5327,-0.5103,0.1587,137.93,-48.54,76.71
462,98599785,0.5044,-0.5107,0.0576,134.51,-48.48,78.41
463,98604788,0.4941,-0.5220,0.0239,131.77,-49.02,79.94
464,98609790,0.4985,-0.5293,0.1299,129.70,-48.78,81.52
465,98614886,0.5396,-0.5620,0.1772,131.16,-47.68,83.60
466,98619785,0.5591,-0.5410,0.1978,133.60,-45.73,86.77
467,98624785,0.5259,-0.5029,0.0840,137.80,-43.78,87.50
468,98630226,0.4917,-0.5127,0.0283,142.50,-41.59,89.63
469,98634788,0.4795,-0.5283,0.1182,145.98,-40.49,90.73
470,98639787,0.4561,-0.5566,0.0679,150.18,-39.57,92.93
471,98645276,0.4204,-0.5952,0.0527,155.61,-39.15,95.91
472,98649789,0.3906,-0.6206,0.0591,159.45,-39.39,98.23
473,98654786,0.3911,-0.6558,0.1270,164.15,-38.90,101.71
474,98659787,0.3872,-0.6465,0.1191,168.84,-38.29,105.18
475,98664786,0.4106,-0.6382,0.0835,173.17,-37.62,108.60
476,98669787,0.4336,-0.6187,0.1245,176.95,-36.40,111.83
477,98674788,0.4326,-0.6099,0.1641,180.49,-34.57,114.94
478,98679787,0.4277,-0.6074,0.1240,183.66,-32.99,117.87
479,98684787,0.4111,-0.6045,0.0771,186.04,-31.52,120.67
480,98689787,0.3823,-0.6025,0.0923,188.23,-30.24,123.54
481,98694785,0.3486,-0.6040,0.1089,189.94,-28.54,126.10
482,98699785,0.3511,-0.5938,0.0820,191.16,-27.13,128.66
483,98704787,0.3599,-0.6021,0.0762,191.65,-25.43,131.16
484,98709787,0.3623,-0.5903,0.1230,191.65,-22.93,133.29
485,98714787,0.3467,-0.5933,0.1582,191.22,-19.63,135.00
486,98719787,0.3125,-0.5972,0.1284,190.61,-15.98,136.59
487,98724785,0.2656,-0.6152,0.0835,190.12,-11.89,137.74
488,98729787,0.2109,-0.6396,0.0918,189.63,-7.68,138.78
489,98734787,0.1587,-0.6655,0.1055,189.57,-3.48,140.00
490,98739787,0.1265,-0.6836,0.0771,189.45,0.91,141.46
491,98744785,0.1221,-0.6909,0.0732,189.39,5.55,143.05
492,98749789,0.1406,-0.6841,0.0942,189.21,10.55,144.76
493,98754786,0.1382,-0.7085,0.1084,189.02,15.85,147.07
494,98759787,0.1270,-0.6890,0.0708,188.35,21.52,149.39
495,98764788,0.1167,-0.7119,0.0845,187.01,27.01,152.20
496,98769787,0.1040,-0.7056,0.0889,185.49,32.93,155.37
497,98774972,0.0923,-0.6836,0.0708,183.60,39.09,158.35
498,98779787,0.0659,-0.6709,0.0508,181.46,45.00,160.91
499,98784785,0.0225,-0.6768,0.0889,179.63,50.73,163.05
500,98789785,-0.0088,-0.6904,0.1299,178.11,56.65,165.00
501,98794789,-0.0229,-0.7031,0.1387,177.01,62.87,166.83
502,98799786,-0.0220,-0.7236,0.1426,176.34,69.27,168.78
503,98804785,-0.0229,-0.7422,0.1489,176.10,75.79,170.67
504,98809787,-0.0376,-0.7510,0.1543,176.22,81.65,172.44
505,98814789,-0.0532,-0.7495,0.1523,176.71,86.89,173.78
506,98819786,-0.0620,-0.7568,0.1680,177.50,93.29,174.82
507,98824787,-0.0723,-0.7627,0.1709,178.17,99.09,175.79
508,98829788,-0.0776,-0.7769,0.1777,179.09,104.45,176.46
509,98834787,-0.0879,-0.7842,0.1963,179.76,109.27,176.83
510,98839787,-0.1089,-0.7993,0.2329,180.43,114.33,177.20
511,98844787,-0.1421,-0.8159,0.2656,180.91,119.15,177.07
512,98849787,-0.1733,-0.8340,0.2910,181.22,123.41,176.83
513,98854787,-0.2100,-0.8550,0.3228,181.34,127.68,176.16
514,98859787,-0.2627,-0.8584,0.3530,181.52,131.77,175.24
515,98864785,-0.3232,-0.8906,0.3687,181.34,135.37,173.90
516,98869787,-0.3843,-0.9126,0.4004,180.55,139.09,172.38
517,98874787,-0.4297,-0.9146,0.4209,179.15,142.32,170.43
518,98879787,-0.4678,-0.9258,0.4526,176.59,145.37,168.11
519,98884785,-0.5024,-0.9536,0.4751,173.29,148.29,165.79
520,98889787,-0.5381,-0.9683,0.4956,168.66,151.04,163.29
521,98894786,-0.5728,-0.9873,0.5298,162.80,153.29,160.67
522,98899787,-0.5962,-1.0015,0.5435,155.91,155.61,157.93
523,98904785,-0.6152,-1.0239,0.5654,147.87,157.38,155.18
524,98909787,-0.6494,-1.0420,0.5864,139.45,158.96,152.26
525,98914787,-0.6807,-1.0571,0.6187,130.06,160.61,149.21
526,98919787,-0.7168,-1.0947,0.6182,122.68,161.65,145.91
527,98924785,-0.7632,-1.1108,0.6392,114.63,162.26,142.38
528,98929793,-0.7964,-1.1226,0.6660,107.07,162.80,138.48
529,98934787,-0.8120,-1.1333,0.6743,100.30,163.11,134.21
530,98939787,-0.8262,-1.1641,0.6597,94.70,163.17,129.88
531,98944785,-0.8516,-1.1685,0.6631,90.06,163.23,125.12
532,98949787,-0.8916,-1.2090,0.6904,86.34,163.17,119.88
533,98954787,-0.9307,-1.2324,0.6650,82.93,163.23,114.63
534,98959788,-0.9614,-1.2393,0.6904,79.63,163.29,108.96
535,98964785,-0.9927,-1.2407,0.6753,76.10,163.84,102.68
536,98969785,-1.0200,-1.2432,0.6445,72.50,164.70,96.04
537,98974789,-1.0420,-1.2451,0.6265,68.72,165.61,89.02
538,98979786,-1.0522,-1.2451,0.5928,65.24,166.77,81.77
539,98984787,-1.0581,-1.2383,0.5581,61.83,168.17,74.09
540,98989787,-1.0698,-1.2456,0.5381,58.90,169.76,66.28
541,98994787,-1.0933,-1.2158,0.5288,56.34,171.95,58.17
542,98999787,-1.1123,-1.2349,0.5415,54.45,174.82,50.06
543,99004785,-1.0820,-1.2383,0.4976,53.35,178.05,42.01
544,99009787,-1.1523,-1.1987,0.4619,52.74,181.52,33.66
545,99014787,-1.1797,-1.2349,0.5020,52.99,185.37,25.18
546,99019787,-1.2041,-1.2339,0.5176,56.22,189.76,16.83
547,99024787,-1.2295,-1.2402,0.4976,62.20,194.57,8.48
548,99029787,-1.2378,-1.2168,0.4380,69.33,199.45,0.00
549,99034785,-1.2842,-1.2065,0.4346,76.40,205.00,-8.90
550,99039787,-1.3262,-1.2114,0.4209,83.35,211.04,-18.05
551,99044787,-1.3628,-1.1948,0.4023,90.79,217.38,-27.56
552,99049787,-1.3818,-1.1919,0.3613,98.48,224.33,-37.38
553,99054785,-1.4219,-1.1763,0.3623,105.79,231.40,-47.20
554,99059788,-1.4868,-1.1558,0.3252,112.62,238.96,-57.44
555,99064786,-1.5430,-1.1387,0.3145,118.17,246.83,-67.93
556,99069833,-1.5884,-1.1221,0.3174,123.35,255.00,-78.72
557,99074788,-1.6211,-1.1108,0.3047,128.66,263.48,-89.76
558,99079789,-1.6685,-1.1128,0.3120,133.54,271.59,-100.67
559,99084786,-1.7671,-1.1030,0.3560,138.66,280.00,-111.71
560,99089787,-1.8354,-1.0913,0.3398,142.38,288.60,-122.93
561,99094785,-1.8843,-1.0747,0.3418,145.00,297.13,-134.76
562,99099787,-1.9316,-1.0649,0.3428,146.83,305.43,-146.77
563,99104786,-2.0000,-1.0620,0.3564,148.17,313.41,-158.60
564,99109785,-2.0332,-1.0435,0.3315,148.78,319.51,-168.29
565,99114787,-2.1514,-1.0337,0.3647,148.72,327.99,-182.62
566,99119787,-2.2529,-1.0322,0.3608,146.89,335.18,-194.70
567,99124787,-2.3271,-1.0269,0.3350,143.96,342.07,-206.89
568,99129789,-2.4155,-1.0200,0.3623,140.67,347.44,-216.71
569,99134785,-2.5195,-0.9985,0.3521,135.18,354.39,-229.15
570,99139787,-2.6152,-1.0044,0.3521,130.24,361.16,-241.46
571,99144824,-2.7422,-1.0112,0.3740,121.40,369.33,-255.91
572,99149787,-2.8301,-1.0166,0.4028,115.79,374.88,-265.43
573,99154787,-2.9282,-1.0303,0.4121,109.09,381.83,-276.77
574,99159786,-3.0327,-1.0493,0.4258,102.74,388.90,-287.68
575,99164789,-3.1396,-1.0562,0.4468,96.77,395.98,-298.23
576,99169786,-3.2500,-1.0854,0.4556,90.98,402.80,-308.11
577,99174787,-3.3799,-1.1011,0.4683,85.49,409.45,-317.50
578,99179789,-3.5078,-1.1182,0.4634,80.43,416.22,-326.52
579,99184787,-3.5996,-1.1313,0.4590,76.16,422.62,-335.18
580,99189785,-3.6543,-1.1738,0.4702,72.26,428.90,-343.29
581,99194790,-3.8232,-1.1963,0.5020,68.78,435.43,-350.79
582,99199786,-4.0142,-1.2305,0.5005,65.18,441.59,-358.11
583,99205178,-4.1587,-1.2954,0.5239,60.91,449.15,-366.71
584,99209787,-4.2134,-1.3306,0.5400,58.54,453.84,-372.38
585,99214786,-4.3008,-1.3945,0.5630,56.52,459.09,-379.15
586,99219787,-4.3999,-1.4526,0.6157,54.51,463.96,-385.91
587,99224915,-4.4966,-1.5337,0.6636,51.83,468.60,-392.56
588,99229789,-4.5918,-1.5952,0.7065,48.54,472.56,-399.15
589,99234789,-4.6772,-1.6675,0.7515,43.72,476.10,-405.61
590,99239789,-4.7529,-1.7437,0.8042,37.32,479.09,-411.83
591,99244786,-4.8223,-1.8091,0.8643,29.63,481.59,-417.62
592,99249789,-4.8745,-1.8779,0.9282,20.18,483.48,-423.17
593,99254787,-4.9082,-1.9419,1.0063,10.49,484.82,-428.11
594,99259787,-4.9375,-1.9937,1.0791,1.40,485.43,-432.87
595,99264787,-4.9766,-2.0518,1.1880,-7.13,482.99,-437.26
596,99269787,-4.9863,-2.1211,1.2827,-14.70,484.57,-441.28
597,99274787,-4.9976,-2.1709,1.3633,-20.06,483.29,-445.06
598,99279787,-4.9902,-2.2256,1.4512,-23.84,481.10,-448.78
599,99284787,-4.9653,-2.2578,1.5312,-24.94,477.87,-452.32
600,99289787,-5.0020,-2.2988,1.6538,-24.51,474.15,-455.43
601,99294787,-5.0220,-2.3574,1.7285,-23.96,470.12,-458.96
602,99299787,-4.9985,-2.3867,1.7393,-22.80,464.63,-462.80
603,99304787,-4.9526,-2.4272,1.8071,-20.18,458.05,-467.32
604,99309787,-4.9287,-2.4404,1.8921,-16.22,450.61,-471.89
605,99314786,-4.8872,-2.4858,1.9438,-11.59,441.71,-477.13
606,99319787,-4.8564,-2.4917,2.0093,-6.34,431.59,-482.50
607,99324787,-4.8330,-2.5049,2.1045,-0.98,420.85,-488.84
608,99329786,-4.8096,-2.5093,2.1772,3.17,409.33,-495.67
609,99334789,-4.7847,-2.4912,2.2300,6.46,397.01,-503.23
610,99339786,-4.7539,-2.5215,2.2910,8.72,384.21,-511.10
611,99344787,-4.7256,-2.4873,2.3672,8.90,370.73,-519.51
612,99349786,-4.7109,-2.4741,2.3911,6.40,357.13,-528.54
613,99354789,-4.6890,-2.4443,2.4263,1.04,343.66,-537.56
614,99359786,-4.6484,-2.4224,2.4663,-6.16,330.43,-546.89
615,99364785,-4.6255,-2.3921,2.4824,-17.01,315.30,-558.11
616,99369787,-4.6084,-2.3613,2.4688,-25.30,305.55,-565.37
617,99374786,-4.5571,-2.3330,2.4658,-35.91,294.02,-574.09
618,99379788,-4.4990,-2.3066,2.4595,-46.16,283.11,-582.50
619,99384787,-4.4634,-2.2646,2.4341,-54.15,272.80,-590.43
620,99389786,-4.4507,-2.2163,2.4287,-59.94,263.11,-598.17
621,99394787,-4.4238,-2.1797,2.4380,-64.63,253.54,-605.67
622,99399786,-4.3945,-2.1367,2.4258,-67.68,244.21,-612.62
623,99404785,-4.3740,-2.0938,2.4009,-68.72,235.43,-619.39
624,99409789,-4.3462,-2.0347,2.3862,-68.17,227.20,-625.43
625,99414785,-4.3330,-1.9893,2.3604,-66.04,218.96,-631.40
626,99419785,-4.3232,-1.9341,2.3647,-61.77,210.61,-636.71
627,99424823,-4.3296,-1.8931,2.3408,-56.16,202.56,-641.59
628,99429789,-4.3374,-1.8511,2.3330,-50.06,194.51,-646.10
629,99434787,-4.3252,-1.8042,2.3491,-43.29,186.59,-649.82
630,99439786,-4.3149,-1.7446,2.3501,-36.46,178.78,-653.23
631,99446695,-4.3193,-1.6489,2.3467,-26.46,167.07,-657.80
632,99449788,-4.3242,-1.5894,2.3584,-21.59,161.95,-659.76
633,99454787,-4.3120,-1.5024,2.3594,-12.87,153.23,-662.87
634,99459787,-4.2886,-1.4062,2.3696,-3.48,144.09,-666.34
635,99464785,-4.2759,-1.3198,2.3799,7.07,134.02,-669.57
636,99469789,-4.2559,-1.2305,2.3662,18.90,123.48,-672.80
637,99474786,-4.2378,-1.1299,2.3516,30.73,112.44,-675.67
638,99479785,-4.2056,-1.0337,2.3037,41.34,100.73,-678.54
639,99485202,-4.1748,-0.9409,2.2534,50.98,88.90,-681.04
640,99489787,-4.1494,-0.8574,2.2051,60.00,75.79,-683.11
641,99494786,-4.1470,-0.7930,2.1602,68.54,62.20,-684.76
642,99499786,-4.1362,-0.7300,2.1274,76.95,47.68,-686.04
643,99504787,-4.1162,-0.6748,2.0796,84.94,32.56,-686.59
644,99509786,-4.0850,-0.6143,2.0259,91.34,17.13,-686.83
645,99514785,-4.0420,-0.5562,1.9751,96.10,1.34,-686.28
646,99519785,-3.9995,-0.4946,1.9150,98.78,-14.94,-684.82
647,99524787,-3.9634,-0.4487,1.8525,99.82,-30.98,-682.62
648,99529787,-3.9019,-0.4590,1.8003,98.54,-47.26,-679.57
649,99534787,-3.9155,-0.3369,1.6899,96.59,-63.78,-676.04
650,99539786,-3.9536,-0.2559,1.6670,96.10,-80.79,-672.56
651,99544787,-3.9146,-0.2046,1.6362,96.52,-97.68,-668.72
652,99549787,-3.8604,-0.1538,1.5986,96.28,-114.39,-664.88
653,99554785,-3.8228,-0.0981,1.5537,94.51,-130.85,-661.04
654,99559787,-3.8354,-0.0464,1.5557,91.10,-145.85,-657.20
655,99564786,-3.8457,0.0356,1.5220,86.46,-160.24,-653.41
656,99569787,-3.8389,0.1372,1.4551,80.55,-174.02,-649.88
657,99574787,-3.8276,0.2241,1.4258,73.11,-187.32,-646.52
658,99579785,-3.8145,0.3062,1.3867,64.57,-199.63,-642.68
659,99584785,-3.7881,0.3623,1.3257,54.88,-211.10,-638.41
660,99589787,-3.7744,0.4092,1.2661,44.33,-221.52,-633.23
661,99594789,-3.7471,0.4717,1.2290,32.68,-230.55,-626.89
662,99599786,-3.6948,0.5293,1.1758,20.00,-238.35,-619.70
663,99604787,-3.6660,0.5903,1.1421,6.34,-244.88,-611.59
664,99609786,-3.6514,0.6528,1.1060,-7.74,-250.06,-602.74
665,99614787,-3.6416,0.7114,1.0879,-21.89,-254.39,-593.29
666,99619785,-3.6406,0.7910,1.0747,-35.49,-257.38,-583.66
667,99624786,-3.6416,0.8887,1.0396,-47.80,-259.51,-574.02
668,99629789,-3.6284,0.9951,0.9854,-58.96,-260.73,-564.76
669,99634787,-3.5825,1.0854,0.9932,-68.54,-260.73,-555.55
670,99639786,-3.5352,1.1748,0.9434,-75.91,-260.00,-546.52
671,99644789,-3.4790,1.2612,0.8862,-80.85,-258.54,-537.50
672,99649785,-3.3916,1.3140,0.8809,-83.35,-256.46,-527.87
673,99654787,-3.3140,1.3613,0.8398,-82.68,-253.90,-517.62
674,99659786,-3.2217,1.4028,0.8096,-79.33,-251.28,-506.40
675,99664789,-3.1519,1.4116,0.8027,-73.23,-248.66,-494.27
676,99669786,-3.1021,1.4399,0.7969,-65.30,-245.67,-481.28
677,99674786,-3.0620,1.4849,0.7812,-56.04,-243.11,-467.87
678,99679785,-3.0791,1.4561,0.7388,-46.95,-240.43,-454.02
679,99684787,-2.9663,1.5479,0.7710,-40.24,-237.68,-440.30
680,99689788,-2.9609,1.5762,0.7695,-33.96,-234.63,-426.65
681,99694787,-2.9497,1.6138,0.7329,-28.96,-231.65,-412.74
682,99699787,-2.9131,1.6670,0.7036,-24.94,-228.66,-398.78
683,99704786,-2.8521,1.7085,0.6855,-21.46,-225.55,-384.88
684,99709787,-2.7861,1.7466,0.6592,-19.57,-222.20,-370.79
685,99714788,-2.7075,1.7769,0.6494,-18.29,-218.54,-356.65
686,99719787,-2.6294,1.8135,0.6279,-17.68,-214.39,-342.32
687,99724787,-2.5444,1.8325,0.6045,-16.95,-209.94,-328.05
688,99729786,-2.4678,1.8452,0.5962,-15.91,-205.18,-313.72
689,99734787,-2.3638,1.8696,0.5674,-14.57,-200.18,-298.96
690,99739786,-2.2256,1.8838,0.5601,-12.56,-195.06,-284.33
691,99744785,-2.1323,1.8774,0.5518,-9.51,-189.39,-269.33
692,99749788,-2.0229,1.8574,0.5322,-5.24,-183.90,-254.02
693,99754787,-1.9272,1.8623,0.5127,-1.28,-179.51,-241.46
694,99759787,-1.8130,1.8633,0.5029,4.57,-173.90,-225.61
695,99764787,-1.6772,1.8774,0.4814,12.50,-167.32,-206.28
696,99769787,-1.5884,1.8887,0.4731,18.54,-162.87,-193.11
697,99774788,-1.4468,1.8799,0.4409,27.32,-157.44,-176.34
698,99779787,-1.3213,1.8564,0.4277,37.38,-152.07,-159.21
699,99784785,-1.2119,1.8350,0.4072,48.66,-146.65,-141.77
700,99789786,-1.1138,1.8159,0.3950,60.79,-141.46,-124.02
701,99794787,-1.0215,1.7769,0.3945,73.35,-135.91,-106.28
702,99799786,-0.9673,1.7388,0.3765,86.28,-130.24,-88.66
703,99804785,-0.8931,1.7148,0.3604,99.09,-124.76,-71.22
704,99809787,-0.8447,1.6782,0.3608,110.24,-118.96,-54.27
705,99814787,-0.8159,1.6372,0.3486,118.90,-113.05,-37.62
706,99819787,-0.7964,1.5835,0.3203,124.63,-106.77,-21.59
707,99824787,-0.7842,1.5322,0.3057,129.33,-100.73,-6.10
708,99829787,-0.7896,1.4727,0.2939,130.06,-94.70,8.84
709,99834786,-0.7915,1.4146,0.2764,132.01,-88.72,22.74
710,99839789,-0.8027,1.3560,0.2627,132.32,-82.44,35.73
711,99844786,-0.8159,1.3057,0.2534,132.01,-76.10,47.99
712,99849787,-0.8262,1.2510,0.2500,130.30,-69.70,59.09
713,99854786,-0.8379,1.1904,0.2437,130.12,-63.48,69.51
714,99859789,-0.8428,1.1338,0.2310,129.39,-56.95,78.96
715,99864787,-0.8511,1.0864,0.2188,129.88,-50.67,88.05
716,99869786,-0.8604,1.0415,0.1997,131.28,-44.39,95.49
717,99874787,-0.8701,0.9971,0.1865,132.80,-38.17,102.44
718,99879786,-0.8677,0.9639,0.1772,133.72,-32.07,108.60
719,99884785,-0.8657,0.9321,0.1699,134.57,-26.34,114.09
720,99889787,-0.8755,0.9043,0.1602,134.94,-21.10,118.78
721,99895013,-0.8687,0.8721,0.1509,134.76,-15.12,123.66
722,99899787,-0.8633,0.8511,0.1470,133.90,-11.16,126.52
723,99904787,-0.8579,0.8311,0.1514,132.87,-6.83,129.51
724,99909787,-0.8486,0.8130,0.1558,129.88,-2.74,132.20
725,99914785,-0.8306,0.7925,0.1562,127.93,1.40,134.27
726,99919785,-0.8101,0.7754,0.1685,125.49,5.00,135.98
727,99924785,-0.7866,0.7607,0.1729,121.71,8.60,137.38
728,99930150,-0.7510,0.7554,0.1860,116.34,12.68,138.78
729,99934787,-0.7246,0.7505,0.1924,112.68,15.12,139.51
730,99939786,-0.6895,0.7476,0.2056,107.99,18.11,140.24
731,99944789,-0.6641,0.7437,0.2080,103.60,20.98,140.85
732,99949786,-0.6294,0.7417,0.2319,99.39,23.84,141.40
733,99954787,-0.5947,0.7417,0.2412,95.49,26.22,141.95
734,99959786,-0.5664,0.7397,0.2524,91.95,28.60,142.13
735,99964787,-0.5439,0.7417,0.2793,88.60,30.79,142.44
736,99969786,-0.5249,0.7466,0.2930,85.55,33.05,142.44
737,99974785,-0.5166,0.7417,0.3086,82.50,34.88,142.50
738,99979789,-0.5078,0.7441,0.3198,79.39,36.59,142.38
739,99984786,-0.5049,0.7378,0.3354,76.34,38.23,142.26
740,99989785,-0.5029,0.7373,0.3408,73.05,39.82,142.26
741,99994907,-0.4990,0.7334,0.3564,69.63,41.22,142.07
742,99999787,-0.4966,0.7290,0.3516,66.04,42.50,141.95
743,100004788,-0.5020,0.7300,0.3569,62.32,43.72,141.83
744,100009787,-0.4990,0.7310,0.3604,58.35,44.88,141.83
745,100014786,-0.4849,0.7363,0.3579,54.45,45.98,142.13
746,100019787,-0.4697,0.7461,0.3589,50.61,47.13,142.13
747,100024787,-0.4497,0.7627,0.3613,46.65,48.35,142.26
748,100029787,-0.4180,0.7798,0.3672,43.23,49.33,142.26
749,100034844,-0.4033,0.7944,0.3745,40.30,50.43,141.65
750,100039786,-0.3970,0.8062,0.3911,38.29,51.71,141.10
751,100044787,-0.3931,0.8164,0.4038,37.62,52.74,140.12
752,100049786,-0.3823,0.8218,0.4209,38.23,53.78,139.15
753,100054787,-0.3740,0.8198,0.4248,40.06,54.88,138.11
754,100059785,-0.3672,0.8242,0.4316,42.93,55.91,136.95
755,100064787,-0.3564,0.8232,0.4346,46.65,56.95,135.73
756,100069786,-0.3452,0.8267,0.4365,50.79,57.93,134.63
757,100074787,-0.3306,0.8232,0.4404,54.82,58.90,133.54
758,100079816,-0.3267,0.8286,0.4351,58.90,59.63,132.32
759,100084816,-0.3145,0.8262,0.4312,62.50,60.73,131.22
760,100089787,-0.3018,0.8252,0.4209,65.79,61.71,130.24
761,100094787,-0.2842,0.8164,0.4175,68.41,62.56,129.33
762,100099786,-0.2793,0.8286,0.4082,70.49,63.35,128.60
763,100104787,-0.2671,0.8125,0.4062,72.68,64.02,128.05
764,100109787,-0.2451,0.8101,0.4009,75.06,64.51,127.50
765,100114789,-0.2285,0.8052,0.3848,77.68,65.00,127.01
766,100119787,-0.2065,0.8052,0.3760,81.22,65.24,126.59
767,100124785,-0.1968,0.7900,0.3584,86.46,65.30,126.40
768,100129788,-0.1841,0.8169,0.3486,93.84,65.12,125.98
769,100134785,-0.1475,0.7979,0.3398,102.20,64.70,125.37
770,100139787,-0.1553,0.8286,0.3496,110.43,64.70,124.63
771,100144788,-0.1406,0.8340,0.3188,118.23,64.70,123.78
772,100149787,-0.1499,0.8037,0.3760,125.98,64.70,122.99
773,100154785,-0.1187,0.8228,0.2959,131.65,64.63,121.89
774,100159787,-0.0981,0.8384,0.3086,138.35,64.57,120.67
775,100164788,-0.1099,0.8110,0.3462,143.48,64.63,119.57
776,100169787,-0.1792,0.7549,0.3218,146.52,64.82,118.41
777,100174787,-0.0918,0.7808,0.2832,147.32,64.94,117.26
778,100179815,-0.0273,0.8037,0.2988,146.65,65.00,115.49
779,100184788,-0.0107,0.8110,0.3081,145.85,64.94,113.84
780,100189856,0.0073,0.8047,0.2798,143.96,64.63,112.26
781,100194852,0.0522,0.7876,0.2988,141.28,64.02,110.91
782,100199789,0.1025,0.7949,0.3145,137.80,63.72,109.88
783,100204789,0.1304,0.8179,0.2915,133.29,63.23,109.02
784,100209786,0.3750,0.8032,0.0708,130.12,62.20,107.99
785,100214787,0.3467,0.8130,0.0967,128.72,60.43,107.38
786,100219786,0.4263,0.9131,0.1592,125.67,59.88,106.16
787,100224787,0.4341,0.8521,0.1177,121.16,59.15,104.21
788,100229787,0.4048,0.8682,0.0249,115.55,58.05,102.56
789,100234785,0.4180,0.8989,0.0718,109.21,57.07,100.55
790,100239858,0.4600,0.8989,0.0356,102.87,56.10,98.35
791,100244787,0.6240,0.9424,-0.0308,95.67,54.45,95.85
792,100249786,0.5669,0.8862,0.0103,87.62,52.87,93.48
793,100254899,0.5332,0.8945,-0.0078,79.33,51.52,91.10
794,100259789,0.5664,0.8848,-0.0298,71.28,49.76,88.90
795,100264786,0.6030,0.8765,-0.0215,63.48,47.99,87.01
796,100269787,0.6436,0.8760,-0.0234,55.85,46.16,85.61
797,100274787,0.6650,0.8599,-0.0444,48.60,44.33,83.11
798,100279787,0.7090,0.8428,-0.0571,42.07,42.56,81.46
799,100284785,0.7588,0.8345,-0.0566,36.40,40.91,79.76
800,100289788,0.7734,0.8384,-0.0649,30.73,39.33,77.80
801,100294787,0.7339,0.8438,-0.0894,24.94,37.99,75.67
802,100299786,0.6865,0.8291,-0.0864,19.39,36.40,73.35
803,100304787,0.6475,0.8174,-0.0806,14.02,35.18,70.91
804,100309786,0.5845,0.8135,-0.0845,9.09,33.66,68.48
805,100314787,0.4883,0.7866,-0.0679,4.82,32.32,66.04
806,100319786,0.4697,0.7998,-0.0591,1.10,31.16,63.54
807,100324787,0.4678,0.7666,-0.0913,-1.83,29.94,60.98
808,100329786,0.4673,0.7539,-0.0586,-4.15,28.54,58.60
809,100334786,0.4282,0.7407,-0.0854,-5.98,27.26,56.34
810,100339785,0.4521,0.7554,-0.0957,-7.62,25.73,54.21
811,100344788,0.4355,0.7158,-0.0742,-9.63,24.63,51.95
812,100349785,0.3613,0.7114,-0.0605,-11.89,23.48,49.94
813,100354785,0.3608,0.7051,-0.0620,-14.27,22.44,47.68
814,100359788,0.3521,0.7065,-0.0522,-16.89,21.59,45.61
815,100364787,0.3311,0.6992,-0.0439,-19.27,20.61,43.54
816,100369786,0.3159,0.6973,-0.0381,-21.59,19.76,41.34
817,100374785,0.2983,0.6909,-0.0317,-23.84,19.02,39.39
818,100379789,0.2876,0.6904,-0.0234,-25.79,18.05,37.26
819,100384787,0.2856,0.6841,-0.0225,-27.74,17.07,35.37
820,100389787,0.2690,0.6914,-0.0195,-29.45,16.28,33.48
821,100394911,0.2520,0.7061,-0.0181,-31.04,15.43,31.52
822,100399788,0.2593,0.7080,0.0015,-32.44,14.33,29.39
823,100404787,0.2607,0.7090,0.0049,-33.90,13.35,27.56
824,100409787,0.2617,0.7124,0.0146,-35.37,12.56,25.67
825,100414787,0.2661,0.7241,0.0234,-37.38,11.59,23.90
826,100419786,0.2905,0.7393,0.0249,-39.33,10.85,22.07
827,100424787,0.2690,0.7427,0.0386,-41.46,10.06,20.30
828,100429786,0.2861,0.7534,0.0469,-43.72,8.96,18.60
829,100434785,0.3091,0.7607,0.0625,-46.40,8.35,17.13
830,100439785,0.3203,0.7656,0.0581,-48.84,7.68,15.79
831,100444787,0.3418,0.7744,0.0737,-52.32,6.77,13.90
832,100449788,0.3311,0.7783,0.0913,-55.55,6.04,12.62
833,100454787,0.3149,0.8003,0.0859,-57.99,5.18,11.40
834,100459787,0.3389,0.8135,0.1006,-62.01,4.15,9.76
835,100464786,0.3726,0.8335,0.1089,-65.73,2.93,8.23
836,100469787,0.3774,0.8457,0.1270,-67.44,2.44,7.50
837,100474788,0.3555,0.8667,0.1221,-70.00,1.40,6.22
838,100479787,0.3862,0.8838,0.1450,-72.50,0.37,4.82
839,100484786,0.4014,0.9009,0.1519,-74.82,-0.55,3.78
840,100489787,0.4248,0.9277,0.1670,-77.26,-1.59,2.56
841,100494787,0.4155,0.9448,0.1714,-79.15,-2.68,1.34
842,100499787,0.4399,0.9727,0.1792,-80.49,-3.90,0.06
843,100504787,0.4600,0.9810,0.2026,-81.59,-5.06,-1.34
844,100509787,0.4980,0.9893,0.2148,-82.38,-5.98,-2.32
845,100514789,0.5039,0.9893,0.2334,-82.74,-6.77,-3.35
846,100519786,0.5200,1.0220,0.2334,-82.87,-7.87,-4.33
847,100524787,0.5239,1.0156,0.2563,-81.95,-8.90,-5.43
848,100529786,0.5513,1.0186,0.2388,-80.67,-10.00,-6.04
849,100534787,0.5615,1.0215,0.2979,-79.09,-10.85,-6.46
850,100539785,0.5854,1.0127,0.3037,-77.44,-11.34,-6.65
851,100544786,0.5815,1.0303,0.2852,-75.55,-12.07,-6.95
852,100549787,0.6099,1.0283,0.3237,-73.41,-12.74,-7.32
853,100554787,0.6069,1.0225,0.3511,-71.28,-13.05,-7.44
854,100559788,0.6118,1.0278,0.3296,-69.15,-13.60,-7.38
855,100564788,0.6021,1.0283,0.3442,-67.01,-14.33,-7.32
856,100569787,0.5894,1.0332,0.3687,-64.88,-14.88,-6.95
857,100574787,0.5791,1.0347,0.3579,-63.11,-15.49,-6.77
858,100579786,0.5664,1.0410,0.3652,-61.77,-16.10,-6.83
859,100584785,0.5522,1.0420,0.3857,-60.55,-16.59,-6.71
860,100589788,0.5396,1.0376,0.3916,-59.94,-17.01,-6.77
861,100594787,0.5356,1.0366,0.3892,-59.63,-17.32,-6.77
862,100599787,0.5249,1.0303,0.4038,-59.45,-17.62,-6.95
863,100604787,0.5137,1.0225,0.4072,-59.33,-17.80,-7.01
864,100609788,0.5137,1.0112,0.4023,-59.15,-17.99,-7.13
865,100614785,0.5024,1.0029,0.4053,-58.66,-18.35,-7.20
866,100619787,0.4971,0.9897,0.4106,-57.99,-18.35,-7.20
867,100624828,0.4839,0.9751,0.4077,-56.83,-18.48,-7.26
868,100629791,0.4717,0.9590,0.4106,-55.43,-18.78,-7.38
869,100634790,0.4648,0.9478,0.4102,-53.23,-18.90,-7.32
870,100639787,0.4531,0.9316,0.4146,-51.28,-19.02,-7.26
871,100644789,0.4443,0.9258,0.4146,-49.39,-19.02,-7.26
872,100649785,0.4346,0.9155,0.4214,-46.83,-19.09,-7.26
873,100654788,0.4146,0.9180,0.4102,-44.02,-19.15,-7.38
874,100659785,0.4043,0.9082,0.4121,-41.10,-19.27,-7.50
875,100664785,0.3965,0.9038,0.4165,-38.23,-19.33,-7.56
876,100669787,0.3843,0.8999,0.4106,-35.30,-19.45,-7.99
877,100674786,0.3730,0.9004,0.4067,-32.80,-19.51,-8.29
878,100679787,0.3657,0.8955,0.4062,-30.43,-19.63,-8.66
879,100684786,0.3569,0.8862,0.4077,-28.41,-19.76,-9.09
880,100689787,0.3525,0.8872,0.4023,-26.77,-19.88,-9.45
881,100695004,0.3496,0.8794,0.3999,-25.12,-19.94,-9.94
882,100699787,0.3428,0.8799,0.3906,-24.02,-20.18,-10.37
883,100704785,0.3350,0.8770,0.3892,-23.05,-20.49,-10.91
884,100709872,0.3296,0.8760,0.3804,-22.20,-20.79,-11.46
885,100714787,0.3291,0.8750,0.3789,-21.46,-21.28,-11.95
886,100719789,0.3213,0.8784,0.3691,-20.55,-21.77,-12.56
887,100724787,0.3140,0.8804,0.3638,-20.06,-22.44,-13.17
888,100729786,0.3169,0.8760,0.3848,-19.82,-22.93,-13.90
889,100734787,0.3188,0.8726,0.3765,-19.82,-23.54,-14.57
890,100739786,0.3149,0.8701,0.3589,-19.51,-24.02,-15.00
891,100744785,0.3193,0.8701,0.3662,-19.51,-24.82,-15.49
892,100749785,0.3140,0.8740,0.3643,-19.33,-25.55,-15.91
893,100754789,0.3135,0.8784,0.3618,-19.15,-26.10,-16.46
894,100759787,0.3115,0.8833,0.3652,-19.15,-26.95,-16.95
895,100764786,0.3320,0.8887,0.3687,-19.09,-27.68,-17.50
896,100769789,0.2773,0.8833,0.3696,-19.33,-28.29,-18.11
897,100774787,0.3018,0.8921,0.3755,-19.45,-28.78,-18.66
898,100779787,0.3037,0.9048,0.3818,-19.70,-29.27,-19.27
899,100784787,0.3027,0.9053,0.3799,-19.88,-29.82,-19.76
900,100789786,0.3022,0.9053,0.3921,-19.70,-30.30,-20.30
901,100795229,0.3057,0.9043,0.3882,-19.51,-30.73,-20.67
902,100799788,0.3125,0.9033,0.3872,-19.09,-31.04,-21.04
903,100804787,0.3086,0.9092,0.3916,-18.35,-31.52,-21.46
904,100809787,0.3140,0.9141,0.3970,-17.74,-32.01,-21.71
905,100814785,0.3096,0.9180,0.4028,-17.01,-32.26,-21.95
906,100819786,0.3071,0.9131,0.4131,-16.22,-32.62,-22.32
907,100824787,0.3032,0.9189,0.4175,-15.49,-32.74,-22.50
908,100829786,0.3096,0.9165,0.4175,-14.70,-32.87,-22.62
909,100834787,0.3096,0.9214,0.4253,-13.96,-33.17,-22.80
910,100839787,0.3105,0.9185,0.4360,-13.23,-33.17,-22.80
911,100844786,0.3110,0.9263,0.4355,-12.44,-33.29,-22.93
912,100849785,0.3149,0.9268,0.4365,-11.46,-33.29,-22.87
913,100854785,0.3159,0.9292,0.4399,-10.61,-33.17,-22.87
914,100859788,0.3135,0.9331,0.4380,-9.57,-32.99,-22.74
915,100864786,0.3154,0.9346,0.4429,-8.41,-33.11,-22.74
916,100869786,0.3140,0.9355,0.4419,-7.62,-33.05,-22.62
917,100874787,0.3115,0.9380,0.4419,-6.65,-32.62,-22.50
918,100879786,0.3120,0.9326,0.4443,-5.55,-32.50,-22.38
919,100884787,0.3145,0.9360,0.4404,-4.45,-32.44,-22.26
920,100889786,0.3159,0.9326,0.4351,-3.23,-32.38,-21.89
921,100894787,0.3174,0.9307,0.4399,-1.89,-32.38,-21.71
922,100899786,0.3184,0.9312,0.4321,-0.85,-32.20,-21.34
923,100904788,0.3149,0.9287,0.4385,0.43,-32.07,-20.85
924,100909861,0.3164,0.9282,0.4341,1.40,-32.01,-20.67
925,100914786,0.3169,0.9272,0.4302,2.50,-32.07,-20.24
926,100919787,0.3135,0.9258,0.4258,3.41,-32.07,-19.70
927,100925258,0.3145,0.9272,0.4243,4.15,-32.01,-19.45
928,100929787,0.3135,0.9287,0.4229,4.82,-32.01,-18.90
929,100934787,0.3154,0.9302,0.4233,5.30,-32.01,-18.48
930,100939788,0.3086,0.9282,0.4116,5.49,-32.07,-18.17
931,100944786,0.3062,0.9287,0.4097,5.91,-32.20,-17.68
932,100949787,0.3071,0.9321,0.4048,6.16,-32.32,-17.26
933,100954786,0.3027,0.9321,0.4038,6.28,-32.50,-16.83
934,100959787,0.2998,0.9307,0.3999,6.16,-32.56,-16.40
935,100964786,0.2954,0.9297,0.3911,6.28,-32.74,-15.91
936,100969787,0.2935,0.9272,0.3931,6.28,-33.05,-15.43
937,100974787,0.2905,0.9321,0.3862,6.46,-33.29,-15.12
938,100979788,0.2886,0.9321,0.3809,6.59,-33.48,-14.63
939,100984787,0.2837,0.9312,0.3716,6.77,-33.84,-14.21
940,100989786,0.2852,0.9360,0.3735,7.20,-34.15,-13.66
941,100994787,0.2812,0.9375,0.3623,7.44,-34.63,-13.29
942,100999787,0.2783,0.9429,0.3711,7.56,-34.82,-12.87
943,101004787,0.2812,0.9434,0.3647,7.87,-35.12,-12.32
944,101009785,0.2808,0.9438,0.3647,7.62,-35.43,-11.89
945,101014786,0.2793,0.9443,0.3564,7.50,-35.61,-11.46
946,101019787,0.2852,0.9512,0.3501,7.38,-36.04,-10.91
947,101024787,0.2817,0.9507,0.3408,7.26,-36.16,-10.55
948,101029787,0.2842,0.9502,0.3447,7.01,-36.40,-10.06
949,101035211,0.2817,0.9507,0.3447,6.77,-36.59,-9.63
950,101039787,0.2822,0.9512,0.3467,6.59,-36.77,-9.09
951,101044787,0.2793,0.9482,0.3413,6.40,-36.95,-8.60
952,101049787,0.2817,0.9536,0.3423,6.28,-37.20,-8.17
953,101054785,0.2817,0.9526,0.3374,6.22,-37.13,-7.87
954,101059785,0.2812,0.9531,0.3413,6.40,-37.26,-7.44
955,101064787,0.2808,0.9575,0.3340,6.40,-37.26,-7.01
956,101070380,0.2881,0.9551,0.3306,6.77,-37.26,-6.65
957,101074786,0.2925,0.9565,0.3350,7.07,-37.38,-6.22
958,101080480,0.2954,0.9590,0.3359,7.44,-37.32,-5.73
959,101084787,0.2988,0.9614,0.3359,7.93,-37.38,-5.24
960,101089786,0.3052,0.9619,0.3306,8.41,-37.32,-4.82
961,101094787,0.3008,0.9590,0.3340,9.02,-37.20,-4.27
962,101099786,0.3052,0.9604,0.3281,9.94,-37.20,-3.84
963,101104787,0.3096,0.9614,0.3291,10.79,-37.26,-3.35
964,101109787,0.3115,0.9678,0.3271,11.65,-37.13,-2.99
965,101114787,0.3096,0.9702,0.3262,12.62,-37.20,-2.56
966,101119790,0.3101,0.9683,0.3208,13.41,-37.26,-2.20
967,101124956,0.3125,0.9697,0.3174,14.33,-37.13,-1.77
968,101129789,0.3154,0.9658,0.3135,14.94,-36.95,-1.40
969,101134787,0.3140,0.9673,0.3062,15.73,-36.89,-1.04
970,101139787,0.3135,0.9683,0.3062,16.34,-36.89,-0.67
971,101144787,0.3154,0.9653,0.2979,16.95,-36.95,-0.37
972,101149787,0.3130,0.9688,0.2974,17.50,-36.95,0.06
973,101154785,0.3193,0.9673,0.2979,17.80,-36.95,0.30
974,101159785,0.3179,0.9639,0.2939,17.93,-36.95,0.67
975,101164789,0.3242,0.9644,0.2915,17.99,-36.83,0.98
976,101169786,0.3252,0.9619,0.2891,17.87,-36.83,1.16
977,101174787,0.3276,0.9653,0.2842,17.68,-36.83,1.52
978,101179787,0.3320,0.9624,0.2798,17.56,-36.65,1.83
979,101184786,0.3320,0.9624,0.2749,17.62,-36.46,2.07
980,101189787,0.3301,0.9590,0.2729,17.74,-36.46,2.32
981,101194789,0.3354,0.9604,0.2725,17.99,-36.46,2.44
982,101199788,0.3379,0.9600,0.2690,18.29,-36.40,2.62
983,101204889,0.3394,0.9575,0.2520,18.48,-36.34,2.87
984,101209787,0.3438,0.9546,0.2446,18.72,-36.40,2.87
985,101214787,0.3501,0.9541,0.2432,18.84,-36.34,2.99
986,101219787,0.3569,0.9482,0.2383,18.84,-36.65,2.99
987,101224785,0.3633,0.9468,0.2324,18.60,-36.34,2.99
988,101229787,0.3662,0.9458,0.2334,18.17,-36.40,2.87
989,101234787,0.3696,0.9365,0.2207,17.38,-36.46,2.87
990,101239787,0.3691,0.9351,0.2202,16.77,-36.65,2.93
991,101244787,0.3687,0.9326,0.2163,15.73,-36.71,2.74
992,101249788,0.3672,0.9258,0.2178,14.63,-36.65,2.62
993,101254787,0.3618,0.9185,0.2153,13.35,-36.77,2.38
994,101259787,0.3638,0.9185,0.2104,11.95,-36.71,2.01
995,101264787,0.3589,0.9067,0.2070,10.43,-36.77,1.65
996,101269787,0.3594,0.9028,0.2046,8.96,-36.83,1.34
997,101274787,0.3569,0.8999,0.2031,7.68,-36.83,0.73
998,101279787,0.3560,0.8896,0.2036,6.46,-36.83,0.00
999,101284787,0.3540,0.8848,0.2046,5.67,-36.77,-0.43
1000,101289787,0.3540,0.8799,0.1929,5.24,-36.77,-0.91
1001,101294901,0.3511,0.8794,0.1885,5.18,-36.77,-1.77
1002,101299787,0.3491,0.8730,0.1909,5.24,-36.89,-2.50
1003,101304787,0.3481,0.8765,0.1865,5.67,-36.83,-3.23
1004,101309787,0.3477,0.8726,0.1855,6.16,-36.95,-3.90
1005,101314787,0.3408,0.8711,0.1816,6.65,-36.83,-4.88
1006,101319787,0.3442,0.8735,0.1836,7.01,-36.83,-5.67
1007,101324787,0.3462,0.8721,0.1797,7.38,-36.89,-6.65
1008,101329787,0.3467,0.8745,0.1787,7.56,-36.83,-7.62
1009,101334787,0.3481,0.8745,0.1797,7.68,-36.59,-8.60
1010,101339787,0.3452,0.8813,0.1792,7.80,-36.52,-9.57
1011,101344787,0.3481,0.8755,0.1714,7.74,-36.28,-10.37
1012,101349787,0.3501,0.8774,0.1768,7.68,-36.22,-11.40
1013,101354787,0.3467,0.8789,0.1714,7.56,-35.79,-12.32
1014,101359787,0.3511,0.8765,0.1729,7.56,-35.49,-13.29
1015,101364785,0.3486,0.8828,0.1685,7.50,-35.18,-14.09
1016,101369789,0.3462,0.8789,0.1602,7.56,-35.00,-14.94
1017,101374787,0.3462,0.8843,0.1660,7.62,-34.70,-15.79
1018,101379787,0.3418,0.8862,0.1616,7.80,-34.21,-16.65
1019,101385215,0.3394,0.8911,0.1553,7.87,-33.54,-17.74
1020,101389787,0.3408,0.8921,0.1523,8.11,-33.29,-18.35
1021,101394787,0.3369,0.8916,0.1514,8.23,-32.80,-19.15
1022,101399787,0.3359,0.8960,0.1519,8.66,-32.32,-19.94
1023,101404785,0.3418,0.8984,0.1519,9.09,-32.01,-20.61
1024,101409788,0.3398,0.8979,0.1494,9.51,-31.59,-21.34
1025,101414787,0.3452,0.8994,0.1484,10.30,-31.10,-21.95
1026,101419787,0.3389,0.9023,0.1519,10.79,-30.55,-22.50
1027,101424785,0.3384,0.9072,0.1440,11.40,-29.94,-23.11
1028,101429787,0.3364,0.9121,0.1416,12.13,-29.51,-23.54
1029,101434839,0.3340,0.9165,0.1426,12.50,-28.96,-24.09
1030,101439787,0.3301,0.9214,0.1470,13.05,-28.23,-24.45
1031,101444786,0.3296,0.9248,0.1411,13.48,-27.56,-25.12
1032,101449787,0.3232,0.9272,0.1382,13.66,-27.20,-25.37
1033,101454787,0.3232,0.9263,0.1338,13.72,-26.52,-25.85
1034,101459787,0.3203,0.9258,0.1348,13.72,-25.85,-26.10
1035,101464785,0.3164,0.9277,0.1353,13.60,-25.30,-26.52
1036,101469787,0.3120,0.9355,0.1255,13.54,-24.70,-26.95
1037,101474787,0.2993,0.9478,0.1123,13.54,-24.02,-27.20
1038,101479787,0.2827,0.9722,0.0586,14.02,-23.35,-27.62
1039,101484786,0.2798,1.0005,0.0122,14.51,-22.87,-27.93
1040,101489785,0.2661,1.0483,-0.0576,15.67,-22.13,-28.05
1041,101494959,0.2715,1.0981,-0.1509,16.52,-21.40,-27.99
1042,101499893,0.2700,1.1514,-0.2319,17.26,-20.61,-27.62
1043,101504786,0.2803,1.1968,-0.3042,16.71,-19.09,-26.77
1044,101509787,0.2915,1.2104,-0.3140,15.37,-17.56,-25.91
1045,101514787,0.3076,1.2002,-0.3027,12.01,-15.61,-24.57
