# skilleye imu stream v1
# device=xiao_esp32c6 imu=mpu6050 addr=0x68
# rate_hz=200 accel_range_g=16 gyro_range_dps=2000 dlpf_hz=94
# units: accel in g, gyro in deg/s, t_us in microseconds since boot (monotonic)
# no shared clock with the camera -- tap the racket once before each take
# so both recordings share a spike to align on
seq,t_us,ax,ay,az,gx,gy,gz
0,123334785,0.8354,-0.5571,0.1895,15.24,-11.22,9.82
1,123339786,0.8359,-0.5571,0.1816,16.71,-11.22,10.61
2,123344785,0.8267,-0.5566,0.1772,18.23,-11.10,11.52
3,123349787,0.8271,-0.5518,0.1733,19.82,-11.28,12.20
4,123354789,0.8286,-0.5566,0.1680,21.28,-11.22,12.93
5,123359786,0.8257,-0.5557,0.1636,22.62,-11.40,13.54
6,123364787,0.8179,-0.5522,0.1582,23.78,-11.34,14.21
7,123369786,0.8228,-0.5532,0.1514,25.00,-11.40,14.82
8,123374785,0.8218,-0.5527,0.1519,25.85,-11.46,15.24
9,123379785,0.8169,-0.5557,0.1489,26.40,-11.59,15.73
10,123384787,0.8188,-0.5601,0.1445,26.77,-11.40,16.22
11,123389786,0.8169,-0.5591,0.1348,26.89,-11.65,16.59
12,123394789,0.8135,-0.5591,0.1382,26.83,-11.65,16.89
13,123399785,0.8120,-0.5576,0.1401,26.71,-11.59,17.32
14,123404787,0.8101,-0.5571,0.1304,26.28,-11.77,17.32
15,123409786,0.8032,-0.5571,0.1255,25.79,-11.59,17.68
16,123414787,0.8008,-0.5566,0.1240,25.24,-11.46,17.80
17,123419785,0.8013,-0.5532,0.1245,24.63,-11.40,17.93
18,123424785,0.7983,-0.5488,0.1221,24.15,-11.59,18.05
19,123429787,0.7983,-0.5488,0.1187,23.60,-11.52,18.05
20,123434786,0.7993,-0.5498,0.1138,23.17,-11.59,18.11
21,123439787,0.7974,-0.5493,0.1138,22.74,-11.71,17.93
22,123444785,0.7969,-0.5464,0.1118,22.56,-11.71,17.87
23,123449789,0.7974,-0.5464,0.1094,22.26,-12.01,17.74
24,123454787,0.8062,-0.5449,0.1157,21.95,-12.13,17.68
25,123459786,0.8101,-0.5439,0.1138,21.77,-12.13,17.56
26,123464787,0.8115,-0.5474,0.1123,21.59,-12.32,17.56
27,123469785,0.8125,-0.5503,0.1167,21.34,-12.38,17.38
28,123474785,0.8213,-0.5488,0.1104,20.85,-12.56,17.50
29,123479785,0.8247,-0.5479,0.1138,20.37,-12.62,17.44
30,123485263,0.8232,-0.5479,0.1143,20.00,-12.68,17.26
31,123489787,0.8232,-0.5459,0.1138,19.45,-12.80,17.26
32,123494787,0.8242,-0.5459,0.1133,18.96,-12.80,17.26
33,123499787,0.8267,-0.5454,0.1172,18.41,-12.99,17.07
34,123504786,0.8271,-0.5488,0.1152,18.05,-12.93,16.95
35,123509787,0.8291,-0.5459,0.1138,17.62,-12.99,16.89
36,123514786,0.8330,-0.5454,0.1133,17.20,-13.05,16.65
37,123519787,0.8340,-0.5435,0.1118,16.77,-13.11,16.65
38,123524787,0.8374,-0.5454,0.1128,16.52,-13.05,16.40
39,123529820,0.8477,-0.5454,0.1123,16.22,-13.11,16.34
40,123534788,0.8506,-0.5449,0.1099,16.10,-13.23,16.16
41,123539787,0.8535,-0.5527,0.1182,15.91,-13.17,15.98
42,123544785,0.8589,-0.5537,0.1172,15.73,-13.23,15.73
43,123549788,0.8574,-0.5596,0.1201,15.49,-13.35,15.49
44,123554787,0.8584,-0.5615,0.1147,15.12,-13.41,15.24
45,123559786,0.8584,-0.5684,0.1143,14.76,-13.41,15.06
46,123564839,0.8638,-0.5688,0.1118,14.51,-13.54,14.70
47,123569785,0.8628,-0.5718,0.1187,14.15,-13.66,14.33
48,123574787,0.8604,-0.5762,0.1196,13.54,-13.60,14.02
49,123579785,0.8579,-0.5801,0.1108,12.99,-13.60,13.72
50,123584785,0.8579,-0.5815,0.1099,12.32,-13.60,13.29
51,123589787,0.8550,-0.5835,0.1055,11.71,-13.60,12.99
52,123594788,0.8550,-0.5869,0.1094,11.10,-13.54,12.56
53,123599787,0.8501,-0.5879,0.1040,10.43,-13.48,12.13
54,123604785,0.8428,-0.5933,0.1118,9.76,-13.29,11.65
55,123609788,0.8389,-0.5884,0.1094,9.21,-13.17,11.28
56,123614787,0.8354,-0.5952,0.1079,8.54,-13.05,10.79
57,123619786,0.8296,-0.5938,0.1128,8.11,-12.80,10.37
58,123624787,0.8320,-0.5938,0.1113,7.68,-12.44,9.88
59,123629785,0.8296,-0.5972,0.1143,7.44,-12.26,9.39
60,123634786,0.8247,-0.5996,0.1133,7.07,-11.83,8.96
61,123639789,0.8267,-0.6030,0.1167,7.13,-11.65,8.60
62,123644788,0.8198,-0.6035,0.1133,7.01,-11.28,8.11
63,123649787,0.8179,-0.6055,0.1157,7.07,-10.67,7.68
64,123655149,0.8188,-0.6079,0.1182,7.50,-10.24,7.20
65,123659788,0.8208,-0.6113,0.1216,7.80,-9.76,6.89
66,123664785,0.8174,-0.6079,0.1250,8.48,-9.39,6.46
67,123669787,0.8110,-0.6128,0.1255,9.21,-8.84,6.04
68,123674788,0.8057,-0.6147,0.1279,10.12,-8.48,5.79
69,123679787,0.8096,-0.6108,0.1221,10.98,-8.05,5.43
70,123684785,0.8081,-0.6104,0.1255,12.07,-7.74,4.94
71,123689994,0.8086,-0.6152,0.1338,13.41,-7.26,4.51
72,123694787,0.8042,-0.6113,0.1338,14.21,-7.01,4.15
73,123699786,0.8062,-0.6123,0.1372,15.30,-6.59,3.72
74,123704789,0.8047,-0.6113,0.1367,16.34,-6.10,3.35
75,123709785,0.8042,-0.6094,0.1377,17.20,-5.85,3.05
76,123714785,0.8071,-0.6069,0.1445,17.80,-5.30,2.93
77,123719787,0.8071,-0.6045,0.1489,18.54,-4.94,2.68
78,123724789,0.8057,-0.6050,0.1465,19.21,-4.57,2.38
79,123729786,0.8076,-0.6050,0.1494,19.70,-4.27,2.26
80,123734785,0.8105,-0.6001,0.1567,20.12,-3.78,2.01
81,123739787,0.8086,-0.6006,0.1533,20.37,-3.66,1.83
82,123744785,0.8076,-0.5981,0.1611,20.67,-3.17,1.83
83,123750150,0.8047,-0.5972,0.1655,20.98,-3.05,1.71
84,123754788,0.8052,-0.5952,0.1680,21.10,-2.74,1.59
85,123759787,0.8037,-0.5923,0.1660,21.28,-2.68,1.52
86,123764787,0.8013,-0.5908,0.1689,21.40,-2.56,1.34
87,123769787,0.8047,-0.5864,0.1699,21.40,-2.50,1.34
88,123774785,0.8027,-0.5835,0.1694,21.40,-2.20,1.34
89,123779787,0.7983,-0.5850,0.1768,21.52,-2.07,1.40
90,123784785,0.7959,-0.5791,0.1743,21.40,-1.89,1.34
91,123789785,0.7954,-0.5767,0.1787,21.52,-1.95,1.40
92,123794788,0.7969,-0.5742,0.1865,21.52,-1.89,1.40
93,123799787,0.7998,-0.5728,0.1836,21.65,-1.95,1.46
94,123804786,0.7979,-0.5747,0.1904,21.71,-1.89,1.65
95,123809787,0.8027,-0.5732,0.1938,21.77,-2.13,1.71
96,123814787,0.7983,-0.5703,0.1851,21.77,-2.20,1.95
97,123819787,0.8013,-0.5703,0.1982,21.95,-2.20,2.13
98,123824786,0.8013,-0.5723,0.2012,22.13,-2.68,2.44
99,123829787,0.8003,-0.5752,0.1909,22.07,-2.80,2.80
100,123834785,0.7998,-0.5757,0.1992,22.13,-2.80,3.17
101,123839787,0.7959,-0.5747,0.2026,22.07,-3.29,3.48
102,123844796,0.7905,-0.5737,0.2012,22.01,-3.72,3.78
103,123849785,0.7837,-0.5771,0.2065,21.89,-3.84,4.09
104,123854788,0.7817,-0.5752,0.2007,21.77,-4.21,4.51
105,123859787,0.7778,-0.5728,0.1997,21.52,-4.45,4.82
106,123864788,0.7759,-0.5747,0.2090,21.40,-5.06,5.24
107,123869787,0.7759,-0.5771,0.2129,21.22,-5.43,5.73
108,123874787,0.7671,-0.5771,0.2104,21.04,-5.73,6.22
109,123879785,0.7700,-0.5806,0.2114,20.79,-6.16,6.52
110,123884785,0.7642,-0.5850,0.2178,20.61,-6.71,7.07
111,123889785,0.7578,-0.5854,0.2173,20.37,-7.07,7.56
112,123894991,0.7549,-0.5879,0.2129,20.24,-7.62,8.17
113,123899786,0.7402,-0.5933,0.2197,19.88,-8.17,8.60
114,123904787,0.7358,-0.5942,0.2168,19.76,-8.48,9.09
115,123909785,0.7280,-0.6021,0.2124,19.63,-8.96,9.51
116,123914787,0.7222,-0.6030,0.2217,19.70,-9.21,10.12
117,123919877,0.7109,-0.6030,0.2163,19.76,-9.70,10.61
118,123924789,0.7021,-0.6060,0.2168,20.06,-10.06,11.10
119,123929785,0.6890,-0.6060,0.2129,20.61,-10.37,11.83
120,123934787,0.6792,-0.6045,0.2188,21.46,-10.79,12.26
121,123939786,0.6738,-0.6079,0.2148,22.44,-11.10,12.99
122,123944788,0.6675,-0.6128,0.2227,23.72,-11.52,13.54
123,123949785,0.6582,-0.6040,0.2188,25.18,-11.95,14.27
124,123954785,0.6553,-0.6074,0.2197,27.26,-12.26,14.88
125,123959789,0.6523,-0.6079,0.2207,29.21,-12.80,15.67
126,123964787,0.6431,-0.6021,0.2192,31.34,-13.41,16.52
127,123969786,0.6343,-0.6035,0.2197,33.84,-13.96,17.26
128,123974787,0.6328,-0.6064,0.2197,35.98,-14.63,17.99
129,123979785,0.6299,-0.6064,0.2212,38.11,-15.12,18.90
130,123984787,0.6313,-0.6133,0.2217,40.06,-15.85,19.76
131,123989786,0.6372,-0.6167,0.2275,41.77,-16.46,20.79
132,123994785,0.6372,-0.6221,0.2222,43.23,-17.13,21.83
133,123999787,0.6357,-0.6226,0.2300,44.02,-17.62,22.80
134,124004789,0.6309,-0.6279,0.2358,44.63,-18.05,23.84
135,124009786,0.6318,-0.6328,0.2373,44.82,-18.48,24.94
136,124014787,0.6284,-0.6382,0.2441,44.57,-18.84,26.10
137,124019785,0.6260,-0.6396,0.2349,44.15,-19.09,27.20
138,124024787,0.6172,-0.6436,0.2495,43.66,-19.33,28.29
139,124029786,0.6157,-0.6475,0.2437,43.11,-19.63,29.45
140,124034787,0.6084,-0.6509,0.2495,42.56,-19.70,30.55
141,124039785,0.6064,-0.6465,0.2524,42.20,-20.00,31.65
142,124044789,0.5962,-0.6475,0.2480,41.95,-20.06,32.87
143,124049786,0.5962,-0.6436,0.2515,42.13,-20.18,34.15
144,124054885,0.5952,-0.6465,0.2563,42.44,-20.18,35.30
145,124059785,0.5972,-0.6465,0.2500,43.17,-20.49,36.71
146,124064789,0.6079,-0.6533,0.2573,44.27,-20.73,38.17
147,124069790,0.6084,-0.6597,0.2510,45.49,-20.91,40.06
148,124074787,0.6045,-0.6660,0.2529,46.28,-21.22,41.22
149,124079787,0.5977,-0.6699,0.2588,46.89,-21.34,42.68
150,124084788,0.5947,-0.6782,0.2578,47.32,-21.52,43.90
151,124089787,0.5918,-0.6875,0.2573,47.38,-21.59,45.12
152,124094785,0.5996,-0.6948,0.2505,47.26,-21.46,46.16
153,124099785,0.6011,-0.7017,0.2490,47.01,-21.40,47.20
154,124104787,0.6011,-0.7095,0.2451,46.59,-21.40,48.17
155,124109786,0.6011,-0.7119,0.2461,45.98,-21.34,48.90
156,124114785,0.6060,-0.7109,0.2383,45.12,-21.22,49.88
157,124120243,0.6016,-0.7192,0.2373,44.15,-21.10,50.55
158,124124916,0.6055,-0.7212,0.2334,43.17,-20.98,51.10
159,124129787,0.6128,-0.7231,0.2295,42.01,-20.85,51.65
160,124134787,0.6157,-0.7290,0.2212,40.67,-20.73,52.20
161,124139787,0.6211,-0.7285,0.2178,39.15,-20.43,52.74
162,124144806,0.6250,-0.7280,0.2202,37.74,-20.24,53.23
163,124149787,0.6338,-0.7300,0.2085,36.22,-20.00,53.60
164,124154785,0.6377,-0.7368,0.2007,34.70,-19.76,53.96
165,124159787,0.6387,-0.7354,0.1953,33.11,-19.63,54.27
166,124164787,0.6509,-0.7397,0.1875,31.28,-19.45,54.51
167,124169787,0.6548,-0.7432,0.1934,29.27,-19.02,54.70
168,124174787,0.6646,-0.7524,0.1836,27.38,-18.66,54.76
169,124179787,0.6675,-0.7539,0.1846,25.18,-18.29,54.82
170,124184786,0.6729,-0.7588,0.1851,23.11,-17.99,54.88
171,124189786,0.6772,-0.7627,0.1763,21.16,-17.80,54.82
172,124194790,0.6841,-0.7676,0.1758,19.21,-17.32,54.63
173,124199786,0.6875,-0.7690,0.1748,17.62,-17.13,54.45
174,124204787,0.6948,-0.7793,0.1748,15.49,-16.52,54.15
175,124209786,0.6953,-0.7808,0.1689,14.09,-16.22,53.90
176,124214787,0.7065,-0.7886,0.1685,12.13,-15.79,53.41
177,124219787,0.7065,-0.7876,0.1621,10.98,-15.24,53.11
178,124224787,0.7163,-0.7935,0.1597,9.45,-14.82,52.62
179,124229786,0.7183,-0.7993,0.1616,8.35,-14.21,51.95
180,124234787,0.7222,-0.8042,0.1567,7.20,-13.78,51.46
181,124239787,0.7280,-0.8101,0.1533,6.16,-13.41,50.73
182,124244785,0.7354,-0.8081,0.1479,5.24,-12.62,50.12
183,124249789,0.7329,-0.8091,0.1450,4.57,-12.07,49.51
184,124254786,0.7344,-0.8101,0.1367,4.09,-11.52,48.84
185,124259787,0.7397,-0.8042,0.1401,3.84,-11.04,48.11
186,124264785,0.7446,-0.8042,0.1416,3.78,-10.43,47.44
187,124269789,0.7485,-0.7979,0.1382,4.02,-10.06,46.71
188,124274786,0.7520,-0.7935,0.1445,4.21,-9.45,46.04
189,124279787,0.7515,-0.7910,0.1470,5.00,-9.02,45.49
190,124284785,0.7539,-0.7827,0.1431,5.91,-8.66,45.00
191,124289787,0.7568,-0.7798,0.1470,6.89,-8.41,44.39
192,124294785,0.7529,-0.7720,0.1455,8.11,-8.17,43.90
193,124299785,0.7544,-0.7617,0.1519,9.27,-7.93,43.54
194,124305155,0.7559,-0.7544,0.1494,10.79,-7.74,43.05
195,124309787,0.7456,-0.7490,0.1499,11.71,-7.56,42.68
196,124314786,0.7437,-0.7397,0.1494,12.74,-7.32,42.38
197,124319787,0.7383,-0.7310,0.1528,13.72,-7.20,42.07
198,124325253,0.7412,-0.7217,0.1577,14.57,-7.13,41.65
199,124329787,0.7354,-0.7202,0.1538,15.00,-7.20,41.52
200,124334786,0.7388,-0.7227,0.1582,15.43,-7.20,41.34
201,124339787,0.7988,-0.7886,0.0835,14.82,-7.01,40.98
202,124344786,0.7476,-0.8096,0.0752,13.60,-6.83,39.94
203,124349787,0.7466,-1.0000,0.1079,11.95,-6.28,39.21
204,124354786,0.7856,-0.8887,0.0815,10.00,-5.61,37.80
205,124359787,0.7876,-0.9038,-0.0059,7.93,-5.18,35.43
206,124364785,0.7476,-0.9126,0.0347,5.67,-4.82,33.41
207,124370345,0.7549,-0.8618,0.0571,2.93,-3.96,30.67
208,124374943,0.7437,-0.8491,0.0610,1.71,-3.35,28.66
209,124379786,0.6973,-0.8560,0.0410,0.61,-3.23,26.83
210,124384785,0.6890,-0.8330,0.0674,0.00,-3.05,25.61
211,124389787,0.6924,-0.8325,0.0879,-0.30,-2.87,24.27
212,124394786,0.6709,-0.8306,0.0903,-0.67,-2.87,22.68
213,124399787,0.6489,-0.8198,0.1235,-0.67,-2.68,21.28
214,124404785,0.6182,-0.8384,0.1860,-0.12,-2.56,20.00
215,124409787,0.5806,-0.8672,0.2207,0.79,-2.32,18.84
216,124414787,0.5747,-0.8501,0.2432,1.83,-2.56,17.62
217,124419787,0.6250,-0.8667,0.2490,3.11,-2.62,16.22
218,124424785,0.5981,-0.8638,0.2769,3.90,-2.87,15.30
219,124429787,0.5698,-0.8677,0.2588,4.51,-2.99,14.39
220,124434786,0.5513,-0.8662,0.2754,4.76,-3.23,13.78
221,124439787,0.5703,-0.8613,0.3057,4.88,-3.41,12.93
222,124445000,0.6011,-0.8555,0.3184,4.94,-3.60,12.07
223,124449787,0.6216,-0.8521,0.3042,4.63,-3.78,11.22
224,124454787,0.6377,-0.8545,0.2993,4.09,-4.02,10.43
225,124459787,0.6411,-0.8584,0.3047,3.72,-4.27,9.70
226,124464785,0.6479,-0.8594,0.3008,3.41,-4.70,8.96
227,124469785,0.6582,-0.8589,0.2979,3.35,-4.94,8.11
228,124474789,0.6660,-0.8584,0.2783,3.35,-5.18,7.38
229,124479786,0.6748,-0.8594,0.2793,3.60,-5.79,6.59
230,124484787,0.6797,-0.8540,0.2759,4.02,-6.22,5.79
231,124489786,0.6758,-0.8516,0.2651,4.88,-6.59,5.00
232,124494787,0.6821,-0.8423,0.2632,5.91,-7.20,4.02
233,124499786,0.6758,-0.8374,0.2632,7.44,-7.56,3.29
234,124504785,0.6738,-0.8335,0.2622,9.21,-8.11,2.38
235,124509787,0.6606,-0.8301,0.2671,11.10,-8.72,1.71
236,124514787,0.6611,-0.8135,0.2656,13.05,-9.21,0.79
237,124519787,0.6567,-0.8086,0.2656,14.94,-9.70,0.24
238,124524785,0.6572,-0.8037,0.2661,16.65,-10.43,-0.43
239,124529789,0.6611,-0.7959,0.2700,17.74,-10.91,-0.98
240,124534785,0.6582,-0.7930,0.2676,18.90,-11.52,-1.46
241,124539787,0.6646,-0.7905,0.2671,19.45,-12.13,-2.13
242,124544786,0.6655,-0.7900,0.2744,19.63,-12.62,-2.68
243,124549787,0.6631,-0.7832,0.2734,19.51,-13.11,-3.23
244,124554787,0.6675,-0.7827,0.2725,19.02,-13.72,-3.66
245,124559787,0.6694,-0.7803,0.2754,18.48,-14.21,-4.15
246,124564786,0.6675,-0.7788,0.2744,17.56,-14.88,-4.70
247,124569787,0.6675,-0.7729,0.2749,16.52,-15.18,-5.24
248,124574787,0.6660,-0.7720,0.2729,15.43,-15.55,-5.73
249,124579787,0.6680,-0.7700,0.2754,14.27,-15.98,-6.10
250,124584786,0.6641,-0.7695,0.2690,12.93,-16.46,-6.59
251,124589787,0.6636,-0.7656,0.2637,11.89,-16.95,-7.07
252,124594785,0.6660,-0.7676,0.2603,10.73,-17.32,-7.38
253,124599787,0.6621,-0.7666,0.2544,9.94,-17.68,-7.74
254,124604785,0.6582,-0.7646,0.2539,9.09,-17.99,-8.11
255,124609785,0.6494,-0.7627,0.2495,8.54,-18.48,-8.35
256,124614787,0.6504,-0.7671,0.2495,8.11,-18.84,-8.60
257,124619786,0.6494,-0.7715,0.2485,7.93,-19.15,-8.84
258,124624788,0.6489,-0.7739,0.2402,7.87,-19.33,-8.96
259,124629786,0.6509,-0.7754,0.2427,7.93,-19.63,-9.15
260,124634787,0.6470,-0.7798,0.2461,7.87,-19.82,-9.45
261,124639788,0.6396,-0.7817,0.2456,8.17,-20.00,-9.45
262,124644788,0.6440,-0.7827,0.2422,8.48,-20.06,-9.57
263,124649786,0.6396,-0.7773,0.2378,8.66,-20.24,-9.70
264,124654785,0.6387,-0.7832,0.2397,8.96,-20.24,-9.82
265,124659789,0.6401,-0.7817,0.2354,9.09,-20.37,-9.88
266,124664786,0.6348,-0.7827,0.2305,9.27,-20.24,-9.94
267,124669787,0.6323,-0.7798,0.2246,9.51,-20.24,-10.00
268,124674785,0.6294,-0.7749,0.2212,9.57,-20.24,-9.94
269,124679789,0.6230,-0.7788,0.2217,9.70,-20.00,-9.94
270,124684786,0.6187,-0.7739,0.2212,9.76,-19.88,-9.82
271,124689787,0.6167,-0.7729,0.2129,9.76,-19.70,-9.82
272,124694785,0.6177,-0.7720,0.2061,10.00,-19.76,-9.76
273,124699787,0.6099,-0.7734,0.2051,10.12,-19.70,-9.76
274,124704785,0.6094,-0.7725,0.1992,10.37,-19.45,-9.63
275,124709785,0.6021,-0.7686,0.1943,10.55,-19.21,-9.51
276,124714787,0.6001,-0.7686,0.1895,10.67,-19.02,-9.51
277,124719787,0.5957,-0.7681,0.1870,10.91,-18.60,-9.39
278,124724787,0.5947,-0.7710,0.1841,11.16,-18.29,-9.33
279,124729787,0.5913,-0.7666,0.1831,11.22,-18.11,-9.21
280,124734787,0.5903,-0.7695,0.1768,11.34,-17.62,-9.21
281,124739785,0.5938,-0.7656,0.1792,11.46,-17.26,-9.15
282,124744787,0.5928,-0.7690,0.1768,11.65,-17.01,-9.09
283,124749787,0.5884,-0.7656,0.1729,11.65,-16.46,-9.02
284,124754787,0.5854,-0.7646,0.1743,12.01,-16.16,-8.96
285,124759786,0.5854,-0.7642,0.1738,12.26,-15.79,-8.96
286,124764787,0.5859,-0.7612,0.1689,12.20,-15.30,-8.78
287,124769786,0.5835,-0.7583,0.1680,12.13,-14.76,-8.60
288,124774785,0.5835,-0.7534,0.1724,12.07,-14.51,-8.54
289,124779788,0.5869,-0.7510,0.1675,12.01,-14.21,-8.41
290,124784787,0.5874,-0.7471,0.1650,11.77,-13.78,-8.23
291,124789786,0.5806,-0.7495,0.1631,11.52,-13.48,-8.17
292,124794787,0.5825,-0.7432,0.1621,11.04,-13.11,-7.93
293,124799786,0.5850,-0.7383,0.1597,10.73,-12.62,-7.68
294,124804785,0.5825,-0.7354,0.1631,10.30,-12.32,-7.44
295,124809785,0.5811,-0.7378,0.1621,9.88,-11.89,-7.26
296,124814786,0.5801,-0.7344,0.1616,9.51,-11.65,-7.07
297,124819787,0.5815,-0.7319,0.1621,9.15,-10.98,-6.77
298,124824787,0.5815,-0.7310,0.1572,8.78,-10.85,-6.52
299,124829787,0.5806,-0.7290,0.1577,8.48,-10.37,-6.40
300,124834785,0.5845,-0.7295,0.1602,8.11,-10.06,-5.98
301,124839787,0.5811,-0.7256,0.1616,7.80,-9.57,-5.73
302,124844786,0.5845,-0.7192,0.1553,7.50,-9.21,-5.37
303,124849787,0.5815,-0.7178,0.1538,7.13,-9.02,-5.06
304,124854785,0.5806,-0.7183,0.1504,6.83,-8.35,-4.70
305,124859787,0.5830,-0.7158,0.1460,6.59,-8.17,-4.15
306,124865134,0.5859,-0.7139,0.1440,6.28,-7.44,-3.60
307,124869787,0.5874,-0.7070,0.1479,6.22,-7.38,-3.23
308,124874786,0.5859,-0.7100,0.1543,6.16,-6.83,-2.62
309,124879785,0.5889,-0.7085,0.1538,6.04,-6.46,-2.07
310,124884789,0.5903,-0.7090,0.1460,6.04,-5.98,-1.52
311,124889786,0.5869,-0.7080,0.1470,5.79,-5.79,-1.04
312,124894785,0.5825,-0.7046,0.1553,5.98,-5.37,-0.37
313,124899787,0.5830,-0.7026,0.1533,5.98,-5.06,0.30
314,124904786,0.5830,-0.6997,0.1577,5.91,-4.51,0.98
315,124909787,0.5835,-0.6992,0.1597,5.85,-4.15,1.52
316,124914785,0.5791,-0.6938,0.1665,5.91,-3.78,2.13
317,124919787,0.5781,-0.6953,0.1699,5.85,-3.41,2.74
318,124924788,0.5762,-0.6895,0.1709,6.04,-2.93,3.48
319,124929787,0.5757,-0.6899,0.1704,6.16,-2.62,4.02
320,124934787,0.5679,-0.6875,0.1714,6.10,-2.44,4.70
321,124939787,0.5679,-0.6807,0.1782,6.22,-2.13,5.30
322,124944791,0.5674,-0.6841,0.1787,6.34,-1.83,6.10
323,124949787,0.5659,-0.6826,0.1733,6.28,-1.59,6.71
324,124954787,0.5659,-0.6763,0.1812,6.28,-1.34,7.44
325,124959787,0.5669,-0.6724,0.1875,6.28,-1.16,8.11
326,124964787,0.5635,-0.6748,0.1831,6.04,-0.85,8.78
327,124969788,0.5601,-0.6777,0.1807,5.85,-0.43,9.57
328,124974786,0.5693,-0.6758,0.1880,5.61,-0.30,10.37
329,124979787,0.5688,-0.6758,0.1860,5.30,0.00,11.22
330,124984787,0.5728,-0.6772,0.1895,4.94,0.30,12.13
331,124989789,0.5742,-0.6787,0.1958,4.51,0.55,13.11
332,124994785,0.5791,-0.6787,0.1924,4.09,0.91,13.96
333,124999789,0.5762,-0.6812,0.2007,3.66,1.22,15.00
334,125004786,0.5791,-0.6826,0.2017,3.35,1.46,16.10
335,125009787,0.5815,-0.6875,0.1992,3.11,1.77,17.07
336,125014785,0.5869,-0.6875,0.1958,2.80,2.20,18.17
337,125019898,0.5811,-0.6929,0.2026,2.56,2.68,19.27
338,125024787,0.5825,-0.6968,0.1992,2.44,3.11,20.24
339,125029786,0.5815,-0.6992,0.2104,2.44,3.54,21.28
340,125034785,0.5771,-0.7065,0.2056,2.68,4.15,22.20
341,125039787,0.5742,-0.7109,0.2056,3.17,4.51,23.11
342,125044882,0.5693,-0.7173,0.2095,3.84,4.88,23.90
343,125049787,0.5615,-0.7222,0.2080,4.57,5.43,24.63
344,125054786,0.5522,-0.7280,0.2090,5.67,5.85,25.12
345,125059787,0.5459,-0.7329,0.1982,6.83,6.22,25.61
346,125064785,0.5376,-0.7344,0.1968,8.29,6.77,26.04
347,125069787,0.5259,-0.7407,0.2017,9.70,7.26,26.22
348,125074786,0.5161,-0.7397,0.1978,11.28,7.62,26.16
349,125079785,0.5063,-0.7471,0.2017,12.80,7.93,26.28
350,125084789,0.4946,-0.7402,0.1978,14.45,8.35,26.16
351,125089786,0.4814,-0.7515,0.2041,15.85,8.60,25.98
352,125094789,0.4707,-0.7568,0.2061,17.13,8.96,25.85
353,125099786,0.4590,-0.7549,0.2031,18.54,9.21,25.55
354,125104860,0.4468,-0.7583,0.2168,19.70,9.45,25.24
355,125109787,0.4370,-0.7671,0.2251,20.91,9.76,24.82
356,125114787,0.4194,-0.7686,0.2280,21.89,9.94,24.27
357,125119785,0.4141,-0.7803,0.2344,22.99,10.00,23.60
358,125124787,0.4053,-0.7881,0.2407,23.90,10.12,23.11
359,125129786,0.3989,-0.7915,0.2495,24.82,10.18,22.50
360,125134789,0.3921,-0.7910,0.2446,25.73,10.18,21.83
361,125139786,0.3813,-0.7954,0.2534,26.28,10.12,21.16
362,125144785,0.3726,-0.8008,0.2563,26.77,10.24,20.55
363,125149789,0.3516,-0.8037,0.2612,27.07,10.06,20.00
364,125154787,0.3433,-0.8057,0.2637,27.20,10.24,19.70
365,125159786,0.3267,-0.8135,0.2808,27.07,10.30,19.39
366,125164785,0.3262,-0.8271,0.2744,26.65,10.24,19.33
367,125169789,0.3286,-0.8418,0.2827,26.10,10.55,19.51
368,125174787,0.3193,-0.8540,0.3018,25.49,10.61,19.70
369,125179786,0.3140,-0.8599,0.3154,24.63,11.22,20.06
370,125184786,0.3037,-0.8740,0.3262,23.84,11.71,20.79
371,125189789,0.2935,-0.8818,0.3535,23.29,12.56,21.40
372,125194790,0.2881,-0.8921,0.3652,22.80,13.23,22.26
373,125199786,0.2900,-0.8965,0.3726,22.74,14.15,23.05
374,125204785,0.2891,-0.8975,0.3735,22.99,15.12,23.78
375,125209789,0.2881,-0.9019,0.3794,23.72,16.10,24.57
376,125214787,0.2983,-0.9097,0.3765,24.70,16.71,25.49
377,125219786,0.2939,-0.9180,0.3892,26.16,17.44,26.46
378,125224785,0.2905,-0.9238,0.3857,28.05,18.05,27.44
379,125229789,0.2822,-0.9302,0.3975,30.30,18.66,28.60
380,125234787,0.2676,-0.9365,0.4092,32.80,18.90,29.51
381,125239786,0.2549,-0.9346,0.4141,35.37,19.27,30.43
382,125244789,0.2339,-0.9341,0.4238,37.93,19.21,31.40
383,125249786,0.2163,-0.9380,0.4336,40.30,19.21,32.13
384,125254787,0.2227,-0.9424,0.4365,42.07,18.90,32.74
385,125259786,0.2144,-0.9370,0.4438,43.41,18.41,33.17
386,125264787,0.1973,-0.9443,0.4541,44.09,17.80,33.41
387,125269786,0.2002,-0.9482,0.4756,43.96,17.07,33.48
388,125274789,0.2075,-0.9458,0.4858,43.35,16.34,33.35
389,125279786,0.2129,-0.9561,0.4956,42.26,15.73,33.05
390,125284785,0.2168,-0.9497,0.5156,41.16,15.00,32.50
391,125289789,0.2148,-0.9971,0.5688,40.18,14.76,32.20
392,125294786,0.2397,-0.9722,0.5352,39.94,14.51,31.83
393,125299789,0.2485,-1.0054,0.5366,39.21,13.78,31.22
394,125304887,0.2476,-0.9917,0.6094,38.41,13.41,30.91
395,125309787,0.2764,-1.0806,0.4995,38.54,12.68,30.91
396,125314788,0.3296,-1.1343,0.6191,39.39,12.32,32.13
397,125319787,0.2910,-1.0337,0.6357,41.40,11.83,33.78
398,125324785,0.2422,-0.9673,0.5693,43.60,11.34,34.15
399,125329809,0.2666,-0.8999,0.5513,47.07,10.73,33.23
400,125334789,0.2046,-0.7046,0.4893,51.04,9.76,30.37
401,125339786,0.1597,-0.9126,0.4717,57.01,7.32,26.77
402,125344787,0.1484,-1.0439,0.4595,62.44,4.39,24.70
403,125349786,0.1528,-1.1226,0.4971,67.44,1.46,23.66
404,125354789,0.1885,-1.1489,0.5425,71.28,-1.16,23.23
405,125359786,0.2388,-1.1460,0.6011,74.51,-3.72,22.99
406,125364790,0.2803,-1.0928,0.6221,75.55,-4.88,22.56
407,125369785,0.3237,-1.0737,0.6392,75.67,-5.85,21.89
408,125374789,0.3369,-1.0879,0.6865,74.45,-6.28,21.04
409,125379786,0.3452,-1.1123,0.6846,72.80,-6.34,20.37
410,125384787,0.3433,-1.1113,0.6665,70.73,-6.40,19.76
411,125389786,0.3398,-1.1514,0.6787,68.60,-6.65,19.39
412,125394787,0.3481,-1.1934,0.6704,67.01,-6.71,19.57
413,125399787,0.3301,-1.1968,0.5981,67.38,-7.87,20.18
414,125404787,0.4619,-1.2124,0.6460,69.02,-8.54,21.83
415,125409786,0.5381,-1.1528,0.7427,70.37,-8.96,23.60
416,125414787,0.5889,-1.1226,0.6978,70.85,-9.02,25.00
417,125419786,0.6006,-1.1201,0.6719,70.67,-9.82,26.34
418,125424785,0.5752,-1.0908,0.7275,70.30,-10.43,27.74
419,125429785,0.5576,-1.0601,0.7515,69.76,-10.98,28.96
420,125434787,0.5527,-1.0449,0.7188,69.09,-12.26,30.24
421,125439786,0.5381,-1.0308,0.6826,68.23,-13.60,31.52
422,125444785,0.5630,-1.0083,0.7046,66.95,-15.18,32.80
423,125450271,0.6372,-0.9912,0.7148,64.39,-17.20,34.57
424,125454787,0.6489,-0.9717,0.6851,61.89,-18.66,35.73
425,125459787,0.6074,-0.9585,0.6782,57.68,-20.73,36.95
426,125464787,0.5620,-0.9380,0.6685,52.01,-22.38,38.29
427,125469805,0.5327,-0.9077,0.6670,45.24,-23.96,39.45
428,125475318,0.5322,-0.8804,0.6387,35.67,-25.67,40.67
429,125479788,0.5405,-0.8691,0.6216,28.84,-26.95,41.40
430,125484786,0.5376,-0.8359,0.5908,19.88,-28.48,42.20
431,125489788,0.5264,-0.8184,0.5737,10.61,-30.06,42.68
432,125494785,0.5181,-0.7915,0.5366,1.52,-31.65,42.93
433,125499789,0.5151,-0.7773,0.5146,-7.13,-33.29,42.99
434,125504787,0.5122,-0.7622,0.5029,-14.94,-35.06,43.11
435,125509787,0.5146,-0.7476,0.4873,-21.95,-36.77,42.80
436,125514787,0.5107,-0.7295,0.4707,-27.44,-38.35,42.32
437,125519787,0.5146,-0.7222,0.4634,-31.71,-40.30,41.83
438,125524785,0.5220,-0.7285,0.4531,-34.45,-41.89,41.16
439,125529785,0.5742,-0.7529,0.4097,-35.49,-43.72,40.67
440,125534787,0.5684,-0.7603,0.4141,-34.63,-45.61,40.37
441,125539787,0.5742,-0.7529,0.4263,-32.20,-47.20,40.24
442,125544787,0.5781,-0.7485,0.3945,-27.93,-48.78,40.00
443,125549787,0.5894,-0.7427,0.3872,-22.20,-50.49,39.76
444,125554787,0.5811,-0.7393,0.3999,-15.37,-51.95,39.39
445,125559787,0.5757,-0.7314,0.3838,-7.50,-53.54,38.90
446,125564785,0.5752,-0.7368,0.3633,2.80,-55.12,38.41
447,125569787,0.5767,-0.7295,0.3457,9.94,-56.40,37.93
448,125574786,0.5625,-0.7568,0.3848,18.90,-57.32,37.74
449,125579789,0.5493,-0.7783,0.3945,28.11,-57.99,37.62
450,125584787,0.5586,-0.7612,0.3804,37.38,-58.72,37.62
451,125589787,0.5684,-0.7559,0.3892,46.89,-59.39,37.50
452,125594785,0.5688,-0.7651,0.4028,55.79,-59.70,37.38
453,125599789,0.5649,-0.7651,0.4106,64.02,-60.00,37.44
454,125604786,0.5591,-0.7856,0.4019,71.52,-60.37,37.56
455,125609789,0.5000,-0.8335,0.4233,78.72,-60.67,38.29
456,125614787,0.5015,-0.7764,0.4185,85.85,-61.16,38.84
457,125619787,0.5244,-0.7490,0.4253,92.99,-61.77,39.09
458,125624787,0.5591,-0.7607,0.4536,98.90,-62.32,38.96
459,125629787,0.5791,-0.7720,0.4834,103.66,-62.93,39.09
460,125634785,0.5796,-0.7705,0.5093,106.71,-63.17,39.21
461,125639789,0.5728,-0.7754,0.5146,108.41,-63.17,39.51
462,125644787,0.5762,-0.7739,0.5278,108.66,-63.35,39.57
463,125649787,0.5776,-0.7695,0.5303,107.74,-63.35,39.63
464,125654787,0.5786,-0.7686,0.5386,105.49,-63.60,39.88
465,125659787,0.5815,-0.7598,0.5522,102.01,-63.60,40.06
466,125664787,0.5864,-0.7583,0.5581,97.74,-63.66,40.18
467,125669787,0.5874,-0.7559,0.5708,92.80,-63.78,40.49
468,125674787,0.5903,-0.7539,0.5776,87.62,-63.90,40.73
469,125679788,0.5850,-0.7515,0.5874,81.89,-64.15,40.91
470,125684787,0.5718,-0.7529,0.6104,76.40,-64.45,41.22
471,125689787,0.5552,-0.7500,0.6328,70.91,-64.76,41.52
472,125694785,0.5459,-0.7500,0.6533,65.55,-65.12,41.59
473,125699788,0.5122,-0.7466,0.6587,60.43,-65.67,41.77
474,125704787,0.5322,-0.7476,0.6655,55.00,-66.34,41.77
475,125709787,0.5337,-0.7466,0.6582,49.82,-66.77,41.71
476,125714787,0.5171,-0.7544,0.6675,44.57,-67.44,41.52
477,125719787,0.5112,-0.7495,0.6616,39.21,-68.05,41.40
478,125724787,0.4780,-0.7500,0.6548,33.60,-68.84,41.28
479,125729787,0.5078,-0.7554,0.6514,28.05,-69.57,40.98
480,125734785,0.5264,-0.7612,0.6489,22.99,-70.24,40.67
481,125739787,0.5210,-0.7710,0.6323,18.11,-71.10,40.43
482,125744787,0.5010,-0.7729,0.6240,13.54,-71.83,40.12
483,125749787,0.4941,-0.7681,0.6084,9.09,-72.68,39.76
484,125755000,0.4985,-0.7720,0.6021,5.00,-73.29,39.33
485,125759787,0.5010,-0.7788,0.5947,1.40,-73.96,39.02
486,125764787,0.5068,-0.7837,0.5928,-1.65,-74.57,38.90
487,125769787,0.5073,-0.7954,0.5918,-3.66,-75.18,38.60
488,125774787,0.5039,-0.8076,0.5879,-5.06,-75.67,38.23
489,125779788,0.4956,-0.8125,0.5918,-5.79,-76.28,37.93
490,125784787,0.4863,-0.8140,0.5854,-5.91,-76.83,37.68
491,125789787,0.4780,-0.8057,0.5708,-5.55,-77.38,37.26
492,125794785,0.4731,-0.8081,0.5596,-4.88,-77.87,37.01
493,125799787,0.4575,-0.8076,0.5474,-3.84,-78.35,36.34
494,125804789,0.4507,-0.8037,0.5337,-2.68,-78.78,35.79
495,125809786,0.4434,-0.7983,0.5166,-1.40,-79.02,35.37
496,125814787,0.4316,-0.7988,0.5142,-0.24,-79.15,34.76
497,125819786,0.4292,-0.7998,0.4897,0.85,-79.27,34.02
498,125824787,0.4209,-0.8027,0.4692,1.65,-79.39,33.48
499,125829786,0.4194,-0.8145,0.4453,2.38,-79.33,32.93
500,125834785,0.4150,-0.8247,0.4287,2.50,-78.96,32.38
501,125839785,0.4126,-0.8291,0.4072,2.44,-79.02,31.77
502,125844787,0.4062,-0.8501,0.3892,1.83,-78.48,30.79
503,125849787,0.3984,-0.8564,0.3833,1.10,-78.17,29.94
504,125854787,0.3877,-0.8530,0.3862,-0.18,-77.38,28.48
505,125859786,0.3838,-0.8477,0.3701,-1.40,-77.01,27.26
506,125864785,0.3667,-0.8423,0.3623,-3.54,-76.34,25.67
507,125869787,0.3530,-0.8457,0.3613,-5.30,-75.61,24.57
508,125874787,0.3447,-0.8291,0.3516,-8.05,-74.88,23.29
509,125880225,0.3442,-0.8203,0.3301,-11.65,-73.96,21.65
510,125884788,0.3511,-0.8184,0.3149,-14.21,-73.23,20.49
511,125889787,0.3457,-0.8169,0.3105,-17.87,-72.26,19.21
512,125894785,0.3477,-0.7983,0.2886,-21.59,-71.34,17.93
513,125899789,0.3525,-0.7925,0.2607,-25.61,-70.43,16.65
514,125904787,0.3555,-0.8008,0.2612,-29.88,-69.27,15.61
515,125909787,0.3545,-0.7939,0.2559,-34.51,-68.11,14.51
516,125914785,0.3569,-0.7944,0.2383,-39.21,-66.71,13.48
517,125919787,0.3628,-0.7974,0.2412,-43.78,-65.49,12.68
518,125924824,0.3604,-0.8018,0.2446,-48.11,-64.15,11.77
519,125929787,0.3472,-0.8091,0.2373,-52.07,-62.62,10.98
520,125934785,0.3481,-0.8110,0.2407,-55.61,-61.10,10.12
521,125939785,0.3545,-0.8174,0.2354,-58.66,-59.63,9.27
522,125944787,0.3584,-0.8218,0.2358,-61.10,-58.35,8.66
523,125949788,0.3647,-0.8179,0.2349,-63.11,-56.71,7.80
524,125954787,0.3740,-0.8242,0.2231,-64.63,-55.06,7.13
525,125959787,0.3789,-0.8247,0.2197,-65.49,-53.54,6.52
526,125964787,0.3823,-0.8218,0.2129,-65.73,-51.95,6.04
527,125969787,0.3862,-0.8267,0.2100,-65.43,-50.12,5.61
528,125974880,0.3784,-0.8296,0.1958,-64.51,-48.35,5.30
529,125979787,0.3828,-0.8315,0.1914,-62.93,-46.52,5.12
530,125984787,0.3794,-0.8354,0.1865,-60.61,-44.70,5.00
531,125989788,0.3794,-0.8438,0.1758,-58.17,-42.80,5.00
532,125994855,0.3696,-0.8477,0.1631,-55.49,-40.91,5.12
533,125999787,0.3696,-0.8516,0.1646,-52.62,-38.96,5.12
534,126004786,0.3623,-0.8599,0.1553,-49.51,-37.20,5.12
535,126009789,0.3638,-0.8667,0.1445,-46.46,-35.18,5.30
536,126014787,0.3662,-0.8706,0.1392,-43.23,-33.05,5.43
537,126019787,0.3696,-0.8677,0.1240,-40.00,-30.91,5.55
538,126024787,0.3672,-0.8691,0.1172,-36.71,-28.90,5.79
539,126029787,0.3706,-0.8677,0.1167,-33.29,-26.59,5.91
540,126034787,0.3677,-0.8706,0.1182,-29.82,-24.51,5.98
541,126039787,0.3647,-0.8745,0.1191,-26.28,-22.38,6.16
542,126044785,0.3589,-0.8745,0.1260,-22.68,-20.12,6.28
543,126049788,0.3398,-0.8804,0.1279,-18.84,-17.87,6.46
544,126054787,0.3291,-0.8833,0.1455,-14.88,-15.61,6.71
545,126059787,0.3394,-0.8774,0.1611,-10.91,-13.11,6.89
546,126064787,0.3418,-0.8682,0.1523,-6.89,-10.91,7.01
547,126069787,0.3452,-0.8711,0.1641,-2.99,-8.90,7.44
548,126074787,0.3408,-0.8721,0.1768,1.04,-6.65,7.80
549,126079787,0.3408,-0.8740,0.1870,4.57,-4.63,8.29
550,126084787,0.3374,-0.8687,0.1841,7.74,-2.62,8.96
551,126089787,0.3374,-0.8726,0.1919,10.73,-0.73,9.70
552,126094787,0.3369,-0.8696,0.1914,13.35,0.98,10.24
553,126099787,0.3315,-0.8706,0.1909,15.67,2.68,10.98
554,126104854,0.3286,-0.8706,0.2002,17.74,4.45,11.65
555,126109787,0.3213,-0.8608,0.1938,19.39,6.16,12.26
556,126114789,0.3164,-0.8545,0.2109,20.73,7.68,12.74
557,126119787,0.3120,-0.8486,0.2153,21.34,9.15,13.29
558,126124875,0.3081,-0.8506,0.2153,21.65,10.67,13.90
559,126129789,0.3096,-0.8511,0.2271,21.59,11.89,14.39
560,126135080,0.3149,-0.8467,0.2407,20.98,13.11,14.88
561,126139787,0.3198,-0.8467,0.2437,20.18,14.21,15.61
562,126144787,0.3174,-0.8501,0.2661,18.66,15.12,16.22
563,126149788,0.3022,-0.8359,0.2798,16.71,16.04,17.07
564,126154787,0.2876,-0.8013,0.2847,14.15,16.52,17.44
565,126159787,0.2944,-0.8247,0.2856,11.52,17.13,17.99
566,126164787,0.3071,-0.8335,0.3066,8.72,17.56,18.35
567,126169788,0.3169,-0.8169,0.3115,5.79,18.05,18.60
568,126174786,0.3071,-0.7988,0.3096,2.68,18.48,18.84
569,126179787,0.2964,-0.7983,0.3076,-0.61,18.54,18.90
570,126184787,0.2891,-0.7993,0.3159,-4.09,18.84,19.09
571,126189786,0.2744,-0.7964,0.3022,-7.87,18.84,19.02
572,126194788,0.2661,-0.8022,0.2920,-11.95,18.72,19.27
573,126199787,0.2524,-0.7969,0.2856,-16.28,18.35,19.51
574,126204787,0.2563,-0.8022,0.2861,-20.91,18.17,20.00
575,126209788,0.2563,-0.8311,0.2935,-25.79,17.68,20.49
576,126214898,0.2456,-0.8037,0.2690,-31.16,17.20,21.40
577,126219787,0.2656,-0.7539,0.2671,-36.71,16.22,21.95
578,126225180,0.2822,-0.7295,0.2778,-41.22,15.91,23.11
579,126229788,0.2524,-0.7227,0.3145,-44.15,15.85,24.09
580,126234787,0.2212,-0.8003,0.3003,-45.79,16.22,25.00
581,126239787,0.2163,-0.8682,0.2451,-47.01,16.71,26.40
582,126244785,0.2134,-0.8037,0.2129,-48.54,17.32,28.54
583,126249785,0.1934,-0.7417,0.2021,-49.27,17.50,30.12
584,126254789,0.1943,-0.7349,0.0977,-48.90,16.95,31.52
585,126259786,0.1851,-0.7549,0.0464,-47.80,15.30,32.68
586,126264787,0.1699,-0.7715,0.0986,-45.85,13.90,34.15
587,126269787,0.1631,-0.7910,0.1338,-43.35,12.62,35.79
588,126275181,0.1616,-0.8027,0.1045,-40.12,11.16,37.62
589,126279787,0.1548,-0.7939,0.0762,-36.16,9.70,39.51
590,126284787,0.1450,-0.7856,0.0962,-31.65,8.60,41.52
591,126289786,0.1494,-0.7969,0.0962,-26.46,7.56,43.41
592,126294860,0.1631,-0.8052,0.0566,-20.67,6.22,45.37
593,126299786,0.1768,-0.8066,0.0210,-14.57,4.94,47.13
594,126305192,0.1675,-0.8057,0.0239,-7.99,3.54,48.78
595,126309788,0.1562,-0.8096,-0.0063,-1.34,2.20,50.43
596,126314786,0.1621,-0.8223,-0.0356,5.30,0.79,51.95
597,126319788,0.1577,-0.8354,-0.0498,11.83,-0.61,53.35
598,126324787,0.1294,-0.8428,-0.0498,17.68,-1.83,54.70
599,126329787,0.1221,-0.8950,-0.0513,22.56,-2.93,56.04
600,126334786,0.1460,-0.9180,-0.0586,26.40,-3.66,57.62
601,126339787,0.1621,-0.8901,-0.0708,29.82,-4.39,59.09
602,126344785,0.1567,-0.8945,-0.0786,31.95,-4.82,60.12
603,126349785,0.1611,-0.9224,-0.1011,33.78,-5.06,61.40
604,126354821,0.1675,-0.9360,-0.0962,34.70,-5.24,62.99
605,126359789,0.1406,-0.9600,-0.1104,34.63,-5.30,64.21
606,126364787,0.1338,-0.9810,-0.1099,34.21,-5.12,65.37
607,126369787,0.1548,-1.0020,-0.1084,33.05,-4.88,66.65
608,126374898,0.1738,-0.9917,-0.1284,31.10,-4.15,68.05
609,126379787,0.1797,-1.0142,-0.1436,28.78,-3.66,68.72
610,126384787,0.1904,-1.0322,-0.1440,25.06,-2.56,69.57
611,126389788,0.1733,-1.0503,-0.1406,20.91,-0.98,70.18
612,126394785,0.1450,-1.0654,-0.1313,16.16,1.22,70.06
613,126399787,0.1128,-1.0776,-0.1362,11.16,4.15,69.63
614,126404801,0.0732,-1.0815,-0.1567,5.91,7.56,68.48
615,126409787,0.0815,-1.0972,-0.2178,0.37,11.10,66.95
616,126414785,0.0903,-1.1289,-0.2559,-5.67,14.51,65.12
617,126419789,0.0928,-1.1787,-0.2720,-11.83,17.80,63.54
618,126424787,0.1143,-1.2280,-0.2959,-18.11,20.85,62.20
619,126429787,0.1206,-1.2671,-0.3003,-24.21,24.15,61.10
620,126434786,0.1509,-1.2866,-0.3042,-30.06,27.32,60.18
621,126439788,0.1587,-1.2954,-0.3140,-35.49,30.55,58.96
622,126444786,0.1655,-1.3198,-0.3208,-40.30,34.15,57.74
623,126449789,0.1782,-1.3354,-0.3276,-44.33,37.93,56.40
624,126454787,0.1929,-1.3530,-0.3608,-47.20,41.77,54.76
625,126459786,0.1992,-1.3809,-0.3857,-49.21,45.43,52.93
626,126464787,0.2007,-1.4170,-0.4067,-50.24,49.15,50.91
627,126469786,0.2065,-1.4321,-0.4233,-50.12,52.87,48.54
628,126474787,0.2153,-1.4604,-0.4355,-48.90,56.77,45.85
629,126479786,0.2227,-1.4834,-0.4399,-46.83,60.61,42.99
630,126484822,0.2334,-1.5015,-0.4600,-44.02,64.57,39.82
631,126489789,0.2446,-1.5166,-0.4658,-40.43,68.54,36.34
632,126494787,0.2578,-1.5342,-0.4746,-36.46,72.38,32.74
633,126499787,0.2593,-1.5508,-0.4824,-32.32,75.91,28.84
634,126504786,0.2534,-1.5713,-0.4912,-28.29,79.45,24.76
635,126509787,0.2456,-1.5884,-0.4912,-24.51,83.84,20.67
636,126514913,0.2378,-1.6055,-0.5093,-21.46,86.59,16.40
637,126519788,0.2354,-1.6138,-0.5098,-19.33,89.57,11.89
638,126524786,0.2339,-1.6421,-0.5225,-17.99,93.17,7.26
639,126529787,0.2344,-1.6567,-0.5312,-17.44,96.77,2.50
640,126534787,0.2319,-1.6733,-0.5391,-17.99,100.18,-2.62
641,126539787,0.2227,-1.7051,-0.5518,-19.51,103.66,-8.05
642,126544786,0.2178,-1.7183,-0.5464,-21.77,107.38,-13.54
643,126549787,0.2310,-1.7319,-0.5396,-24.82,110.91,-19.21
644,126554785,0.2422,-1.7510,-0.5396,-28.48,114.39,-25.12
645,126559787,0.2476,-1.7700,-0.5303,-32.87,118.05,-31.16
646,126564787,0.2480,-1.7817,-0.5112,-37.68,121.34,-37.26
647,126569788,0.2549,-1.7949,-0.4883,-42.68,124.70,-43.35
648,126574786,0.2632,-1.8140,-0.4644,-47.68,127.87,-49.51
649,126579787,0.2710,-1.8232,-0.4419,-52.56,131.10,-55.37
650,126584787,0.2803,-1.8286,-0.4204,-57.13,134.45,-61.22
651,126589787,0.2798,-1.8369,-0.3979,-61.22,136.95,-67.01
652,126594786,0.2715,-1.8384,-0.3696,-64.63,139.45,-72.74
653,126599787,0.2627,-1.8403,-0.3506,-67.80,141.65,-78.17
654,126605250,0.2578,-1.8521,-0.3281,-70.79,143.84,-83.60
655,126609787,0.2583,-1.8496,-0.3091,-73.66,145.91,-89.02
656,126614787,0.2646,-1.8506,-0.2935,-76.52,147.87,-93.96
657,126619788,0.2563,-1.8579,-0.2832,-79.27,149.63,-98.90
658,126624786,0.2520,-1.8579,-0.2583,-81.65,151.16,-103.78
659,126629787,0.2446,-1.8633,-0.2397,-84.09,152.62,-108.48
660,126634786,0.2305,-1.8623,-0.2168,-86.40,154.02,-112.93
661,126639789,0.2212,-1.8599,-0.1865,-88.29,155.30,-117.50
662,126644787,0.2104,-1.8560,-0.1655,-89.94,156.46,-121.83
663,126649786,0.1714,-1.8599,-0.1460,-90.79,157.20,-125.73
664,126654785,0.1841,-1.8408,-0.1182,-90.67,158.05,-129.70
665,126659812,0.2031,-1.8237,-0.0957,-89.70,158.78,-133.48
666,126664884,0.2212,-1.8135,-0.0645,-88.05,159.27,-137.07
667,126669787,0.2383,-1.7983,-0.0483,-85.98,159.70,-140.61
668,126674787,0.2397,-1.7871,-0.0220,-83.35,160.06,-143.72
669,126679787,0.2222,-1.7832,0.0034,-80.37,160.43,-146.83
670,126685204,0.2217,-1.7627,0.0298,-77.32,160.49,-149.70
671,126689787,0.2266,-1.7451,0.0532,-73.84,160.30,-152.56
672,126694787,0.2319,-1.7432,0.0981,-70.73,160.37,-155.61
673,126699788,0.2285,-1.7427,0.1396,-68.11,159.88,-158.60
674,126704785,0.2563,-1.7520,0.1270,-65.73,159.63,-161.34
675,126709788,0.2554,-1.7422,0.2021,-63.11,159.21,-164.02
676,126714846,0.2109,-1.7373,0.2188,-60.79,158.84,-166.83
677,126719787,0.2236,-1.7329,0.2095,-58.78,158.17,-169.51
678,126724788,0.2041,-1.7280,0.2651,-55.98,157.32,-172.38
679,126729787,0.1948,-1.7344,0.3184,-53.11,156.46,-175.30
680,126734787,0.1743,-1.7197,0.3276,-49.57,155.06,-178.11
681,126739787,0.1470,-1.7061,0.3555,-45.24,153.66,-181.16
682,126744786,0.1177,-1.6904,0.3950,-40.43,151.77,-184.21
683,126749787,0.1123,-1.6646,0.4106,-35.00,149.70,-187.44
684,126754786,0.1089,-1.6382,0.4380,-29.33,147.38,-190.49
685,126759785,0.0903,-1.6138,0.4688,-23.54,144.57,-193.54
686,126764787,0.0703,-1.5859,0.5059,-17.80,141.71,-196.71
687,126769786,0.0757,-1.5522,0.5366,-12.68,138.41,-199.76
688,126774787,0.0708,-1.5103,0.5654,-8.05,135.00,-202.68
689,126779787,0.0840,-1.4590,0.6006,-4.57,131.28,-205.55
690,126784785,0.1240,-1.4209,0.6436,-2.62,127.56,-208.41
691,126789789,0.1152,-1.3608,0.6318,-2.32,123.84,-210.85
692,126794787,0.1128,-1.2925,0.6421,-3.17,119.82,-213.11
693,126799787,0.1089,-1.2427,0.6685,-5.12,115.98,-215.00
694,126804785,0.1055,-1.1904,0.6660,-7.56,112.07,-216.83
695,126809789,0.1118,-1.1401,0.6660,-10.18,107.93,-218.54
696,126814786,0.1201,-1.0903,0.6899,-12.93,103.90,-219.88
697,126819789,0.1748,-1.0112,0.6196,-15.91,100.00,-221.10
698,126824786,0.1733,-0.9380,0.5991,-19.70,96.04,-221.95
699,126829787,0.1685,-0.9019,0.6445,-24.15,92.44,-222.56
700,126834789,0.1797,-0.8643,0.5825,-28.96,89.02,-222.87
701,126839786,0.1938,-0.8096,0.5298,-33.72,85.49,-222.99
702,126845066,0.1865,-0.7573,0.5288,-38.48,82.80,-222.80
703,126849788,0.1797,-0.7041,0.5166,-42.80,79.51,-222.32
704,126854786,0.1768,-0.6509,0.4722,-46.59,76.28,-221.65
705,126859785,0.1792,-0.6304,0.4888,-49.39,73.84,-220.98
706,126864787,0.1797,-0.5859,0.4839,-52.38,70.43,-219.82
707,126869787,0.1689,-0.5522,0.4746,-54.09,67.44,-218.66
708,126874786,0.1587,-0.5303,0.4780,-54.82,64.70,-217.32
709,126879789,0.1548,-0.5122,0.4912,-54.57,62.01,-216.10
710,126884787,0.1479,-0.4941,0.4873,-53.84,59.82,-215.12
711,126889786,0.1431,-0.4702,0.4971,-51.95,56.65,-213.54
712,126894785,0.1431,-0.4580,0.5073,-50.43,54.57,-212.56
713,126899789,0.1470,-0.4355,0.5039,-48.17,52.13,-211.46
714,126904787,0.1504,-0.4136,0.5063,-45.85,49.94,-210.12
715,126909787,0.1602,-0.3896,0.5112,-43.72,47.62,-209.02
716,126914786,0.1670,-0.3638,0.5229,-42.01,45.55,-207.74
717,126919787,0.1772,-0.3408,0.5200,-40.85,43.72,-206.52
718,126924786,0.1860,-0.3169,0.5288,-40.18,41.95,-205.00
719,126929998,0.1982,-0.2876,0.5391,-39.94,40.37,-203.17
720,126934789,0.2065,-0.2642,0.5459,-40.24,39.51,-201.71
721,126939786,0.2197,-0.2358,0.5532,-40.85,38.60,-200.06
722,126944787,0.2354,-0.2075,0.5586,-41.52,38.11,-198.05
723,126949787,0.2446,-0.1821,0.5620,-42.26,37.68,-195.98
724,126954785,0.2510,-0.1504,0.5645,-42.62,37.38,-193.90
725,126959789,0.2632,-0.1201,0.5620,-42.74,37.38,-191.77
726,126964785,0.2720,-0.0913,0.5693,-42.32,37.62,-189.51
727,126969787,0.2808,-0.0615,0.5708,-41.40,37.80,-187.07
728,126974786,0.2939,-0.0298,0.5547,-40.00,37.99,-184.63
729,126980155,0.3013,0.0054,0.5483,-37.74,38.35,-181.59
730,126984789,0.3096,0.0317,0.5449,-35.73,38.60,-179.51
731,126989786,0.3164,0.0664,0.5391,-32.93,38.78,-176.95
732,126994787,0.3052,0.0879,0.5332,-29.70,38.96,-174.02
733,126999786,0.3301,0.1294,0.5146,-26.16,38.96,-171.22
734,127005299,0.3667,0.1694,0.5200,-21.10,38.84,-167.80
735,127009787,0.3555,0.1709,0.5049,-17.74,39.09,-165.55
736,127015307,0.3618,0.2144,0.4995,-12.80,39.02,-161.77
737,127019787,0.3657,0.2407,0.4985,-9.45,39.21,-159.21
738,127024786,0.3682,0.2661,0.4932,-5.61,39.09,-156.22
739,127029785,0.3784,0.2944,0.4844,-2.01,39.21,-152.99
740,127034789,0.3833,0.3193,0.4834,1.04,39.39,-149.63
741,127039786,0.3960,0.3472,0.4780,3.90,39.82,-146.34
742,127044865,0.4082,0.3730,0.4653,5.91,40.00,-142.99
743,127049786,0.4219,0.3911,0.4609,7.32,40.18,-139.70
744,127054788,0.4282,0.4077,0.4497,8.05,40.55,-136.10
745,127059785,0.4346,0.4302,0.4370,8.41,40.55,-132.44
746,127064785,0.4424,0.4507,0.4341,8.17,40.61,-128.84
747,127069787,0.4473,0.4663,0.4287,7.68,40.79,-125.12
748,127074789,0.4414,0.4824,0.4248,6.77,40.98,-121.40
749,127079786,0.4365,0.5005,0.4268,5.73,41.28,-117.62
750,127084785,0.4292,0.5190,0.4204,4.70,41.77,-113.90
751,127089789,0.4233,0.5376,0.4204,3.90,42.26,-110.18
752,127094787,0.4214,0.5498,0.4146,3.29,42.62,-106.46
753,127099787,0.4185,0.5625,0.4087,2.87,43.11,-102.62
754,127104786,0.4087,0.5723,0.4106,2.74,43.78,-98.90
755,127109787,0.4019,0.5859,0.4155,2.62,44.45,-95.00
756,127114788,0.3975,0.5947,0.4150,2.50,45.00,-91.10
757,127119787,0.3833,0.6011,0.4204,2.50,45.79,-87.07
758,127125341,0.3711,0.6118,0.4106,2.62,46.77,-82.26
759,127129787,0.3555,0.6177,0.4092,2.80,47.50,-78.96
760,127134787,0.3438,0.6260,0.4092,3.60,48.41,-74.76
761,127139788,0.3330,0.6304,0.4219,4.39,49.45,-70.43
762,127144787,0.3130,0.6377,0.4282,5.43,50.49,-66.22
763,127149786,0.2939,0.6489,0.4434,6.65,51.89,-61.83
764,127154787,0.2720,0.6553,0.4565,7.93,53.29,-57.68
765,127159787,0.2549,0.6636,0.4751,9.51,55.00,-53.35
766,127164785,0.2441,0.6738,0.4849,10.79,56.65,-49.09
767,127169785,0.2227,0.6768,0.4971,12.26,58.66,-44.70
768,127174787,0.2109,0.6782,0.5103,13.90,60.43,-40.24
769,127179786,0.2031,0.6870,0.5161,15.49,62.38,-35.67
770,127184788,0.1948,0.6875,0.5298,17.20,64.45,-31.10
771,127189785,0.1870,0.6841,0.5396,18.66,65.91,-26.46
772,127194789,0.1763,0.6929,0.5557,19.88,67.62,-21.71
773,127199787,0.1670,0.6909,0.5708,20.79,69.15,-16.83
774,127204787,0.1538,0.6929,0.5850,21.34,70.61,-12.01
775,127209786,0.1499,0.6904,0.5918,21.83,71.83,-7.01
776,127214870,0.1367,0.6948,0.6084,22.56,72.80,-1.77
777,127219788,0.1304,0.6943,0.6216,23.41,73.78,3.66
778,127224786,0.1084,0.6978,0.6392,24.51,74.57,9.27
779,127229789,0.0898,0.6997,0.6626,25.85,75.49,14.94
780,127234786,0.0713,0.7056,0.6733,27.38,76.46,20.73
781,127239787,0.0513,0.7129,0.6924,29.51,77.62,26.65
782,127244787,0.0249,0.7188,0.7031,32.20,78.41,32.50
783,127249787,0.0112,0.7314,0.7148,35.49,79.27,38.41
784,127254786,0.0010,0.7334,0.7192,39.33,80.24,44.33
785,127259787,-0.0127,0.7339,0.7261,43.72,80.98,50.49
786,127264787,-0.0083,0.7383,0.7261,48.54,81.34,56.83
787,127269787,-0.0161,0.7324,0.7349,53.17,81.71,63.23
788,127274785,-0.0151,0.7334,0.7305,57.50,81.77,69.76
789,127279787,-0.0015,0.7344,0.7437,61.46,81.59,76.46
790,127284787,0.0044,0.7368,0.7451,64.45,81.22,83.23
791,127289788,0.0186,0.7344,0.7354,67.07,80.43,89.88
792,127294785,0.0244,0.7236,0.7393,68.78,79.70,97.26
793,127299789,0.0435,0.7295,0.7373,69.39,78.48,104.51
794,127304787,0.0479,0.7339,0.7349,69.02,77.26,111.52
795,127309787,0.0566,0.7305,0.7251,68.17,75.73,118.60
796,127314786,0.0752,0.7236,0.7202,66.46,74.15,125.73
797,127319787,0.0806,0.7139,0.7129,64.21,72.01,132.93
798,127324786,0.0908,0.6997,0.7012,61.95,70.00,140.30
799,127329787,0.0981,0.6812,0.7085,59.09,67.87,147.62
800,127334930,0.1079,0.6611,0.7109,55.30,65.79,155.24
801,127339788,0.1138,0.6416,0.7148,51.10,63.48,162.68
802,127344785,0.1123,0.6216,0.7217,46.28,61.40,170.24
803,127349786,0.1147,0.5913,0.7241,41.77,59.33,177.56
804,127354787,0.1196,0.5449,0.7295,37.56,57.26,185.18
805,127359786,0.1279,0.5024,0.7349,34.21,55.37,192.93
806,127364787,0.1152,0.4731,0.7368,31.89,53.17,200.85
807,127369785,0.1069,0.4351,0.7412,30.91,51.71,207.07
808,127374785,0.0996,0.3882,0.7485,31.16,49.57,214.82
809,127379787,0.0962,0.3188,0.7534,32.93,47.32,224.45
810,127384787,0.0981,0.2656,0.7549,35.85,45.55,232.44
811,127389787,0.0894,0.2202,0.7510,38.60,44.39,238.78
812,127394785,0.0781,0.1714,0.7456,42.01,42.68,246.40
813,127399789,0.0864,0.1138,0.7490,44.09,41.34,254.09
814,127404787,0.1118,0.0430,0.7710,43.66,40.00,261.65
815,127409787,0.1265,-0.0234,0.7852,40.67,38.84,269.27
816,127414786,0.1367,-0.0957,0.7852,35.91,38.05,276.77
817,127419787,0.1406,-0.1768,0.7939,29.94,37.07,283.90
818,127424787,0.1470,-0.2627,0.8052,23.78,36.04,290.79
819,127429786,0.1509,-0.3613,0.8164,17.74,34.76,297.38
820,127434785,0.1636,-0.4741,0.8237,13.05,33.54,303.54
821,127439789,0.1738,-0.5791,0.8384,10.24,32.13,309.02
822,127444787,0.1738,-0.6943,0.8521,9.76,30.85,313.66
823,127449787,0.1631,-0.8145,0.8545,11.46,29.39,317.50
824,127454786,0.1465,-0.9370,0.8691,15.24,27.87,320.06
825,127459787,0.1289,-1.0620,0.8789,20.98,26.46,321.40
826,127464787,0.1260,-1.1846,0.8916,27.99,25.24,321.77
827,127469787,0.1250,-1.2993,0.9048,35.67,24.33,320.98
828,127474785,0.1079,-1.4204,0.9136,43.41,23.78,318.96
829,127479789,0.0942,-1.5234,0.9214,50.37,23.48,315.79
830,127485382,0.0918,-1.6494,0.9370,57.01,23.54,310.18
831,127489787,0.1021,-1.7275,0.9512,59.82,23.90,305.73
832,127494787,0.1138,-1.8315,0.9727,61.59,24.15,299.09
833,127499787,0.1343,-1.9248,0.9941,61.28,24.33,290.98
834,127504871,0.1528,-2.0142,1.0220,58.96,24.45,281.83
835,127509787,0.1816,-2.0786,1.0356,55.61,24.09,271.46
836,127514787,0.2041,-2.1851,1.0557,51.59,23.35,260.43
837,127519787,0.1880,-2.1958,1.0825,46.83,22.38,248.35
838,127524785,0.2520,-2.2383,1.0771,41.46,21.10,235.49
839,127529787,0.3071,-2.2500,1.0913,35.61,19.02,222.26
840,127534913,0.3579,-2.2476,1.1030,29.45,16.83,208.72
841,127539821,0.4390,-2.2402,1.0938,23.29,14.39,195.37
842,127544788,0.4961,-2.2119,1.1064,17.50,11.65,181.95
843,127549787,0.5718,-2.1826,1.1099,12.26,8.78,168.96
844,127554787,0.6372,-2.1494,1.1001,7.74,5.91,156.46
845,127559787,0.6968,-2.1064,1.0952,4.09,3.05,144.57
846,127564787,0.7510,-2.0640,1.1143,1.40,0.30,133.29
847,127569787,0.7896,-2.0215,1.0835,-0.55,-2.38,122.50
848,127574785,0.8276,-1.9697,1.0830,-2.20,-5.06,112.20
849,127579785,0.8569,-1.9170,1.0830,-3.29,-7.38,102.38
850,127584789,0.8833,-1.8726,1.0615,-4.39,-9.70,93.17
851,127589787,0.9043,-1.8203,1.0562,-5.55,-11.89,85.00
852,127594787,0.9053,-1.7656,1.0522,-6.71,-13.90,76.40
853,127599787,0.9072,-1.7129,1.0386,-7.99,-15.73,68.54
854,127604788,0.9170,-1.6621,1.0234,-9.09,-17.32,61.22
855,127609787,0.9224,-1.6074,1.0156,-9.88,-18.90,54.21
856,127614786,0.9233,-1.5518,0.9878,-10.00,-20.18,47.74
857,127619787,0.9268,-1.5000,0.9683,-9.94,-21.22,41.89
858,127624875,0.9258,-1.4478,0.9570,-9.09,-22.62,36.34
859,127629789,0.9321,-1.4038,0.9355,-7.74,-23.60,31.40
860,127634786,0.9277,-1.3545,0.9116,-6.10,-24.76,26.71
861,127639785,0.9219,-1.3115,0.8950,-4.21,-25.73,22.62
862,127644787,0.9185,-1.2651,0.8794,-2.20,-26.77,19.09
863,127649789,0.9136,-1.2197,0.8584,-0.12,-27.87,15.79
864,127654787,0.9023,-1.1841,0.8384,1.40,-29.09,12.87
865,127659787,0.8979,-1.1489,0.8311,2.74,-29.94,10.55
866,127664788,0.8789,-1.1099,0.8140,3.48,-30.85,8.54
867,127669787,0.8696,-1.0728,0.7969,3.48,-31.89,6.71
868,127674786,0.8525,-1.0439,0.7827,3.23,-32.74,5.12
869,127679785,0.8335,-1.0093,0.7661,2.50,-33.41,3.84
870,127685298,0.8232,-0.9814,0.7583,1.34,-34.27,2.80
871,127689787,0.8086,-0.9497,0.7461,0.18,-34.94,1.83
872,127694787,0.7920,-0.9277,0.7393,-0.98,-35.37,1.22
873,127699788,0.7739,-0.9087,0.7251,-2.07,-35.67,0.43
874,127704786,0.7612,-0.8901,0.7100,-2.74,-36.16,-0.06
875,127709787,0.7402,-0.8716,0.6982,-3.17,-36.40,-0.49
876,127714788,0.7275,-0.8604,0.6899,-3.23,-36.65,-0.73
877,127719787,0.7153,-0.8457,0.6812,-3.29,-36.83,-0.98
878,127724786,0.7046,-0.8315,0.6704,-2.99,-37.01,-1.16
879,127729787,0.6963,-0.8203,0.6660,-2.80,-37.20,-1.22
880,127734786,0.6787,-0.8125,0.6611,-3.11,-37.32,-1.28
881,127739787,0.6694,-0.8047,0.6597,-3.35,-37.38,-1.34
882,127744786,0.6597,-0.7974,0.6504,-3.78,-37.44,-1.34
883,127749786,0.6499,-0.7881,0.6504,-4.63,-37.20,-1.22
884,127754787,0.6421,-0.7812,0.6455,-5.73,-37.20,-1.16
885,127759789,0.6401,-0.7725,0.6479,-6.59,-37.01,-0.98
886,127764787,0.6343,-0.7681,0.6377,-7.44,-36.71,-0.91
887,127769787,0.6294,-0.7632,0.6392,-8.05,-36.28,-0.67
888,127774786,0.6216,-0.7559,0.6279,-8.35,-35.73,-0.61
889,127779787,0.6211,-0.7515,0.6255,-8.29,-35.61,-0.43
890,127784844,0.6152,-0.7490,0.6230,-8.11,-35.18,-0.24
891,127789787,0.6118,-0.7515,0.6245,-7.62,-34.57,-0.06
892,127794787,0.6045,-0.7461,0.6221,-7.13,-34.09,0.06
893,127799786,0.6021,-0.7505,0.6177,-6.16,-33.48,0.30
894,127804787,0.5952,-0.7510,0.6157,-5.12,-33.05,0.37
895,127809786,0.5869,-0.7539,0.6113,-4.09,-32.44,0.49
896,127814787,0.5796,-0.7573,0.6128,-3.29,-31.83,0.61
897,127819786,0.5776,-0.7568,0.6104,-2.50,-31.28,0.61
898,127824787,0.5718,-0.7598,0.6128,-2.20,-30.55,0.49
899,127829786,0.5630,-0.7642,0.6030,-1.95,-30.18,0.49
900,127834787,0.5581,-0.7646,0.6021,-1.95,-29.45,0.30
901,127839787,0.5513,-0.7715,0.6074,-2.26,-28.72,0.12
902,127844787,0.5444,-0.7778,0.6099,-2.50,-28.23,-0.24
903,127849787,0.5459,-0.7783,0.6001,-2.87,-27.50,-0.55
904,127854787,0.5396,-0.7837,0.6011,-3.17,-27.01,-0.91
905,127859787,0.5317,-0.7871,0.6025,-3.29,-26.22,-1.40
906,127864786,0.5303,-0.7896,0.6011,-3.17,-25.73,-1.83
907,127869787,0.5264,-0.7939,0.6050,-3.05,-25.37,-2.26
908,127874787,0.5229,-0.7964,0.5981,-2.74,-24.82,-2.68
909,127879787,0.5264,-0.7969,0.5957,-2.44,-24.39,-3.05
910,127884785,0.5234,-0.7979,0.5928,-1.95,-23.84,-3.54
911,127889787,0.5205,-0.8027,0.5957,-1.46,-23.60,-4.15
912,127894842,0.5273,-0.8066,0.5879,-1.04,-22.93,-4.51
913,127899786,0.5273,-0.8115,0.5908,-0.85,-22.50,-4.88
914,127904785,0.5293,-0.8115,0.5933,-0.85,-22.01,-5.37
915,127909787,0.5278,-0.8174,0.5908,-0.91,-21.52,-5.67
916,127915026,0.5356,-0.8198,0.5874,-1.34,-20.98,-6.16
917,127919788,0.5366,-0.8223,0.5903,-1.65,-20.79,-6.40
918,127924787,0.5361,-0.8242,0.5962,-2.01,-20.37,-6.83
919,127929787,0.5361,-0.8306,0.5898,-2.26,-19.88,-7.50
920,127934786,0.5405,-0.8335,0.5879,-2.56,-19.57,-7.93
921,127939787,0.5386,-0.8345,0.5898,-2.44,-19.15,-8.48
922,127944787,0.5439,-0.8335,0.5894,-2.38,-18.84,-8.96
923,127949788,0.5464,-0.8379,0.5967,-2.38,-18.54,-9.45
924,127954786,0.5420,-0.8398,0.5957,-2.07,-18.41,-10.00
925,127959787,0.5483,-0.8369,0.5933,-1.89,-18.29,-10.55
926,127964787,0.5498,-0.8413,0.5967,-1.65,-18.11,-11.10
927,127969787,0.5566,-0.8379,0.6050,-1.59,-17.99,-11.59
928,127974786,0.5630,-0.8389,0.6060,-1.40,-18.11,-12.20
929,127979787,0.5708,-0.8364,0.6064,-1.34,-18.29,-12.74
930,127984786,0.5806,-0.8359,0.6030,-1.34,-18.35,-13.41
931,127989785,0.5791,-0.8374,0.6030,-1.40,-18.60,-14.09
932,127994787,0.5864,-0.8384,0.6060,-1.40,-18.90,-14.63
933,127999786,0.5879,-0.8359,0.6069,-1.46,-19.33,-15.24
934,128004787,0.5894,-0.8311,0.6016,-1.65,-19.57,-15.85
935,128009786,0.5928,-0.8330,0.6011,-1.89,-20.12,-16.34
936,128014787,0.5986,-0.8354,0.6045,-1.95,-20.67,-17.01
937,128019786,0.5967,-0.8325,0.6084,-2.20,-21.16,-17.80
938,128024787,0.5952,-0.8291,0.6060,-2.44,-21.71,-18.54
939,128029786,0.5918,-0.8301,0.6021,-2.62,-22.07,-19.39
940,128035274,0.5801,-0.8223,0.6079,-2.87,-22.68,-20.18
941,128039788,0.5825,-0.8203,0.5981,-2.87,-23.29,-20.98
942,128044786,0.5747,-0.8179,0.5986,-3.11,-24.02,-21.83
943,128049785,0.5723,-0.8115,0.6060,-3.35,-24.51,-22.87
944,128055120,0.5669,-0.8076,0.6035,-3.96,-25.24,-24.15
945,128059787,0.5645,-0.8042,0.6060,-4.39,-25.73,-25.06
946,128064787,0.5542,-0.7974,0.6040,-4.94,-26.34,-26.10
947,128069787,0.5459,-0.7925,0.5942,-5.67,-27.07,-27.26
948,128074788,0.5415,-0.7808,0.5977,-6.34,-27.87,-28.48
949,128079787,0.5405,-0.7759,0.5938,-6.89,-28.54,-29.51
950,128084787,0.5347,-0.7671,0.5767,-7.50,-29.63,-30.55
951,128089785,0.5361,-0.7559,0.5767,-7.80,-30.61,-31.59
952,128094786,0.5312,-0.7456,0.5767,-8.17,-31.77,-32.50
953,128099787,0.5264,-0.7329,0.5737,-8.35,-32.87,-33.23
954,128104787,0.5264,-0.7241,0.5737,-8.41,-34.09,-34.02
955,128109787,0.5254,-0.7070,0.5625,-8.17,-35.49,-34.76
956,128114788,0.5283,-0.6899,0.5581,-7.99,-36.95,-35.37
957,128119787,0.5249,-0.6748,0.5562,-7.99,-38.17,-35.98
958,128124786,0.5273,-0.6587,0.5552,-7.93,-39.63,-36.52
959,128129787,0.5244,-0.6426,0.5513,-8.23,-40.91,-37.01
960,128134785,0.5166,-0.6279,0.5381,-8.54,-42.32,-37.56
961,128139787,0.5200,-0.6079,0.5430,-9.39,-43.66,-37.93
962,128144787,0.5220,-0.5918,0.5391,-10.73,-45.00,-38.35
963,128149787,0.5298,-0.5762,0.5352,-12.38,-46.10,-38.66
964,128154787,0.5264,-0.5654,0.5342,-14.39,-47.32,-38.78
965,128159787,0.5352,-0.5498,0.5308,-16.71,-48.35,-38.96
966,128164787,0.5356,-0.5352,0.5244,-19.15,-49.21,-38.96
967,128169787,0.5449,-0.5234,0.5156,-21.89,-49.94,-38.84
968,128174786,0.5527,-0.5083,0.5205,-24.76,-50.79,-38.78
969,128179787,0.5503,-0.4917,0.5073,-27.38,-51.28,-38.54
970,128184787,0.5562,-0.4790,0.4995,-29.94,-51.83,-38.29
971,128189786,0.5576,-0.4658,0.4937,-32.38,-52.32,-37.99
972,128194787,0.5615,-0.4463,0.4810,-34.45,-52.50,-37.56
973,128199790,0.5664,-0.4277,0.4766,-36.16,-52.68,-37.07
974,128204787,0.5688,-0.4185,0.4683,-37.68,-52.68,-36.52
975,128209787,0.5889,-0.4019,0.4590,-38.72,-52.62,-35.91
976,128214786,0.5957,-0.3916,0.4521,-39.88,-52.68,-35.43
977,128219787,0.6035,-0.3804,0.4502,-40.67,-52.32,-34.45
978,128224786,0.6055,-0.3638,0.4443,-41.71,-51.77,-33.66
979,128229789,0.6206,-0.3604,0.4380,-42.68,-51.22,-32.99
980,128234787,0.6304,-0.3535,0.4253,-43.60,-50.55,-32.01
981,128239787,0.6318,-0.3394,0.4307,-44.51,-49.63,-31.22
982,128244787,0.6372,-0.3330,0.4292,-45.49,-48.90,-30.37
983,128249787,0.6470,-0.3276,0.4136,-46.22,-47.80,-29.39
984,128254787,0.6509,-0.3164,0.4136,-46.77,-46.71,-28.48
985,128259787,0.6509,-0.3062,0.4004,-47.07,-45.67,-27.62
986,128264787,0.6587,-0.3018,0.3975,-47.56,-44.57,-26.71
987,128269787,0.6611,-0.2944,0.3867,-47.74,-43.29,-25.55
988,128274785,0.6694,-0.2886,0.3848,-48.05,-42.13,-24.63
989,128279786,0.6729,-0.2847,0.3726,-48.48,-40.98,-23.41
990,128284788,0.6743,-0.2788,0.3745,-48.72,-39.57,-22.38
991,128289787,0.6904,-0.2783,0.3608,-48.90,-38.29,-21.10
992,128294787,0.7056,-0.2803,0.3706,-49.02,-36.95,-20.06
993,128299787,0.7227,-0.2837,0.3672,-49.39,-35.49,-18.72
994,128304787,0.7393,-0.2759,0.3647,-49.63,-34.09,-17.44
995,128309787,0.7490,-0.2769,0.3696,-50.06,-32.62,-15.91
996,128314785,0.7588,-0.2769,0.3682,-50.61,-31.10,-14.45
997,128319788,0.7710,-0.2881,0.3638,-51.04,-29.63,-12.87
998,128324787,0.7861,-0.2896,0.3652,-51.34,-28.11,-11.16
999,128329874,0.7925,-0.2944,0.3647,-51.59,-26.59,-9.57
1000,128334788,0.7969,-0.2959,0.3608,-51.65,-25.06,-7.93
1001,128339787,0.8047,-0.3018,0.3594,-51.46,-23.78,-6.22
1002,128344787,0.8115,-0.3066,0.3521,-50.98,-22.32,-4.70
1003,128349786,0.8140,-0.3086,0.3506,-50.18,-21.04,-2.99
1004,128354787,0.8091,-0.3169,0.3379,-49.33,-19.82,-1.46
1005,128359787,0.8071,-0.3247,0.3413,-48.11,-18.72,0.12
1006,128364788,0.8037,-0.3276,0.3447,-46.95,-17.44,1.52
1007,128369787,0.7954,-0.3340,0.3408,-45.49,-16.16,2.87
1008,128374787,0.8003,-0.3403,0.3369,-44.09,-15.12,4.21
1009,128379787,0.8037,-0.3525,0.3320,-42.50,-13.90,5.49
1010,128384787,0.8037,-0.3564,0.3232,-40.79,-12.87,6.83
1011,128389787,0.8032,-0.3682,0.3237,-39.21,-12.01,8.11
1012,128394785,0.8140,-0.3784,0.3252,-37.56,-10.85,9.39
1013,128399785,0.8223,-0.3838,0.3252,-35.79,-9.94,10.67
1014,128404852,0.8262,-0.3906,0.3184,-34.02,-9.02,11.89
1015,128409786,0.8213,-0.4062,0.3188,-32.20,-8.17,13.05
1016,128414787,0.8311,-0.4204,0.3169,-30.24,-7.07,14.27
1017,128419787,0.8291,-0.4302,0.3135,-28.54,-6.16,15.37
1018,128424785,0.8232,-0.4399,0.3047,-27.20,-5.49,16.10
1019,128429789,0.8257,-0.4492,0.3062,-25.67,-4.45,17.20
1020,128434915,0.8320,-0.4639,0.3032,-24.45,-3.48,18.05
1021,128439787,0.8320,-0.4790,0.3037,-23.54,-2.50,18.78
1022,128444787,0.8320,-0.4917,0.2925,-22.87,-1.83,19.39
1023,128449787,0.8262,-0.5005,0.2896,-22.13,-1.04,19.94
1024,128455097,0.8164,-0.5122,0.2871,-21.52,0.06,20.37
1025,128459787,0.8125,-0.5225,0.2876,-20.91,0.67,20.67
1026,128464787,0.8013,-0.5337,0.2803,-20.30,1.40,20.79
1027,128469787,0.7969,-0.5391,0.2754,-19.82,2.01,20.79
1028,128474787,0.7974,-0.5532,0.2812,-19.15,2.68,20.85
1029,128479786,0.7969,-0.5625,0.2729,-18.29,3.41,20.79
1030,128484787,0.8047,-0.5747,0.2690,-17.62,4.15,20.85
1031,128489787,0.8047,-0.5825,0.2754,-16.71,4.76,20.61
1032,128494787,0.7969,-0.5903,0.2739,-15.98,5.37,20.30
1033,128499785,0.7969,-0.5991,0.2778,-15.06,6.16,20.00
1034,128504787,0.7988,-0.6079,0.2729,-14.09,6.77,19.57
1035,128509787,0.7979,-0.6157,0.2715,-12.87,7.56,19.21
1036,128515066,0.7988,-0.6191,0.2627,-11.52,8.48,18.66
1037,128519788,0.7925,-0.6221,0.2646,-10.49,9.15,18.29
1038,128524787,0.7920,-0.6270,0.2656,-9.15,9.82,17.74
1039,128529787,0.7910,-0.6313,0.2632,-7.74,10.37,17.13
1040,128534787,0.7842,-0.6255,0.2607,-6.52,11.10,16.46
1041,128539787,0.7852,-0.6260,0.2598,-5.00,11.89,15.79
1042,128544785,0.7930,-0.6255,0.2578,-3.66,12.44,15.12
1043,128549789,0.7969,-0.6323,0.2559,-2.38,13.23,14.70
1044,128554786,0.8091,-0.6318,0.2568,-1.22,13.78,14.21
1045,128559785,0.8052,-0.6323,0.2627,-0.12,14.27,13.84
1046,128564785,0.8008,-0.6304,0.2632,0.67,15.12,13.35
1047,128569787,0.8047,-0.6274,0.2686,1.65,15.61,12.80
1048,128574789,0.8135,-0.6294,0.2651,2.26,15.98,12.44
1049,128579786,0.8130,-0.6211,0.2651,2.93,16.22,11.89
1050,128584787,0.8174,-0.6191,0.2676,3.78,16.52,11.59
1051,128589786,0.8203,-0.6167,0.2686,4.33,16.89,11.46
1052,128594787,0.8208,-0.6123,0.2690,4.88,17.13,11.22
1053,128599785,0.8228,-0.6128,0.2808,5.43,17.20,11.04
1054,128605247,0.8262,-0.6128,0.2817,5.67,17.26,10.91
1055,128609787,0.8320,-0.6118,0.2832,5.73,17.50,10.85
1056,128614787,0.8311,-0.6104,0.2861,5.98,17.62,10.85
1057,128619787,0.8340,-0.6074,0.2886,5.73,17.74,10.85
1058,128624787,0.8325,-0.6074,0.2886,5.73,17.87,10.79
1059,128629787,0.8311,-0.6064,0.2905,5.55,17.93,10.91
1060,128634787,0.8374,-0.6089,0.2974,5.67,17.93,11.16
1061,128639787,0.8369,-0.6094,0.3003,5.55,17.87,11.40
1062,128645141,0.8281,-0.6079,0.3013,5.67,17.80,11.59
1063,128649787,0.8184,-0.6128,0.2988,5.91,17.93,11.77
1064,128654788,0.8042,-0.6128,0.3062,6.22,17.74,12.01
1065,128659787,0.7983,-0.6157,0.3022,6.65,17.68,11.95
1066,128664785,0.7842,-0.6177,0.3125,7.07,17.32,12.13
1067,128669920,0.7798,-0.6221,0.3066,7.44,16.95,12.32
1068,128674788,0.7783,-0.6270,0.3057,7.74,17.01,12.32
1069,128679787,0.7686,-0.6323,0.3130,7.99,16.59,12.07
1070,128685028,0.7622,-0.6450,0.3179,8.11,16.40,12.13
1071,128689787,0.7539,-0.6509,0.3164,8.05,16.04,11.95
1072,128694787,0.7476,-0.6538,0.3237,7.99,15.85,11.77
1073,128699787,0.7402,-0.6631,0.3296,7.68,15.61,11.34
1074,128704787,0.7339,-0.6714,0.3286,7.50,15.30,11.16
1075,128709788,0.7212,-0.6743,0.3301,7.20,15.06,10.85
1076,128714787,0.7168,-0.6777,0.3350,6.77,14.70,10.30
1077,128719787,0.7100,-0.6826,0.3350,6.34,14.27,9.94
1078,128724785,0.6997,-0.6831,0.3330,6.04,13.96,9.21
