# skilleye imu stream v1
# device=xiao_esp32c6 imu=mpu6050 addr=0x68
# rate_hz=200 accel_range_g=16 gyro_range_dps=2000 dlpf_hz=94
# units: accel in g, gyro in deg/s, t_us in microseconds since boot (monotonic)
# no shared clock with the camera -- tap the racket once before each take
# so both recordings share a spike to align on
seq,t_us,ax,ay,az,gx,gy,gz
0,91560440,0.4111,0.9258,-0.1392,10.30,14.09,13.23
1,91565448,0.4131,0.9209,-0.1416,10.91,13.96,13.90
2,91570440,0.4185,0.9214,-0.1396,11.46,13.84,14.63
3,91575442,0.4209,0.9175,-0.1323,12.32,13.72,15.37
4,91580443,0.4297,0.9219,-0.1411,13.41,13.60,16.16
5,91585441,0.4360,0.9189,-0.1362,14.51,13.66,16.83
6,91590440,0.4370,0.9204,-0.1343,15.67,13.41,17.50
7,91595444,0.4399,0.9199,-0.1343,16.77,13.54,17.93
8,91600442,0.4370,0.9170,-0.1392,17.93,13.29,18.48
9,91605442,0.4346,0.9189,-0.1372,18.84,13.29,18.96
10,91610442,0.4341,0.9214,-0.1387,19.82,13.17,19.27
11,91615612,0.4307,0.9165,-0.1382,20.79,13.11,19.76
12,91620443,0.4297,0.9229,-0.1431,21.28,13.23,20.06
13,91625442,0.4292,0.9194,-0.1479,22.07,13.29,20.30
14,91630442,0.4268,0.9209,-0.1445,22.62,13.11,20.49
15,91635441,0.4224,0.9185,-0.1494,23.17,13.29,20.55
16,91640442,0.4189,0.9219,-0.1475,23.54,13.35,20.73
17,91645442,0.4199,0.9209,-0.1504,23.78,13.35,20.79
18,91650442,0.4160,0.9224,-0.1577,24.02,13.48,20.73
19,91655441,0.4082,0.9224,-0.1606,24.15,13.54,20.73
20,91660442,0.4111,0.9214,-0.1548,24.09,13.66,20.61
21,91665441,0.4043,0.9238,-0.1587,24.21,13.78,20.43
22,91670443,0.4019,0.9272,-0.1641,24.09,13.90,20.18
23,91675442,0.3994,0.9224,-0.1655,23.96,14.02,19.88
24,91680442,0.3955,0.9224,-0.1689,23.72,14.21,19.51
25,91685440,0.3892,0.9229,-0.1636,23.11,14.39,19.15
26,91690443,0.3975,0.9185,-0.1665,22.38,14.51,18.84
27,91695440,0.3940,0.9155,-0.1689,21.52,14.70,18.41
28,91700487,0.3940,0.9131,-0.1694,20.43,14.82,18.05
29,91705443,0.3911,0.9106,-0.1606,19.09,15.00,17.56
30,91710442,0.3921,0.9082,-0.1650,17.93,15.18,17.26
31,91715442,0.3838,0.9062,-0.1670,16.59,15.24,16.95
32,91720442,0.3857,0.9062,-0.1606,15.06,15.49,16.52
33,91725442,0.3906,0.9048,-0.1689,13.84,15.61,16.22
34,91730441,0.3955,0.9009,-0.1646,12.44,15.67,15.85
35,91735442,0.3916,0.8989,-0.1665,11.22,15.67,15.61
36,91740441,0.3931,0.8931,-0.1636,10.18,15.79,15.37
37,91745442,0.3936,0.8901,-0.1650,9.33,15.91,15.06
38,91750441,0.3945,0.8916,-0.1670,8.54,15.91,14.82
39,91755442,0.3970,0.8921,-0.1680,7.93,15.91,14.63
40,91760496,0.3965,0.8843,-0.1724,7.56,16.04,14.51
41,91765440,0.3975,0.8882,-0.1733,7.50,16.16,14.27
42,91770440,0.3994,0.8877,-0.1748,7.38,16.04,13.96
43,91775729,0.3975,0.8838,-0.1733,7.38,16.04,13.96
44,91780442,0.3945,0.8843,-0.1792,7.80,15.98,13.66
45,91785441,0.3999,0.8818,-0.1821,8.05,16.04,13.41
46,91790441,0.3970,0.8838,-0.1797,8.60,16.04,13.17
47,91795442,0.3950,0.8779,-0.1855,8.96,15.85,13.11
48,91800441,0.3901,0.8809,-0.1797,9.27,15.85,12.80
49,91805442,0.3877,0.8784,-0.1831,9.76,15.98,12.74
50,91810441,0.3882,0.8784,-0.1855,10.12,16.04,12.56
51,91815442,0.3813,0.8750,-0.1870,10.43,16.16,12.44
52,91820441,0.3818,0.8745,-0.1899,10.61,16.22,12.26
53,91825442,0.3765,0.8750,-0.1855,10.79,16.40,12.07
54,91830442,0.3711,0.8687,-0.1909,10.91,16.52,11.89
55,91835440,0.3716,0.8706,-0.1807,10.85,16.89,11.77
56,91840442,0.3726,0.8633,-0.1851,10.73,17.13,11.65
57,91845442,0.3721,0.8657,-0.1846,10.30,17.32,11.46
58,91850442,0.3691,0.8643,-0.1733,9.94,17.44,11.34
59,91855442,0.3696,0.8545,-0.1816,9.57,17.87,11.22
60,91860442,0.3740,0.8521,-0.1802,9.02,17.99,11.10
61,91865442,0.3721,0.8511,-0.1738,8.54,18.17,10.91
62,91870442,0.3779,0.8506,-0.1675,7.87,18.41,10.79
63,91875442,0.3804,0.8438,-0.1587,7.32,18.48,10.55
64,91880442,0.3843,0.8452,-0.1577,6.77,18.54,10.30
65,91885442,0.3848,0.8413,-0.1592,6.46,18.66,10.18
66,91890442,0.3853,0.8389,-0.1499,5.98,18.66,9.94
67,91895441,0.3872,0.8354,-0.1499,5.67,18.66,9.76
68,91900456,0.3931,0.8369,-0.1353,5.43,18.66,9.57
69,91905441,0.3911,0.8335,-0.1357,5.00,18.66,9.39
70,91910443,0.3979,0.8325,-0.1333,4.76,18.66,9.02
71,91915442,0.4028,0.8345,-0.1279,4.45,18.48,8.72
72,91920441,0.4106,0.8315,-0.1221,4.27,18.35,8.48
73,91925442,0.4150,0.8301,-0.1196,3.78,18.17,8.29
74,91930441,0.4238,0.8267,-0.1147,3.17,17.74,7.93
75,91935442,0.4292,0.8262,-0.1196,2.68,17.56,7.80
76,91940441,0.4331,0.8228,-0.1167,1.95,17.20,7.56
77,91945442,0.4375,0.8271,-0.1152,1.65,16.71,7.26
78,91950441,0.4424,0.8301,-0.1167,1.10,16.52,7.13
79,91955442,0.4458,0.8267,-0.1118,0.79,16.22,6.95
80,91960441,0.4438,0.8247,-0.1123,0.85,15.98,6.83
81,91965442,0.4492,0.8315,-0.1138,0.91,15.61,6.65
82,91970441,0.4487,0.8325,-0.1191,1.40,15.18,6.46
83,91975442,0.4492,0.8389,-0.1245,2.13,15.12,6.22
84,91980442,0.4507,0.8481,-0.1187,2.93,14.76,6.10
85,91985442,0.4517,0.8555,-0.1255,4.15,14.51,5.79
86,91990441,0.4541,0.8604,-0.1274,5.24,14.21,5.43
87,91995441,0.4546,0.8701,-0.1357,6.65,13.66,5.00
88,92000440,0.4565,0.8833,-0.1377,8.05,13.29,4.51
89,92005942,0.4653,0.8906,-0.1436,9.45,12.93,3.90
90,92010442,0.4644,0.8994,-0.1484,10.55,12.80,3.29
91,92015442,0.4673,0.9043,-0.1489,11.71,12.38,2.80
92,92020442,0.4644,0.9077,-0.1562,12.26,12.13,1.95
93,92025442,0.4683,0.9106,-0.1602,12.44,12.01,1.34
94,92030442,0.4678,0.9121,-0.1606,12.20,11.89,0.79
95,92035442,0.4697,0.9136,-0.1631,11.59,11.71,0.43
96,92040442,0.4688,0.9160,-0.1621,10.49,11.65,-0.06
97,92045442,0.4712,0.9106,-0.1670,9.21,11.65,-0.30
98,92050442,0.4756,0.9136,-0.1665,7.62,11.77,-0.55
99,92055442,0.4795,0.9170,-0.1753,5.98,11.89,-0.55
100,92060442,0.4810,0.9146,-0.1748,4.33,11.95,-0.49
101,92065442,0.4849,0.9165,-0.1826,2.87,12.01,-0.30
102,92070442,0.4893,0.9155,-0.1821,1.65,12.13,-0.06
103,92075442,0.4814,0.9165,-0.1904,0.67,12.38,0.37
104,92080442,0.4814,0.9116,-0.1978,-0.06,12.74,0.91
105,92085442,0.4849,0.9155,-0.2041,-0.73,13.11,1.46
106,92090442,0.4805,0.9102,-0.2041,-0.91,13.60,2.26
107,92095440,0.4858,0.9170,-0.2090,-0.98,14.21,3.11
108,92100441,0.4897,0.9087,-0.2212,-1.10,14.76,4.09
109,92105442,0.4868,0.9116,-0.2251,-0.91,15.55,5.30
110,92110443,0.4883,0.9097,-0.2314,-0.85,16.40,6.59
111,92115442,0.4888,0.9121,-0.2349,-0.43,17.13,8.11
112,92120444,0.4941,0.9126,-0.2349,-0.37,18.17,9.63
113,92125444,0.5020,0.9062,-0.2432,0.06,18.96,11.16
114,92130442,0.5098,0.9053,-0.2529,0.37,20.06,12.93
115,92135442,0.5098,0.9053,-0.2510,0.91,21.10,14.94
116,92140441,0.5142,0.9033,-0.2603,1.89,22.26,16.89
117,92145442,0.5176,0.9023,-0.2656,3.05,23.05,18.96
118,92150441,0.5244,0.9062,-0.2739,4.57,24.39,21.10
119,92155696,0.5327,0.9082,-0.2817,6.40,25.43,23.17
120,92160442,0.5405,0.9043,-0.2910,8.17,26.46,25.37
121,92165442,0.5498,0.9150,-0.2910,10.49,27.80,27.38
122,92170443,0.5542,0.9102,-0.3037,12.80,29.09,29.57
123,92175472,0.5693,0.9155,-0.3140,15.30,30.55,31.71
124,92180442,0.5781,0.9204,-0.3276,17.74,31.95,33.90
125,92185441,0.5889,0.9243,-0.3311,20.24,32.99,35.91
126,92190441,0.6011,0.9272,-0.3408,22.62,34.39,37.87
127,92195443,0.6123,0.9360,-0.3628,24.94,35.43,39.63
128,92200442,0.6294,0.9370,-0.3726,27.38,36.65,41.40
129,92205440,0.6479,0.9297,-0.3857,29.51,37.74,43.17
130,92210629,0.6616,0.9224,-0.3906,31.40,38.72,44.94
131,92215443,0.6685,0.9165,-0.4019,33.05,39.88,46.65
132,92220442,0.6714,0.9180,-0.4155,34.27,40.79,48.23
133,92225442,0.6792,0.9214,-0.4268,35.37,41.83,49.70
134,92230441,0.6875,0.9287,-0.4414,36.04,42.68,50.85
135,92235442,0.7095,0.9277,-0.4531,37.13,43.66,52.38
136,92240441,0.7178,0.9272,-0.4590,37.68,44.51,53.35
137,92245442,0.7227,0.9302,-0.4678,38.41,45.55,54.45
138,92250441,0.7246,0.9360,-0.4922,38.78,46.40,55.73
139,92255442,0.7339,0.9321,-0.5063,39.09,47.07,56.77
140,92260441,0.7466,0.9287,-0.5239,39.15,48.05,57.80
141,92265442,0.7524,0.9282,-0.5366,38.90,48.78,58.96
142,92270441,0.7524,0.9316,-0.5425,38.23,49.57,60.00
143,92275442,0.7505,0.9268,-0.5483,37.26,50.43,60.91
144,92280444,0.7563,0.9189,-0.5508,35.67,51.59,62.07
145,92285444,0.7524,0.9160,-0.5532,34.33,52.50,62.99
146,92290441,0.7490,0.9131,-0.5635,32.56,53.66,63.96
147,92295442,0.7515,0.9067,-0.5674,30.43,54.76,64.94
148,92300440,0.7500,0.8984,-0.5688,28.35,56.16,66.04
149,92305442,0.7437,0.8843,-0.5708,26.28,57.62,67.07
150,92310442,0.7378,0.8765,-0.5747,24.27,59.27,68.35
151,92315442,0.7319,0.8735,-0.5698,22.56,60.91,69.57
152,92320441,0.7256,0.8594,-0.5635,21.22,62.56,71.04
153,92325442,0.7129,0.8442,-0.5659,20.00,64.51,72.50
154,92330441,0.7153,0.8286,-0.5483,18.96,66.52,73.96
155,92335442,0.7100,0.8154,-0.5444,18.23,68.60,75.61
156,92340441,0.7026,0.8022,-0.5386,17.56,70.98,77.32
157,92345442,0.6997,0.7866,-0.5244,17.32,73.35,79.02
158,92350441,0.6914,0.7700,-0.5122,17.26,75.85,80.98
159,92355442,0.6929,0.7476,-0.5029,17.56,78.66,82.93
160,92360441,0.7256,0.6919,-0.5493,18.41,80.98,85.61
161,92365442,0.7095,0.7090,-0.4692,19.94,82.93,87.62
162,92370442,0.7305,0.6909,-0.4751,22.01,85.85,90.61
163,92375442,0.7490,0.6753,-0.4951,25.18,87.38,93.66
164,92380442,0.8013,0.6333,-0.5078,29.02,90.18,97.13
165,92385442,0.8433,0.5933,-0.5269,34.02,91.77,101.46
166,92390441,0.8662,0.6108,-0.4790,39.51,92.62,106.22
167,92395440,0.8467,0.6475,-0.4087,46.10,94.15,110.73
168,92400440,0.7959,0.6909,-0.3843,53.48,96.77,114.39
169,92405441,0.7490,0.6987,-0.4170,61.22,99.76,117.20
170,92410442,0.7222,0.6938,-0.4487,68.29,102.56,119.45
171,92415443,0.6992,0.6870,-0.4629,74.63,105.06,121.40
172,92420442,0.6953,0.7065,-0.4531,80.49,107.80,122.99
173,92425441,0.6611,0.7012,-0.4136,85.30,111.04,124.02
174,92430442,0.6348,0.7295,-0.4683,89.33,113.96,124.76
175,92435442,0.6094,0.7417,-0.4492,92.93,116.59,125.00
176,92440442,0.6172,0.7363,-0.4067,96.10,119.21,124.82
177,92445441,0.6147,0.7344,-0.4038,97.93,121.59,124.45
178,92450442,0.5996,0.7324,-0.4077,99.33,123.54,123.90
179,92455442,0.5928,0.7310,-0.3906,99.45,125.37,123.23
180,92460443,0.5991,0.7339,-0.3823,99.21,126.65,121.89
181,92465441,0.6191,0.7222,-0.3691,98.23,127.62,120.49
182,92470442,0.6387,0.6948,-0.3530,97.01,128.41,119.15
183,92475441,0.6499,0.6880,-0.3359,95.79,129.09,118.05
184,92480442,0.6641,0.6870,-0.3213,94.94,129.76,116.77
185,92485443,0.6855,0.6611,-0.3218,94.02,130.43,115.61
186,92490442,0.7222,0.6333,-0.2988,93.11,130.67,114.57
187,92495440,0.7539,0.6211,-0.2842,92.38,130.91,113.60
188,92500442,0.7720,0.6152,-0.2754,92.38,131.04,112.80
189,92505442,0.7832,0.5894,-0.2695,92.87,131.34,111.71
190,92510441,0.7915,0.5493,-0.2607,93.90,131.59,110.73
191,92515441,0.8013,0.5229,-0.2461,95.73,131.83,110.30
192,92520442,0.8105,0.5078,-0.2261,98.48,132.38,109.76
193,92525442,0.7847,0.4790,-0.2295,101.89,133.11,109.39
194,92530443,0.7578,0.4751,-0.2261,105.98,133.96,109.21
195,92535441,0.7578,0.4707,-0.2305,110.61,134.94,108.84
196,92540442,0.7817,0.4702,-0.2319,115.43,135.85,108.23
197,92545442,0.7949,0.4595,-0.2456,120.18,136.59,107.50
198,92550442,0.7925,0.4585,-0.2524,124.82,136.89,106.71
199,92555441,0.7939,0.4590,-0.2500,129.70,137.20,105.49
200,92560442,0.7896,0.4551,-0.2402,133.11,137.50,104.21
201,92565442,0.7710,0.4468,-0.2275,137.50,137.93,102.93
202,92570443,0.7554,0.4443,-0.2148,141.77,138.48,101.65
203,92575440,0.7256,0.4395,-0.2046,145.73,138.96,100.06
204,92580441,0.7026,0.4341,-0.1841,149.76,139.94,98.41
205,92585442,0.6787,0.4307,-0.1724,153.35,140.91,96.65
206,92590444,0.6074,0.4121,-0.1597,156.71,141.95,94.94
207,92595442,0.6743,0.4292,-0.1685,160.00,142.99,92.87
208,92600444,0.6777,0.4307,-0.1592,162.68,144.09,90.91
209,92605440,0.6470,0.4277,-0.1855,165.18,144.82,89.15
210,92610441,0.6694,0.4458,-0.1665,167.62,145.06,86.65
211,92615440,0.6929,0.4805,-0.1318,169.88,145.91,83.48
212,92620442,0.6826,0.4893,-0.1323,170.79,146.10,80.85
213,92625444,0.6699,0.4722,-0.1309,171.52,146.71,77.68
214,92630441,0.6685,0.4707,-0.1533,171.89,146.95,74.76
215,92635442,0.6768,0.4941,-0.1807,171.89,146.71,71.52
216,92640441,0.6885,0.4956,-0.1616,171.46,146.34,68.17
217,92645442,0.6875,0.4863,-0.1455,170.85,146.04,65.00
218,92650441,0.6836,0.4712,-0.1499,170.12,145.67,62.13
219,92655442,0.6714,0.4624,-0.1489,169.33,145.30,59.39
220,92660441,0.6558,0.4624,-0.1323,168.41,144.70,57.01
221,92665442,0.6455,0.4609,-0.1167,167.13,144.02,54.70
222,92670441,0.6411,0.4585,-0.0908,165.49,143.48,52.44
223,92675442,0.6323,0.4644,-0.0781,163.96,142.99,50.24
224,92680441,0.6069,0.4707,-0.0547,162.01,142.62,48.11
225,92685442,0.5786,0.4688,-0.0347,160.00,142.26,45.91
226,92690441,0.5645,0.4688,-0.0459,157.56,141.71,43.78
227,92695442,0.5444,0.4663,-0.0425,154.82,141.16,41.52
228,92700441,0.4902,0.4702,-0.0391,151.77,140.55,39.02
229,92705444,0.5010,0.4648,-0.0093,148.48,139.63,36.52
230,92710444,0.5171,0.4653,0.0044,144.88,139.09,33.78
231,92715441,0.5186,0.4731,-0.0068,141.16,137.87,31.10
232,92720442,0.4731,0.4668,-0.0190,136.95,136.46,27.99
233,92725442,0.4717,0.4556,0.0059,132.87,134.76,24.88
234,92730441,0.4946,0.4639,0.0161,128.78,132.87,21.77
235,92735442,0.4805,0.4453,0.0454,124.21,131.10,18.90
236,92740444,0.4658,0.4326,0.0474,119.63,128.84,16.34
237,92745442,0.4438,0.4268,0.0615,115.06,126.59,14.21
238,92750442,0.4189,0.4102,0.0820,111.10,123.96,12.26
239,92755441,0.3945,0.3916,0.1221,107.56,121.34,10.79
240,92760442,0.3701,0.3877,0.1577,104.76,118.84,9.57
241,92765442,0.3442,0.3979,0.1924,102.68,116.34,8.35
242,92770442,0.3257,0.4116,0.1997,101.28,113.60,6.77
243,92775441,0.3115,0.4268,0.2305,100.79,111.10,5.12
244,92780442,0.2954,0.4365,0.2515,101.16,108.60,3.17
245,92785442,0.2837,0.4307,0.2568,102.20,105.98,1.28
246,92790443,0.2783,0.4175,0.2651,104.09,103.23,-0.85
247,92795441,0.2778,0.4150,0.2783,106.71,100.37,-2.99
248,92800442,0.2812,0.4238,0.2773,110.06,97.32,-5.30
249,92805442,0.2827,0.4351,0.2710,114.27,94.02,-7.80
250,92810442,0.2935,0.4360,0.2720,119.33,90.73,-10.67
251,92815441,0.2881,0.4307,0.2783,124.76,87.01,-13.54
252,92820442,0.2646,0.4419,0.2739,130.67,84.45,-16.46
253,92825501,0.2583,0.4458,0.2817,135.98,79.82,-19.94
254,92830442,0.2441,0.4419,0.3125,141.77,75.49,-23.66
255,92835804,0.2339,0.4419,0.3379,147.50,71.34,-27.62
256,92840442,0.2256,0.4277,0.3472,153.17,67.32,-31.59
257,92845442,0.2080,0.4214,0.3584,158.66,63.29,-35.91
258,92850442,0.1846,0.4131,0.3730,164.15,59.33,-40.24
259,92855441,0.1714,0.4106,0.3818,169.51,55.37,-44.82
260,92860442,0.1699,0.3999,0.4004,174.94,51.46,-49.63
261,92865442,0.1577,0.4009,0.4028,180.18,47.80,-54.57
262,92870442,0.1372,0.4072,0.4014,185.49,44.02,-59.82
263,92875441,0.1074,0.3970,0.3989,190.91,40.49,-65.24
264,92880442,0.1055,0.4111,0.3818,196.34,37.07,-70.91
265,92885441,0.0977,0.3931,0.3955,201.83,33.54,-76.46
266,92890442,0.0767,0.3823,0.3687,207.26,30.06,-82.07
267,92895442,0.0557,0.3940,0.3809,211.83,27.38,-86.46
268,92900442,0.0283,0.3906,0.3706,216.89,24.02,-91.95
269,92905441,0.0049,0.3862,0.3638,221.40,20.67,-97.32
270,92910442,-0.0161,0.3931,0.3545,224.94,17.56,-102.62
271,92915440,-0.0420,0.3911,0.3584,227.56,14.45,-107.93
272,92920501,-0.0664,0.3862,0.3525,229.09,11.04,-113.11
273,92925444,-0.1025,0.3901,0.3418,229.27,7.80,-118.11
274,92930441,-0.1069,0.3911,0.3496,228.17,4.33,-122.93
275,92935442,-0.1592,0.3970,0.3359,225.98,1.04,-127.44
276,92940441,-0.2031,0.4019,0.3379,223.11,-2.26,-131.83
277,92945442,-0.2285,0.4136,0.3418,219.27,-5.18,-135.85
278,92950442,-0.2617,0.4316,0.3325,215.06,-8.29,-139.82
279,92955442,-0.2959,0.4370,0.3384,210.55,-11.59,-143.60
280,92960441,-0.3218,0.4512,0.3467,205.91,-14.45,-147.13
281,92965442,-0.3472,0.4648,0.3413,201.52,-17.50,-150.43
282,92970441,-0.3823,0.4746,0.3413,196.95,-20.24,-153.54
283,92975442,-0.4160,0.4849,0.3369,192.44,-23.17,-156.59
284,92980441,-0.4458,0.4985,0.3325,188.17,-25.98,-159.39
285,92985442,-0.4775,0.5049,0.3354,184.45,-28.78,-162.20
286,92990441,-0.5015,0.5112,0.3330,180.55,-31.77,-165.00
287,92995911,-0.5435,0.5244,0.3257,176.52,-35.43,-167.99
288,93000442,-0.5728,0.5435,0.3232,174.33,-38.11,-170.00
289,93005442,-0.6099,0.5576,0.3110,172.32,-41.34,-172.68
290,93010442,-0.6416,0.5791,0.2915,170.91,-44.94,-175.00
291,93015440,-0.6772,0.5903,0.2808,170.67,-48.60,-177.32
292,93020950,-0.7197,0.6079,0.2876,171.10,-53.60,-180.18
293,93025442,-0.7461,0.6196,0.2935,171.65,-56.65,-181.95
294,93030442,-0.7920,0.6367,0.2925,172.62,-61.10,-184.33
295,93035443,-0.8408,0.6519,0.3037,173.29,-65.30,-186.52
296,93040483,-0.8901,0.6680,0.3066,173.60,-70.30,-188.96
297,93045441,-0.9448,0.6846,0.3130,173.05,-75.37,-191.52
298,93050442,-0.9956,0.7114,0.3320,172.20,-80.67,-194.09
299,93055442,-1.0469,0.7373,0.3447,170.37,-86.46,-197.26
300,93060442,-1.1011,0.7695,0.3687,167.74,-92.38,-200.37
301,93065441,-1.1606,0.8125,0.3901,164.94,-98.96,-203.84
302,93070442,-1.2197,0.8594,0.4116,161.59,-105.73,-207.68
303,93075442,-1.2905,0.9067,0.4229,158.41,-113.11,-211.59
304,93080442,-1.3447,0.9634,0.4658,155.37,-120.85,-215.49
305,93085528,-1.4155,1.0103,0.4863,152.01,-129.15,-219.39
306,93090442,-1.4932,1.0459,0.5234,147.99,-138.05,-223.41
307,93095442,-1.5708,1.0801,0.5645,143.60,-147.32,-227.07
308,93100442,-1.6436,1.1250,0.6011,138.54,-157.01,-230.73
309,93105441,-1.7417,1.1440,0.6230,131.83,-167.20,-234.15
310,93110442,-1.8594,1.1689,0.6318,125.91,-178.54,-237.32
311,93115442,-1.9590,1.1943,0.6460,117.68,-190.49,-240.24
312,93120443,-2.0664,1.2134,0.6279,108.78,-203.41,-242.80
313,93125441,-2.1753,1.2378,0.6074,99.33,-217.38,-245.12
314,93130443,-2.2837,1.2568,0.5776,90.12,-232.38,-247.20
315,93135442,-2.3696,1.2822,0.5449,82.20,-248.41,-248.96
316,93140442,-2.4902,1.3003,0.5000,75.73,-265.37,-250.24
317,93145798,-2.6040,1.3125,0.4517,71.59,-283.29,-251.04
318,93150442,-2.7046,1.3452,0.4150,70.00,-301.95,-251.52
319,93155442,-2.8325,1.3740,0.3628,71.46,-321.59,-251.59
320,93160442,-2.9287,1.4111,0.2593,76.46,-342.32,-251.10
321,93165443,-3.0410,1.4707,0.2090,84.94,-363.96,-249.88
322,93170442,-3.1758,1.5425,0.1616,96.65,-386.34,-248.11
323,93175442,-3.3818,1.5630,0.1016,109.70,-409.63,-245.18
324,93180442,-3.5366,1.5474,0.0239,124.70,-433.48,-241.46
325,93185441,-3.7026,1.5439,-0.0571,142.62,-458.29,-236.04
326,93190441,-3.8779,1.5703,-0.1172,161.71,-483.48,-229.09
327,93195445,-4.0825,1.5659,-0.1934,180.55,-508.84,-220.37
328,93200443,-4.2935,1.5586,-0.2671,198.17,-534.02,-210.00
329,93205443,-4.4941,1.5723,-0.3706,215.00,-559.09,-197.74
330,93210442,-4.6963,1.5825,-0.4634,231.04,-583.54,-183.90
331,93215442,-4.9043,1.6284,-0.5522,246.71,-607.20,-168.11
332,93220443,-5.1123,1.6602,-0.6489,261.89,-629.76,-150.49
333,93225474,-5.3198,1.6938,-0.7573,276.16,-651.16,-131.16
334,93230440,-5.5039,1.7354,-0.8394,290.06,-671.04,-109.70
335,93235442,-5.6914,1.7637,-0.9438,302.62,-689.57,-86.46
336,93240444,-5.8652,1.7856,-1.0674,313.35,-706.65,-61.28
337,93245441,-6.0327,1.8110,-1.2080,322.07,-722.32,-34.39
338,93250442,-6.1987,1.8594,-1.3662,328.60,-735.91,-6.10
339,93255445,-6.3257,1.9121,-1.5688,334.09,-747.87,23.23
340,93260441,-6.4712,1.9922,-1.7720,339.51,-757.87,53.78
341,93265442,-6.6152,2.0752,-1.9102,346.28,-764.88,85.30
342,93270441,-6.7632,2.1646,-2.0459,355.67,-768.41,117.93
343,93275442,-6.8643,2.2480,-2.1729,366.89,-768.54,151.59
344,93280441,-6.9482,2.3413,-2.3140,378.66,-765.12,185.98
345,93285442,-7.0171,2.4526,-2.4424,389.57,-758.78,220.79
346,93290442,-7.1011,2.5332,-2.5923,397.26,-749.76,255.55
347,93295442,-7.1528,2.6108,-2.6851,400.98,-737.99,289.88
348,93300441,-7.1494,2.6729,-2.7344,399.57,-723.23,322.93
349,93305442,-7.1309,2.7090,-2.7749,392.93,-705.91,355.12
350,93310441,-7.1216,2.7285,-2.8022,380.67,-685.91,385.55
351,93315442,-7.0972,2.7432,-2.8364,361.71,-664.02,413.90
352,93320441,-7.0757,2.7534,-2.8496,335.85,-640.37,439.82
353,93325440,-7.0415,2.7422,-2.8857,302.62,-615.67,462.93
354,93330441,-7.0068,2.7256,-2.9321,263.11,-591.10,483.05
355,93335442,-6.9639,2.7124,-2.9761,217.80,-566.77,499.94
356,93340441,-6.9263,2.6899,-3.0220,169.51,-543.78,514.27
357,93345444,-6.8823,2.6562,-3.0596,119.63,-522.38,525.85
358,93350442,-6.8145,2.6416,-3.1021,71.22,-502.74,535.24
359,93355445,-6.7300,2.6143,-3.1265,25.06,-485.30,542.68
360,93360441,-6.6328,2.5864,-3.1177,-17.07,-469.88,548.84
361,93365442,-6.5371,2.5718,-3.1509,-52.74,-456.34,554.15
362,93370441,-6.4326,2.5244,-3.1777,-82.74,-444.82,559.09
363,93375442,-6.3198,2.4897,-3.1919,-106.59,-435.00,563.60
364,93380441,-6.2041,2.4507,-3.1943,-125.00,-426.65,567.87
365,93385442,-6.0859,2.4019,-3.2026,-137.26,-419.39,572.07
366,93390441,-5.9590,2.3608,-3.2202,-144.09,-412.87,576.34
367,93395442,-5.8545,2.3110,-3.2051,-146.22,-406.59,581.10
368,93400441,-5.7544,2.2622,-3.2314,-142.68,-400.49,586.22
369,93405442,-5.6704,2.2212,-3.2378,-135.43,-393.96,592.26
370,93410441,-5.5894,2.1650,-3.2236,-125.37,-387.07,598.78
371,93415444,-5.5068,2.0894,-3.2319,-112.99,-379.63,606.22
372,93420441,-5.4443,2.0200,-3.2310,-100.98,-371.52,614.51
373,93425440,-5.3931,1.9263,-3.2114,-90.18,-362.93,623.60
374,93430556,-5.3433,1.8457,-3.2163,-80.91,-353.96,633.17
375,93435442,-5.3052,1.7588,-3.1875,-74.09,-344.45,643.35
376,93440442,-5.2822,1.6768,-3.1489,-68.60,-334.76,653.66
377,93445442,-5.2744,1.6094,-3.1294,-63.17,-324.82,664.15
378,93450442,-5.2817,1.5317,-3.0967,-58.11,-314.21,675.12
379,93455442,-5.2974,1.4673,-3.0703,-52.74,-303.23,686.16
380,93460441,-5.3076,1.3779,-3.0112,-46.28,-291.95,697.32
381,93465442,-5.3193,1.3145,-2.9819,-39.09,-279.76,708.17
382,93470441,-5.3604,1.2441,-2.9282,-30.67,-266.71,718.66
383,93475442,-5.3770,1.1592,-2.8550,-20.37,-252.99,728.35
384,93480441,-5.3330,1.0776,-2.8149,-9.09,-238.17,737.32
385,93485444,-5.2856,0.9961,-2.7476,1.95,-222.26,745.37
386,93490441,-5.2480,0.9131,-2.6880,10.49,-208.84,750.91
387,93495442,-5.2173,0.8164,-2.6045,22.20,-187.93,757.87
388,93500441,-5.1938,0.7578,-2.5703,28.60,-173.54,761.22
389,93505442,-5.1357,0.6533,-2.4932,36.40,-151.16,765.37
390,93510441,-5.0938,0.5854,-2.4126,39.63,-136.22,766.89
391,93515442,-5.0327,0.5259,-2.3325,40.30,-117.80,767.50
392,93520441,-4.9658,0.4600,-2.2734,38.48,-99.63,766.71
393,93525442,-4.8931,0.4092,-2.2158,34.94,-82.13,764.70
394,93530441,-4.8062,0.3540,-2.1514,30.85,-65.06,761.71
395,93535440,-4.7104,0.3037,-2.0884,26.46,-48.78,757.62
396,93540444,-4.6177,0.2598,-2.0352,21.71,-33.35,752.93
397,93545442,-4.5430,0.2134,-1.9814,17.87,-18.54,747.38
398,93550441,-4.4575,0.1470,-1.9321,16.16,-4.27,741.52
399,93555442,-4.3750,0.0898,-1.8735,17.38,9.94,735.24
400,93560441,-4.2622,0.0083,-1.8047,20.30,23.23,728.41
401,93565444,-4.1479,-0.0654,-1.7627,24.39,36.71,720.98
402,93570441,-4.0459,-0.1367,-1.7319,29.76,50.55,712.80
403,93575442,-3.9355,-0.2104,-1.6577,36.71,64.02,703.41
404,93580442,-3.8398,-0.2788,-1.6006,44.45,78.05,692.87
405,93585597,-3.7280,-0.3687,-1.5503,53.17,94.39,678.72
406,93590442,-3.6304,-0.4360,-1.5161,58.29,105.37,668.35
407,93595442,-3.5215,-0.5049,-1.4736,63.41,118.90,654.33
408,93600441,-3.4385,-0.5703,-1.4277,67.13,131.65,639.33
409,93605442,-3.3604,-0.6367,-1.3555,68.72,143.84,623.35
410,93610442,-3.2524,-0.7119,-1.2964,68.60,155.30,606.71
411,93615442,-3.1465,-0.7798,-1.2466,67.56,166.40,589.63
412,93620441,-3.0576,-0.8579,-1.2085,65.30,176.71,572.07
413,93625442,-2.9624,-0.9111,-1.1489,61.10,185.85,554.15
414,93630467,-2.8564,-0.9985,-1.0723,54.57,194.33,535.55
415,93635441,-2.7593,-1.0483,-1.0718,46.34,202.01,516.59
416,93640509,-2.7007,-1.0972,-1.0264,37.74,208.96,497.20
417,93645442,-2.6743,-1.1558,-0.9443,29.15,215.30,477.80
418,93650457,-2.6611,-1.2144,-0.9082,20.06,222.01,458.41
419,93655444,-2.6646,-1.2798,-0.8447,10.24,228.29,439.57
420,93660441,-2.6660,-1.3369,-0.7661,-0.67,234.27,421.22
421,93665442,-2.6846,-1.4048,-0.6831,-12.50,240.55,403.54
422,93670442,-2.6880,-1.4771,-0.6353,-25.43,246.71,386.71
423,93675442,-2.7095,-1.5454,-0.5674,-39.57,252.20,370.91
424,93680441,-2.7310,-1.6167,-0.4985,-54.70,257.13,356.04
425,93685442,-2.7520,-1.6909,-0.4390,-70.06,261.40,342.32
426,93690441,-2.7578,-1.7554,-0.3584,-84.94,265.30,329.39
427,93695442,-2.7681,-1.8320,-0.2886,-98.78,268.72,317.62
428,93700442,-2.7710,-1.9185,-0.2222,-111.16,271.28,306.83
429,93705442,-2.7646,-2.0059,-0.1582,-121.83,273.17,296.46
430,93710442,-2.7383,-2.0913,-0.0884,-130.98,274.27,286.59
431,93715442,-2.6963,-2.1650,-0.0415,-138.17,274.70,276.95
432,93720442,-2.6489,-2.2437,-0.0059,-143.66,274.15,266.89
433,93725442,-2.6011,-2.3325,0.0186,-147.56,272.56,256.46
434,93730441,-2.5498,-2.4072,0.0430,-149.88,269.57,246.10
435,93735442,-2.4536,-2.4609,0.0747,-149.82,265.85,235.00
436,93740440,-2.3462,-2.5107,0.0732,-146.65,260.85,223.48
437,93745442,-2.2510,-2.5371,0.0762,-139.21,255.00,211.40
438,93750444,-2.1523,-2.5566,0.0747,-126.95,248.23,199.02
439,93755440,-2.0264,-2.5767,0.0742,-105.30,239.27,183.35
440,93760442,-1.9155,-2.5884,0.0752,-87.56,232.99,172.26
441,93765442,-1.7822,-2.5884,0.0820,-63.05,224.45,157.93
442,93770442,-1.6460,-2.5723,0.1035,-37.38,215.79,142.13
443,93775444,-1.5278,-2.5659,0.1084,-12.13,207.38,125.55
444,93780441,-1.4082,-2.5615,0.1172,10.37,198.54,107.87
445,93785442,-1.3003,-2.5566,0.1260,28.90,189.63,89.94
446,93790442,-1.2021,-2.5430,0.1313,42.74,180.43,70.73
447,93795442,-1.1206,-2.5215,0.1323,52.20,171.28,51.59
448,93800442,-1.0508,-2.4824,0.1367,58.17,162.32,32.44
449,93805965,-0.9814,-2.4321,0.1333,62.44,151.34,9.94
450,93810443,-0.9526,-2.3989,0.1431,64.57,144.15,-4.45
451,93815442,-0.9248,-2.3428,0.1450,67.62,135.73,-21.71
452,93820442,-0.8989,-2.2739,0.1597,71.52,127.44,-37.80
453,93825441,-0.8667,-2.2026,0.1597,76.46,119.39,-52.74
454,93830443,-0.8369,-2.1245,0.1650,81.77,111.71,-66.71
455,93835440,-0.8140,-2.0449,0.1616,86.71,104.39,-79.94
456,93840502,-0.7910,-1.9697,0.1621,90.67,97.13,-92.20
457,93845440,-0.7793,-1.8896,0.1729,93.23,89.82,-103.78
458,93850442,-0.7637,-1.8145,0.1660,94.21,85.55,-114.45
459,93855442,-0.7451,-1.7412,0.1650,93.66,79.02,-124.45
460,93860442,-0.7324,-1.6704,0.1641,92.62,73.78,-133.60
461,93865441,-0.7188,-1.5981,0.1533,90.85,69.09,-141.77
462,93870442,-0.7075,-1.5352,0.1450,89.09,65.24,-149.02
463,93875442,-0.6890,-1.4712,0.1328,87.44,61.65,-155.49
464,93880442,-0.6714,-1.4048,0.1289,86.16,58.41,-161.10
465,93885442,-0.6465,-1.3496,0.1245,85.43,55.85,-165.91
466,93890442,-0.6221,-1.2896,0.1084,84.76,53.60,-169.94
467,93895443,-0.6006,-1.2329,0.0952,84.27,51.77,-173.54
468,93900442,-0.5776,-1.1743,0.0840,83.90,50.12,-176.71
469,93905441,-0.5557,-1.1211,0.0747,83.11,48.78,-179.33
470,93910442,-0.5303,-1.0718,0.0645,81.95,47.50,-181.71
471,93915443,-0.5049,-1.0225,0.0601,80.24,46.10,-183.66
472,93920442,-0.4795,-0.9800,0.0483,78.11,45.12,-185.30
473,93925441,-0.4580,-0.9399,0.0410,75.67,44.02,-186.46
474,93930442,-0.4370,-0.9038,0.0371,72.93,42.74,-187.32
475,93935442,-0.4175,-0.8711,0.0308,70.24,41.71,-187.99
476,93940442,-0.3999,-0.8374,0.0210,67.44,40.61,-188.35
477,93945440,-0.3789,-0.8140,0.0220,65.06,39.27,-188.23
478,93950441,-0.3564,-0.7886,0.0273,63.05,37.93,-187.93
479,93955444,-0.3364,-0.7563,0.0205,61.34,36.65,-187.32
480,93960441,-0.3164,-0.7354,0.0181,60.30,35.12,-186.59
481,93965442,-0.3022,-0.7153,0.0146,59.63,33.72,-185.55
482,93970441,-0.2827,-0.6938,0.0156,59.45,32.20,-184.57
483,93975442,-0.2690,-0.6792,0.0151,59.45,30.85,-183.54
484,93980441,-0.2563,-0.6538,0.0195,59.51,29.21,-182.26
485,93985442,-0.2437,-0.6387,0.0234,59.76,27.38,-180.91
486,93990441,-0.2349,-0.6260,0.0220,59.70,25.67,-179.63
487,93995444,-0.2246,-0.6084,0.0259,59.76,23.84,-178.35
488,94000441,-0.2153,-0.5986,0.0469,59.76,21.95,-177.07
489,94005442,-0.2031,-0.5825,0.0542,59.45,20.24,-175.79
490,94010440,-0.1875,-0.5752,0.0586,59.15,18.17,-174.45
491,94015444,-0.1748,-0.5684,0.0674,58.54,16.16,-173.17
492,94020441,-0.1592,-0.5581,0.0811,58.05,13.90,-171.77
493,94025442,-0.1396,-0.5371,0.0830,57.74,11.65,-170.24
494,94030441,-0.1323,-0.5410,0.0952,57.68,9.70,-168.90
495,94035442,-0.1128,-0.5420,0.1050,57.50,7.44,-167.32
496,94040441,-0.0913,-0.5410,0.1104,57.20,5.43,-165.79
497,94045442,-0.0796,-0.5400,0.1113,56.65,3.48,-164.15
498,94050442,-0.0708,-0.5391,0.1309,56.34,1.52,-162.68
499,94055442,-0.0591,-0.5439,0.1396,55.73,-0.24,-161.10
500,94060441,-0.0386,-0.5420,0.1470,55.24,-2.20,-159.51
501,94065442,-0.0142,-0.5386,0.1641,54.82,-3.96,-158.11
502,94070441,0.0112,-0.5347,0.1812,54.39,-5.79,-156.77
503,94075442,0.0435,-0.5312,0.1943,54.02,-7.68,-155.61
504,94080442,0.0767,-0.5293,0.1992,53.54,-9.51,-154.57
505,94085442,0.1133,-0.5225,0.2090,52.56,-11.52,-153.48
506,94090442,0.1509,-0.5215,0.2139,51.40,-13.72,-152.38
507,94095442,0.1851,-0.5234,0.2144,49.51,-15.85,-151.40
508,94100441,0.2153,-0.5303,0.2153,47.38,-18.11,-150.55
509,94105442,0.2368,-0.5347,0.2241,44.45,-20.49,-149.51
510,94110442,0.2544,-0.5371,0.2368,41.04,-22.44,-148.41
511,94115442,0.2715,-0.5386,0.2505,37.56,-24.45,-147.44
512,94120442,0.2832,-0.5425,0.2544,34.82,-25.98,-146.71
513,94125442,0.3042,-0.5444,0.2480,30.79,-27.99,-145.61
514,94130441,0.3149,-0.5464,0.2563,28.23,-29.09,-144.88
515,94135442,0.3325,-0.5513,0.2578,24.82,-31.10,-143.54
516,94140440,0.3486,-0.5474,0.2676,22.68,-32.32,-142.74
517,94145440,0.3662,-0.5435,0.2695,20.18,-33.66,-141.83
518,94150441,0.4082,-0.5454,0.2847,17.62,-35.18,-140.73
519,94155442,0.4995,-0.5723,0.2876,15.30,-36.71,-139.76
520,94160441,0.5576,-0.5601,0.2324,11.40,-38.84,-138.41
521,94165442,0.5532,-0.5601,0.2739,6.22,-41.10,-137.38
522,94170441,0.5391,-0.5552,0.2993,0.18,-43.35,-136.65
523,94175442,0.5361,-0.5493,0.2764,-6.22,-45.43,-136.22
524,94180440,0.5576,-0.5581,0.2256,-12.80,-48.05,-135.79
525,94185442,0.5908,-0.5283,0.3076,-20.30,-50.24,-136.04
526,94190440,0.6357,-0.5396,0.2495,-28.66,-52.26,-136.22
527,94195447,0.6685,-0.5269,0.1768,-39.15,-54.94,-136.46
528,94200441,0.6436,-0.5186,0.2344,-50.06,-57.01,-137.26
529,94205442,0.5957,-0.5303,0.3159,-60.24,-57.74,-138.17
530,94210442,0.5957,-0.5352,0.2505,-69.15,-57.87,-139.02
531,94215440,0.6460,-0.5273,0.1719,-76.95,-58.05,-139.88
532,94220442,0.6743,-0.4971,0.2417,-83.60,-57.87,-140.91
533,94225442,0.6865,-0.4814,0.2544,-88.78,-56.83,-142.07
534,94230441,0.6895,-0.4917,0.2397,-92.56,-55.06,-143.11
535,94235442,0.7070,-0.5049,0.1792,-94.21,-52.99,-144.02
536,94240441,0.7319,-0.5161,0.2026,-94.15,-50.18,-144.45
537,94245440,0.7319,-0.5049,0.2417,-92.80,-46.95,-144.57
538,94250441,0.7446,-0.5054,0.1362,-90.18,-43.78,-144.39
539,94255499,0.7988,-0.4902,0.1260,-85.79,-40.61,-144.02
540,94260442,0.8608,-0.4966,0.1367,-80.37,-37.20,-143.54
541,94265442,0.9658,-0.5107,0.0791,-73.78,-35.06,-143.23
542,94270441,1.1055,-0.5015,-0.0981,-66.22,-35.55,-143.05
543,94275442,1.1050,-0.5464,-0.2046,-61.89,-38.11,-142.26
544,94280441,0.9175,-0.5674,0.0854,-61.10,-39.57,-140.43
545,94285576,0.8218,-0.5449,0.1094,-60.91,-39.09,-138.41
546,94290442,0.8711,-0.5483,-0.1021,-59.70,-39.45,-136.22
547,94295442,0.9683,-0.5747,-0.1177,-57.26,-40.06,-134.15
548,94300442,1.0000,-0.5933,0.0376,-54.76,-39.45,-131.83
549,94305444,1.0195,-0.5776,0.0137,-52.20,-38.66,-129.27
550,94310441,1.0513,-0.5400,-0.1572,-49.33,-38.66,-126.59
551,94315803,1.0669,-0.5259,-0.1865,-45.24,-38.84,-123.05
552,94320442,1.0410,-0.4565,-0.0352,-41.77,-38.72,-120.98
553,94325442,1.0205,-0.4478,-0.0610,-37.13,-37.87,-118.17
554,94330443,0.9956,-0.4702,-0.1831,-32.01,-37.44,-115.37
555,94335441,0.9668,-0.4814,-0.1753,-27.07,-37.01,-112.26
556,94340442,0.9395,-0.4736,-0.0645,-22.44,-35.91,-109.21
557,94345441,0.9209,-0.4497,-0.1138,-17.93,-34.70,-105.98
558,94350441,0.9023,-0.4077,-0.2109,-13.54,-34.02,-103.11
559,94355442,0.8701,-0.3647,-0.1743,-9.15,-33.41,-100.37
560,94360442,0.8384,-0.3403,-0.0884,-5.12,-32.07,-97.74
561,94365444,0.8281,-0.3291,-0.1382,-1.46,-30.79,-95.18
562,94370441,0.8281,-0.3369,-0.1963,2.01,-29.94,-92.68
563,94375442,0.8359,-0.3374,-0.1221,4.88,-28.78,-89.88
564,94380441,0.8452,-0.3242,-0.0605,7.50,-26.89,-87.32
565,94385442,0.8564,-0.3066,-0.1104,9.70,-25.55,-84.57
566,94390441,0.8726,-0.2822,-0.1445,11.77,-24.51,-82.07
567,94395442,0.8696,-0.2563,-0.0845,13.48,-23.05,-79.57
568,94400441,0.8765,-0.2363,-0.0469,14.70,-21.65,-77.38
569,94405445,0.8862,-0.2217,-0.1006,15.85,-20.43,-75.12
570,94410441,0.8911,-0.2124,-0.1128,16.77,-19.51,-73.05
571,94415442,0.8872,-0.1992,-0.0537,17.44,-18.72,-71.34
572,94420441,0.8926,-0.1846,-0.0366,17.68,-17.38,-69.57
573,94425442,0.8921,-0.1670,-0.0884,17.68,-16.83,-67.99
574,94430441,0.8906,-0.1465,-0.0830,17.38,-16.59,-66.65
575,94435442,0.8833,-0.1284,-0.0376,16.65,-15.91,-65.43
576,94440441,0.8813,-0.1187,-0.0347,15.55,-15.37,-64.33
577,94445442,0.8950,-0.1147,-0.0698,13.90,-15.00,-63.29
578,94450440,0.8984,-0.1118,-0.0503,11.83,-14.82,-62.44
579,94455441,0.9067,-0.1050,-0.0112,9.33,-14.51,-61.83
580,94460449,0.9160,-0.0933,-0.0269,6.52,-13.84,-61.34
581,94465442,0.9287,-0.0889,-0.0654,3.17,-13.84,-61.04
582,94470441,0.9443,-0.0796,-0.0498,-0.18,-13.84,-60.61
583,94475442,0.9546,-0.0728,-0.0117,-3.84,-13.78,-60.37
584,94480441,0.9644,-0.0703,-0.0439,-7.56,-13.84,-60.24
585,94485442,0.9761,-0.0693,-0.0679,-11.40,-14.09,-60.12
586,94490441,0.9854,-0.0688,-0.0479,-15.12,-14.33,-60.12
587,94495442,0.9834,-0.0693,-0.0366,-18.90,-14.57,-60.18
588,94500441,0.9897,-0.0698,-0.0645,-22.44,-14.94,-60.24
589,94505442,0.9941,-0.0728,-0.0884,-25.91,-15.49,-60.18
590,94510442,0.9951,-0.0776,-0.0659,-29.02,-15.98,-60.12
591,94515442,0.9927,-0.0854,-0.0698,-31.95,-16.34,-60.12
592,94520441,0.9966,-0.0933,-0.0996,-34.39,-16.89,-59.88
593,94525442,1.0005,-0.0933,-0.1240,-35.85,-17.62,-59.39
594,94530442,1.0010,-0.0991,-0.1104,-36.59,-18.11,-58.96
595,94535442,0.9976,-0.1001,-0.1104,-36.52,-18.60,-58.41
596,94540441,1.0029,-0.1050,-0.1367,-35.79,-19.21,-57.68
597,94545444,1.0063,-0.1040,-0.1479,-34.51,-19.82,-56.83
598,94550441,1.0034,-0.1040,-0.1318,-32.56,-20.24,-55.91
599,94555443,0.9995,-0.1040,-0.1416,-30.18,-20.55,-55.06
600,94560440,0.9922,-0.1006,-0.1626,-27.50,-20.79,-54.09
601,94565440,0.9795,-0.1016,-0.1685,-24.45,-20.98,-52.93
602,94570442,0.9702,-0.1021,-0.1602,-21.22,-21.16,-51.95
603,94575443,0.9653,-0.1050,-0.1660,-18.11,-21.22,-50.79
604,94580442,0.9639,-0.1079,-0.1870,-15.00,-21.22,-49.51
605,94585441,0.9634,-0.1201,-0.1841,-12.07,-21.22,-48.23
606,94590442,0.9531,-0.1265,-0.1885,-9.33,-20.91,-46.71
607,94595442,0.9551,-0.1460,-0.1968,-6.65,-20.55,-44.82
608,94601419,0.9561,-0.1567,-0.2056,-3.35,-20.00,-42.20
609,94605445,0.9614,-0.1509,-0.2021,-1.04,-19.57,-40.24
610,94610440,0.9629,-0.1479,-0.1934,2.32,-18.72,-37.74
611,94615440,0.9663,-0.1436,-0.2041,6.04,-18.23,-35.12
612,94620442,0.9692,-0.1479,-0.2124,10.06,-17.44,-32.56
613,94625442,0.9668,-0.1494,-0.2090,14.21,-16.52,-29.82
614,94630441,0.9697,-0.1519,-0.2090,18.41,-15.67,-27.32
615,94635442,0.9751,-0.1440,-0.2222,22.80,-14.82,-24.57
616,94640441,0.9771,-0.1445,-0.2251,27.20,-14.02,-22.01
617,94645442,0.9746,-0.1440,-0.2168,31.40,-13.29,-19.70
618,94650441,0.9731,-0.1401,-0.2183,35.73,-12.80,-17.26
619,94655444,0.9697,-0.1357,-0.2266,40.00,-12.01,-14.94
620,94660442,0.9707,-0.1353,-0.2305,43.90,-11.40,-12.87
621,94665444,0.9678,-0.1313,-0.2266,47.68,-10.98,-10.91
622,94670442,0.9614,-0.1333,-0.2266,51.34,-10.43,-9.09
623,94675442,0.9648,-0.1338,-0.2266,54.51,-9.70,-7.44
624,94680442,0.9624,-0.1294,-0.2231,57.74,-9.57,-6.04
625,94685441,0.9619,-0.1255,-0.2300,60.30,-9.02,-4.76
626,94690442,0.9668,-0.1230,-0.2222,62.68,-8.60,-3.54
627,94695442,0.9629,-0.1221,-0.2339,64.57,-8.05,-2.74
628,94700442,0.9614,-0.1240,-0.2271,65.91,-7.50,-2.20
629,94705573,0.9551,-0.1216,-0.2222,67.13,-7.13,-1.65
630,94710442,0.9683,-0.1206,-0.2217,67.68,-6.59,-1.40
631,94715442,0.9741,-0.1182,-0.2217,67.93,-6.22,-1.28
632,94720442,0.9727,-0.1143,-0.2134,67.68,-5.79,-1.28
633,94725484,0.9673,-0.1162,-0.2070,67.07,-5.12,-1.65
634,94730442,0.9731,-0.1187,-0.2114,66.28,-4.82,-1.89
635,94735442,0.9727,-0.1118,-0.2056,64.88,-4.45,-2.38
636,94740442,0.9688,-0.1099,-0.1992,63.23,-3.84,-3.11
637,94745442,0.9731,-0.1035,-0.1958,61.22,-3.41,-3.96
638,94750442,0.9863,-0.1113,-0.1973,58.84,-3.23,-4.82
639,94756225,0.9849,-0.1143,-0.1909,55.37,-2.87,-5.98
640,94760445,0.9829,-0.1138,-0.1797,52.80,-2.62,-6.59
641,94765441,0.9951,-0.1104,-0.1826,49.45,-2.62,-7.62
642,94770442,0.9990,-0.1177,-0.1846,45.67,-2.32,-8.54
643,94775442,1.0083,-0.1221,-0.1802,41.95,-2.13,-9.51
644,94780442,1.0103,-0.1284,-0.1743,38.05,-2.13,-10.49
645,94785441,1.0156,-0.1255,-0.1807,34.15,-2.20,-11.16
646,94790442,1.0122,-0.1279,-0.1797,30.30,-2.20,-12.13
647,94795442,1.0107,-0.1260,-0.1733,26.89,-2.20,-12.93
648,94800442,1.0093,-0.1250,-0.1743,23.54,-2.38,-13.60
649,94805441,1.0078,-0.1235,-0.1797,20.37,-2.38,-14.33
650,94810442,1.0020,-0.1265,-0.1797,17.68,-2.44,-14.94
651,94815442,0.9946,-0.1226,-0.1748,15.24,-2.38,-15.49
652,94820442,0.9780,-0.1255,-0.1733,12.87,-2.62,-16.04
653,94825441,0.9663,-0.1260,-0.1772,10.73,-2.68,-16.28
654,94830442,0.9639,-0.1353,-0.1777,9.02,-2.74,-16.65
655,94835442,0.9619,-0.1362,-0.1782,7.56,-2.62,-16.89
656,94840442,0.9604,-0.1343,-0.1743,6.22,-2.56,-16.95
657,94845441,0.9551,-0.1382,-0.1816,5.12,-2.62,-16.95
658,94850442,0.9502,-0.1372,-0.1812,4.33,-2.56,-16.89
659,94855446,0.9473,-0.1387,-0.1763,3.66,-2.56,-16.71
660,94860442,0.9424,-0.1362,-0.1772,3.54,-2.38,-16.40
661,94865441,0.9404,-0.1357,-0.1860,3.60,-2.32,-16.04
662,94870442,0.9404,-0.1309,-0.1821,4.02,-2.38,-15.85
663,94875444,0.9429,-0.1309,-0.1782,4.82,-2.13,-15.49
664,94880441,0.9434,-0.1260,-0.1733,5.79,-2.07,-15.30
665,94885442,0.9438,-0.1230,-0.1768,7.13,-1.95,-15.12
666,94890441,0.9438,-0.1211,-0.1733,8.48,-1.89,-14.82
667,94895444,0.9434,-0.1157,-0.1699,9.94,-1.77,-14.57
668,94900441,0.9443,-0.1099,-0.1714,11.40,-1.65,-14.33
669,94905442,0.9497,-0.1118,-0.1719,12.80,-1.65,-14.09
670,94910441,0.9438,-0.1060,-0.1694,14.21,-1.34,-13.84
671,94915442,0.9453,-0.0977,-0.1685,15.49,-1.34,-13.60
672,94920441,0.9434,-0.0962,-0.1689,16.65,-1.34,-13.48
673,94925442,0.9482,-0.0918,-0.1680,17.62,-1.22,-13.35
674,94930441,0.9438,-0.0894,-0.1621,18.48,-1.16,-13.23
675,94935442,0.9429,-0.0830,-0.1650,18.90,-1.04,-13.11
676,94940442,0.9492,-0.0796,-0.1660,19.27,-1.10,-13.11
677,94945442,0.9492,-0.0708,-0.1699,19.15,-1.10,-13.17
678,94950441,0.9536,-0.0669,-0.1670,18.72,-1.22,-13.17
679,94955442,0.9556,-0.0640,-0.1694,18.23,-1.22,-13.41
680,94960444,0.9551,-0.0615,-0.1685,16.83,-1.16,-13.48
681,94965441,0.9565,-0.0547,-0.1660,15.43,-1.22,-13.66
682,94970441,0.9644,-0.0508,-0.1704,13.48,-1.34,-13.90
683,94975445,0.9639,-0.0430,-0.1675,11.04,-1.40,-14.02
684,94980440,0.9639,-0.0459,-0.1694,8.41,-1.59,-14.27
685,94985441,0.9639,-0.0425,-0.1782,5.73,-1.40,-14.51
686,94990444,0.9624,-0.0415,-0.1772,2.80,-1.34,-14.70
687,94995442,0.9619,-0.0376,-0.1797,0.00,-1.16,-14.94
688,95000442,0.9658,-0.0405,-0.1763,-2.93,-1.10,-15.00
689,95005441,0.9619,-0.0381,-0.1855,-5.67,-0.91,-15.24
690,95010442,0.9658,-0.0376,-0.1797,-8.23,-0.79,-15.43
691,95015442,0.9668,-0.0352,-0.1836,-10.67,-0.43,-15.73
692,95020442,0.9624,-0.0322,-0.1846,-12.87,0.00,-15.98
693,95025441,0.9697,-0.0303,-0.1797,-14.94,0.24,-16.22
694,95030442,0.9692,-0.0303,-0.1729,-16.71,0.61,-16.46
695,95035443,0.9678,-0.0308,-0.1787,-18.23,0.98,-16.83
696,95040442,0.9648,-0.0327,-0.1885,-19.63,1.40,-17.01
697,95045440,0.9712,-0.0303,-0.1855,-20.55,1.95,-17.20
698,95050444,0.9741,-0.0356,-0.1880,-21.40,2.20,-17.44
699,95055442,0.9800,-0.0381,-0.1880,-22.01,2.50,-17.50
700,95060441,0.9731,-0.0391,-0.1943,-22.07,2.99,-17.62
701,95065440,0.9717,-0.0430,-0.1953,-21.77,3.17,-17.68
702,95070441,0.9717,-0.0459,-0.2017,-21.16,3.41,-17.68
703,95075443,0.9678,-0.0430,-0.2021,-20.18,3.66,-17.68
704,95080442,0.9678,-0.0391,-0.2007,-18.72,3.84,-17.68
705,95085855,0.9678,-0.0400,-0.2061,-16.95,4.09,-17.56
706,95090443,0.9741,-0.0381,-0.1978,-15.00,4.45,-17.56
707,95095443,0.9741,-0.0347,-0.2046,-12.99,4.57,-17.56
708,95100442,0.9756,-0.0361,-0.2075,-11.16,4.82,-17.20
709,95105440,0.9595,-0.0386,-0.2090,-9.45,5.12,-17.13
710,95110440,0.9556,-0.0405,-0.2139,-8.35,5.37,-16.77
711,95115443,0.9473,-0.0444,-0.2026,-7.56,5.55,-16.28
712,95120440,0.9463,-0.0513,-0.2002,-7.13,6.04,-15.91
713,95125531,0.9009,-0.0498,-0.2251,-6.89,6.22,-15.37
714,95130444,0.9131,-0.0454,-0.2090,-7.32,6.59,-14.70
715,95135441,0.9492,-0.0322,-0.1924,-7.80,7.01,-14.21
716,95140443,0.9805,-0.0254,-0.1836,-8.54,7.56,-13.60
717,95145442,0.9863,-0.0181,-0.1826,-9.02,7.68,-13.35
718,95150443,0.9756,-0.0137,-0.1870,-9.57,8.23,-13.11
719,95155442,0.9663,-0.0122,-0.1841,-9.88,8.41,-12.80
720,95160512,0.9604,-0.0127,-0.1758,-10.18,8.54,-12.56
721,95165440,0.9580,-0.0117,-0.1777,-10.24,8.78,-12.32
722,95170441,0.9556,-0.0049,-0.1821,-10.30,8.78,-11.95
723,95175442,0.9604,0.0029,-0.1636,-10.24,8.90,-11.71
724,95180440,0.9639,0.0049,-0.1646,-9.88,8.90,-11.46
725,95185441,0.9673,0.0083,-0.1577,-9.76,8.90,-11.40
726,95190442,0.9609,0.0059,-0.1636,-9.33,8.96,-11.10
727,95195445,0.9644,0.0093,-0.1465,-9.09,9.02,-10.91
728,95200442,0.9663,0.0073,-0.1426,-8.29,8.90,-10.67
729,95205939,0.9722,0.0103,-0.1499,-7.74,8.72,-10.49
730,95210442,0.9639,0.0103,-0.1421,-7.26,8.66,-10.37
731,95215442,0.9585,0.0142,-0.1338,-6.28,8.48,-10.24
732,95220442,0.9126,0.0142,-0.1094,-5.43,8.35,-10.18
733,95225443,0.9282,0.0190,-0.1357,-3.96,7.99,-10.06
734,95230442,0.9697,0.0386,-0.1240,-2.26,7.80,-10.00
735,95235442,0.9810,0.0361,-0.1201,-0.49,7.32,-10.12
736,95240442,0.9775,0.0278,-0.1260,1.34,6.77,-10.30
737,95245441,0.9800,0.0205,-0.1230,2.99,6.22,-10.30
738,95250442,0.9570,0.0088,-0.1255,4.57,5.61,-10.18
739,95255442,0.9194,0.0068,-0.1201,5.67,5.06,-9.76
740,95260442,0.9561,0.0303,-0.1084,6.77,4.70,-9.82
741,95265440,0.9746,0.0386,-0.1265,7.80,4.15,-9.88
742,95270440,0.9771,0.0366,-0.1128,8.90,3.66,-9.82
743,95275441,0.9702,0.0278,-0.1050,9.76,3.23,-9.63
744,95280443,0.9585,0.0166,-0.1045,10.30,3.05,-9.45
745,95285442,0.9438,0.0166,-0.1045,10.49,2.56,-9.21
746,95290442,0.9375,0.0166,-0.1025,10.79,2.26,-8.84
747,95295441,0.9399,0.0234,-0.1108,10.73,1.77,-8.54
748,95300442,0.9448,0.0244,-0.1138,10.73,1.40,-8.41
749,95305441,0.9438,0.0273,-0.1123,10.55,0.67,-8.23
750,95310443,0.9492,0.0298,-0.1108,10.30,0.37,-7.93
751,95315442,0.9512,0.0244,-0.1235,9.82,-0.18,-7.68
752,95320442,0.9521,0.0259,-0.1108,9.33,-0.49,-7.62
753,95325441,0.9526,0.0303,-0.1226,8.66,-0.91,-7.50
754,95330442,0.9492,0.0259,-0.1216,8.11,-1.28,-7.44
755,95335442,0.9502,0.0269,-0.1152,7.26,-1.71,-7.38
756,95340442,0.9507,0.0259,-0.1211,6.52,-1.95,-7.38
757,95345443,0.9429,0.0308,-0.1235,5.61,-2.26,-7.38
758,95350442,0.9424,0.0371,-0.1230,4.76,-2.56,-7.32
759,95355443,0.9409,0.0356,-0.1289,3.96,-2.93,-7.26
760,95360442,0.9443,0.0381,-0.1304,2.99,-2.87,-7.32
761,95365441,0.9473,0.0376,-0.1318,1.83,-2.99,-7.50
762,95370442,0.9492,0.0371,-0.1343,0.61,-3.11,-7.38
763,95375440,0.9482,0.0396,-0.1343,-0.79,-3.17,-7.50
764,95380440,0.9473,0.0391,-0.1348,-2.07,-3.05,-7.38
765,95385444,0.9478,0.0449,-0.1338,-3.48,-3.05,-7.50
766,95390441,0.9482,0.0444,-0.1372,-4.82,-3.11,-7.44
767,95395442,0.9326,0.0474,-0.1250,-6.40,-2.99,-7.50
768,95400441,0.9434,0.0503,-0.1489,-7.93,-2.93,-7.62
769,95405442,0.9541,0.0493,-0.1479,-9.27,-3.11,-7.56
770,95410441,0.9600,0.0425,-0.1440,-10.79,-3.17,-7.62
771,95415442,0.9634,0.0366,-0.1396,-12.07,-3.17,-7.56
772,95420443,0.9580,0.0376,-0.1436,-13.23,-3.05,-7.50
773,95425443,0.9580,0.0410,-0.1406,-14.21,-3.23,-7.38
774,95430442,0.9585,0.0454,-0.1431,-14.76,-3.17,-7.13
775,95435442,0.9624,0.0405,-0.1475,-15.18,-3.17,-7.26
776,95440442,0.9678,0.0435,-0.1465,-15.12,-2.99,-7.07
777,95445443,0.9673,0.0444,-0.1499,-14.82,-2.87,-7.07
778,95450442,0.9741,0.0464,-0.1431,-14.27,-2.93,-7.07
779,95455442,0.9736,0.0381,-0.1460,-13.54,-2.74,-7.07
780,95460442,0.9727,0.0400,-0.1499,-12.56,-2.74,-7.01
781,95465443,0.9712,0.0415,-0.1450,-11.46,-2.93,-6.95
782,95470442,0.9678,0.0410,-0.1509,-10.18,-2.56,-6.83
783,95475440,0.9658,0.0420,-0.1514,-8.78,-2.68,-6.77
784,95480531,0.9688,0.0420,-0.1479,-7.20,-2.68,-6.77
785,95485442,0.9692,0.0371,-0.1475,-5.49,-2.68,-6.59
786,95490441,0.9639,0.0400,-0.1450,-4.09,-2.68,-6.40
787,95495442,0.9663,0.0391,-0.1436,-2.32,-2.80,-6.22
788,95500441,0.9658,0.0396,-0.1431,-0.85,-2.87,-6.22
789,95505442,0.9639,0.0396,-0.1392,0.55,-3.05,-5.98
790,95510441,0.9624,0.0337,-0.1479,2.01,-3.23,-5.79
791,95515442,0.9619,0.0405,-0.1396,3.17,-3.29,-5.73
792,95520441,0.9658,0.0376,-0.1440,4.33,-3.60,-5.61
793,95525442,0.9629,0.0420,-0.1455,5.30,-3.78,-5.49
794,95530441,0.9663,0.0420,-0.1426,5.98,-3.78,-5.43
795,95535442,0.9653,0.0435,-0.1440,6.52,-4.09,-5.30
796,95540441,0.9663,0.0444,-0.1484,6.89,-4.27,-5.37
797,95545442,0.9639,0.0454,-0.1475,7.01,-4.33,-5.30
798,95550441,0.9570,0.0493,-0.1484,7.01,-4.27,-5.30
799,95555444,0.9604,0.0547,-0.1523,6.77,-4.39,-5.37
800,95560441,0.9575,0.0522,-0.1528,6.28,-4.39,-5.49
801,95565442,0.9556,0.0518,-0.1465,5.73,-4.57,-5.49
802,95570441,0.9531,0.0566,-0.1470,4.94,-4.51,-5.67
803,95575440,0.9526,0.0625,-0.1484,4.15,-4.51,-5.79
804,95580440,0.9507,0.0615,-0.1548,3.05,-4.39,-5.91
805,95585440,0.9521,0.0615,-0.1499,1.95,-4.27,-5.98
806,95590443,0.9492,0.0620,-0.1538,1.16,-4.27,-6.04
807,95595442,0.9482,0.0605,-0.1558,0.18,-4.21,-6.10
808,95600442,0.9473,0.0649,-0.1528,-0.85,-4.21,-6.22
809,95605445,0.9478,0.0649,-0.1567,-1.52,-4.21,-6.34
810,95610442,0.9502,0.0679,-0.1562,-2.38,-4.21,-6.46
811,95615442,0.9526,0.0674,-0.1514,-3.05,-4.02,-6.46
812,95620442,0.9551,0.0684,-0.1504,-3.66,-3.90,-6.46
813,95625442,0.9556,0.0674,-0.1533,-4.02,-3.78,-6.52
814,95630442,0.9614,0.0708,-0.1504,-4.15,-3.78,-6.46
815,95635442,0.9556,0.0693,-0.1548,-4.33,-3.66,-6.40
816,95640442,0.9580,0.0723,-0.1523,-4.33,-3.66,-6.28
817,95645494,0.9609,0.0698,-0.1494,-4.39,-3.48,-6.16
818,95651412,0.9629,0.0674,-0.1519,-4.33,-3.54,-6.04
819,95655445,0.9634,0.0664,-0.1528,-4.15,-3.41,-5.91
820,95660440,0.9619,0.0693,-0.1470,-3.96,-3.54,-5.79
821,95665444,0.9624,0.0728,-0.1519,-3.60,-3.29,-5.61
822,95670531,0.9604,0.0698,-0.1528,-3.17,-3.48,-5.43
823,95675440,0.9673,0.0747,-0.1548,-2.56,-3.54,-5.30
824,95680440,0.9668,0.0728,-0.1519,-1.89,-3.48,-5.30
825,95685440,0.9600,0.0728,-0.1533,-1.34,-3.48,-5.12
826,95690444,0.9624,0.0703,-0.1484,-0.55,-3.41,-4.94
827,95695442,0.9590,0.0732,-0.1592,0.18,-3.41,-4.94
828,95700441,0.9590,0.0728,-0.1509,0.91,-3.35,-4.76
829,95705442,0.9629,0.0708,-0.1494,1.65,-3.23,-4.76
830,95710441,0.9595,0.0762,-0.1514,2.44,-3.11,-4.76
831,95715442,0.9614,0.0737,-0.1514,3.05,-3.11,-4.76
832,95720441,0.9644,0.0708,-0.1519,3.48,-3.11,-4.63
833,95725442,0.9644,0.0728,-0.1514,4.21,-2.93,-4.51
834,95730441,0.9639,0.0737,-0.1582,4.57,-2.93,-4.45
835,95735442,0.9639,0.0737,-0.1489,5.06,-2.93,-4.45
836,95740441,0.9692,0.0747,-0.1562,5.30,-2.87,-4.45
837,95745442,0.9683,0.0742,-0.1509,5.49,-2.87,-4.39
838,95750441,0.9707,0.0771,-0.1514,5.67,-2.80,-4.27
839,95755442,0.9648,0.0762,-0.1519,5.61,-2.80,-4.21
840,95760440,0.9683,0.0757,-0.1553,5.49,-2.93,-4.15
841,95765444,0.9648,0.0776,-0.1548,5.37,-2.56,-4.02
842,95770441,0.9634,0.0791,-0.1533,5.12,-2.56,-3.84
843,95775440,0.9604,0.0801,-0.1577,4.70,-2.38,-3.84
844,95780444,0.9648,0.0781,-0.1553,4.39,-2.26,-3.84
845,95785441,0.9595,0.0757,-0.1553,4.02,-2.20,-3.72
846,95790440,0.9624,0.0781,-0.1548,3.60,-2.07,-3.78
847,95795444,0.9624,0.0786,-0.1562,3.11,-2.01,-3.60
848,95800441,0.9609,0.0820,-0.1582,2.62,-2.01,-3.66
849,95805442,0.9624,0.0820,-0.1572,2.38,-2.01,-3.60
850,95810441,0.9609,0.0801,-0.1538,1.95,-1.77,-3.60
851,95815442,0.9648,0.0869,-0.1558,1.65,-1.83,-3.41
852,95820441,0.9644,0.0811,-0.1494,1.10,-1.77,-3.41
853,95825984,0.9634,0.0830,-0.1514,0.85,-1.83,-3.48
854,95830443,0.9658,0.0898,-0.1558,0.49,-1.83,-3.35
855,95835442,0.9697,0.0874,-0.1533,0.18,-1.89,-3.29
856,95840442,0.9644,0.0840,-0.1562,-0.18,-1.65,-3.35
857,95845441,0.9673,0.0854,-0.1582,-0.61,-1.83,-3.35
858,95850442,0.9692,0.0869,-0.1528,-0.73,-1.83,-3.17
859,95855442,0.9688,0.0884,-0.1475,-0.85,-1.95,-3.11
860,95860442,0.9604,0.0864,-0.1489,-1.16,-1.83,-3.17
861,95865443,0.9614,0.0845,-0.1445,-1.28,-1.89,-3.17
862,95870442,0.9575,0.0884,-0.1528,-1.40,-1.77,-3.17
863,95875443,0.9590,0.0859,-0.1533,-1.52,-1.65,-3.11
864,95880442,0.9580,0.0864,-0.1514,-1.65,-1.89,-2.93
865,95885440,0.9546,0.0884,-0.1475,-1.59,-1.65,-2.93
866,95890440,0.9634,0.0884,-0.1538,-1.52,-1.71,-2.87
867,95895444,0.9590,0.0879,-0.1533,-1.46,-1.77,-2.62
868,95900441,0.9575,0.0884,-0.1484,-1.34,-1.77,-2.50
869,95905444,0.9556,0.0913,-0.1553,-1.04,-1.77,-2.50
870,95910441,0.9541,0.0913,-0.1494,-0.79,-1.65,-2.32
871,95915444,0.9541,0.0894,-0.1504,-0.43,-1.77,-2.26
872,95920441,0.9531,0.0933,-0.1528,0.12,-1.59,-2.20
873,95925442,0.9565,0.0889,-0.1558,0.61,-1.59,-1.89
874,95930441,0.9551,0.0913,-0.1489,0.98,-1.59,-1.83
875,95935442,0.9541,0.0913,-0.1479,1.46,-1.52,-1.71
876,95940441,0.9570,0.0928,-0.1479,1.83,-1.59,-1.46
877,95945442,0.9575,0.0918,-0.1416,2.20,-1.52,-1.40
878,95950441,0.9609,0.0894,-0.1445,2.62,-1.52,-1.28
879,95955444,0.9590,0.0918,-0.1543,2.87,-1.52,-1.28
880,95960441,0.9614,0.0928,-0.1475,3.17,-1.52,-1.10
881,95965444,0.9590,0.0928,-0.1411,3.48,-1.59,-0.91
882,95970441,0.9561,0.0938,-0.1494,3.54,-1.65,-0.91
883,95975442,0.9565,0.0918,-0.1436,3.84,-1.52,-0.85
884,95980441,0.9575,0.0928,-0.1475,3.96,-1.83,-0.67
885,95985440,0.9585,0.0947,-0.1445,3.96,-1.77,-0.49
886,95990504,0.9580,0.0942,-0.1489,4.02,-1.77,-0.37
887,95995752,0.9551,0.0938,-0.1416,3.96,-1.89,-0.30
888,96000444,0.9575,0.0913,-0.1475,4.02,-2.13,-0.24
889,96005444,0.9575,0.0923,-0.1465,4.02,-2.26,-0.12
890,96010441,0.9561,0.0962,-0.1445,3.90,-2.26,-0.06
891,96015442,0.9570,0.0933,-0.1455,3.84,-2.26,0.00
892,96020441,0.9595,0.0938,-0.1470,3.78,-2.44,0.18
893,96025442,0.9580,0.0928,-0.1479,3.60,-2.56,0.24
894,96030441,0.9580,0.0933,-0.1514,3.72,-2.62,0.30
895,96035865,0.9585,0.0938,-0.1470,3.72,-2.62,0.37
896,96040443,0.9585,0.0957,-0.1489,3.72,-2.74,0.43
897,96045443,0.9580,0.0952,-0.1436,3.84,-2.68,0.55
898,96050442,0.9585,0.0942,-0.1460,3.78,-2.80,0.73
899,96055441,0.9565,0.0933,-0.1499,3.90,-2.80,0.85
900,96060442,0.9517,0.0942,-0.1475,3.90,-2.74,0.98
901,96065442,0.9570,0.0942,-0.1445,3.84,-2.93,1.04
902,96070442,0.9575,0.0962,-0.1450,3.90,-2.93,1.22
903,96075442,0.9551,0.0942,-0.1528,3.84,-2.74,1.22
904,96080443,0.9580,0.0928,-0.1489,3.78,-2.80,1.40
905,96085441,0.9580,0.0952,-0.1460,3.72,-2.87,1.52
906,96090440,0.9556,0.0908,-0.1519,3.60,-2.87,1.59
907,96095440,0.9580,0.0957,-0.1489,3.54,-3.05,1.83
908,96100443,0.9570,0.0928,-0.1489,3.54,-3.05,1.77
909,96105442,0.9565,0.0952,-0.1519,3.35,-2.80,1.89
910,96110441,0.9561,0.0903,-0.1538,3.29,-2.80,2.01
911,96115442,0.9561,0.0908,-0.1489,3.17,-2.93,2.07
912,96120442,0.9604,0.0933,-0.1455,3.05,-2.80,2.13
913,96125444,0.9590,0.0933,-0.1509,2.87,-2.80,2.26
914,96130441,0.9595,0.0918,-0.1494,2.87,-2.93,2.38
915,96135442,0.9614,0.0933,-0.1484,2.74,-2.74,2.44
916,96140441,0.9580,0.0913,-0.1484,2.38,-2.87,2.50
917,96145442,0.9600,0.0913,-0.1479,2.20,-2.87,2.62
918,96150441,0.9609,0.0918,-0.1489,2.07,-2.93,2.74
919,96155442,0.9604,0.0874,-0.1465,1.83,-2.93,2.87
920,96160441,0.9585,0.0889,-0.1431,1.59,-2.93,3.05
921,96165442,0.9556,0.0854,-0.1494,1.52,-2.93,3.17
922,96170441,0.9600,0.0850,-0.1479,1.40,-2.87,3.41
923,96175442,0.9541,0.0835,-0.1455,1.22,-3.05,3.48
924,96180441,0.9580,0.0864,-0.1479,1.22,-2.99,3.72
925,96185443,0.9609,0.0874,-0.1499,1.10,-2.99,3.90
926,96190440,0.9619,0.0894,-0.1528,1.40,-3.05,4.09
927,96195877,0.9580,0.0825,-0.1528,1.46,-2.93,4.21
928,96200442,0.9595,0.0825,-0.1489,1.59,-2.93,4.27
929,96205443,0.9614,0.0840,-0.1445,1.71,-3.05,4.33
930,96210442,0.9600,0.0815,-0.1465,2.01,-2.93,4.51
931,96215441,0.9580,0.0806,-0.1445,2.26,-2.68,4.76
932,96220442,0.9546,0.0811,-0.1460,2.44,-2.68,4.82
933,96225442,0.9570,0.0806,-0.1475,2.56,-2.62,5.06
934,96230442,0.9580,0.0811,-0.1494,2.93,-2.62,5.06
935,96235441,0.9590,0.0781,-0.1479,3.05,-2.50,5.12
936,96240442,0.9609,0.0811,-0.1504,3.35,-2.44,5.18
937,96245442,0.9639,0.0767,-0.1450,3.48,-2.26,5.37
938,96250442,0.9609,0.0732,-0.1421,3.78,-2.26,5.55
939,96255441,0.9639,0.0728,-0.1494,4.02,-1.95,5.73
940,96260442,0.9653,0.0728,-0.1479,4.33,-1.83,5.98
941,96265442,0.9673,0.0737,-0.1445,4.51,-1.71,6.04
942,96270442,0.9697,0.0723,-0.1460,4.70,-1.77,6.40
943,96275441,0.9702,0.0703,-0.1475,5.12,-1.71,6.40
944,96280442,0.9766,0.0654,-0.1548,5.30,-1.77,6.71
945,96285442,0.9741,0.0669,-0.1533,5.55,-1.59,6.83
946,96290441,0.9751,0.0649,-0.1465,5.67,-1.65,7.07
947,96295440,0.9790,0.0688,-0.1489,6.16,-1.71,7.32
948,96300440,0.9795,0.0645,-0.1475,6.10,-1.52,7.44
949,96305444,0.9741,0.0576,-0.1484,6.22,-1.40,7.80
950,96310441,0.9678,0.0596,-0.1445,6.52,-1.46,7.99
951,96315442,0.9697,0.0601,-0.1494,6.77,-1.46,8.11
952,96320441,0.9644,0.0596,-0.1489,6.89,-1.40,8.29
953,96325442,0.9663,0.0576,-0.1416,7.13,-1.28,8.54
954,96330441,0.9634,0.0552,-0.1465,7.38,-1.28,8.78
955,96335442,0.9600,0.0547,-0.1440,7.80,-1.10,8.84
956,96340441,0.9575,0.0532,-0.1436,8.11,-0.98,9.21
957,96345442,0.9502,0.0513,-0.1465,8.54,-0.67,9.39
958,96350441,0.9551,0.0493,-0.1460,9.02,-0.61,9.63
959,96355442,0.9531,0.0493,-0.1440,9.45,-0.43,9.82
960,96360441,0.9487,0.0479,-0.1416,10.00,-0.24,9.88
961,96365442,0.9492,0.0508,-0.1460,10.49,0.06,10.06
962,96370441,0.9507,0.0503,-0.1396,10.91,0.24,10.18
963,96375442,0.9507,0.0459,-0.1377,11.34,0.43,10.24
964,96380441,0.9492,0.0459,-0.1455,11.59,0.67,10.37
965,96385442,0.9473,0.0435,-0.1431,11.95,0.79,10.30
966,96390441,0.9478,0.0444,-0.1372,12.20,0.98,10.24
967,96395440,0.9497,0.0400,-0.1362,12.38,1.10,10.24
968,96400713,0.9487,0.0366,-0.1416,12.44,1.22,10.43
969,96405518,0.9453,0.0332,-0.1396,12.56,1.34,10.37
970,96410441,0.9453,0.0322,-0.1401,12.80,1.52,10.43
971,96415908,0.9409,0.0293,-0.1440,12.93,1.52,10.55
972,96420443,0.9390,0.0298,-0.1533,13.23,1.65,10.61
973,96425442,0.9355,0.0293,-0.1489,13.54,1.59,10.55
974,96430442,0.9307,0.0273,-0.1489,13.90,1.65,10.49
975,96435444,0.9287,0.0254,-0.1528,14.33,1.65,10.43
976,96440447,0.9126,0.0264,-0.1548,14.76,1.77,10.37
977,96445442,0.9106,0.0220,-0.1499,15.24,1.83,10.37
978,96450441,0.9043,0.0190,-0.1606,15.61,1.89,10.12
979,96455442,0.8945,0.0225,-0.1646,15.91,2.01,10.18
980,96460441,0.8926,0.0171,-0.1587,16.34,2.01,10.00
981,96465442,0.8872,0.0161,-0.1597,16.65,2.32,9.94
982,96470441,0.8853,0.0146,-0.1582,16.65,2.20,9.82
983,96475442,0.8892,0.0137,-0.1577,16.59,2.26,9.57
984,96480441,0.8882,0.0083,-0.1592,16.52,2.44,9.45
985,96485442,0.8916,0.0068,-0.1641,16.10,2.32,9.33
986,96490441,0.8965,0.0024,-0.1577,15.61,2.20,9.15
987,96495824,0.8984,-0.0005,-0.1567,15.18,2.13,8.96
988,96500442,0.8989,-0.0029,-0.1631,14.39,1.83,8.60
989,96505440,0.8989,-0.0024,-0.1665,13.84,1.52,8.35
990,96510440,0.8936,-0.0044,-0.1650,13.11,1.28,8.05
991,96515442,0.8994,-0.0068,-0.1670,12.44,0.98,7.62
992,96520441,0.9067,-0.0083,-0.1807,11.77,0.49,7.20
993,96525442,0.9028,-0.0049,-0.1758,11.22,-0.06,6.77
994,96530441,0.9106,-0.0117,-0.1768,10.61,-0.61,6.28
995,96535442,0.9111,-0.0127,-0.1851,10.18,-1.10,5.79
996,96540441,0.9204,-0.0186,-0.1846,9.76,-1.52,5.24
997,96545442,0.9297,-0.0195,-0.1851,9.21,-1.83,4.82
998,96550441,0.9326,-0.0239,-0.1787,9.09,-2.20,4.33
999,96555442,0.9390,-0.0205,-0.1816,8.84,-2.62,3.72
1000,96560441,0.9404,-0.0293,-0.1851,8.48,-2.93,3.29
1001,96565442,0.9497,-0.0303,-0.1909,8.48,-3.23,2.87
1002,96570442,0.9478,-0.0317,-0.1929,8.23,-3.48,2.44
1003,96575442,0.9473,-0.0449,-0.1924,8.05,-3.78,2.13
1004,96580441,0.9609,-0.0493,-0.1885,7.87,-4.21,1.83
1005,96585442,0.9678,-0.0562,-0.1899,7.87,-4.27,1.52
1006,96590441,0.9790,-0.0552,-0.1938,7.68,-4.57,1.46
1007,96595442,0.9907,-0.0601,-0.1919,7.68,-4.76,1.34
1008,96600442,0.9912,-0.0674,-0.1895,7.56,-5.00,1.16
1009,96605441,0.9927,-0.0669,-0.1934,7.32,-5.18,1.04
1010,96610443,0.9849,-0.0684,-0.1904,7.32,-5.49,0.85
1011,96615442,0.9868,-0.0684,-0.1943,7.32,-5.85,0.79
1012,96620441,0.9814,-0.0649,-0.2012,7.44,-5.85,0.61
1013,96625442,0.9688,-0.0674,-0.2051,7.56,-6.22,0.30
1014,96630441,0.9634,-0.0669,-0.2051,7.68,-6.34,0.06
1015,96635442,0.9541,-0.0654,-0.1987,8.05,-6.40,-0.30
1016,96640441,0.9502,-0.0659,-0.2061,8.35,-6.46,-0.55
1017,96645442,0.9512,-0.0669,-0.2036,8.66,-6.59,-0.91
1018,96650441,0.9399,-0.0693,-0.1982,8.84,-6.46,-1.22
1019,96655445,0.9331,-0.0713,-0.2002,9.21,-6.34,-1.59
1020,96660441,0.9248,-0.0728,-0.2021,9.21,-5.91,-1.95
1021,96665442,0.9165,-0.0718,-0.1982,9.39,-5.67,-2.20
1022,96670441,0.9058,-0.0747,-0.2017,9.45,-5.30,-2.50
1023,96675442,0.9023,-0.0771,-0.1919,9.33,-5.00,-2.74
1024,96680441,0.8911,-0.0757,-0.1963,9.21,-4.39,-2.93
1025,96685440,0.8848,-0.0791,-0.1929,9.09,-3.78,-3.05
1026,96690442,0.8784,-0.0854,-0.1938,8.78,-3.05,-3.35
1027,96695444,0.8765,-0.0815,-0.1919,8.54,-2.50,-3.60
1028,96700441,0.8677,-0.0864,-0.1938,8.05,-1.95,-3.78
1029,96705441,0.8574,-0.0845,-0.1870,7.56,-1.10,-4.09
1030,96710442,0.8530,-0.0840,-0.1885,6.95,-0.37,-4.45
1031,96715442,0.8433,-0.0815,-0.1924,6.34,0.18,-4.88
1032,96720441,0.8345,-0.0811,-0.1885,5.73,0.85,-5.24
1033,96725442,0.8374,-0.0771,-0.1870,4.94,1.34,-5.85
1034,96730441,0.8369,-0.0845,-0.1890,3.96,2.07,-6.28
1035,96735442,0.8403,-0.0830,-0.1865,2.93,2.56,-6.95
1036,96740441,0.8442,-0.0854,-0.1860,1.71,2.99,-7.56
1037,96745442,0.8511,-0.0908,-0.1904,0.55,3.54,-8.29
1038,96750441,0.8604,-0.0903,-0.1865,-0.85,4.02,-9.09
1039,96755444,0.8706,-0.0952,-0.1821,-2.07,4.33,-9.88
1040,96760441,0.8765,-0.0918,-0.1816,-3.48,4.57,-10.73
1041,96765442,0.8882,-0.0938,-0.1851,-5.00,4.88,-11.59
1042,96770441,0.8994,-0.0986,-0.1870,-6.22,4.94,-12.62
1043,96775442,0.9062,-0.0942,-0.1890,-7.44,4.94,-13.41
1044,96780441,0.9155,-0.0933,-0.1963,-8.66,4.88,-14.21
1045,96785444,0.9224,-0.0938,-0.1982,-9.57,4.82,-15.24
1046,96790441,0.9224,-0.0981,-0.2056,-10.30,4.57,-16.10
1047,96795442,0.9253,-0.0972,-0.2031,-11.04,4.33,-17.13
1048,96800442,0.9194,-0.0962,-0.2007,-11.46,4.09,-18.05
1049,96805442,0.9219,-0.0962,-0.2051,-11.65,3.78,-18.84
1050,96810442,0.9165,-0.0962,-0.2104,-11.77,3.66,-19.63
1051,96815442,0.9175,-0.0986,-0.2095,-11.59,3.29,-20.43
1052,96820441,0.9131,-0.1006,-0.2173,-11.34,3.11,-21.10
1053,96825442,0.9170,-0.1050,-0.2119,-10.85,2.93,-21.77
1054,96830441,0.9097,-0.1055,-0.2158,-10.18,2.99,-22.44
1055,96835444,0.9072,-0.1055,-0.2148,-9.39,2.99,-23.05
1056,96840441,0.9038,-0.1035,-0.2197,-8.54,2.99,-23.54
1057,96845442,0.9038,-0.0996,-0.2183,-7.38,3.05,-23.96
1058,96850441,0.9087,-0.0972,-0.2119,-6.40,3.23,-24.45
1059,96855442,0.9087,-0.0933,-0.2104,-4.76,3.54,-24.94
1060,96860441,0.9102,-0.0898,-0.2188,-3.78,3.78,-25.49
1061,96865442,0.9067,-0.0820,-0.2168,-2.32,3.72,-26.04
1062,96870442,0.9077,-0.0781,-0.2188,-1.10,4.15,-26.59
1063,96875473,0.9097,-0.0708,-0.2300,0.12,4.33,-27.26
1064,96880442,0.9126,-0.0659,-0.2197,1.34,4.33,-27.68
1065,96885443,0.9106,-0.0591,-0.2212,2.50,4.39,-28.11
1066,96890441,0.9150,-0.0508,-0.2134,3.54,4.76,-28.84
1067,96895444,0.9141,-0.0430,-0.2266,4.76,4.76,-29.27
1068,96900441,0.9131,-0.0410,-0.2266,5.85,5.00,-29.70
1069,96905440,0.9136,-0.0356,-0.2266,6.89,5.06,-30.24
1070,96910494,0.9131,-0.0327,-0.2227,7.80,5.12,-30.55
1071,96915440,0.9214,-0.0269,-0.2271,8.72,5.06,-30.73
1072,96920442,0.9253,-0.0195,-0.2266,9.57,5.12,-31.04
1073,96925443,0.9272,-0.0171,-0.2227,10.24,5.18,-31.16
1074,96930442,0.9316,-0.0103,-0.2144,11.04,5.06,-31.28
1075,96935467,0.9331,-0.0044,-0.2236,11.71,5.00,-31.28
1076,96940442,0.9326,0.0020,-0.2178,12.44,4.88,-31.34
1077,96945443,0.9341,0.0186,-0.2109,13.29,4.57,-31.16
1078,96950442,0.9355,0.0288,-0.2119,14.15,4.33,-31.10
1079,96955440,0.9370,0.0327,-0.2158,14.88,4.33,-30.85
1080,96960441,0.9434,0.0386,-0.2026,15.43,3.96,-30.55
1081,96965442,0.9478,0.0430,-0.1992,15.98,3.72,-30.12
1082,96970442,0.9531,0.0483,-0.1816,16.52,3.60,-29.51
1083,96975442,0.9619,0.0498,-0.1768,16.89,3.48,-28.72
1084,96980441,0.9722,0.0503,-0.1772,17.07,3.35,-27.99
1085,96985442,0.9819,0.0596,-0.1646,17.20,3.35,-27.13
1086,96990441,0.9941,0.0610,-0.1523,17.13,3.29,-26.22
1087,96995444,1.0024,0.0659,-0.1470,16.89,3.41,-25.18
1088,97000441,1.0137,0.0796,-0.1353,16.59,3.60,-24.09
1089,97005442,1.0244,0.0879,-0.1401,16.28,3.54,-23.23
1090,97010440,1.0288,0.1006,-0.1289,15.98,3.60,-22.38
1091,97015499,1.0391,0.1152,-0.1260,15.55,3.66,-21.28
1092,97020440,1.0474,0.1270,-0.1245,15.18,3.48,-20.43
1093,97025440,1.0571,0.1396,-0.1235,14.57,3.35,-19.82
1094,97030444,1.0625,0.1592,-0.1108,13.90,3.29,-19.09
1095,97035442,1.0649,0.1719,-0.1133,13.23,2.99,-18.54
1096,97040441,1.0708,0.1777,-0.1138,12.38,2.80,-18.05
1097,97045442,1.0762,0.1880,-0.1079,11.28,2.32,-17.68
1098,97050442,1.0825,0.1973,-0.1001,10.12,2.13,-17.44
1099,97055444,1.0869,0.1997,-0.0981,8.84,1.52,-17.26
1100,97060442,1.0801,0.2075,-0.1001,7.56,1.04,-17.13
1101,97065442,1.0791,0.2104,-0.1001,6.10,0.43,-17.01
1102,97070441,1.0708,0.2168,-0.0942,4.57,-0.12,-17.01
1103,97075444,1.0610,0.2236,-0.0972,2.99,-0.73,-17.20
1104,97080441,1.0532,0.2285,-0.0986,1.52,-1.40,-17.32
1105,97085442,1.0376,0.2349,-0.1050,0.24,-2.01,-17.68
1106,97090442,1.0303,0.2383,-0.0977,-0.91,-2.50,-18.11
1107,97095442,1.0176,0.2520,-0.1069,-1.71,-3.17,-18.54
1108,97100441,1.0010,0.2544,-0.1040,-2.38,-3.60,-19.02
1109,97105442,0.9927,0.2573,-0.1035,-2.80,-3.96,-19.57
1110,97110440,0.9839,0.2578,-0.1016,-2.93,-4.45,-20.12
1111,97115440,0.9731,0.2549,-0.1011,-2.87,-4.82,-20.55
1112,97120442,0.9707,0.2563,-0.1011,-2.99,-5.06,-21.10
1113,97125916,0.9653,0.2539,-0.0938,-2.87,-5.24,-21.52
1114,97130442,0.9653,0.2524,-0.0933,-2.56,-5.30,-21.89
1115,97135442,0.9707,0.2573,-0.0884,-2.26,-5.37,-22.38
1116,97140442,0.9707,0.2485,-0.0898,-1.89,-5.37,-22.62
1117,97145440,0.9658,0.2534,-0.0918,-1.59,-5.43,-22.99
1118,97150444,0.9663,0.2568,-0.0903,-1.40,-5.43,-23.48
1119,97155660,0.9673,0.2573,-0.1001,-0.85,-5.37,-23.84
1120,97160444,0.9697,0.2632,-0.0942,-0.55,-5.18,-24.21
1121,97165440,0.9697,0.2642,-0.0977,0.00,-5.12,-24.82
1122,97170444,0.9751,0.2666,-0.1035,0.24,-5.12,-25.37
1123,97175442,0.9775,0.2764,-0.1084,0.37,-5.12,-25.85
1124,97180440,0.9756,0.2852,-0.1040,0.85,-5.24,-26.52
1125,97185441,0.9707,0.2949,-0.1011,1.34,-5.30,-27.32
1126,97190441,0.9697,0.3047,-0.1060,1.83,-5.24,-28.11
1127,97195443,0.9585,0.3140,-0.1045,2.13,-5.18,-28.96
1128,97200443,0.9526,0.3203,-0.1099,2.62,-5.12,-29.88
1129,97205924,0.9409,0.3262,-0.1074,2.68,-5.00,-30.91
1130,97210442,0.9399,0.3320,-0.1128,2.68,-5.06,-31.77
1131,97215441,0.9307,0.3423,-0.1118,2.50,-4.94,-32.62
1132,97220444,0.9258,0.3481,-0.1099,2.13,-4.76,-33.48
1133,97225440,0.9219,0.3525,-0.1055,1.59,-4.76,-34.21
1134,97230442,0.9150,0.3579,-0.1064,0.73,-4.57,-35.00
1135,97235441,0.9092,0.3594,-0.1143,-0.30,-4.39,-35.73
1136,97240444,0.9028,0.3633,-0.1035,-1.52,-4.27,-36.28
1137,97245440,0.8921,0.3677,-0.1055,-2.80,-3.90,-36.77
1138,97250444,0.8877,0.3716,-0.1118,-4.57,-3.78,-37.07
1139,97255441,0.8809,0.3804,-0.1060,-6.16,-3.54,-37.32
1140,97260442,0.8726,0.3833,-0.1060,-7.74,-3.29,-37.44
1141,97265442,0.8755,0.3906,-0.1050,-9.33,-3.05,-37.56
1142,97270442,0.8677,0.3916,-0.1099,-10.91,-2.74,-37.50
1143,97275441,0.8687,0.3999,-0.1118,-12.50,-2.32,-37.26
1144,97280442,0.8613,0.4033,-0.1143,-13.78,-1.89,-37.13
1145,97285440,0.8604,0.4102,-0.1123,-15.06,-1.52,-36.89
1146,97290444,0.8652,0.4199,-0.1206,-16.10,-1.22,-36.59
1147,97295441,0.8628,0.4268,-0.1167,-16.89,-0.91,-36.10
1148,97300444,0.8643,0.4331,-0.1099,-17.44,-0.49,-35.67
1149,97305440,0.8647,0.4385,-0.1108,-17.93,-0.06,-35.24
1150,97310442,0.8667,0.4468,-0.1143,-18.11,0.24,-34.88
1151,97315440,0.8652,0.4517,-0.1172,-18.11,0.49,-34.21
1152,97320440,0.8706,0.4551,-0.1182,-17.87,0.98,-33.72
1153,97325440,0.8701,0.4648,-0.1089,-17.68,1.28,-33.05
1154,97330442,0.8740,0.4692,-0.1094,-17.13,1.71,-32.13
1155,97335442,0.8667,0.4731,-0.1069,-16.77,2.01,-31.71
1156,97340442,0.8740,0.4819,-0.1074,-16.10,2.20,-31.04
1157,97345442,0.8770,0.4824,-0.1143,-15.61,2.32,-30.24
1158,97350442,0.8784,0.4912,-0.1138,-14.76,2.56,-29.51
1159,97355442,0.8828,0.4956,-0.1079,-14.02,2.62,-28.78
1160,97360442,0.8877,0.5005,-0.1089,-13.23,2.80,-28.05
1161,97365442,0.8901,0.5088,-0.1089,-12.38,2.87,-27.20
1162,97370442,0.8960,0.5093,-0.1045,-11.59,2.74,-26.40
1163,97375442,0.8965,0.5122,-0.1143,-10.85,2.62,-25.67
1164,97380442,0.9053,0.5171,-0.1025,-10.18,2.74,-24.88
1165,97385442,0.9048,0.5210,-0.1006,-9.63,2.62,-24.02
1166,97390443,0.9106,0.5205,-0.1108,-9.02,2.50,-23.17
1167,97395442,0.9082,0.5254,-0.1064,-8.54,2.50,-22.38
1168,97400442,0.9097,0.5303,-0.1060,-8.11,2.38,-21.46
1169,97405442,0.9170,0.5361,-0.1060,-7.62,2.26,-20.49
1170,97410442,0.9126,0.5327,-0.1064,-7.38,2.20,-19.63
1171,97415442,0.9155,0.5322,-0.1040,-7.01,2.07,-18.66
1172,97420440,0.9165,0.5337,-0.1001,-6.83,1.89,-17.87
1173,97425443,0.9233,0.5352,-0.1094,-6.71,1.59,-16.83
1174,97430440,0.9209,0.5352,-0.1108,-6.52,1.65,-15.85
1175,97435444,0.9326,0.5361,-0.1045,-6.34,1.65,-15.06
1176,97440442,0.9370,0.5400,-0.1045,-6.22,1.71,-14.02
1177,97445444,0.9385,0.5381,-0.1025,-5.91,1.65,-13.17
1178,97450441,0.9399,0.5410,-0.1035,-5.73,1.59,-12.13
1179,97455442,0.9390,0.5415,-0.1001,-5.30,1.52,-11.22
1180,97460443,0.9390,0.5479,-0.1035,-4.76,1.65,-10.30
1181,97465771,0.9365,0.5464,-0.0933,-4.45,1.71,-9.21
1182,97470442,0.9385,0.5449,-0.0947,-4.09,1.71,-8.35
1183,97475441,0.9385,0.5449,-0.0938,-3.60,1.83,-7.44
1184,97480443,0.9355,0.5474,-0.0933,-3.35,1.95,-6.34
1185,97485442,0.9316,0.5444,-0.0962,-3.23,2.01,-5.55
1186,97490441,0.9316,0.5405,-0.0947,-3.11,2.13,-4.45
1187,97495443,0.9282,0.5381,-0.0947,-3.23,2.13,-3.41
1188,97500442,0.9263,0.5376,-0.0879,-3.35,2.26,-2.56
1189,97505442,0.9233,0.5332,-0.0903,-3.66,2.26,-1.52
1190,97510442,0.9243,0.5269,-0.0811,-4.09,2.38,-0.37
1191,97515443,0.9175,0.5283,-0.0928,-4.45,2.50,0.61
1192,97520442,0.9126,0.5264,-0.0869,-5.12,2.32,1.52
1193,97525441,0.9131,0.5234,-0.0903,-5.67,2.38,2.44
1194,97530440,0.9082,0.5234,-0.0913,-6.22,2.44,3.41
1195,97535442,0.9058,0.5171,-0.0889,-6.77,2.26,4.33
1196,97540442,0.9087,0.5146,-0.0874,-7.56,2.26,5.06
1197,97545442,0.8994,0.5103,-0.0840,-8.11,2.07,5.85
1198,97550442,0.8994,0.5083,-0.0864,-8.72,2.13,6.59
1199,97555442,0.8984,0.5054,-0.0801,-9.15,2.13,7.44
1200,97560442,0.8979,0.4966,-0.0781,-9.76,2.01,8.23
1201,97565442,0.8960,0.4927,-0.0684,-10.37,1.95,8.90
1202,97570442,0.8901,0.4878,-0.0762,-10.98,1.83,9.51
1203,97575442,0.8916,0.4819,-0.0693,-11.40,1.71,10.12
1204,97580443,0.8901,0.4771,-0.0640,-12.01,1.77,10.73
1205,97585889,0.8887,0.4731,-0.0664,-12.74,1.59,11.40
1206,97590442,0.8887,0.4707,-0.0640,-13.11,1.52,11.89
1207,97595441,0.8872,0.4658,-0.0664,-13.72,1.59,12.44
1208,97600442,0.8872,0.4600,-0.0605,-14.21,1.52,12.87
1209,97605441,0.8857,0.4561,-0.0562,-14.76,1.46,13.41
1210,97610442,0.8896,0.4502,-0.0552,-15.06,1.34,13.84
1211,97615440,0.8887,0.4478,-0.0562,-15.37,1.04,14.21
1212,97620442,0.8892,0.4404,-0.0522,-15.61,1.04,14.76
1213,97625441,0.8906,0.4365,-0.0532,-15.67,0.85,15.18
1214,97630521,0.8882,0.4307,-0.0527,-15.67,0.61,15.55
1215,97635674,0.8955,0.4302,-0.0557,-15.49,0.30,15.91
1216,97640442,0.8950,0.4248,-0.0503,-15.24,0.18,16.34
1217,97645441,0.8916,0.4185,-0.0488,-14.88,-0.18,16.71
1218,97650442,0.8950,0.4111,-0.0508,-14.63,-0.43,16.95
1219,97655673,0.8926,0.4141,-0.0610,-14.02,-1.04,17.20
1220,97660442,0.8838,0.4092,-0.0605,-13.54,-1.28,17.44
1221,97665441,0.8857,0.4023,-0.0562,-12.93,-1.65,17.80
1222,97670442,0.8877,0.4009,-0.0547,-12.01,-2.20,17.99
1223,97675440,0.8848,0.3960,-0.0610,-11.40,-2.50,18.05
1224,97680442,0.8848,0.3882,-0.0645,-10.67,-3.17,18.11
1225,97685441,0.8770,0.3838,-0.0635,-9.76,-3.41,18.23
1226,97690442,0.8789,0.3770,-0.0640,-8.90,-3.96,18.41
1227,97695440,0.8745,0.3706,-0.0679,-7.87,-4.33,18.29
1228,97700444,0.8755,0.3672,-0.0693,-6.77,-4.70,18.41
1229,97705441,0.8721,0.3633,-0.0708,-5.55,-5.12,18.48
1230,97710442,0.8770,0.3579,-0.0737,-4.70,-5.43,18.48
1231,97715441,0.8740,0.3535,-0.0723,-3.54,-5.67,18.48
1232,97720442,0.8755,0.3491,-0.0747,-2.32,-5.98,18.23
1233,97725940,0.8794,0.3408,-0.0757,-1.40,-6.28,18.23
1234,97730443,0.8799,0.3413,-0.0786,-0.12,-6.46,18.17
1235,97735441,0.8804,0.3345,-0.0806,0.91,-6.83,18.11
1236,97740442,0.8765,0.3276,-0.0796,2.13,-6.95,17.87
1237,97745441,0.8799,0.3315,-0.0889,3.29,-7.20,17.50
1238,97750442,0.8843,0.3242,-0.0894,4.51,-7.38,17.32
1239,97755440,0.8853,0.3223,-0.0894,5.67,-7.44,16.95
1240,97760444,0.8867,0.3193,-0.0962,6.77,-7.56,16.65
1241,97765441,0.8901,0.3198,-0.1025,7.93,-7.74,16.16
1242,97770442,0.8916,0.3174,-0.1016,8.78,-7.62,15.85
1243,97775440,0.8960,0.3091,-0.0996,9.70,-7.68,15.43
1244,97780442,0.8936,0.3115,-0.1079,10.43,-7.74,15.06
1245,97785442,0.8950,0.3003,-0.1079,11.04,-7.74,14.45
1246,97790442,0.8965,0.3013,-0.1094,11.46,-7.74,14.09
1247,97795441,0.9004,0.3008,-0.1138,11.83,-7.80,13.66
1248,97800442,0.9014,0.2925,-0.1147,11.95,-7.74,13.17
1249,97805440,0.9062,0.2905,-0.1157,11.95,-7.74,12.62
1250,97810442,0.9067,0.2876,-0.1216,11.89,-7.50,12.07
1251,97815441,0.9038,0.2852,-0.1172,11.77,-7.44,11.59
1252,97820442,0.9058,0.2842,-0.1167,11.65,-7.44,11.04
1253,97825442,0.9126,0.2827,-0.1226,11.28,-7.26,10.43
1254,97830440,0.9180,0.2842,-0.1250,10.85,-7.01,10.00
1255,97835441,0.9165,0.2832,-0.1265,10.61,-6.65,9.33
1256,97840442,0.9160,0.2842,-0.1265,10.18,-6.52,8.66
1257,97845441,0.9219,0.2817,-0.1313,9.88,-6.40,7.99
1258,97850444,0.9214,0.2886,-0.1279,9.45,-6.16,7.26
1259,97855440,0.9268,0.2832,-0.1270,8.96,-6.04,6.52
1260,97860442,0.9268,0.2837,-0.1294,8.66,-5.61,5.79
1261,97865442,0.9238,0.2852,-0.1299,8.29,-5.49,5.12
1262,97870442,0.9229,0.2837,-0.1328,7.74,-5.12,4.39
1263,97875440,0.9253,0.2852,-0.1348,7.26,-4.76,3.72
1264,97880442,0.9282,0.2847,-0.1367,6.77,-4.51,3.17
1265,97885441,0.9233,0.2847,-0.1333,5.98,-4.21,2.50
1266,97890444,0.9248,0.2808,-0.1279,5.49,-3.78,1.89
1267,97895440,0.9302,0.2842,-0.1367,4.70,-3.54,1.34
1268,97900442,0.9282,0.2808,-0.1299,3.84,-3.11,0.79
1269,97905441,0.9287,0.2856,-0.1299,3.17,-2.68,0.24
1270,97910442,0.9312,0.2871,-0.1304,2.56,-2.56,-0.37
1271,97915440,0.9351,0.2881,-0.1294,1.89,-2.20,-0.73
1272,97920442,0.9375,0.2935,-0.1279,1.40,-1.89,-1.28
1273,97925441,0.9297,0.2974,-0.1304,0.73,-1.46,-1.65
1274,97930442,0.9292,0.3018,-0.1343,0.43,-1.10,-2.13
1275,97935442,0.9263,0.3027,-0.1255,0.00,-0.55,-2.38
1276,97940440,0.9258,0.3062,-0.1333,-0.30,-0.24,-2.87
1277,97945442,0.9282,0.3096,-0.1279,-0.79,0.00,-3.11
1278,97950441,0.9248,0.3081,-0.1299,-1.16,0.49,-3.35
1279,97955442,0.9229,0.3110,-0.1226,-1.59,0.61,-3.54
1280,97960442,0.9219,0.3145,-0.1260,-1.89,1.04,-3.78
1281,97965442,0.9204,0.3188,-0.1260,-2.32,1.22,-3.90
1282,97970442,0.9258,0.3237,-0.1235,-2.80,1.40,-3.96
1283,97975442,0.9219,0.3213,-0.1157,-2.99,1.95,-4.15
1284,97980442,0.9224,0.3267,-0.1187,-3.35,1.95,-4.21
1285,97985443,0.9219,0.3301,-0.1182,-3.60,2.07,-4.09
1286,97990442,0.9214,0.3286,-0.1162,-3.90,2.38,-4.21
1287,97995442,0.9229,0.3301,-0.1128,-4.15,2.50,-4.09
1288,98000442,0.9229,0.3301,-0.1138,-4.45,2.68,-4.09
1289,98005442,0.9214,0.3306,-0.1074,-4.57,2.80,-4.02
1290,98010442,0.9224,0.3374,-0.1030,-4.76,2.74,-4.02
1291,98015442,0.9160,0.3330,-0.1011,-4.88,2.93,-3.84
1292,98020443,0.9165,0.3384,-0.1025,-5.06,2.93,-3.78
1293,98025440,0.9199,0.3403,-0.1030,-5.06,2.87,-3.48
1294,98030444,0.9194,0.3403,-0.0928,-5.18,2.74,-3.35
1295,98035441,0.9224,0.3428,-0.0962,-5.37,2.68,-3.29
1296,98040442,0.9165,0.3442,-0.0923,-5.37,2.80,-2.99
1297,98045440,0.9146,0.3496,-0.0923,-5.43,2.56,-2.80
1298,98050444,0.9150,0.3491,-0.0869,-5.37,2.56,-2.80
1299,98055441,0.9170,0.3521,-0.0879,-5.49,2.32,-2.44
1300,98060442,0.9160,0.3579,-0.0830,-5.43,2.26,-2.32
1301,98065440,0.9106,0.3540,-0.0830,-5.18,2.07,-2.13
1302,98070444,0.9087,0.3535,-0.0845,-5.00,1.83,-1.89
1303,98075442,0.9111,0.3574,-0.0811,-4.82,1.52,-1.77
1304,98080442,0.9067,0.3506,-0.0811,-4.88,1.28,-1.52
1305,98085441,0.9136,0.3555,-0.0796,-4.76,1.04,-1.28
1306,98090442,0.9131,0.3550,-0.0820,-4.51,0.73,-0.98
1307,98095441,0.9131,0.3569,-0.0747,-4.39,0.55,-0.73
1308,98100442,0.9126,0.3589,-0.0781,-4.27,0.30,-0.43
1309,98105441,0.9082,0.3550,-0.0815,-4.09,-0.18,-0.30
1310,98110442,0.9043,0.3569,-0.0786,-3.66,-0.37,0.06
1311,98115445,0.9038,0.3545,-0.0796,-3.35,-0.67,0.24
1312,98120456,0.9019,0.3584,-0.0781,-3.17,-0.85,0.49
1313,98125441,0.9028,0.3589,-0.0767,-2.87,-1.10,0.79
1314,98130444,0.9072,0.3564,-0.0723,-2.62,-1.52,1.04
1315,98135441,0.9033,0.3569,-0.0815,-2.26,-1.83,1.28
1316,98140444,0.9033,0.3530,-0.0771,-1.95,-2.01,1.46
1317,98145517,0.9053,0.3564,-0.0801,-1.65,-2.32,1.77
1318,98150442,0.9058,0.3555,-0.0757,-1.16,-2.80,1.95
1319,98155443,0.9062,0.3535,-0.0762,-0.79,-2.99,2.26
1320,98160442,0.9106,0.3525,-0.0820,-0.61,-3.29,2.50
1321,98165442,0.9106,0.3491,-0.0796,-0.18,-3.48,2.68
1322,98170442,0.9116,0.3491,-0.0820,0.30,-3.60,2.87
1323,98175442,0.9146,0.3521,-0.0752,0.73,-4.15,3.11
1324,98180442,0.9165,0.3481,-0.0854,0.98,-4.33,3.17
1325,98185442,0.9141,0.3438,-0.0811,1.46,-4.39,3.29
1326,98190441,0.9185,0.3491,-0.0854,1.77,-4.63,3.48
1327,98195444,0.9209,0.3447,-0.0845,2.20,-4.82,3.54
1328,98200442,0.9194,0.3452,-0.0923,2.50,-4.82,3.60
1329,98205728,0.9175,0.3462,-0.0894,2.68,-5.24,3.72
1330,98210444,0.9189,0.3462,-0.0889,2.93,-5.30,3.78
1331,98215441,0.9204,0.3433,-0.0996,3.05,-5.37,3.90
1332,98220441,0.9136,0.3408,-0.0869,3.23,-5.49,3.90
1333,98225444,0.9165,0.3394,-0.0957,3.17,-5.61,3.90
1334,98230441,0.9175,0.3389,-0.0967,3.11,-5.73,3.90
1335,98235442,0.9116,0.3364,-0.1021,2.99,-5.61,3.90
1336,98240442,0.9160,0.3311,-0.0996,2.93,-5.79,3.90
1337,98245441,0.9121,0.3340,-0.0986,2.80,-5.85,3.78
1338,98250442,0.9150,0.3354,-0.1064,2.62,-5.85,3.66
1339,98255442,0.9165,0.3354,-0.0986,2.62,-5.73,3.60
1340,98260441,0.9185,0.3354,-0.0977,2.32,-5.49,3.54
1341,98265442,0.9189,0.3350,-0.1021,2.20,-5.61,3.54
1342,98270442,0.9204,0.3330,-0.0991,2.01,-5.43,3.48
1343,98275442,0.9219,0.3330,-0.1118,1.89,-5.37,3.29
1344,98280440,0.9272,0.3311,-0.1084,1.71,-5.37,3.29
1345,98285444,0.9307,0.3325,-0.1099,1.52,-5.24,3.17
1346,98290441,0.9331,0.3291,-0.1162,1.28,-5.12,3.11
1347,98295442,0.9302,0.3350,-0.1123,0.91,-5.12,3.11
