# skilleye imu stream v1
# device=xiao_esp32c6 imu=mpu6050 addr=0x68
# rate_hz=200 accel_range_g=16 gyro_range_dps=2000 dlpf_hz=94
# units: accel in g, gyro in deg/s, t_us in microseconds since boot (monotonic)
# no shared clock with the camera -- tap the racket once before each take
# so both recordings share a spike to align on
seq,t_us,ax,ay,az,gx,gy,gz
0,180664516,0.6938,0.6235,0.5571,-24.33,23.48,1.22
1,180669518,0.6924,0.6221,0.5674,-25.24,23.48,0.61
2,180674515,0.6899,0.6206,0.5635,-25.98,23.72,0.06
3,180679514,0.6865,0.6187,0.5674,-26.83,23.66,-0.49
4,180684518,0.6816,0.6196,0.5649,-27.50,23.66,-0.98
5,180689516,0.6772,0.6138,0.5669,-28.11,23.72,-1.40
6,180694515,0.6719,0.6069,0.5688,-28.60,23.78,-1.77
7,180699518,0.6675,0.6060,0.5698,-29.02,23.72,-2.20
8,180704515,0.6641,0.5972,0.5762,-29.57,23.66,-2.38
9,180709516,0.6592,0.5957,0.5732,-29.94,23.72,-2.68
10,180714515,0.6528,0.5913,0.5698,-30.24,23.66,-2.93
11,180719516,0.6470,0.5933,0.5713,-30.30,23.48,-3.05
12,180724515,0.6421,0.5918,0.5698,-30.49,23.17,-3.35
13,180729514,0.6372,0.5903,0.5728,-30.55,23.11,-3.48
14,180734514,0.6343,0.5840,0.5732,-30.55,22.93,-3.60
15,180739518,0.6313,0.5850,0.5752,-30.49,22.68,-3.84
16,180744515,0.6304,0.5791,0.5796,-30.37,22.44,-3.96
17,180749518,0.6304,0.5820,0.5781,-30.24,22.20,-4.02
18,180754515,0.6279,0.5815,0.5742,-30.12,21.77,-4.27
19,180759516,0.6294,0.5845,0.5815,-29.82,21.59,-4.33
20,180764515,0.6289,0.5908,0.5864,-29.70,21.40,-4.51
21,180769518,0.6255,0.5962,0.5889,-29.27,21.16,-4.82
22,180774515,0.6216,0.5947,0.5874,-28.90,20.79,-5.00
23,180779944,0.6211,0.5957,0.5874,-28.11,20.43,-5.37
24,180784517,0.6147,0.5967,0.5933,-27.74,20.12,-5.49
25,180789517,0.6152,0.5977,0.5942,-27.20,19.82,-5.73
26,180794516,0.6108,0.5991,0.6021,-26.40,19.57,-5.98
27,180799516,0.6079,0.6016,0.5996,-25.79,19.33,-6.28
28,180804516,0.6050,0.6064,0.6016,-25.18,19.02,-6.40
29,180809516,0.6060,0.6040,0.6011,-24.51,18.72,-6.83
30,180814516,0.6035,0.6021,0.6064,-23.84,18.54,-7.07
31,180819517,0.6016,0.6030,0.6123,-23.29,18.05,-7.38
32,180824516,0.6011,0.6035,0.6113,-22.50,17.74,-7.62
33,180829581,0.6021,0.6011,0.6128,-21.95,17.26,-7.93
34,180834516,0.5972,0.6025,0.6143,-21.40,17.01,-8.35
35,180839518,0.5996,0.5986,0.6196,-20.91,16.71,-8.60
36,180844515,0.5957,0.5977,0.6279,-20.30,16.34,-9.02
37,180849749,0.5933,0.6040,0.6255,-19.88,15.91,-9.33
38,180854516,0.5898,0.6016,0.6299,-19.33,15.67,-9.82
39,180859516,0.5908,0.6021,0.6357,-18.72,15.24,-10.18
40,180864516,0.5840,0.5996,0.6377,-18.23,14.94,-10.67
41,180869517,0.5815,0.5981,0.6387,-17.68,14.57,-11.16
42,180874516,0.5811,0.5918,0.6357,-17.13,14.15,-11.65
43,180879517,0.5776,0.5894,0.6362,-16.46,13.72,-12.20
44,180884516,0.5762,0.5874,0.6353,-15.73,13.41,-12.62
45,180889517,0.5791,0.5854,0.6440,-14.88,12.99,-13.17
46,180894516,0.5737,0.5767,0.6548,-14.27,12.62,-13.54
47,180899516,0.5679,0.5703,0.6567,-13.72,12.26,-14.09
48,180904516,0.5601,0.5630,0.6499,-13.17,11.89,-14.51
49,180909611,0.5542,0.5645,0.6562,-12.68,11.52,-14.94
50,180914516,0.5532,0.5571,0.6528,-12.50,11.16,-15.43
51,180919517,0.5532,0.5513,0.6572,-12.13,10.49,-15.85
52,180924516,0.5459,0.5498,0.6558,-12.13,10.24,-16.40
53,180929516,0.5430,0.5493,0.6621,-12.07,9.76,-16.83
54,180934516,0.5479,0.5493,0.6636,-12.20,9.15,-17.32
55,180939516,0.5459,0.5488,0.6680,-12.32,8.72,-17.93
56,180944515,0.5488,0.5532,0.6646,-12.44,8.35,-18.48
57,180949514,0.5356,0.5552,0.6714,-12.56,7.80,-19.21
58,180954516,0.5176,0.5767,0.6792,-12.50,7.32,-19.94
59,180959518,0.5093,0.5786,0.6846,-12.20,6.77,-20.91
60,180964515,0.5308,0.5542,0.6953,-11.71,6.34,-21.52
61,180969518,0.5488,0.5454,0.7021,-11.34,6.04,-22.32
62,180974515,0.5410,0.5449,0.7026,-10.98,5.43,-22.80
63,180979518,0.5308,0.5537,0.7124,-10.55,5.00,-23.66
64,180984515,0.5166,0.5640,0.7021,-10.12,4.57,-24.33
65,180989518,0.5190,0.5713,0.7080,-9.70,4.15,-25.12
66,180994515,0.5303,0.5737,0.7085,-9.33,3.35,-25.91
67,180999516,0.5327,0.5737,0.7148,-8.96,2.87,-26.95
68,181004515,0.5386,0.5693,0.7197,-8.72,2.26,-27.87
69,181009514,0.5444,0.5688,0.7129,-8.48,1.40,-28.90
70,181014518,0.5464,0.5708,0.7134,-8.23,0.61,-29.94
71,181019518,0.5400,0.5747,0.7129,-8.11,-0.24,-30.73
72,181024515,0.5386,0.5835,0.7192,-7.68,-1.10,-31.71
73,181029514,0.5386,0.5913,0.7290,-7.20,-2.07,-32.80
74,181034518,0.5366,0.6001,0.7334,-6.59,-2.80,-33.72
75,181039514,0.5322,0.6025,0.7388,-5.85,-3.66,-34.82
76,181044516,0.5269,0.6099,0.7456,-5.06,-4.39,-35.79
77,181049517,0.5225,0.6162,0.7471,-4.15,-5.12,-36.71
78,181054541,0.5156,0.6221,0.7466,-3.11,-5.85,-37.74
79,181059517,0.5098,0.6333,0.7466,-1.89,-6.59,-38.72
80,181064516,0.5073,0.6323,0.7505,-0.79,-7.50,-39.70
81,181069514,0.5005,0.6377,0.7485,0.55,-8.29,-40.55
82,181074517,0.5039,0.6484,0.7515,1.83,-9.21,-41.46
83,181079516,0.4990,0.6621,0.7534,2.93,-10.06,-42.44
84,181084997,0.4971,0.6792,0.7422,4.21,-11.16,-43.60
85,181089516,0.5010,0.6953,0.7456,5.00,-11.89,-44.39
86,181094515,0.5010,0.7109,0.7363,5.91,-12.68,-45.55
87,181099516,0.4995,0.7246,0.7402,6.71,-13.78,-46.52
88,181104515,0.4966,0.7446,0.7451,7.26,-14.57,-47.68
89,181109516,0.4863,0.7529,0.7310,7.80,-15.55,-48.60
90,181114515,0.4795,0.7627,0.7305,8.05,-16.40,-49.51
91,181119522,0.4712,0.7695,0.7246,8.17,-17.32,-50.30
92,181124516,0.4585,0.7720,0.7192,7.99,-17.93,-50.98
93,181129514,0.4497,0.7725,0.7129,7.93,-18.72,-51.40
94,181134518,0.4409,0.7690,0.6953,7.44,-19.45,-51.77
95,181139516,0.4331,0.7646,0.6904,6.95,-20.06,-51.83
96,181144515,0.4214,0.7666,0.6748,6.10,-20.91,-51.77
97,181149516,0.4121,0.7603,0.6680,5.06,-21.46,-51.34
98,181154515,0.4019,0.7603,0.6553,3.90,-22.38,-50.91
99,181159518,0.3960,0.7603,0.6489,2.56,-23.17,-50.43
100,181164515,0.3887,0.7676,0.6450,1.22,-23.66,-49.63
101,181169516,0.3848,0.7739,0.6377,-0.43,-24.33,-48.84
102,181174515,0.3838,0.7773,0.6328,-1.77,-24.82,-47.93
103,181179516,0.3838,0.7886,0.6221,-3.05,-25.12,-46.89
104,181184515,0.3804,0.7959,0.6187,-4.09,-25.73,-45.73
105,181189517,0.3779,0.8066,0.6157,-5.00,-26.04,-44.51
106,181194516,0.3726,0.8164,0.6089,-5.49,-26.34,-42.99
107,181199517,0.3726,0.8247,0.6089,-5.91,-26.46,-41.59
108,181204515,0.3730,0.8311,0.6064,-6.16,-26.71,-40.06
109,181209818,0.3740,0.8301,0.6040,-6.46,-26.83,-38.29
110,181214548,0.3789,0.8364,0.5903,-6.65,-26.95,-36.52
111,181219655,0.3853,0.8311,0.5806,-7.01,-26.95,-34.63
112,181224515,0.3965,0.8374,0.5688,-7.26,-27.32,-32.87
113,181229516,0.3989,0.8247,0.5703,-7.56,-27.68,-30.85
114,181234515,0.4014,0.8164,0.5640,-7.99,-27.93,-28.72
115,181239516,0.3975,0.8149,0.5498,-8.54,-28.29,-26.46
116,181244515,0.3970,0.8188,0.5342,-9.15,-28.60,-24.33
117,181249516,0.4014,0.8232,0.5137,-9.57,-28.96,-21.95
118,181254516,0.4082,0.8276,0.5078,-10.18,-29.63,-19.70
119,181259514,0.4126,0.8267,0.5024,-10.67,-30.18,-17.32
120,181264518,0.4268,0.8257,0.4932,-11.16,-30.73,-14.94
121,181269518,0.4277,0.8315,0.4878,-11.52,-31.40,-12.56
122,181274515,0.4346,0.8438,0.4893,-11.65,-31.89,-9.94
123,181279518,0.4395,0.8623,0.4907,-11.28,-32.38,-7.56
124,181284515,0.4380,0.8779,0.4858,-10.61,-32.68,-5.43
125,181289515,0.4404,0.8989,0.4912,-9.82,-32.93,-3.29
126,181294518,0.4487,0.9160,0.5015,-8.66,-33.29,-1.40
127,181299516,0.4614,0.9253,0.4976,-7.62,-33.41,0.24
128,181304516,0.4702,0.9380,0.5000,-6.28,-33.41,1.77
129,181309515,0.4780,0.9512,0.5034,-5.18,-33.41,3.05
130,181314516,0.4810,0.9644,0.5029,-3.96,-33.66,4.09
131,181319516,0.4795,0.9668,0.4976,-2.87,-33.66,5.06
132,181324516,0.4712,0.9697,0.4946,-2.01,-33.48,5.91
133,181329514,0.4795,0.9663,0.4912,-1.10,-33.48,6.71
134,181334516,0.4819,0.9727,0.4907,-0.49,-33.48,7.38
135,181339515,0.4858,0.9790,0.4805,0.12,-33.48,7.87
136,181344515,0.4854,0.9805,0.4785,0.73,-33.29,8.29
137,181349526,0.4932,0.9775,0.4814,0.98,-33.35,8.60
138,181354516,0.5000,0.9707,0.4902,1.22,-33.29,8.84
139,181359515,0.4980,0.9722,0.4868,1.34,-33.11,9.15
140,181364643,0.5010,0.9736,0.4863,1.46,-32.87,9.45
141,181369516,0.5010,0.9697,0.4873,1.34,-32.38,9.39
142,181374516,0.5029,0.9761,0.4907,1.59,-32.26,9.45
143,181379516,0.5063,0.9751,0.4888,1.71,-31.77,9.27
144,181384517,0.4971,0.9751,0.4937,1.89,-31.34,9.09
145,181389515,0.4946,0.9668,0.4956,2.13,-30.79,8.84
146,181394516,0.4922,0.9644,0.4961,2.44,-30.30,8.66
147,181399516,0.4829,0.9634,0.4878,2.62,-29.76,8.23
148,181404516,0.4790,0.9653,0.4829,2.80,-29.33,7.62
149,181409515,0.4751,0.9624,0.4771,2.93,-28.90,7.20
150,181414517,0.4702,0.9526,0.4751,2.87,-28.41,6.59
151,181419516,0.4639,0.9395,0.4741,2.74,-27.87,5.91
152,181424517,0.4614,0.9272,0.4536,2.87,-27.62,5.55
153,181429515,0.4648,0.9077,0.4546,2.93,-27.44,4.94
154,181434517,0.4697,0.8848,0.4619,3.23,-27.26,4.76
155,181439516,0.4727,0.8687,0.4697,3.66,-27.32,4.39
156,181444516,0.4805,0.8481,0.4639,4.51,-27.38,4.15
157,181449515,0.4932,0.8218,0.4570,5.49,-27.56,4.02
158,181454516,0.5078,0.8086,0.4214,7.01,-28.35,3.96
159,181459518,0.5186,0.7832,0.4624,8.96,-29.21,4.27
160,181464516,0.5225,0.7686,0.4829,11.46,-29.57,4.57
161,181469522,0.5283,0.7671,0.4771,13.66,-29.70,5.00
162,181474515,0.5215,0.7695,0.4600,16.65,-30.00,5.43
163,181479516,0.5288,0.7686,0.4556,19.63,-30.49,5.73
164,181484516,0.5283,0.7603,0.4580,22.80,-31.04,5.91
165,181489516,0.5259,0.7505,0.4600,26.04,-31.59,6.28
166,181494516,0.5186,0.7437,0.4731,29.51,-31.95,6.77
167,181499516,0.5112,0.7349,0.4834,32.87,-32.38,7.01
168,181504515,0.5093,0.7114,0.4858,36.16,-32.38,7.32
169,181509516,0.5127,0.6431,0.5073,38.72,-32.26,8.29
170,181514515,0.5068,0.6841,0.4771,40.91,-31.71,10.00
171,181519516,0.4858,0.6968,0.4336,43.35,-31.83,11.52
172,181524516,0.4956,0.6714,0.4185,46.04,-32.26,13.23
173,181529516,0.5259,0.6943,0.4092,48.23,-33.17,15.12
174,181534515,0.5479,0.7285,0.4189,50.00,-34.39,16.46
175,181539516,0.5703,0.7476,0.4487,50.73,-35.43,17.13
176,181544516,0.5771,0.7563,0.4946,50.49,-36.10,17.56
177,181549514,0.5825,0.7607,0.5146,49.33,-36.59,17.20
178,181554516,0.5649,0.7583,0.5342,47.32,-36.52,16.59
179,181559516,0.5391,0.7500,0.5024,44.70,-36.83,15.79
180,181564515,0.5293,0.7129,0.4990,41.77,-37.50,15.12
181,181569516,0.5381,0.7012,0.5059,38.72,-38.29,14.70
182,181574515,0.5576,0.6953,0.5073,35.98,-39.02,14.39
183,181579516,0.5845,0.7080,0.5068,33.48,-39.21,14.21
184,181584515,0.6147,0.7202,0.5088,31.46,-39.27,14.09
185,181589518,0.6382,0.7334,0.4971,29.70,-38.78,13.90
186,181594515,0.6582,0.7412,0.4849,28.41,-37.99,13.66
187,181599516,0.6763,0.7544,0.4648,27.56,-36.77,13.66
188,181604515,0.6982,0.7671,0.4424,27.32,-35.73,13.78
189,181609516,0.7344,0.7793,0.4331,27.56,-34.51,14.02
190,181614515,0.7749,0.7881,0.4199,28.72,-33.66,14.70
191,181619516,0.7881,0.7944,0.4009,31.04,-32.87,15.30
192,181624515,0.8003,0.8003,0.3853,33.96,-32.38,16.16
193,181629516,0.8032,0.8467,0.3823,37.74,-31.65,16.83
194,181634515,0.8306,0.8169,0.3633,41.89,-30.91,17.26
195,181639516,0.8994,0.7930,0.3716,47.07,-29.82,17.80
196,181644516,0.8872,0.7896,0.3843,53.66,-28.05,18.23
197,181649516,0.9126,0.8013,0.4082,61.77,-25.91,18.66
198,181654515,0.8838,0.7856,0.3442,71.28,-23.35,18.90
199,181659516,0.8828,0.7593,0.2974,81.28,-20.91,19.82
200,181664515,0.8350,0.7329,0.2852,91.52,-18.48,20.73
201,181669516,1.0073,0.7241,0.3154,100.73,-15.73,21.71
202,181674516,0.9644,0.7144,0.3096,108.84,-13.23,22.50
203,181679516,0.9712,0.7104,0.2690,115.12,-11.22,22.99
204,181684516,0.9233,0.6914,0.2622,119.33,-9.27,23.23
205,181689515,0.9785,0.6958,0.1860,121.77,-8.29,23.29
206,181694516,1.0161,0.6128,0.4448,122.01,-6.16,23.29
207,181699516,1.0415,0.5977,0.2573,120.18,-4.39,23.41
208,181704516,1.0127,0.6509,0.1978,116.83,-4.15,23.17
209,181709515,0.9868,0.6616,0.2827,112.32,-3.41,22.62
210,181714516,0.9937,0.6567,0.2812,107.56,-2.32,22.07
211,181719516,1.0112,0.6685,0.2144,102.62,-1.77,21.77
212,181724516,1.0283,0.6719,0.2178,97.38,-1.16,21.65
213,181729515,1.0361,0.6826,0.2339,92.01,-0.55,21.59
214,181734517,1.0332,0.6924,0.1938,86.89,0.18,21.59
215,181739516,1.0474,0.6968,0.1831,81.59,0.55,21.52
216,181744516,1.0381,0.7046,0.1831,76.46,1.10,21.71
217,181749518,1.0288,0.7129,0.1650,71.46,1.65,21.89
218,181754516,1.0166,0.7158,0.1328,66.71,2.13,22.26
219,181759516,0.9985,0.7188,0.1211,62.07,2.44,22.44
220,181764517,0.9658,0.7188,0.1035,57.93,2.68,22.93
221,181769514,0.9546,0.7144,0.0889,54.51,2.87,23.48
222,181774644,0.9438,0.7188,0.0713,51.95,3.05,24.02
223,181779516,0.9214,0.7173,0.0581,50.37,3.35,24.57
224,181784515,0.8975,0.7109,0.0449,49.82,3.66,25.49
225,181789518,0.8735,0.7148,0.0273,50.37,4.09,26.16
226,181794515,0.8408,0.7100,0.0103,52.20,4.45,27.07
227,181799517,0.8164,0.7080,-0.0024,55.18,5.00,28.23
228,181804515,0.7944,0.7246,-0.0195,59.02,5.43,29.27
229,181809516,0.7822,0.7295,-0.0400,63.90,5.61,30.30
230,181814515,0.8013,0.7271,-0.0571,69.63,6.04,31.40
231,181819516,0.8164,0.7129,-0.0732,76.16,6.34,32.68
232,181824515,0.7969,0.7217,-0.1050,83.35,6.77,34.02
233,181829518,0.7378,0.7456,-0.1641,91.16,7.01,35.18
234,181834515,0.6953,0.7573,-0.2520,100.61,7.13,36.34
235,181839516,0.6836,0.7671,-0.3174,111.65,6.83,37.62
236,181844515,0.6709,0.7900,-0.3774,124.33,6.83,38.84
237,181849514,0.6636,0.7939,-0.4126,137.26,6.52,40.18
238,181854516,0.6675,0.7832,-0.4126,151.10,6.71,41.52
239,181859516,0.6938,0.7671,-0.3872,164.02,7.26,43.11
240,181864516,0.7368,0.7651,-0.3472,174.82,8.11,44.27
241,181869516,0.7793,0.7559,-0.3232,183.41,9.09,45.30
242,181874516,0.8184,0.7056,-0.2515,190.73,10.00,46.34
243,181879516,0.8389,0.8105,-0.2520,195.85,11.28,47.13
244,181884515,0.7974,0.7798,-0.2119,197.99,12.32,47.01
245,181889516,0.7930,0.6929,-0.1348,198.90,13.54,47.38
246,181894516,0.8267,0.7383,-0.1816,198.17,14.76,47.80
247,181899930,0.8125,0.7212,-0.1108,196.04,15.98,47.56
248,181904516,0.8018,0.6958,-0.0957,192.50,17.13,47.32
249,181909516,0.8208,0.7456,-0.1206,188.11,18.23,46.83
250,181914516,0.7979,0.6113,-0.0562,183.78,19.21,46.77
251,181919515,0.7681,0.6704,-0.0464,179.02,20.67,46.71
252,181924517,0.7114,0.7139,-0.1172,172.99,21.95,45.91
253,181929516,0.6553,0.6846,-0.1079,165.91,22.68,44.94
254,181934517,0.6406,0.6992,-0.0703,158.41,23.35,44.27
255,181939515,0.6367,0.6694,-0.1177,150.18,24.15,43.66
256,181944516,0.6206,0.6509,-0.1021,143.66,24.39,43.23
257,181949516,0.5972,0.6577,-0.0649,133.96,25.24,42.32
258,181954516,0.5898,0.6729,-0.1147,127.62,25.79,41.65
259,181959515,0.5684,0.6558,-0.1338,116.71,26.22,40.67
260,181964516,0.5474,0.6519,-0.1177,109.82,26.34,40.06
261,181969516,0.5337,0.6357,-0.1284,101.16,26.83,39.27
262,181974517,0.5259,0.6294,-0.1460,92.87,27.01,38.66
263,181979514,0.5171,0.5815,-0.1875,83.90,26.65,37.93
264,181984516,0.5254,0.5991,-0.1675,79.33,25.98,37.74
265,181989516,0.5571,0.6025,-0.0640,74.88,25.85,37.80
266,181994516,0.5674,0.5962,-0.0737,71.34,26.22,37.56
267,181999515,0.5776,0.5967,-0.1021,68.29,26.65,36.95
268,182004516,0.5952,0.5532,-0.0928,65.61,27.13,36.34
269,182009515,0.5928,0.5630,-0.0605,63.66,27.44,36.10
270,182014516,0.5977,0.5601,-0.0742,62.01,27.74,35.55
271,182019516,0.5845,0.5576,-0.0796,60.37,28.23,35.06
272,182024516,0.5718,0.5610,-0.0527,58.72,28.90,34.63
273,182029517,0.5615,0.5625,-0.0454,57.38,29.21,33.72
274,182034516,0.5498,0.5605,-0.0532,56.04,29.76,33.17
275,182039516,0.5630,0.5571,-0.0630,54.70,29.82,32.26
276,182044516,0.5894,0.5659,-0.0386,53.29,29.70,31.04
277,182049515,0.6567,0.6074,-0.0649,51.71,29.21,29.76
278,182054517,0.7227,0.5791,-0.0054,49.76,28.66,27.99
279,182059515,0.7480,0.5376,0.0068,47.99,28.23,26.52
280,182064515,0.7197,0.5278,-0.0322,46.46,27.68,25.43
281,182069516,0.6948,0.5342,-0.0410,45.24,27.13,24.51
282,182074515,0.6860,0.5483,-0.0273,44.21,26.59,23.84
283,182079516,0.6934,0.5591,-0.0200,43.84,26.04,23.17
284,182084516,0.7061,0.5566,-0.0259,43.78,25.49,22.50
285,182089516,0.7183,0.5532,-0.0093,44.09,25.18,21.83
286,182094516,0.7314,0.5498,0.0142,44.88,24.82,21.10
287,182099515,0.7339,0.5557,0.0029,45.91,24.63,20.24
288,182104516,0.7236,0.5576,-0.0073,47.26,24.39,19.39
289,182109516,0.7153,0.5625,0.0005,48.72,24.21,18.48
290,182114516,0.7017,0.5654,0.0054,50.37,24.15,17.62
291,182119517,0.6953,0.5684,-0.0039,52.01,23.96,16.77
292,182124516,0.6904,0.5601,-0.0068,53.66,23.48,15.98
293,182129516,0.6826,0.5498,0.0132,55.18,23.54,15.18
294,182134516,0.6768,0.5386,0.0288,56.59,23.48,14.51
295,182139516,0.6797,0.5366,0.0142,57.74,23.29,13.78
296,182144518,0.6772,0.5469,-0.0029,58.54,23.17,13.05
297,182149516,0.6758,0.5464,0.0039,59.02,22.93,12.32
298,182154516,0.6729,0.5488,0.0049,58.96,22.62,11.77
299,182159514,0.6621,0.5435,0.0015,58.78,22.13,11.28
300,182164516,0.6562,0.5405,0.0083,58.29,21.40,10.73
301,182169516,0.6523,0.5410,0.0220,57.50,20.67,10.24
302,182174515,0.6484,0.5503,0.0166,56.83,20.06,9.76
303,182179516,0.6440,0.5684,0.0093,56.04,19.27,8.84
304,182184517,0.6387,0.5903,0.0073,55.18,18.29,7.87
305,182189514,0.6226,0.6128,0.0210,54.02,17.56,6.59
306,182194521,0.5854,0.6304,-0.0117,52.44,16.28,5.24
307,182199516,0.5698,0.6631,-0.0830,50.91,14.02,3.35
308,182204516,0.6309,0.6685,-0.0698,50.06,10.30,0.91
309,182209515,0.7397,0.5869,0.1489,48.78,7.44,-1.10
310,182214516,0.8198,0.5210,0.2197,46.40,6.40,-2.01
311,182219516,0.8584,0.5156,0.1191,42.93,5.12,-2.38
312,182224516,0.8877,0.5132,0.0913,38.90,3.54,-2.68
313,182229515,0.8984,0.5200,0.0991,33.96,2.01,-3.05
314,182234516,0.9043,0.5259,0.0669,28.66,0.73,-3.48
315,182239516,0.9165,0.5073,0.0518,23.41,-0.79,-3.54
316,182244516,0.9277,0.5015,0.0659,18.54,-1.65,-3.48
317,182249515,0.9312,0.5366,0.0586,14.02,-2.50,-3.05
318,182254516,0.9253,0.5483,0.0068,10.00,-3.54,-2.56
319,182259517,0.9175,0.5566,-0.0122,6.59,-4.76,-2.13
320,182264516,0.9170,0.5752,0.0024,3.90,-6.04,-1.59
321,182269515,0.9126,0.5986,0.0044,2.13,-7.01,-1.04
322,182274516,0.9053,0.6157,-0.0146,1.04,-7.93,-0.37
323,182279516,0.9009,0.6299,-0.0244,0.85,-9.09,0.49
324,182284517,0.9028,0.6387,-0.0020,1.34,-10.12,1.46
325,182289515,0.9072,0.6421,0.0044,2.50,-10.67,2.74
326,182294516,0.9043,0.6465,0.0107,4.21,-11.28,4.15
327,182299516,0.8945,0.6572,0.0083,6.22,-11.40,5.85
328,182304516,0.8945,0.6646,-0.0039,8.23,-11.52,7.62
329,182309515,0.8799,0.6826,-0.0132,10.30,-11.71,9.21
330,182314516,0.8691,0.6992,-0.0107,12.20,-11.46,10.79
331,182319516,0.8633,0.7129,-0.0044,14.15,-11.46,12.07
332,182324516,0.8657,0.7041,0.0024,16.04,-11.16,13.60
333,182329958,0.8774,0.6899,0.0029,18.54,-10.73,15.43
334,182334516,0.8877,0.6924,-0.0088,20.00,-10.24,16.89
335,182339516,0.9048,0.6909,-0.0283,21.77,-9.63,18.66
336,182344517,0.9053,0.6855,-0.0566,23.17,-9.21,20.30
337,182349514,0.8936,0.6924,-0.0708,24.45,-8.78,22.07
338,182354515,0.8994,0.6914,-0.0903,25.79,-8.17,23.84
339,182359516,0.9058,0.7012,-0.0864,27.13,-7.62,25.49
340,182364516,0.9053,0.7095,-0.0850,28.17,-6.83,26.89
341,182369516,0.9009,0.7065,-0.1128,29.02,-5.98,28.41
342,182374515,0.8872,0.6992,-0.1011,30.12,-5.37,30.18
343,182379516,0.8887,0.6924,-0.1011,30.98,-4.45,31.83
344,182384583,0.8896,0.6890,-0.1074,31.77,-3.35,33.48
345,182389516,0.8711,0.6865,-0.1313,32.26,-2.32,35.12
346,182394515,0.8647,0.6816,-0.1099,32.93,-1.04,36.59
347,182399516,0.8784,0.6748,-0.1230,33.48,0.49,38.11
348,182404515,0.8682,0.6665,-0.1309,33.78,1.89,39.33
349,182409514,0.9028,0.6519,-0.1328,34.02,3.23,40.30
350,182414517,0.9292,0.6387,-0.1348,34.15,5.00,41.28
351,182419516,0.9307,0.6245,-0.1499,33.78,6.46,42.20
352,182424516,0.9155,0.6055,-0.1436,33.78,7.74,43.11
353,182429515,0.9160,0.6021,-0.1523,33.66,9.27,43.90
354,182434516,0.9141,0.6006,-0.1533,33.54,10.55,44.57
355,182439517,0.9058,0.5854,-0.1494,33.41,11.89,45.24
356,182444516,0.9365,0.5835,-0.1372,33.84,12.99,46.04
357,182449515,0.9434,0.5791,-0.1255,34.51,14.15,46.46
358,182454516,0.9502,0.5737,-0.1138,35.49,15.06,46.95
359,182459518,0.9463,0.5640,-0.1167,36.77,15.91,47.26
360,182464516,0.9341,0.5547,-0.1113,38.41,16.71,47.56
361,182469514,0.9346,0.5483,-0.1152,40.00,17.13,47.74
362,182474517,0.9385,0.5308,-0.1177,41.65,17.87,47.87
363,182479516,0.9487,0.5161,-0.1167,43.29,18.29,47.99
364,182484515,0.9492,0.4951,-0.1128,44.57,18.78,47.87
365,182489516,0.9448,0.4795,-0.1226,45.55,19.21,47.68
366,182494514,0.9258,0.4663,-0.1260,45.79,19.33,47.56
367,182499516,0.9209,0.4175,-0.0884,45.12,19.57,47.20
368,182504515,0.9053,0.3970,-0.0942,43.66,19.94,46.95
369,182509516,0.9102,0.3955,-0.0874,41.77,20.12,46.52
370,182514515,0.9028,0.3921,-0.0674,39.82,20.61,46.16
371,182519633,0.9009,0.3647,-0.0581,37.80,21.04,45.73
372,182524515,0.8672,0.3672,-0.1396,36.16,20.79,45.49
373,182529516,0.8228,0.3213,-0.0361,35.37,20.55,45.49
374,182534515,0.8369,0.2837,-0.0776,34.94,20.55,45.73
375,182539516,0.8560,0.2598,-0.1045,34.57,20.49,45.98
376,182544515,0.8750,0.2739,-0.0684,33.66,20.67,46.28
377,182549518,0.9038,0.2808,-0.1138,32.44,20.61,46.22
378,182554515,0.9150,0.2979,-0.1865,32.56,19.82,46.22
379,182559516,0.9126,0.2983,-0.0581,33.60,19.27,46.28
380,182564515,0.9404,0.3096,-0.0073,35.85,19.45,46.52
381,182569514,0.9697,0.3086,-0.0303,38.66,20.06,46.46
382,182574518,1.0103,0.3076,-0.0039,42.62,20.49,46.28
383,182579516,1.0366,0.2896,0.0728,48.29,21.40,46.04
384,182584516,1.0405,0.2871,0.0542,55.49,22.44,45.85
385,182589514,1.0078,0.3022,0.0254,63.90,23.29,45.79
386,182594765,0.9551,0.3013,0.0264,72.93,24.27,45.67
387,182599516,0.8853,0.2817,-0.0264,82.38,25.06,45.67
388,182604515,0.7871,0.3105,0.0132,92.07,25.79,45.49
389,182609516,0.7573,0.3149,-0.0537,101.77,26.95,44.88
390,182614515,0.7358,0.3096,-0.0786,111.89,27.74,44.15
391,182619517,0.7339,0.3066,-0.0586,122.01,28.72,43.41
392,182624515,0.7471,0.3076,-0.0820,131.04,29.51,42.68
393,182629516,0.7646,0.2998,-0.1196,141.52,30.24,41.83
394,182634515,0.7769,0.2935,-0.1099,151.10,31.22,41.34
395,182639516,0.7744,0.2915,-0.1035,160.67,32.32,40.73
396,182644515,0.7793,0.2935,-0.1411,169.45,33.29,40.30
397,182649516,0.7666,0.2944,-0.1851,178.05,34.09,39.88
398,182654518,0.7427,0.2969,-0.1797,185.85,35.00,39.39
399,182659516,0.7446,0.2979,-0.1699,192.80,35.98,38.90
400,182664516,0.7656,0.2930,-0.1895,198.84,37.07,38.54
401,182669515,0.8081,0.2866,-0.2065,204.21,37.87,38.05
402,182674516,0.8604,0.2734,-0.2134,208.17,38.60,37.93
403,182680041,0.9971,0.2603,-0.2461,211.10,38.54,37.68
404,182684516,1.1006,0.2573,-0.2700,211.89,37.87,37.62
405,182689516,1.2104,0.2324,-0.2480,211.65,36.77,37.74
406,182694518,1.2339,0.1826,-0.2095,210.00,35.85,37.93
407,182699515,1.1973,0.1465,-0.2070,207.26,35.30,38.84
408,182704517,1.1782,0.1313,-0.2524,203.66,35.18,39.94
409,182709516,1.1875,0.1934,-0.1655,199.82,35.37,40.85
410,182714515,1.0703,0.1406,-0.2910,195.79,35.67,42.01
411,182719516,0.9927,0.1509,-0.3281,191.28,35.61,42.80
412,182724516,0.9463,0.1436,-0.2749,186.65,35.55,43.29
413,182729516,0.9458,0.1685,-0.2437,181.89,36.40,43.48
414,182734515,0.9263,0.1934,-0.2627,176.65,37.44,42.74
415,182739516,0.8975,0.2173,-0.2954,171.52,38.23,41.46
416,182744515,0.8755,0.2236,-0.2910,166.52,38.60,40.24
417,182749516,0.8477,0.2485,-0.2905,161.71,39.02,38.54
418,182754516,0.8330,0.2642,-0.2764,156.95,39.82,36.52
419,182759514,0.8237,0.2163,-0.2905,152.44,40.24,34.51
420,182764516,0.8306,0.1582,-0.3003,148.05,40.85,33.29
421,182770009,0.8950,0.0991,-0.2734,143.72,41.28,33.23
422,182774516,0.9600,0.0845,-0.2529,141.28,41.83,33.78
423,182779516,1.0371,0.0718,-0.2349,138.96,42.68,34.76
424,182784516,1.0762,0.0645,-0.2485,137.32,43.72,35.79
425,182789515,1.0752,0.0527,-0.2793,135.91,44.57,36.71
426,182794517,1.0591,0.0361,-0.2803,134.63,45.43,37.62
427,182799516,1.0391,0.0347,-0.2803,133.23,45.98,38.17
428,182804516,1.0288,0.0259,-0.2754,132.44,46.83,38.35
429,182809515,1.0229,0.0278,-0.2808,131.52,47.68,38.35
430,182814517,1.0078,0.0195,-0.2764,131.59,48.35,37.99
431,182819516,0.9951,0.0112,-0.2646,133.11,49.27,37.68
432,182824516,0.9834,0.0054,-0.2773,134.76,50.18,37.20
433,182829515,0.9785,-0.0049,-0.2739,137.62,50.98,36.77
434,182834516,0.9751,-0.0107,-0.2759,140.79,51.77,36.46
435,182839516,0.9731,-0.0225,-0.2725,144.70,52.68,36.16
436,182844516,0.9722,-0.0249,-0.2915,148.90,53.41,35.85
437,182849515,0.9805,-0.0327,-0.2954,153.60,53.90,35.61
438,182854516,0.9873,-0.0415,-0.2798,158.23,54.51,35.37
439,182859516,0.9888,-0.0503,-0.2720,162.74,54.94,35.00
440,182864516,0.9966,-0.0410,-0.2593,167.20,55.61,34.76
441,182869515,1.0015,-0.0439,-0.2432,171.71,56.04,34.21
442,182874516,0.9233,-0.0854,-0.2754,175.49,56.40,33.54
443,182879516,0.9556,-0.0479,-0.2393,178.48,57.01,32.80
444,182884516,1.0156,-0.0425,-0.2129,181.22,57.68,31.59
445,182889515,1.0317,-0.0488,-0.2012,183.96,58.48,30.30
446,182894516,0.9492,-0.0571,-0.2407,186.65,59.02,28.96
447,182899516,1.0269,-0.0474,-0.2295,189.39,59.63,27.32
448,182904518,1.0742,-0.0537,-0.1685,191.89,60.12,25.49
449,182909516,1.0742,-0.0483,-0.1870,193.72,60.98,23.84
450,182914516,1.0854,-0.0415,-0.1616,194.21,61.46,21.89
451,182919517,1.0361,-0.0576,-0.1611,193.48,62.20,19.63
452,182924516,1.0273,-0.0537,-0.1812,192.07,62.56,17.50
453,182929516,1.0142,-0.0874,-0.1802,189.51,62.74,15.43
454,182934516,0.9653,-0.0962,-0.1758,186.83,63.05,13.60
455,182939515,0.9404,-0.1060,-0.1729,183.84,63.29,11.65
456,182944516,0.9263,-0.1255,-0.1982,181.04,63.35,9.76
457,182949516,0.9058,-0.1323,-0.2007,178.54,63.23,7.87
458,182954516,0.8926,-0.1372,-0.2046,176.65,62.99,6.04
459,182959516,0.8799,-0.1396,-0.2051,175.30,62.74,4.21
460,182964518,0.8716,-0.1392,-0.2041,174.70,62.38,2.38
461,182969516,0.8647,-0.1406,-0.1992,174.57,62.01,0.49
462,182974515,0.8647,-0.1333,-0.1880,175.18,61.83,-1.52
463,182979516,0.8662,-0.1284,-0.1807,176.40,61.65,-3.60
464,182984514,0.8604,-0.1147,-0.1733,177.99,61.52,-5.61
465,182989516,0.8555,-0.1074,-0.1685,179.88,61.40,-7.87
466,182994515,0.8428,-0.0981,-0.1548,182.01,61.52,-9.94
467,182999516,0.8228,-0.0923,-0.1533,183.84,61.77,-12.13
468,183004516,0.8159,-0.0884,-0.1377,185.49,62.07,-14.27
469,183009516,0.7939,-0.0864,-0.1445,186.40,62.38,-16.59
470,183014516,0.7734,-0.1045,-0.1440,185.79,62.44,-19.09
471,183019516,0.7729,-0.0903,-0.1333,183.90,62.68,-21.77
472,183024515,0.7710,-0.0654,-0.0991,181.46,63.05,-24.39
473,183029517,0.7734,-0.0674,-0.0996,178.29,63.66,-27.01
474,183034515,0.7769,-0.0615,-0.1260,174.70,63.96,-29.70
475,183039516,0.7739,-0.0615,-0.1094,170.73,64.21,-32.38
476,183044515,0.7739,-0.0181,-0.1113,166.65,64.27,-35.18
477,183049518,0.7749,-0.0586,-0.1001,162.20,64.27,-38.17
478,183054515,0.7910,-0.0542,-0.1313,157.32,64.27,-40.98
479,183059516,0.7788,-0.0024,-0.0933,152.32,64.09,-43.35
480,183064515,0.7769,0.0449,-0.0767,147.44,64.09,-45.73
481,183069516,0.7993,0.0337,-0.0698,142.62,64.45,-48.05
482,183074515,0.7803,0.0317,-0.0747,137.80,64.70,-50.12
483,183079516,0.7915,0.0210,-0.0522,133.72,65.00,-52.01
484,183084514,0.7822,0.0288,-0.0669,129.21,65.55,-53.84
485,183089562,0.7827,0.0532,-0.0327,128.35,65.85,-55.55
486,183094515,0.7803,0.0776,-0.0352,125.73,66.28,-57.01
487,183099514,0.7729,0.1099,-0.0303,124.51,66.52,-58.54
488,183104623,0.7754,0.1177,-0.0093,124.27,66.59,-60.00
489,183109516,0.7783,0.1284,-0.0190,124.94,66.83,-61.34
490,183114515,0.7715,0.1357,-0.0156,126.65,66.89,-62.50
491,183119518,0.7554,0.1470,-0.0317,129.57,66.77,-63.78
492,183124515,0.7588,0.1489,-0.0122,130.12,66.71,-65.00
493,183129517,0.7588,0.1553,-0.0210,133.41,66.71,-65.73
494,183134515,0.7695,0.1743,-0.0200,137.13,66.52,-66.22
495,183139516,0.7500,0.1704,-0.0396,141.28,66.40,-66.71
496,183144515,0.7212,0.1851,0.0107,145.79,66.28,-67.07
497,183149516,0.7178,0.1982,0.0156,150.30,66.16,-67.50
498,183154515,0.7207,0.2148,0.0176,155.18,66.28,-68.35
499,183159516,0.7290,0.2236,0.0171,160.18,66.10,-69.57
500,183164515,0.7144,0.2241,0.0220,165.37,65.61,-70.79
501,183169516,0.7056,0.2212,0.0371,170.06,64.88,-71.83
502,183174515,0.6934,0.2212,0.0576,174.76,64.27,-72.74
503,183179519,0.6831,0.2256,0.0718,179.51,63.84,-73.60
504,183184516,0.6729,0.2314,0.0854,183.96,63.60,-74.63
505,183189515,0.6543,0.2285,0.0796,188.54,62.93,-75.73
506,183194518,0.6333,0.2173,0.1196,192.20,62.68,-76.77
507,183199515,0.5991,0.2246,0.0942,195.85,62.13,-77.80
508,183204612,0.5972,0.2446,0.1411,199.51,61.46,-78.72
509,183209516,0.5908,0.2749,0.1006,202.99,60.85,-80.06
510,183214516,0.5820,0.2891,0.0952,205.98,59.70,-81.65
511,183219514,0.5830,0.2988,0.0830,208.41,57.87,-83.41
512,183224516,0.5889,0.3057,0.0859,210.00,55.37,-85.37
513,183229760,0.5908,0.3232,0.0977,211.16,52.20,-87.56
514,183234517,0.5923,0.3481,0.1143,211.83,49.02,-90.18
515,183239516,0.5737,0.4155,0.1104,212.26,45.37,-93.29
516,183244515,0.5781,0.4067,0.1860,212.93,41.59,-97.20
517,183249516,0.6084,0.3613,0.2324,213.48,38.72,-100.73
518,183254515,0.6274,0.3545,0.2339,214.02,36.34,-103.72
519,183259516,0.6025,0.3696,0.1826,214.82,33.90,-107.13
520,183264516,0.5767,0.3667,0.1636,215.67,30.85,-110.79
521,183269516,0.5610,0.3579,0.1689,216.52,27.56,-114.57
522,183274515,0.5498,0.3579,0.1919,217.80,24.33,-118.29
523,183279516,0.5420,0.3530,0.1738,219.51,20.85,-122.07
524,183284519,0.5269,0.3594,0.1665,221.46,17.38,-125.91
525,183289514,0.5010,0.3457,0.1670,223.84,13.72,-129.70
526,183294514,0.4839,0.3428,0.1489,226.16,9.88,-133.35
527,183299516,0.4795,0.3374,0.1260,228.66,5.79,-137.01
528,183304548,0.4556,0.3423,0.1143,231.34,1.34,-140.73
529,183309515,0.4326,0.3540,0.1060,233.96,-2.99,-144.39
530,183314516,0.4058,0.3608,0.0957,236.65,-7.38,-148.05
531,183319516,0.3848,0.3755,0.1025,239.02,-11.77,-151.71
532,183324515,0.3516,0.3804,0.1025,240.98,-16.04,-155.43
533,183329516,0.3198,0.4189,0.1099,242.38,-20.24,-158.90
534,183334515,0.2881,0.4268,0.1304,242.87,-24.21,-162.62
535,183339516,0.2490,0.4316,0.1309,242.20,-27.68,-166.10
536,183344516,0.2090,0.4448,0.1392,240.91,-31.46,-169.45
537,183349518,0.1797,0.4487,0.1470,238.90,-35.00,-172.50
538,183354515,0.1318,0.4771,0.1436,236.28,-38.23,-175.73
539,183359516,0.0879,0.5034,0.1348,233.23,-41.52,-178.60
540,183364515,0.0596,0.5278,0.1187,230.06,-44.88,-181.46
541,183369516,0.0391,0.5576,0.0996,226.71,-48.29,-184.09
542,183374515,0.0244,0.5879,0.0713,223.35,-51.83,-186.65
543,183379516,0.0073,0.6216,0.0386,220.12,-55.43,-189.02
544,183384515,-0.0127,0.6567,0.0137,216.71,-58.84,-191.22
545,183389514,-0.0342,0.6885,-0.0166,213.29,-62.62,-193.17
546,183394514,-0.0449,0.7100,-0.0361,209.94,-66.52,-194.76
547,183399516,-0.0615,0.7339,-0.0635,206.40,-70.18,-195.91
548,183404515,-0.0732,0.7642,-0.0786,202.93,-74.09,-196.71
549,183409516,-0.0688,0.7866,-0.0986,199.27,-77.68,-197.20
550,183414514,-0.0835,0.7964,-0.1167,195.55,-81.40,-197.07
551,183419514,-0.1074,0.8242,-0.1318,192.38,-84.27,-196.95
552,183424516,-0.1616,0.8491,-0.1357,186.95,-88.41,-196.28
553,183429518,-0.1523,0.8838,-0.1445,181.65,-91.89,-195.61
554,183434515,-0.1602,0.9121,-0.1719,176.10,-95.43,-194.88
555,183439517,-0.1670,0.9321,-0.1943,170.49,-98.96,-193.84
556,183444514,-0.1587,0.9619,-0.1973,165.49,-102.32,-192.44
557,183449516,-0.1587,0.9893,-0.2192,160.55,-105.67,-190.91
558,183454515,-0.1938,1.0205,-0.2285,156.10,-108.96,-188.96
559,183459516,-0.2422,1.0430,-0.2441,152.07,-112.26,-186.95
560,183464516,-0.2856,1.0757,-0.2500,148.29,-115.67,-184.57
561,183469572,-0.3252,1.1060,-0.2451,144.39,-118.72,-182.07
562,183474515,-0.3701,1.1367,-0.2593,140.79,-121.71,-179.27
563,183479516,-0.4023,1.1758,-0.2607,137.32,-124.76,-176.16
564,183484516,-0.4282,1.2007,-0.2695,134.09,-127.44,-172.93
565,183489516,-0.4546,1.2456,-0.2778,130.12,-130.06,-169.45
566,183494515,-0.4849,1.2744,-0.2637,128.54,-131.95,-166.77
567,183499516,-0.5439,1.2964,-0.3398,123.66,-135.06,-162.50
568,183504515,-0.5483,1.3115,-0.3223,119.88,-137.32,-159.88
569,183509516,-0.5688,1.3428,-0.3281,114.51,-140.73,-155.79
570,183514516,-0.6260,1.3442,-0.3535,109.76,-143.48,-152.07
571,183519516,-0.6445,1.3545,-0.3369,105.61,-146.34,-147.87
572,183524515,-0.6543,1.3828,-0.3667,103.05,-148.54,-144.39
573,183529514,-0.7188,1.3628,-0.3335,99.82,-151.34,-139.70
574,183534514,-0.7324,1.4116,-0.3525,96.28,-154.09,-134.63
575,183539515,-0.7539,1.4155,-0.3491,92.80,-157.13,-129.27
576,183544516,-0.7583,1.4434,-0.3755,89.15,-160.55,-122.56
577,183549516,-0.7803,1.4463,-0.3584,86.34,-163.11,-117.74
578,183554517,-0.8345,1.4448,-0.4014,83.05,-166.34,-111.28
579,183559515,-0.8413,1.4971,-0.3735,78.96,-169.70,-104.82
580,183564516,-0.8608,1.4253,-0.3550,72.32,-172.87,-98.17
581,183569517,-0.9209,1.4238,-0.3896,64.45,-176.40,-91.22
582,183574516,-0.8872,1.4556,-0.4517,58.17,-180.37,-84.09
583,183579515,-0.8457,1.4595,-0.5073,54.21,-185.06,-76.89
584,183584516,-0.8779,1.4478,-0.3564,51.65,-189.51,-69.39
585,183589516,-0.8818,1.4360,-0.3496,48.05,-193.11,-61.65
586,183594516,-0.9453,1.3945,-0.3955,43.72,-196.89,-54.02
587,183599515,-0.9556,1.4263,-0.3979,40.43,-200.61,-46.40
588,183604516,-0.9546,1.4282,-0.3662,39.76,-204.33,-38.48
589,183609516,-0.9810,1.4272,-0.4082,39.45,-208.41,-30.18
590,183614517,-1.0728,1.3804,-0.4751,38.66,-213.11,-19.94
591,183619515,-1.0889,1.3896,-0.3950,39.09,-216.28,-13.17
592,183624516,-1.0649,1.3823,-0.4370,42.26,-220.49,-4.21
593,183629516,-1.0732,1.3228,-0.3862,47.32,-224.63,5.30
594,183634518,-1.0234,1.3223,-0.3291,53.29,-229.21,16.52
595,183639517,-1.1104,1.2964,-0.3892,56.52,-232.44,24.15
596,183644516,-1.1890,1.2749,-0.4204,59.51,-237.32,33.90
597,183649514,-1.1841,1.2437,-0.3794,62.99,-242.62,44.15
598,183654516,-1.1821,1.2251,-0.3462,66.71,-248.05,54.57
599,183659518,-1.1978,1.2012,-0.3345,70.61,-253.41,65.00
600,183664515,-1.2329,1.1865,-0.3213,74.15,-258.78,75.43
601,183669516,-1.2817,1.1685,-0.3267,77.20,-264.15,86.22
602,183674516,-1.3032,1.1592,-0.3394,79.33,-269.94,95.91
603,183679516,-1.3945,1.1074,-0.3154,80.30,-275.61,105.98
604,183684516,-1.4639,1.1055,-0.3931,79.82,-281.52,116.04
605,183689514,-1.4712,1.0938,-0.3828,80.43,-287.56,125.91
606,183694516,-1.5034,1.0898,-0.4766,81.40,-293.72,135.37
607,183699516,-1.6606,1.1030,-0.4204,80.91,-299.94,144.63
608,183704817,-1.7617,1.0806,-0.4258,78.29,-307.26,155.55
609,183709516,-1.8174,1.0566,-0.4761,75.73,-312.26,162.80
610,183714516,-1.9097,1.0562,-0.4824,71.77,-318.05,171.52
611,183719516,-1.9727,1.0557,-0.5010,67.44,-324.33,180.24
612,183724515,-2.0288,1.0615,-0.5493,62.93,-330.67,188.78
613,183729516,-2.1147,1.0625,-0.5752,58.60,-337.01,197.13
614,183734515,-2.1978,1.0435,-0.5542,53.78,-343.05,205.24
615,183739516,-2.2617,1.0503,-0.6001,48.72,-349.21,213.11
616,183744515,-2.3271,1.0454,-0.6274,43.66,-355.37,220.67
617,183749516,-2.4253,1.0640,-0.6411,38.96,-361.46,228.05
618,183754515,-2.4644,1.0684,-0.6626,35.43,-367.99,235.30
619,183759516,-2.5303,1.0586,-0.6689,33.11,-374.27,242.56
620,183764515,-2.5845,1.0859,-0.6582,31.65,-380.73,249.57
621,183769516,-2.6040,1.0713,-0.6504,30.30,-386.77,256.46
622,183774515,-2.6426,1.1108,-0.6738,28.84,-392.93,263.29
623,183779516,-2.7969,1.0664,-0.6865,26.10,-399.57,269.70
624,183784515,-2.8535,1.0415,-0.6519,23.60,-405.79,276.65
625,183789516,-2.8516,1.1182,-0.7500,21.83,-412.62,282.68
626,183794516,-3.0728,1.1089,-0.6831,19.09,-419.63,288.23
627,183799514,-3.1377,1.0986,-0.7212,16.77,-426.65,293.84
628,183804514,-3.1748,1.1416,-0.7412,15.24,-433.66,299.33
629,183809518,-3.2554,1.1450,-0.7412,14.27,-440.37,304.33
630,183814515,-3.3159,1.1587,-0.7563,13.54,-446.89,309.33
631,183819514,-3.3604,1.1782,-0.7920,12.87,-453.17,313.96
632,183824516,-3.4136,1.1958,-0.7827,12.01,-459.33,318.48
633,183829516,-3.4692,1.2104,-0.7949,11.16,-464.82,322.74
634,183834515,-3.4951,1.2114,-0.8203,10.55,-470.30,326.83
635,183839516,-3.4917,1.2642,-0.8906,9.94,-475.91,330.61
636,183844515,-3.6440,1.3013,-0.8325,7.80,-480.91,334.09
637,183849517,-3.7285,1.3032,-0.9253,5.30,-486.10,337.74
638,183854515,-3.7197,1.3345,-0.9302,2.62,-491.04,341.59
639,183859516,-3.7549,1.3672,-0.9116,0.49,-495.00,345.49
640,183864516,-3.8296,1.3838,-0.9707,-1.65,-498.78,349.45
641,183869516,-3.8135,1.4194,-1.0166,-2.68,-502.26,353.72
642,183874515,-3.8667,1.4658,-1.0420,-3.66,-505.12,357.93
643,183879516,-3.9448,1.4971,-1.0942,-6.22,-507.62,361.95
644,183884515,-3.9619,1.5430,-1.1313,-10.67,-510.12,366.16
645,183889516,-3.9873,1.5854,-1.1514,-16.95,-512.01,369.94
646,183894515,-4.0015,1.6387,-1.1646,-24.39,-513.35,373.23
647,183899516,-4.0605,1.6592,-1.2007,-33.23,-514.63,375.98
648,183904515,-4.2759,1.7710,-1.3442,-44.63,-516.34,377.44
649,183909516,-4.2939,1.7739,-1.2749,-57.93,-518.05,378.17
650,183914549,-4.3188,1.8091,-1.3281,-71.77,-518.96,378.78
651,183919516,-4.2949,1.8486,-1.4141,-84.88,-519.21,378.78
652,183924587,-4.3716,1.9185,-1.4580,-96.40,-519.09,378.41
653,183929518,-4.3696,1.9707,-1.5015,-103.84,-517.68,378.23
654,183934515,-4.3628,2.0459,-1.6143,-107.62,-515.67,378.48
655,183939516,-4.3779,2.0898,-1.6782,-107.13,-512.50,379.15
656,183944515,-4.4043,2.1528,-1.7632,-103.05,-508.11,380.49
657,183949518,-4.3828,2.2163,-1.8525,-95.79,-502.56,382.93
658,183954515,-4.3447,2.2607,-1.9492,-86.04,-495.91,386.71
659,183959516,-4.3101,2.3091,-2.0239,-74.33,-488.05,391.65
660,183964516,-4.2681,2.3555,-2.0981,-61.16,-478.29,397.99
661,183969514,-4.2378,2.3906,-2.1831,-46.59,-467.20,405.91
662,183974516,-4.1895,2.4238,-2.2510,-30.79,-454.70,415.18
663,183979516,-4.1216,2.4512,-2.3154,-14.70,-440.91,425.79
664,183984516,-4.0591,2.4814,-2.3804,1.34,-425.91,437.62
665,183989516,-3.9868,2.4775,-2.4282,17.13,-409.76,450.06
666,183994515,-3.8979,2.4756,-2.4805,31.34,-392.56,463.11
667,183999516,-3.8452,2.4697,-2.5229,41.95,-374.94,476.65
668,184004515,-3.8130,2.4497,-2.5693,49.09,-356.16,490.30
669,184009516,-3.7676,2.4351,-2.6021,52.26,-337.32,503.54
670,184014516,-3.7437,2.4297,-2.6328,51.16,-318.23,516.04
671,184019516,-3.7251,2.4258,-2.6675,45.98,-299.70,527.62
672,184024516,-3.6919,2.4126,-2.6616,37.44,-281.71,538.41
673,184029516,-3.6606,2.4048,-2.6694,25.98,-264.15,548.17
674,184034516,-3.6377,2.3984,-2.6782,11.77,-247.68,556.95
675,184039516,-3.6128,2.3687,-2.6660,-3.29,-231.77,564.88
676,184044516,-3.5801,2.3311,-2.6445,-17.62,-217.01,572.32
677,184049516,-3.5464,2.2822,-2.6250,-32.62,-200.73,580.49
678,184054516,-3.5361,2.2422,-2.6260,-41.10,-190.24,585.67
679,184059734,-3.5269,2.1680,-2.6011,-49.45,-178.23,591.95
680,184064516,-3.4863,2.0747,-2.5615,-53.72,-167.01,598.41
681,184069516,-3.4370,1.9814,-2.5361,-53.84,-156.22,604.63
682,184074516,-3.3989,1.8931,-2.5308,-51.34,-145.61,610.61
683,184079516,-3.3813,1.8071,-2.5293,-46.77,-135.12,616.52
684,184084516,-3.3872,1.7139,-2.5010,-40.00,-124.82,622.13
685,184089516,-3.3989,1.6450,-2.4624,-31.83,-114.63,627.07
686,184094516,-3.3887,1.5449,-2.4360,-23.66,-104.21,631.40
687,184099514,-3.3721,1.4360,-2.4487,-15.79,-93.66,635.49
688,184104518,-3.3608,1.3501,-2.4155,-9.45,-83.29,638.84
689,184109516,-3.3403,1.2593,-2.3511,-4.76,-72.99,641.71
690,184114515,-3.3159,1.1875,-2.3057,-1.71,-62.68,643.66
691,184119518,-3.3013,1.1138,-2.2715,0.37,-52.80,645.00
692,184124515,-3.2812,1.0308,-2.2256,2.38,-42.68,645.98
693,184129518,-3.2578,0.9434,-2.2051,4.63,-32.44,646.52
694,184134515,-3.2505,0.8755,-2.1792,6.77,-22.32,646.52
695,184139516,-3.2241,0.8057,-2.1274,9.21,-12.01,645.85
696,184144515,-3.1519,0.7051,-2.0571,10.67,-1.83,644.57
697,184149516,-3.1387,0.6729,-2.0591,11.46,8.48,642.56
698,184154515,-3.1514,0.6104,-2.0283,13.54,18.78,640.12
699,184159594,-3.1455,0.5371,-1.9692,17.32,29.57,637.44
700,184164515,-3.1328,0.4526,-1.9424,21.65,41.04,634.76
701,184169516,-3.1133,0.3701,-1.9092,26.10,52.50,632.13
702,184174515,-3.0815,0.2983,-1.8530,31.28,64.21,629.39
703,184179516,-3.0361,0.2373,-1.8135,37.13,76.10,626.77
704,184184515,-2.9932,0.1821,-1.7607,43.17,87.93,623.66
705,184189516,-2.9390,0.1270,-1.6929,48.96,100.61,620.00
706,184194519,-2.8921,0.0762,-1.6382,54.51,112.80,615.73
707,184199516,-2.8447,0.0312,-1.5835,59.39,124.76,610.61
708,184204515,-2.8066,-0.0083,-1.5269,63.29,136.71,604.82
709,184209516,-2.7676,-0.0435,-1.4634,66.10,148.05,598.11
710,184214516,-2.7236,-0.0791,-1.4038,67.26,159.27,590.49
711,184219516,-2.7026,-0.1348,-1.3413,67.20,169.57,582.20
712,184224515,-2.6689,-0.1821,-1.2998,65.67,179.51,573.54
713,184229516,-2.6592,-0.2202,-1.2563,63.41,188.90,564.57
714,184234516,-2.6763,-0.2671,-1.2178,59.94,197.87,555.37
715,184239516,-2.6616,-0.2998,-1.1685,55.43,206.04,546.04
716,184244516,-2.6455,-0.3394,-1.1265,50.30,213.35,536.77
717,184249516,-2.6304,-0.3696,-1.0879,44.70,220.06,527.62
718,184254516,-2.6045,-0.3984,-1.0327,39.21,226.04,518.41
719,184259516,-2.5879,-0.4380,-0.9858,33.60,231.22,509.27
720,184264516,-2.5889,-0.4360,-0.9268,28.41,235.73,500.37
721,184269516,-2.5586,-0.4360,-0.9111,24.70,239.51,491.52
722,184274516,-2.5259,-0.4663,-0.8613,22.20,242.38,482.62
723,184279516,-2.5200,-0.5615,-0.7915,19.70,244.45,473.84
724,184284517,-2.5342,-0.5732,-0.7998,16.46,245.85,465.12
725,184289516,-2.5356,-0.6187,-0.7461,13.72,246.65,455.91
726,184294515,-2.5093,-0.6704,-0.6426,11.04,247.20,446.59
727,184299516,-2.4810,-0.7119,-0.6279,8.48,247.80,436.77
728,184304516,-2.4487,-0.7412,-0.5923,6.40,247.44,426.83
729,184309516,-2.4219,-0.7759,-0.5210,5.06,246.95,416.59
730,184314515,-2.3965,-0.8086,-0.4785,5.12,246.28,406.28
731,184319518,-2.3804,-0.8467,-0.4316,6.46,245.37,395.98
732,184324515,-2.3613,-0.8823,-0.3765,8.48,244.39,385.73
733,184329514,-2.3315,-0.9106,-0.3242,10.98,243.17,375.73
734,184334516,-2.3027,-0.9390,-0.2827,13.66,241.71,365.55
735,184339516,-2.2632,-0.9746,-0.2275,15.85,239.94,355.12
736,184344515,-2.2280,-1.0132,-0.1680,17.68,237.93,344.70
737,184349516,-2.2090,-1.0488,-0.0903,18.90,235.91,334.15
738,184354515,-2.2046,-1.0884,-0.0410,19.51,234.21,323.48
739,184359515,-2.2188,-1.1318,0.0005,18.84,232.32,312.80
740,184364518,-2.2383,-1.1792,0.0493,16.46,230.55,302.07
741,184369516,-2.2549,-1.2139,0.0728,12.80,228.48,291.52
742,184374516,-2.2637,-1.2637,0.1108,7.87,226.04,281.22
743,184379516,-2.2671,-1.2773,0.1055,2.56,222.99,271.04
744,184384516,-2.2490,-1.2964,0.1196,-2.62,219.15,261.16
745,184389516,-2.2383,-1.3306,0.1709,-7.80,215.18,251.59
746,184394516,-2.2036,-1.3662,0.1748,-12.56,210.79,242.01
747,184399516,-2.1548,-1.4033,0.1929,-16.65,205.67,232.56
748,184404515,-2.1079,-1.4380,0.2354,-19.82,200.30,223.17
749,184409516,-2.0464,-1.4731,0.2461,-21.83,194.76,213.66
750,184414516,-1.9751,-1.5044,0.2661,-23.05,189.21,204.21
751,184419920,-1.9126,-1.5308,0.2852,-23.17,183.11,194.33
752,184424516,-1.8574,-1.5620,0.2852,-22.32,177.20,184.70
753,184429516,-1.7910,-1.5854,0.2676,-20.55,170.43,174.94
754,184434517,-1.7251,-1.5981,0.2637,-18.05,163.35,165.30
755,184439516,-1.6636,-1.6196,0.2515,-14.45,156.16,155.55
756,184444516,-1.5938,-1.6187,0.2441,-9.94,148.54,145.73
757,184449516,-1.5244,-1.6162,0.2305,-4.45,140.91,135.67
758,184454516,-1.4624,-1.6089,0.2466,1.34,133.17,125.43
759,184459516,-1.3950,-1.6113,0.2363,7.32,125.55,115.24
760,184464518,-1.3394,-1.6128,0.2192,13.41,117.99,104.88
761,184469516,-1.2910,-1.6074,0.2261,19.51,110.30,94.27
762,184474515,-1.2344,-1.5962,0.2139,25.43,102.68,84.82
763,184479516,-1.1899,-1.5806,0.2051,31.22,94.88,74.33
764,184484515,-1.1489,-1.5596,0.2051,36.83,87.44,64.21
765,184489516,-1.1162,-1.5444,0.1958,42.74,79.94,54.39
766,184494536,-1.0859,-1.5308,0.1963,48.78,72.07,44.70
767,184499516,-1.0459,-1.5107,0.1929,55.00,64.57,35.24
768,184504515,-1.0142,-1.4858,0.1938,61.52,57.32,25.79
769,184509516,-0.9854,-1.4658,0.1953,67.99,50.30,16.71
770,184514515,-0.9575,-1.4395,0.1895,73.90,43.35,7.80
771,184519516,-0.9224,-1.4199,0.1846,78.66,36.59,-0.98
772,184524516,-0.8906,-1.4038,0.1860,82.74,29.82,-9.27
773,184529516,-0.8613,-1.3760,0.1758,85.85,23.41,-17.38
774,184534516,-0.8335,-1.3491,0.1670,88.35,17.07,-25.06
775,184539516,-0.8174,-1.3140,0.1646,90.79,11.28,-32.38
776,184544516,-0.8018,-1.2900,0.1509,92.44,5.55,-39.21
777,184549516,-0.7778,-1.2666,0.1450,93.11,0.00,-45.79
778,184554516,-0.7695,-1.2422,0.1333,93.05,-5.06,-51.89
779,184559516,-0.7549,-1.2197,0.1323,92.56,-10.06,-57.74
780,184564516,-0.7451,-1.1963,0.1187,91.22,-14.57,-63.17
781,184569516,-0.7319,-1.1709,0.1143,89.27,-19.02,-68.41
782,184574516,-0.7168,-1.1484,0.1182,86.95,-22.99,-73.60
783,184579516,-0.7002,-1.1289,0.1113,84.02,-26.59,-78.60
784,184584516,-0.6836,-1.1060,0.1123,80.55,-30.00,-83.41
785,184589521,-0.6660,-1.0874,0.1094,76.40,-33.17,-88.35
786,184594516,-0.6519,-1.0732,0.1064,71.71,-36.22,-93.11
787,184599514,-0.6367,-1.0615,0.0996,66.59,-38.96,-97.56
788,184604514,-0.6206,-1.0454,0.0884,62.07,-41.52,-101.89
789,184609516,-0.6123,-1.0322,0.0815,58.05,-43.84,-105.91
790,184614515,-0.6069,-1.0132,0.0742,55.06,-45.91,-109.70
791,184619516,-0.5830,-1.0029,0.0615,52.99,-47.80,-113.54
792,184624515,-0.5786,-0.9883,0.0493,51.89,-49.51,-116.95
793,184629514,-0.5776,-0.9790,0.0405,51.59,-51.04,-120.24
794,184634518,-0.5820,-0.9717,0.0142,51.83,-52.44,-123.17
795,184639515,-0.5957,-0.9556,-0.0059,52.50,-53.78,-125.98
796,184644516,-0.5811,-0.9487,-0.0122,53.41,-55.12,-128.78
797,184649516,-0.5894,-0.9312,-0.0308,53.96,-56.16,-131.40
798,184654515,-0.5864,-0.9248,-0.0327,54.02,-57.50,-133.90
799,184660349,-0.5747,-0.9189,-0.0435,53.78,-58.60,-137.01
800,184664518,-0.5693,-0.9121,-0.0498,53.05,-59.27,-139.09
801,184669516,-0.5562,-0.9082,-0.0591,51.83,-60.24,-141.65
802,184674516,-0.5483,-0.9058,-0.0562,50.49,-61.16,-144.09
803,184679516,-0.5400,-0.9004,-0.0591,48.54,-61.71,-146.65
804,184684516,-0.5249,-0.8931,-0.0728,46.59,-62.38,-149.33
805,184689516,-0.5186,-0.8901,-0.0869,44.76,-63.05,-151.83
806,184694516,-0.5049,-0.8872,-0.1079,43.11,-63.72,-154.09
807,184699517,-0.4858,-0.8838,-0.1162,42.01,-64.45,-156.22
808,184704516,-0.4717,-0.8867,-0.1353,41.28,-64.82,-157.93
809,184709516,-0.4639,-0.8735,-0.1411,41.10,-65.12,-159.33
810,184714516,-0.4497,-0.8833,-0.1465,40.98,-65.00,-160.73
811,184719514,-0.4233,-0.8760,-0.1450,40.91,-65.06,-161.95
812,184724514,-0.3984,-0.8716,-0.1450,40.73,-64.82,-162.99
813,184729516,-0.3735,-0.8633,-0.1440,40.06,-64.57,-164.27
814,184734517,-0.3379,-0.8477,-0.1494,39.09,-64.27,-165.61
815,184739514,-0.2974,-0.8286,-0.1460,37.32,-64.09,-167.13
816,184744518,-0.2578,-0.8232,-0.1484,34.76,-63.78,-168.72
817,184749516,-0.2261,-0.8213,-0.1528,31.22,-63.72,-170.43
818,184754515,-0.1987,-0.8247,-0.1484,26.65,-63.54,-172.07
819,184759518,-0.1675,-0.8311,-0.1538,20.98,-63.60,-173.66
820,184764515,-0.1294,-0.8408,-0.1538,14.33,-63.66,-175.30
821,184769516,-0.0913,-0.8428,-0.1606,7.32,-63.60,-177.07
822,184774515,-0.0591,-0.8560,-0.1455,-0.18,-63.60,-178.78
823,184779516,-0.0059,-0.8604,-0.1304,-7.50,-63.35,-180.49
824,184784515,0.0444,-0.8638,-0.1230,-14.15,-63.11,-182.13
825,184789516,0.0845,-0.8633,-0.1104,-19.76,-62.74,-183.72
826,184794515,0.0942,-0.8638,-0.1060,-24.09,-62.01,-184.82
827,184799516,0.0947,-0.8521,-0.1050,-26.89,-61.46,-185.61
828,184804515,0.1260,-0.8516,-0.0962,-28.60,-60.73,-186.34
829,184809516,0.1738,-0.8604,-0.0518,-29.33,-59.63,-186.59
830,184814515,0.1807,-0.7896,-0.1704,-30.67,-59.63,-187.01
831,184819516,0.2456,-0.8682,0.0327,-32.01,-59.15,-187.13
832,184824515,0.2686,-0.8213,-0.0762,-32.87,-58.72,-186.77
833,184829516,0.2637,-0.8091,-0.0762,-34.33,-59.21,-186.71
834,184834515,0.3154,-0.8242,-0.0029,-37.56,-59.15,-186.71
835,184839516,0.3442,-0.8120,-0.0352,-43.35,-59.70,-186.77
836,184844516,0.3862,-0.8315,0.0493,-52.68,-60.24,-186.95
837,184849516,0.3892,-0.8320,-0.0234,-62.26,-60.61,-187.01
838,184854515,0.3823,-0.8320,0.0322,-70.67,-60.73,-186.65
839,184859516,0.4019,-0.8252,0.0454,-78.11,-60.30,-185.98
840,184864515,0.3945,-0.7944,-0.0034,-84.33,-59.82,-185.30
841,184869514,0.3833,-0.7651,0.0063,-89.88,-59.39,-184.57
842,184874517,0.3657,-0.7559,0.0205,-94.57,-58.48,-183.90
843,184879516,0.3320,-0.7422,0.0420,-98.41,-57.13,-183.11
844,184884515,0.3140,-0.7524,0.0098,-101.28,-55.85,-181.83
845,184889516,0.3066,-0.7456,-0.0039,-103.05,-54.39,-180.43
846,184894515,0.3232,-0.7241,-0.0059,-103.54,-52.99,-178.90
847,184899516,0.3184,-0.7158,0.0010,-102.99,-51.34,-177.26
848,184904516,0.3721,-0.7300,-0.0161,-100.98,-49.88,-175.43
849,184909516,0.4404,-0.7310,-0.0376,-97.99,-48.54,-173.23
850,184914515,0.3789,-0.7451,-0.0107,-94.15,-46.77,-170.91
851,184919516,0.3433,-0.7549,-0.0356,-89.33,-45.12,-168.05
852,184924516,0.3110,-0.7495,0.0249,-83.41,-42.87,-164.70
853,184929516,0.3101,-0.6890,-0.0620,-76.83,-40.37,-161.22
854,184934516,0.3735,-0.6270,-0.0967,-68.84,-38.41,-158.54
855,184939516,0.6050,-0.5186,-0.1226,-60.24,-37.44,-156.16
856,184944517,0.5454,-0.6675,0.2085,-49.70,-36.10,-154.09
857,184949516,0.5269,-0.7822,-0.3062,-40.37,-36.95,-151.28
858,184954516,0.5161,-0.8081,-0.3501,-31.34,-39.33,-147.93
859,184959516,0.5156,-0.7632,0.0591,-22.01,-39.51,-144.21
860,184964516,0.5269,-0.7080,0.0146,-12.80,-39.02,-140.43
861,184969516,0.5630,-0.6621,-0.3770,-3.90,-41.16,-136.40
862,184974516,0.5703,-0.6440,-0.3120,4.27,-43.90,-132.26
863,184979516,0.5464,-0.6445,-0.0054,11.59,-44.33,-127.93
864,184984516,0.5542,-0.6777,-0.1289,17.87,-44.88,-123.78
865,184989516,0.5752,-0.6997,-0.4116,22.80,-47.50,-119.82
866,184994516,0.5513,-0.6816,-0.2656,26.52,-49.33,-116.04
867,184999516,0.5337,-0.6484,-0.0474,28.78,-49.15,-112.74
868,185004516,0.5557,-0.6069,-0.2109,29.63,-49.57,-109.76
869,185009516,0.5889,-0.5767,-0.3916,29.15,-51.04,-107.13
870,185014516,0.5962,-0.5679,-0.2134,27.87,-51.71,-104.76
871,185019516,0.5967,-0.5752,-0.0723,25.85,-50.73,-102.68
872,185024516,0.6206,-0.5918,-0.2495,23.41,-50.43,-100.79
873,185029516,0.6421,-0.6055,-0.3398,20.73,-50.98,-98.84
874,185034516,0.6226,-0.5801,-0.1670,18.17,-50.18,-97.32
875,185039516,0.6323,-0.5498,-0.0938,15.79,-48.35,-96.16
876,185044516,0.6572,-0.5239,-0.2559,13.72,-47.13,-95.00
877,185049516,0.6641,-0.4976,-0.2759,11.77,-46.34,-94.15
878,185054516,0.6562,-0.4873,-0.1289,9.51,-44.27,-93.60
879,185059516,0.6616,-0.5024,-0.1260,6.77,-41.83,-92.99
880,185064516,0.6812,-0.5161,-0.2622,3.60,-40.12,-92.68
881,185069516,0.6821,-0.5273,-0.2432,-0.12,-38.54,-92.32
882,185074516,0.6763,-0.5244,-0.1240,-4.45,-36.04,-92.20
883,185079516,0.6929,-0.5190,-0.1523,-9.21,-33.29,-92.01
884,185084516,0.7231,-0.5132,-0.2495,-14.09,-31.22,-91.89
885,185089516,0.7363,-0.5098,-0.2065,-19.09,-29.27,-91.83
886,185094516,0.7495,-0.5137,-0.1191,-24.21,-26.65,-91.77
887,185099516,0.7686,-0.5239,-0.1670,-28.96,-23.90,-91.65
888,185104516,0.7856,-0.5371,-0.2393,-33.48,-21.89,-91.46
889,185109517,0.7920,-0.5396,-0.1860,-37.68,-19.63,-91.10
890,185114516,0.7920,-0.5400,-0.1353,-41.40,-16.83,-90.67
891,185119517,0.7988,-0.5366,-0.1924,-44.45,-14.45,-90.24
892,185124517,0.8032,-0.5283,-0.2466,-46.95,-12.50,-89.70
893,185129516,0.7979,-0.5190,-0.1978,-48.54,-10.24,-89.02
894,185134516,0.7920,-0.5215,-0.1787,-49.45,-7.87,-88.23
895,185139516,0.7896,-0.5220,-0.2441,-49.70,-5.98,-87.56
896,185144516,0.7896,-0.5215,-0.2671,-49.33,-4.39,-86.83
897,185149516,0.7852,-0.5215,-0.2227,-48.41,-2.50,-85.79
898,185154516,0.7822,-0.5166,-0.2324,-46.83,-0.67,-84.70
899,185159516,0.7783,-0.5117,-0.2812,-45.12,0.73,-83.48
900,185164516,0.7715,-0.5024,-0.2949,-43.11,1.77,-82.07
901,185169516,0.7627,-0.5049,-0.2588,-40.79,2.99,-80.55
902,185174516,0.7568,-0.5020,-0.2700,-38.54,4.45,-79.02
903,185179516,0.7646,-0.5005,-0.3184,-36.22,5.37,-77.13
904,185184516,0.7622,-0.5015,-0.3101,-34.02,6.16,-75.30
905,185189515,0.7627,-0.4995,-0.2866,-31.89,7.07,-73.35
906,185194520,0.7583,-0.5034,-0.3135,-29.88,7.99,-71.34
907,185199516,0.7573,-0.4971,-0.3423,-27.99,8.60,-69.33
908,185204516,0.7573,-0.4951,-0.3335,-26.04,9.27,-67.01
909,185209516,0.7534,-0.4912,-0.3159,-24.21,9.88,-64.94
910,185214516,0.7515,-0.4844,-0.3340,-21.89,10.55,-62.68
911,185219516,0.7524,-0.4790,-0.3569,-19.45,10.85,-60.55
912,185224516,0.7510,-0.4751,-0.3345,-16.95,11.46,-58.29
913,185229516,0.7471,-0.4648,-0.3184,-14.21,12.01,-56.16
914,185234517,0.7441,-0.4629,-0.3335,-11.46,12.44,-53.84
915,185239516,0.7461,-0.4590,-0.3438,-8.84,12.93,-51.71
916,185244515,0.7495,-0.4521,-0.3271,-5.98,13.48,-49.51
917,185249516,0.7549,-0.4487,-0.3140,-3.29,13.90,-47.07
918,185254516,0.7588,-0.4497,-0.3271,-0.73,14.51,-44.82
919,185259516,0.7612,-0.4448,-0.3330,1.95,14.76,-42.38
920,185264515,0.7627,-0.4434,-0.3076,4.88,15.24,-39.94
921,185269516,0.7656,-0.4448,-0.3018,7.62,15.73,-37.56
922,185274515,0.7720,-0.4355,-0.3013,10.55,16.10,-35.12
923,185279516,0.7676,-0.4307,-0.2939,13.35,16.40,-32.80
924,185284515,0.7715,-0.4282,-0.2725,16.04,16.71,-30.49
925,185289516,0.7729,-0.4209,-0.2729,18.48,17.13,-28.29
926,185294515,0.7852,-0.4165,-0.2705,20.67,17.07,-26.28
927,185299518,0.7930,-0.4136,-0.2593,22.50,17.20,-24.33
928,185304515,0.7983,-0.4111,-0.2495,23.84,17.44,-22.62
929,185309516,0.7896,-0.4126,-0.2422,25.12,17.38,-20.73
930,185314516,0.7988,-0.4111,-0.2349,26.10,17.07,-19.27
931,185319516,0.8105,-0.4058,-0.2222,26.77,16.71,-18.05
932,185324515,0.8145,-0.4062,-0.2012,27.50,16.46,-16.95
933,185329516,0.8218,-0.4023,-0.1992,27.99,16.16,-15.91
934,185334516,0.8306,-0.3994,-0.1875,28.35,15.24,-15.00
935,185339516,0.8433,-0.4058,-0.1743,28.54,14.63,-14.27
936,185344515,0.8457,-0.4038,-0.1660,28.48,14.15,-13.72
937,185349516,0.8589,-0.4106,-0.1553,28.41,12.87,-13.05
938,185354516,0.8594,-0.4077,-0.1436,28.17,12.07,-12.56
939,185359516,0.8564,-0.4053,-0.1353,28.05,11.04,-12.13
940,185364515,0.8540,-0.4023,-0.1328,27.62,10.18,-11.95
941,185369516,0.8496,-0.3979,-0.1167,26.89,8.90,-11.77
942,185374515,0.8389,-0.3999,-0.1094,26.28,8.17,-11.77
943,185379516,0.8315,-0.4038,-0.1001,24.70,6.83,-11.77
944,185384515,0.8350,-0.4038,-0.0942,23.29,6.04,-12.01
945,185389516,0.8315,-0.4067,-0.0923,20.91,4.63,-12.32
946,185394515,0.8252,-0.4111,-0.0874,19.09,3.60,-12.56
947,185399516,0.8208,-0.4189,-0.0903,16.77,2.56,-12.68
948,185404515,0.8237,-0.4263,-0.0850,14.15,1.28,-13.11
949,185409516,0.8281,-0.4380,-0.0850,11.46,0.00,-13.35
950,185414515,0.8286,-0.4468,-0.0708,8.90,-1.16,-13.60
951,185419516,0.8311,-0.4517,-0.0620,6.71,-2.07,-13.78
952,185424515,0.8311,-0.4595,-0.0586,4.70,-3.17,-14.09
953,185429514,0.8315,-0.4575,-0.0610,3.35,-4.15,-14.27
954,185434516,0.8340,-0.4634,-0.0581,2.32,-5.00,-14.57
955,185439516,0.8369,-0.4609,-0.0547,1.83,-5.98,-14.88
956,185444514,0.8364,-0.4639,-0.0586,1.65,-6.77,-15.12
957,185449516,0.8369,-0.4683,-0.0640,1.59,-7.93,-15.43
958,185454515,0.8340,-0.4741,-0.0698,1.52,-8.72,-15.79
959,185459867,0.8281,-0.4785,-0.0820,1.46,-9.88,-16.22
960,185464516,0.8281,-0.4819,-0.0908,1.52,-10.79,-16.46
961,185469516,0.8296,-0.4844,-0.0947,1.59,-11.77,-16.71
962,185474514,0.8271,-0.4854,-0.1084,1.52,-12.93,-16.83
963,185479516,0.8335,-0.4873,-0.1230,1.65,-14.09,-17.07
964,185484575,0.8340,-0.4932,-0.1299,2.07,-15.37,-17.32
965,185489516,0.8257,-0.4932,-0.1353,2.44,-16.10,-17.32
966,185494516,0.8262,-0.4922,-0.1465,3.48,-17.20,-17.32
967,185499516,0.8213,-0.4858,-0.1577,4.39,-18.05,-17.38
968,185504516,0.8174,-0.4810,-0.1670,5.73,-18.96,-17.26
969,185509516,0.8135,-0.4751,-0.1768,7.13,-19.70,-17.20
970,185514516,0.8066,-0.4746,-0.1846,8.35,-20.12,-17.26
971,185519517,0.8071,-0.4707,-0.1890,9.51,-20.67,-17.26
972,185524516,0.8110,-0.4658,-0.1997,10.55,-21.22,-17.07
973,185529516,0.8115,-0.4653,-0.2100,11.52,-21.65,-17.01
974,185534517,0.8140,-0.4653,-0.2153,12.26,-22.07,-16.89
975,185539516,0.8130,-0.4595,-0.2222,12.93,-22.26,-16.83
976,185544516,0.8179,-0.4507,-0.2310,13.66,-22.44,-16.65
977,185549516,0.8208,-0.4443,-0.2358,14.15,-22.56,-16.46
978,185554516,0.8184,-0.4380,-0.2349,14.76,-22.68,-16.46
979,185559516,0.8198,-0.4316,-0.2432,15.43,-22.62,-16.34
980,185564517,0.8271,-0.4272,-0.2417,16.10,-22.56,-16.28
981,185569516,0.8379,-0.4253,-0.2441,16.52,-22.20,-16.16
982,185574517,0.8364,-0.4204,-0.2500,17.07,-22.01,-16.22
983,185579516,0.8452,-0.4194,-0.2441,17.62,-21.65,-15.91
984,185584516,0.8462,-0.4077,-0.2476,17.87,-21.10,-15.79
985,185589516,0.8491,-0.3989,-0.2573,18.41,-20.67,-15.61
986,185594516,0.8545,-0.3984,-0.2598,18.84,-20.12,-15.49
987,185599516,0.8564,-0.3901,-0.2559,19.02,-19.51,-15.37
988,185604516,0.8569,-0.3848,-0.2568,19.33,-18.96,-15.24
989,185609516,0.8613,-0.3833,-0.2642,19.21,-18.29,-15.06
990,185614516,0.8701,-0.3721,-0.2637,19.02,-17.50,-15.06
991,185619516,0.8740,-0.3721,-0.2642,18.78,-16.71,-14.88
992,185624516,0.8823,-0.3672,-0.2666,18.35,-16.22,-14.82
993,185629516,0.8853,-0.3579,-0.2734,17.74,-15.43,-14.70
994,185634516,0.8950,-0.3501,-0.2686,17.13,-14.70,-14.70
995,185639516,0.8926,-0.3403,-0.2695,16.46,-13.84,-14.63
996,185644517,0.8940,-0.3374,-0.2759,15.91,-13.23,-14.57
997,185649516,0.8926,-0.3306,-0.2764,15.00,-12.62,-14.51
998,185654517,0.9028,-0.3286,-0.2773,14.27,-11.77,-14.51
999,185659516,0.9043,-0.3188,-0.2715,13.48,-11.04,-14.33
1000,185664517,0.9082,-0.3140,-0.2759,12.50,-10.37,-14.45
1001,185669516,0.9131,-0.3037,-0.2783,11.59,-9.51,-14.39
1002,185674516,0.9102,-0.3027,-0.2773,10.43,-8.72,-14.39
1003,185679929,0.9160,-0.2954,-0.2832,8.90,-7.74,-14.39
1004,185684516,0.9136,-0.2935,-0.2812,7.87,-7.20,-14.45
1005,185689516,0.9155,-0.2856,-0.2852,6.40,-6.46,-14.51
1006,185694516,0.9141,-0.2837,-0.2905,4.88,-5.73,-14.51
1007,185699516,0.9189,-0.2842,-0.2925,3.29,-5.00,-14.57
1008,185704516,0.9102,-0.2793,-0.2983,1.65,-4.39,-14.51
1009,185709516,0.9062,-0.2764,-0.3062,-0.06,-3.96,-14.51
1010,185714517,0.9062,-0.2739,-0.3047,-1.83,-3.29,-14.45
1011,185719516,0.9087,-0.2793,-0.3076,-3.23,-2.80,-14.33
1012,185724516,0.9111,-0.2769,-0.3105,-4.70,-2.38,-14.33
1013,185729516,0.9028,-0.2739,-0.3096,-6.04,-1.89,-14.21
1014,185734516,0.8984,-0.2734,-0.3140,-6.95,-1.34,-14.02
1015,185740056,0.8970,-0.2690,-0.3066,-7.56,-0.61,-13.90
1016,185744516,0.8955,-0.2686,-0.3101,-7.87,-0.37,-13.60
1017,185749514,0.8940,-0.2676,-0.3125,-7.74,0.24,-13.35
1018,185754516,0.8960,-0.2720,-0.3145,-7.62,0.79,-13.17
1019,185759516,0.8975,-0.2651,-0.3149,-7.44,1.28,-12.93
1020,185764516,0.8911,-0.2734,-0.3125,-6.95,1.89,-12.74
1021,185769516,0.8882,-0.2734,-0.3169,-6.59,2.38,-12.38
1022,185774516,0.8887,-0.2783,-0.3184,-6.10,2.74,-12.01
1023,185779516,0.8853,-0.2769,-0.3110,-5.43,3.60,-11.65
1024,185784516,0.8857,-0.2793,-0.3184,-4.76,4.15,-11.28
1025,185789516,0.8770,-0.2812,-0.3218,-4.02,4.76,-10.91
1026,185794516,0.8730,-0.2856,-0.3188,-3.05,5.24,-10.49
1027,185799516,0.8730,-0.2822,-0.3164,-2.32,5.73,-10.00
1028,185804516,0.8701,-0.2842,-0.3149,-1.22,6.40,-9.57
1029,185809516,0.8687,-0.2886,-0.3140,-0.12,6.89,-9.21
1030,185814516,0.8677,-0.2876,-0.3071,0.85,7.56,-8.84
1031,185819516,0.8696,-0.2847,-0.3076,1.89,7.99,-8.35
1032,185824516,0.8672,-0.2866,-0.3018,2.62,8.48,-7.99
1033,185829516,0.8691,-0.2915,-0.3018,3.41,8.90,-7.68
1034,185834516,0.8740,-0.2944,-0.3027,4.02,9.39,-7.44
1035,185839516,0.8721,-0.2993,-0.2925,4.45,9.76,-7.13
1036,185844517,0.8721,-0.3013,-0.2969,4.76,10.18,-6.77
1037,185849514,0.8721,-0.2998,-0.2993,4.82,10.55,-6.46
1038,185854514,0.8750,-0.3013,-0.2886,4.82,10.79,-6.28
1039,185859518,0.8770,-0.2993,-0.2900,4.88,11.28,-6.10
1040,185864515,0.8784,-0.2954,-0.2910,4.76,11.40,-6.04
1041,185869516,0.8799,-0.2998,-0.2837,4.88,11.52,-5.91
1042,185874515,0.8779,-0.2974,-0.2773,4.82,11.77,-5.79
1043,185879516,0.8789,-0.2964,-0.2754,5.00,12.07,-5.61
1044,185884516,0.8799,-0.2969,-0.2725,4.76,12.07,-5.61
1045,185889516,0.8818,-0.2983,-0.2690,4.82,12.32,-5.61
1046,185894515,0.8838,-0.2974,-0.2764,4.76,12.44,-5.67
1047,185899516,0.8809,-0.2949,-0.2661,4.63,12.50,-5.55
1048,185904515,0.8813,-0.2944,-0.2681,4.45,12.68,-5.67
1049,185909516,0.8818,-0.2954,-0.2603,4.21,12.50,-5.73
1050,185914515,0.8818,-0.2954,-0.2607,4.09,12.68,-5.79
1051,185919516,0.8809,-0.2930,-0.2544,3.66,12.62,-5.79
1052,185924515,0.8789,-0.2964,-0.2510,3.29,12.32,-6.04
1053,185929516,0.8794,-0.2925,-0.2524,2.80,12.26,-6.10
1054,185934515,0.8774,-0.2939,-0.2466,2.38,12.20,-6.10
1055,185939516,0.8804,-0.2910,-0.2549,1.77,12.07,-6.28
1056,185944516,0.8809,-0.2935,-0.2422,1.22,11.95,-6.46
1057,185949516,0.8779,-0.2935,-0.2412,0.61,11.71,-6.46
1058,185954515,0.8838,-0.2881,-0.2344,0.00,11.46,-6.65
1059,185959516,0.8828,-0.2891,-0.2295,-0.55,11.34,-6.71
1060,185964515,0.8882,-0.2900,-0.2256,-1.04,11.10,-6.95
1061,185969516,0.8877,-0.2871,-0.2207,-1.65,11.04,-7.01
1062,185974516,0.8882,-0.2861,-0.2246,-2.13,10.55,-7.26
1063,185979516,0.8838,-0.2871,-0.2192,-2.68,10.18,-7.32
1064,185984516,0.8872,-0.2847,-0.2153,-3.17,9.88,-7.38
1065,185989516,0.8813,-0.2842,-0.2124,-3.60,9.63,-7.50
1066,185994516,0.8813,-0.2871,-0.2173,-3.96,9.39,-7.68
1067,185999516,0.8794,-0.2852,-0.2124,-4.27,9.21,-7.62
1068,186004516,0.8804,-0.2817,-0.2070,-4.51,8.78,-7.62
1069,186009516,0.8774,-0.2812,-0.2036,-4.63,8.35,-7.74
1070,186014516,0.8726,-0.2798,-0.2129,-4.57,8.11,-7.68
1071,186019516,0.8750,-0.2773,-0.2090,-4.39,7.68,-7.62
1072,186024516,0.8706,-0.2764,-0.2075,-4.21,7.44,-7.62
1073,186029516,0.8726,-0.2725,-0.2036,-3.78,6.95,-7.56
1074,186034516,0.8735,-0.2744,-0.2061,-3.54,6.71,-7.56
1075,186039517,0.8716,-0.2739,-0.2041,-3.05,6.40,-7.44
1076,186044516,0.8726,-0.2754,-0.1997,-2.62,6.04,-7.32
1077,186049516,0.8682,-0.2720,-0.2056,-2.01,5.79,-7.20
1078,186054516,0.8706,-0.2729,-0.2002,-1.46,5.37,-7.01
1079,186059516,0.8677,-0.2710,-0.1992,-0.85,5.12,-6.95
1080,186064515,0.8701,-0.2671,-0.1938,-0.12,4.88,-6.65
1081,186069516,0.8647,-0.2676,-0.1973,0.55,4.45,-6.52
1082,186074516,0.8691,-0.2632,-0.1938,1.04,4.15,-6.34
1083,186079516,0.8662,-0.2661,-0.1982,1.59,3.90,-6.22
1084,186084515,0.8701,-0.2642,-0.1948,2.13,3.54,-6.04
1085,186089516,0.8672,-0.2627,-0.1929,2.38,3.23,-5.73
1086,186094516,0.8677,-0.2627,-0.1875,2.74,2.87,-5.61
1087,186099515,0.8667,-0.2646,-0.1948,2.87,2.50,-5.37
1088,186104514,0.8696,-0.2627,-0.1948,2.99,2.20,-5.30
1089,186109516,0.8706,-0.2603,-0.1973,3.11,1.95,-5.06
1090,186114515,0.8721,-0.2627,-0.1948,3.17,1.59,-4.82
1091,186119516,0.8770,-0.2617,-0.1909,3.17,1.28,-4.76
1092,186124514,0.8770,-0.2603,-0.1924,3.17,0.98,-4.70
1093,186129516,0.8804,-0.2661,-0.1929,3.17,0.61,-4.45
1094,186134515,0.8818,-0.2681,-0.1997,3.17,0.37,-4.39
1095,186139516,0.8804,-0.2622,-0.1958,3.11,-0.12,-4.15
1096,186144516,0.8804,-0.2593,-0.2041,3.35,-0.37,-4.15
