# skilleye imu stream v1
# device=xiao_esp32c6 imu=mpu6050 addr=0x68
# rate_hz=200 accel_range_g=16 gyro_range_dps=2000 dlpf_hz=94
# units: accel in g, gyro in deg/s, t_us in microseconds since boot (monotonic)
# no shared clock with the camera -- tap the racket once before each take
# so both recordings share a spike to align on
seq,t_us,ax,ay,az,gx,gy,gz
0,59023028,0.6392,0.7358,0.2578,-4.88,-1.16,-5.12
1,59028334,0.6411,0.7339,0.2549,-6.22,-1.22,-5.18
2,59032983,0.6416,0.7358,0.2549,-7.50,-1.46,-5.18
3,59037980,0.6514,0.7358,0.2563,-8.84,-1.71,-5.43
4,59042981,0.6528,0.7393,0.2539,-10.30,-2.01,-5.61
5,59047984,0.6562,0.7378,0.2529,-11.71,-2.32,-5.73
6,59052981,0.6553,0.7378,0.2495,-13.11,-2.68,-5.91
7,59057982,0.6602,0.7393,0.2559,-14.39,-3.05,-6.22
8,59062982,0.6646,0.7407,0.2573,-15.67,-3.41,-6.22
9,59067980,0.6616,0.7402,0.2490,-16.65,-3.84,-6.52
10,59072982,0.6665,0.7437,0.2500,-17.56,-4.15,-6.77
11,59077982,0.6748,0.7417,0.2505,-18.29,-4.82,-7.01
12,59082984,0.6802,0.7456,0.2480,-18.78,-5.24,-7.26
13,59087981,0.6821,0.7446,0.2388,-19.15,-5.85,-7.50
14,59092981,0.6855,0.7485,0.2422,-19.33,-6.28,-7.87
15,59097982,0.6904,0.7549,0.2407,-19.15,-6.89,-8.11
16,59102982,0.6909,0.7539,0.2490,-18.72,-7.44,-8.35
17,59108007,0.6919,0.7549,0.2422,-18.11,-7.99,-8.78
18,59112982,0.6943,0.7568,0.2422,-17.26,-8.35,-9.02
19,59118004,0.6943,0.7603,0.2397,-16.10,-8.90,-9.33
20,59122982,0.6943,0.7598,0.2368,-14.82,-9.39,-9.45
21,59127980,0.6934,0.7651,0.2388,-13.17,-9.82,-9.88
22,59132982,0.6924,0.7661,0.2437,-11.59,-10.30,-10.12
23,59137982,0.6919,0.7627,0.2412,-9.94,-10.67,-10.24
24,59142981,0.6895,0.7603,0.2427,-7.99,-11.04,-10.49
25,59147980,0.6904,0.7617,0.2363,-6.28,-11.52,-10.43
26,59152982,0.6924,0.7622,0.2334,-4.45,-11.71,-10.67
27,59157982,0.6870,0.7627,0.2300,-2.62,-12.20,-10.85
28,59162982,0.6895,0.7612,0.2314,-0.91,-12.50,-10.79
29,59167980,0.6870,0.7607,0.2314,0.67,-12.80,-10.73
30,59172982,0.6875,0.7642,0.2241,2.13,-13.17,-10.67
31,59177982,0.6860,0.7612,0.2222,3.54,-13.48,-10.61
32,59182982,0.6870,0.7642,0.2188,4.70,-13.78,-10.37
33,59187982,0.6846,0.7681,0.2139,5.85,-14.21,-10.24
34,59192984,0.6812,0.7681,0.2173,6.83,-14.51,-10.06
35,59197984,0.6807,0.7720,0.2095,7.80,-14.76,-9.88
36,59202982,0.6787,0.7729,0.2080,8.60,-15.18,-9.82
37,59208055,0.6782,0.7729,0.2090,9.27,-15.30,-9.51
38,59212981,0.6758,0.7769,0.2061,9.94,-15.61,-9.21
39,59217982,0.6685,0.7783,0.2002,10.49,-15.67,-8.90
40,59222982,0.6709,0.7822,0.2056,10.98,-15.79,-8.66
41,59227982,0.6685,0.7852,0.1958,11.34,-15.98,-8.29
42,59232981,0.6641,0.7861,0.2026,11.65,-16.16,-7.99
43,59237982,0.6660,0.7866,0.1968,11.95,-16.16,-7.68
44,59242981,0.6646,0.7876,0.1943,12.13,-16.40,-7.32
45,59247982,0.6641,0.7871,0.1963,12.20,-16.46,-6.89
46,59252981,0.6558,0.7861,0.1968,12.26,-16.46,-6.46
47,59257982,0.6533,0.7866,0.1855,12.20,-16.34,-5.79
48,59262981,0.6479,0.7915,0.1865,12.20,-16.28,-5.37
49,59267982,0.6460,0.7915,0.1885,12.07,-16.34,-4.88
50,59272981,0.6416,0.7983,0.1851,12.01,-16.22,-4.39
51,59277982,0.6396,0.7944,0.1860,11.83,-15.91,-3.90
52,59282981,0.6367,0.7964,0.1807,11.65,-15.85,-3.29
53,59287982,0.6362,0.7983,0.1792,11.40,-15.67,-2.62
54,59292981,0.6362,0.8008,0.1851,11.16,-15.61,-2.07
55,59298457,0.6377,0.7974,0.1860,10.85,-15.30,-1.59
56,59302983,0.6357,0.7983,0.1797,10.49,-15.00,-0.98
57,59308173,0.6313,0.7954,0.1758,10.24,-14.76,-0.37
58,59312982,0.6270,0.7959,0.1807,10.00,-14.51,0.12
59,59317981,0.6270,0.8003,0.1782,9.39,-14.15,0.73
60,59322982,0.6289,0.7988,0.1802,9.09,-14.02,1.34
61,59327982,0.6284,0.8022,0.1855,8.78,-13.60,1.83
62,59332999,0.6353,0.8071,0.1748,8.29,-13.23,2.44
63,59337982,0.6362,0.8081,0.1694,7.99,-12.93,2.93
64,59342982,0.6392,0.8130,0.1816,7.87,-12.50,3.35
65,59347982,0.6401,0.8145,0.1733,7.44,-12.20,3.84
66,59352980,0.6406,0.8135,0.1768,7.20,-11.71,4.21
67,59358235,0.6416,0.8145,0.1758,6.89,-11.52,4.82
68,59362982,0.6431,0.8101,0.1753,6.83,-11.10,5.12
69,59368266,0.6396,0.8105,0.1733,6.59,-10.79,5.55
70,59372983,0.6450,0.8130,0.1768,6.52,-10.49,5.85
71,59377982,0.6431,0.8110,0.1694,6.34,-10.18,6.34
72,59382982,0.6421,0.8071,0.1753,6.16,-9.82,6.52
73,59387981,0.6470,0.8057,0.1675,6.04,-9.70,6.83
74,59392983,0.6494,0.8047,0.1689,5.98,-9.27,7.13
75,59397981,0.6489,0.7969,0.1606,5.79,-8.90,7.38
76,59402982,0.6538,0.7983,0.1694,5.67,-8.72,7.56
77,59407982,0.6494,0.7974,0.1733,5.55,-8.54,7.99
78,59412982,0.6528,0.7891,0.1685,5.43,-8.23,8.17
79,59417981,0.6543,0.7861,0.1665,5.18,-8.11,8.35
80,59422982,0.6597,0.7842,0.1675,4.88,-7.87,8.54
81,59427982,0.6567,0.7817,0.1685,4.76,-7.50,8.66
82,59433199,0.6621,0.7769,0.1655,4.57,-7.50,8.90
83,59437982,0.6592,0.7729,0.1655,4.27,-7.38,8.90
84,59442981,0.6631,0.7700,0.1650,3.84,-7.32,9.02
85,59448282,0.6646,0.7676,0.1689,3.66,-7.13,9.15
86,59452982,0.6646,0.7617,0.1602,3.11,-7.20,9.09
87,59457982,0.6611,0.7549,0.1631,2.74,-7.13,9.09
88,59462982,0.6616,0.7505,0.1685,2.26,-7.07,9.09
89,59467981,0.6621,0.7480,0.1670,1.59,-7.07,9.09
90,59472982,0.6582,0.7451,0.1719,0.98,-7.13,8.90
91,59477983,0.6621,0.7397,0.1616,0.37,-7.13,8.90
92,59482982,0.6572,0.7393,0.1660,-0.24,-7.20,8.84
93,59487980,0.6592,0.7339,0.1685,-0.91,-7.38,8.72
94,59492981,0.6548,0.7339,0.1699,-1.65,-7.20,8.48
95,59497983,0.6621,0.7310,0.1719,-2.20,-7.38,8.29
96,59503187,0.6616,0.7368,0.1738,-2.80,-7.44,7.99
97,59507982,0.6621,0.7368,0.1724,-3.35,-7.50,7.62
98,59512982,0.6567,0.7397,0.1714,-3.90,-7.56,7.38
99,59517982,0.6616,0.7451,0.1699,-4.33,-7.50,7.07
100,59522981,0.6509,0.7402,0.1768,-4.63,-7.62,6.59
101,59527982,0.6436,0.7441,0.1797,-5.12,-7.62,6.10
102,59532981,0.6440,0.7402,0.1797,-5.30,-7.62,5.73
103,59537980,0.6401,0.7476,0.1826,-5.67,-7.56,5.30
104,59542982,0.6372,0.7432,0.1860,-5.91,-7.44,4.76
105,59547982,0.6309,0.7437,0.1846,-6.16,-7.38,4.21
106,59552982,0.6245,0.7422,0.1885,-6.40,-7.20,3.78
107,59558166,0.6191,0.7417,0.1978,-6.65,-7.07,3.35
108,59562982,0.6147,0.7437,0.2002,-7.01,-6.77,2.74
109,59567982,0.6143,0.7417,0.2036,-7.13,-6.40,2.32
110,59572983,0.6099,0.7407,0.2075,-7.50,-6.10,1.77
111,59578306,0.6099,0.7446,0.2075,-7.99,-5.73,1.34
112,59582982,0.6069,0.7397,0.2056,-8.60,-5.43,0.79
113,59587982,0.6050,0.7451,0.2065,-9.21,-5.06,0.43
114,59592982,0.6055,0.7480,0.2070,-9.82,-4.76,-0.12
115,59597981,0.6045,0.7441,0.2075,-10.67,-4.33,-0.61
116,59602982,0.6060,0.7451,0.2134,-11.46,-3.90,-1.04
117,59607982,0.6045,0.7432,0.2163,-12.38,-3.66,-1.52
118,59612982,0.6074,0.7456,0.2144,-13.41,-3.29,-1.89
119,59617982,0.6045,0.7485,0.2114,-14.15,-3.05,-2.32
120,59622982,0.6025,0.7515,0.2085,-14.94,-2.68,-2.74
121,59627982,0.6001,0.7544,0.2085,-16.10,-2.26,-3.17
122,59632983,0.6001,0.7534,0.2114,-16.83,-1.89,-3.48
123,59638149,0.6030,0.7622,0.2124,-17.99,-1.71,-3.96
124,59642981,0.6025,0.7661,0.2085,-18.60,-1.34,-4.33
125,59647982,0.6025,0.7725,0.2114,-19.51,-0.91,-4.76
126,59653289,0.6055,0.7715,0.2134,-20.37,-0.43,-5.06
127,59657985,0.6025,0.7734,0.2139,-20.79,-0.24,-5.37
128,59662980,0.6025,0.7778,0.2129,-21.34,0.37,-5.91
129,59668511,0.6021,0.7803,0.2173,-21.77,0.85,-6.10
130,59672982,0.6001,0.7783,0.2236,-21.95,1.34,-6.22
131,59677982,0.6064,0.7852,0.2202,-21.83,1.83,-6.52
132,59682983,0.6108,0.7852,0.2188,-21.52,2.26,-6.65
133,59687980,0.6108,0.7915,0.2188,-20.73,3.05,-6.71
134,59692982,0.6089,0.7969,0.2158,-20.00,3.54,-6.89
135,59697982,0.6030,0.8037,0.2051,-18.84,4.09,-6.89
136,59702983,0.5991,0.8105,0.2134,-17.26,4.76,-6.95
137,59707981,0.5938,0.8188,0.2197,-15.49,5.55,-6.83
138,59712982,0.5942,0.8193,0.2085,-13.54,6.34,-6.77
139,59717982,0.5918,0.8203,0.2070,-11.40,6.95,-6.52
140,59722983,0.5957,0.8149,0.2095,-9.39,7.80,-6.46
141,59727981,0.5938,0.8149,0.2085,-7.32,8.66,-6.10
142,59732982,0.5962,0.8145,0.1997,-5.30,9.39,-5.73
143,59737982,0.5938,0.8149,0.1958,-3.29,10.12,-5.24
144,59743375,0.5854,0.8184,0.1904,-1.10,11.04,-4.76
145,59748316,0.5771,0.8154,0.1919,0.43,11.71,-4.27
146,59752982,0.5669,0.8154,0.1919,2.13,12.50,-3.78
147,59757982,0.5610,0.8159,0.1934,3.84,13.23,-3.17
148,59762982,0.5625,0.8174,0.1914,5.18,13.96,-2.80
149,59767981,0.5649,0.8164,0.1914,6.22,14.63,-2.20
150,59772982,0.5684,0.8174,0.1812,6.89,15.43,-1.71
151,59777981,0.5728,0.8188,0.1797,7.44,15.91,-1.34
152,59782980,0.5811,0.8301,0.1631,7.56,16.46,-0.98
153,59787981,0.5811,0.8296,0.1504,7.44,16.89,-0.73
154,59792982,0.5840,0.8325,0.1440,7.13,17.13,-0.43
155,59797982,0.5776,0.8394,0.1357,6.71,17.44,-0.37
156,59802982,0.5767,0.8413,0.1304,5.98,17.56,-0.30
157,59807982,0.5703,0.8364,0.1274,5.55,17.50,-0.12
158,59812982,0.5684,0.8359,0.1304,4.88,17.68,0.00
159,59817982,0.5640,0.8325,0.1255,4.02,17.68,-0.06
160,59822981,0.5645,0.8247,0.1338,2.99,17.74,-0.06
161,59827982,0.5703,0.8208,0.1328,1.83,17.80,0.06
162,59832981,0.5747,0.8130,0.1284,0.61,17.80,0.06
163,59837980,0.5791,0.8110,0.1313,-0.85,17.68,0.12
164,59842983,0.5811,0.8062,0.1304,-2.44,17.68,0.18
165,59847982,0.5815,0.8076,0.1235,-3.96,17.44,0.00
166,59852980,0.5894,0.8105,0.1191,-5.79,17.07,-0.06
167,59857984,0.6045,0.8101,0.1030,-7.44,16.83,-0.12
168,59862980,0.6123,0.8096,0.1001,-9.27,16.52,-0.12
169,59867982,0.6338,0.8130,0.0947,-10.79,15.98,-0.43
170,59872980,0.6416,0.8145,0.0845,-12.50,15.37,-0.67
171,59877982,0.6465,0.8242,0.0825,-14.15,14.76,-1.04
172,59882980,0.6567,0.8262,0.0771,-15.85,14.09,-1.22
173,59888153,0.6665,0.8286,0.0698,-17.32,13.29,-1.77
174,59892982,0.6680,0.8374,0.0654,-18.84,12.74,-2.20
175,59897982,0.6709,0.8374,0.0649,-20.12,12.01,-2.74
176,59902981,0.6724,0.8389,0.0610,-21.40,11.16,-3.35
177,59907983,0.6704,0.8442,0.0601,-22.74,10.30,-3.96
178,59912981,0.6714,0.8433,0.0591,-23.84,9.51,-4.63
179,59917982,0.6709,0.8379,0.0713,-25.12,8.90,-5.24
180,59922982,0.6768,0.8350,0.0796,-26.34,8.17,-5.98
181,59927982,0.6772,0.8306,0.0776,-27.44,7.38,-6.59
182,59932980,0.6772,0.8276,0.0825,-28.23,6.95,-7.20
183,59937984,0.6782,0.8228,0.0781,-29.27,6.16,-7.87
184,59942980,0.6792,0.8228,0.0781,-29.88,5.67,-8.35
185,59947980,0.6812,0.8179,0.0757,-30.37,5.00,-8.96
186,59952982,0.6855,0.8203,0.0776,-30.79,4.45,-9.57
187,59957982,0.7207,0.8203,-0.0312,-31.59,3.17,-10.00
188,59962982,0.8750,0.7891,-0.2393,-33.96,-1.10,-10.61
189,59967981,0.8452,0.7651,-0.0488,-37.62,-6.34,-10.85
190,59972982,0.7646,0.7402,0.0293,-39.94,-10.00,-11.04
191,59977982,0.7104,0.7417,0.0591,-41.40,-12.74,-11.04
192,59982983,0.6797,0.7422,0.1279,-41.95,-14.39,-11.04
193,59987980,0.6880,0.7354,0.1338,-41.40,-15.61,-10.98
194,59992982,0.7192,0.7192,0.1011,-40.91,-16.89,-10.79
195,59997982,0.7212,0.7129,0.0981,-40.30,-18.54,-10.49
196,60002981,0.7236,0.7031,0.0894,-39.57,-20.18,-10.12
197,60007982,0.7222,0.7070,0.0728,-38.96,-21.83,-9.63
198,60012981,0.7236,0.7056,0.0522,-38.17,-24.09,-9.09
199,60017982,0.7266,0.7114,0.0537,-37.26,-26.16,-8.48
200,60022981,0.6973,0.7202,0.0742,-35.79,-27.93,-7.87
201,60027984,0.6426,0.7314,0.0859,-33.41,-29.39,-7.20
202,60032981,0.6094,0.7432,0.1133,-30.18,-30.61,-6.65
203,60038289,0.5903,0.7446,0.1333,-26.46,-31.16,-6.16
204,60042983,0.5815,0.7485,0.1631,-22.38,-31.52,-5.55
205,60048280,0.5781,0.7510,0.1748,-17.99,-31.10,-4.88
206,60052982,0.5659,0.7559,0.1836,-13.23,-30.91,-4.21
207,60057983,0.5635,0.7515,0.1987,-8.48,-30.37,-3.54
208,60062982,0.5806,0.7520,0.2183,-3.78,-29.51,-2.80
209,60067981,0.5615,0.7568,0.2031,0.98,-28.72,-2.13
210,60072982,0.5420,0.7666,0.2021,5.37,-27.87,-1.52
211,60077982,0.5308,0.7598,0.2021,9.51,-26.95,-0.85
212,60082982,0.5308,0.7520,0.2148,12.93,-26.22,-0.18
213,60087981,0.5396,0.7476,0.2153,15.55,-25.12,0.49
214,60092982,0.5376,0.7456,0.2144,17.56,-24.33,1.10
215,60097982,0.5449,0.7393,0.2183,18.96,-23.48,1.71
216,60103914,0.5400,0.7451,0.2275,19.02,-22.44,2.32
217,60107983,0.5405,0.7446,0.2207,18.66,-21.89,2.80
218,60112982,0.5454,0.7495,0.2212,17.26,-21.04,3.05
219,60117983,0.5474,0.7549,0.2349,15.12,-20.30,3.41
220,60122982,0.5513,0.7544,0.2554,12.44,-19.63,3.54
221,60127983,0.5635,0.7534,0.2642,8.96,-19.02,3.78
222,60132982,0.5728,0.7471,0.2764,5.24,-18.17,3.96
223,60137982,0.5854,0.7500,0.2842,0.79,-17.38,4.02
224,60142982,0.6011,0.7490,0.2886,-3.78,-16.71,4.15
225,60147981,0.6138,0.7563,0.2866,-8.60,-16.28,4.15
226,60152982,0.6245,0.7603,0.2886,-13.54,-16.10,4.33
227,60157982,0.6328,0.7676,0.3013,-18.54,-15.85,4.45
228,60162982,0.6411,0.7720,0.3042,-23.41,-15.73,4.51
229,60167983,0.6460,0.7769,0.3145,-28.11,-15.85,4.57
230,60172982,0.6543,0.7812,0.3101,-32.50,-15.91,4.51
231,60178431,0.6641,0.7915,0.3174,-36.83,-15.98,4.45
232,60182982,0.6797,0.7949,0.3228,-40.61,-16.22,4.21
233,60187981,0.6885,0.8032,0.3369,-44.02,-16.22,4.21
234,60192983,0.6943,0.8076,0.3433,-46.95,-16.40,3.96
235,60197983,0.6895,0.8311,0.3545,-49.02,-16.28,3.48
236,60202982,0.6924,0.8765,0.3628,-50.37,-16.22,2.44
237,60207982,0.7153,0.8311,0.3774,-50.85,-16.22,0.85
238,60212982,0.7246,0.7788,0.4238,-51.22,-15.73,-0.12
239,60218435,0.7036,0.7725,0.4336,-51.40,-15.12,-0.73
240,60222982,0.6836,0.7788,0.4297,-51.22,-14.63,-1.10
241,60227982,0.6704,0.7710,0.4443,-50.49,-14.27,-1.59
242,60232982,0.6738,0.7607,0.4658,-49.45,-13.72,-1.89
243,60238478,0.6875,0.7510,0.4868,-48.11,-12.99,-2.13
244,60242982,0.6948,0.7603,0.4956,-46.59,-12.38,-2.26
245,60247982,0.7012,0.7651,0.5015,-44.70,-11.89,-2.50
246,60252983,0.7021,0.7686,0.5068,-43.05,-11.40,-2.87
247,60258286,0.7080,0.7700,0.5239,-40.49,-10.49,-3.23
248,60262982,0.7070,0.7764,0.5229,-38.78,-9.88,-3.78
249,60267982,0.7168,0.7793,0.5312,-36.71,-9.15,-4.45
250,60272982,0.7275,0.7749,0.5439,-35.00,-8.17,-5.18
251,60277980,0.7397,0.7754,0.5410,-33.23,-6.89,-5.98
252,60282982,0.7437,0.7759,0.5405,-32.50,-6.16,-6.65
253,60287982,0.7563,0.7803,0.5405,-31.77,-5.06,-7.26
254,60293077,0.7637,0.7778,0.5420,-31.34,-4.15,-7.99
255,60297982,0.7729,0.7827,0.5430,-31.16,-3.23,-8.78
256,60302982,0.7808,0.7900,0.5444,-30.98,-2.32,-9.51
257,60308116,0.7935,0.8062,0.5483,-31.16,-1.34,-10.37
258,60312982,0.8062,0.8115,0.5562,-31.04,-0.37,-11.40
259,60317982,0.8076,0.8208,0.5649,-31.04,0.61,-11.95
260,60322982,0.8105,0.8237,0.5654,-31.16,1.59,-12.80
261,60327982,0.8174,0.8345,0.5679,-31.40,2.44,-13.60
262,60332982,0.8179,0.8442,0.5674,-31.71,3.29,-14.39
263,60338335,0.8701,0.8374,0.5557,-32.20,3.78,-15.06
264,60342983,0.8438,0.8555,0.5557,-32.68,4.09,-15.30
265,60347981,0.8149,0.8726,0.5503,-33.29,4.45,-15.85
266,60352983,0.7969,0.8647,0.5454,-34.09,4.33,-16.22
267,60358049,0.7817,0.8535,0.5464,-35.12,4.27,-16.40
268,60362982,0.7617,0.8340,0.5601,-36.65,4.21,-16.46
269,60367982,0.7437,0.8135,0.5640,-38.66,4.15,-16.34
270,60372982,0.7236,0.7983,0.5630,-41.04,4.02,-16.04
271,60377982,0.6992,0.7817,0.5615,-43.90,3.72,-15.73
272,60382982,0.6748,0.7642,0.5762,-47.13,3.17,-15.24
273,60387982,0.6528,0.7441,0.5957,-50.73,2.87,-14.70
274,60392982,0.6338,0.7246,0.6045,-54.45,2.50,-14.15
275,60398040,0.6196,0.7065,0.6167,-58.54,2.01,-13.54
276,60402982,0.6055,0.6895,0.6191,-62.80,1.52,-12.80
277,60407981,0.5874,0.6650,0.6108,-67.50,0.91,-11.95
278,60412982,0.5737,0.6489,0.6128,-72.32,-0.37,-11.04
279,60417982,0.5742,0.6333,0.6099,-77.07,-1.95,-10.06
280,60422983,0.5869,0.6240,0.6553,-81.77,-3.66,-9.09
281,60427982,0.5938,0.6113,0.6787,-85.98,-5.06,-8.11
282,60432981,0.6001,0.6172,0.7002,-89.76,-6.22,-7.13
283,60437982,0.6084,0.6323,0.7251,-93.35,-6.89,-6.34
284,60442981,0.6133,0.6470,0.7588,-96.10,-7.07,-5.91
285,60447982,0.6167,0.6714,0.7759,-98.29,-6.52,-5.79
286,60452981,0.6001,0.6763,0.7266,-99.94,-5.85,-6.10
287,60457982,0.5879,0.6650,0.6753,-101.34,-5.91,-6.40
288,60462981,0.5952,0.6616,0.6489,-102.32,-6.46,-6.59
289,60467982,0.6089,0.6455,0.6187,-102.93,-8.11,-6.65
290,60472982,0.6177,0.6147,0.5981,-103.29,-10.98,-6.59
291,60477982,0.6235,0.5815,0.5947,-103.35,-14.51,-6.04
292,60482981,0.6328,0.5562,0.6528,-103.17,-18.41,-5.30
293,60487982,0.6309,0.5435,0.7080,-102.99,-21.95,-4.51
294,60492981,0.6147,0.5474,0.7549,-102.56,-25.12,-3.60
295,60497980,0.5942,0.5645,0.7998,-101.95,-27.74,-2.99
296,60502982,0.5757,0.5864,0.8345,-101.22,-29.51,-3.11
297,60507982,0.5625,0.5938,0.8569,-100.55,-31.04,-3.41
298,60512982,0.5601,0.5928,0.8667,-99.94,-32.07,-4.27
299,60517982,0.5664,0.5894,0.8691,-99.57,-33.11,-5.37
300,60522982,0.5684,0.5635,0.8721,-99.63,-34.09,-6.46
301,60527982,0.5786,0.5435,0.8608,-100.00,-35.30,-7.32
302,60532982,0.5928,0.5171,0.8555,-100.55,-36.52,-7.93
303,60537982,0.6147,0.5117,0.8584,-100.85,-37.44,-8.23
304,60542982,0.6167,0.5161,0.8667,-101.28,-38.29,-8.54
305,60547982,0.6152,0.5254,0.8618,-101.65,-39.15,-8.54
306,60552983,0.6211,0.5288,0.8647,-101.83,-39.88,-8.60
307,60557981,0.6152,0.5220,0.8560,-101.65,-40.37,-8.48
308,60562982,0.5991,0.5103,0.8477,-101.16,-40.79,-8.29
309,60567982,0.5947,0.5112,0.8374,-100.55,-41.22,-7.74
310,60572982,0.5796,0.5029,0.8335,-99.39,-41.65,-6.83
311,60578093,0.5713,0.5054,0.8311,-97.68,-42.26,-5.43
312,60582982,0.5288,0.4834,0.8486,-96.46,-42.74,-4.57
313,60587982,0.5049,0.4561,0.8550,-95.12,-43.17,-3.17
314,60592982,0.5103,0.4692,0.8501,-93.35,-43.84,-1.83
315,60597982,0.5625,0.6006,0.9072,-92.50,-44.21,-0.73
316,60602982,0.5542,0.5361,0.9395,-93.35,-44.39,-0.06
317,60607982,0.5264,0.4707,0.9570,-95.12,-44.76,1.34
318,60612982,0.4956,0.4175,0.9248,-97.32,-45.61,2.99
319,60617982,0.4790,0.3604,0.9146,-99.70,-46.77,4.70
320,60622982,0.4292,0.3364,0.8398,-103.96,-48.23,6.34
321,60627982,0.4526,0.3354,0.7979,-109.70,-49.63,7.44
322,60632982,0.4688,0.3325,0.8003,-116.71,-50.73,7.99
323,60637982,0.4800,0.3179,0.7437,-124.63,-51.46,8.17
324,60642982,0.4761,0.3110,0.6904,-133.23,-51.83,7.74
325,60647980,0.4658,0.2993,0.6729,-142.38,-51.71,6.77
326,60652982,0.4683,0.2896,0.6680,-151.71,-51.04,5.61
327,60657981,0.4805,0.2632,0.6479,-161.40,-49.88,4.21
328,60662982,0.5000,0.2598,0.6372,-171.34,-48.41,2.87
329,60668475,0.5205,0.2563,0.6343,-182.99,-46.10,0.55
330,60672982,0.5381,0.2451,0.6499,-190.61,-44.27,-0.98
331,60677982,0.5796,0.2598,0.6621,-199.82,-41.77,-2.87
332,60682982,0.6196,0.2920,0.6880,-208.66,-39.09,-4.88
333,60687982,0.6406,0.3018,0.7090,-216.83,-36.40,-7.07
334,60692982,0.6514,0.2930,0.7227,-224.27,-33.90,-8.96
335,60697982,0.6528,0.3081,0.7422,-231.04,-31.89,-10.85
336,60702983,0.6538,0.3213,0.7510,-236.95,-30.06,-12.56
337,60708426,0.6455,0.3149,0.7544,-242.68,-28.54,-14.63
338,60712983,0.6338,0.3188,0.7617,-245.73,-27.50,-15.91
339,60717982,0.5654,0.1978,0.7217,-249.21,-26.22,-17.38
340,60722982,0.5732,0.1714,0.7432,-253.54,-25.12,-18.66
341,60727982,0.5781,0.1948,0.7842,-257.44,-23.66,-20.37
342,60732980,0.5854,0.2144,0.7920,-260.61,-22.01,-21.71
343,60737982,0.5938,0.2378,0.7803,-262.74,-20.37,-23.11
344,60742982,0.5674,0.2212,0.7969,-263.90,-18.78,-24.33
345,60747981,0.5552,0.2041,0.8247,-264.09,-17.13,-25.43
346,60752982,0.5522,0.1655,0.8208,-263.29,-15.49,-26.40
347,60757980,0.5430,0.1265,0.8115,-261.16,-13.90,-27.13
348,60762983,0.5312,0.1270,0.8550,-257.56,-12.32,-27.99
349,60768361,0.5195,0.1616,0.9219,-252.62,-10.85,-28.96
350,60772982,0.4756,0.2021,0.9956,-247.38,-9.76,-30.00
351,60777982,0.5117,0.1885,0.9805,-242.93,-9.45,-30.91
352,60782982,0.5742,0.1987,0.9849,-238.72,-9.82,-31.52
353,60787982,0.5479,0.2090,1.0303,-233.90,-10.43,-31.83
354,60792982,0.4912,0.1963,1.0757,-229.51,-10.91,-32.26
355,60798345,0.4668,0.1655,1.1108,-225.73,-11.46,-32.74
356,60802984,0.4688,0.1274,1.1509,-222.62,-12.50,-33.17
357,60807982,0.4761,0.0947,1.1504,-219.94,-13.84,-33.72
358,60812981,0.4766,0.0625,1.1812,-217.93,-15.24,-34.39
359,60817982,0.5000,0.0591,1.1611,-216.65,-16.34,-35.30
360,60822981,0.5049,0.0547,1.1846,-215.30,-17.56,-36.34
361,60827982,0.5063,0.0317,1.2188,-214.21,-18.54,-37.62
362,60832982,0.5137,0.0005,1.2485,-213.66,-19.45,-38.90
363,60837980,0.5547,-0.0718,1.3037,-213.29,-20.49,-40.18
364,60842982,0.5957,-0.1211,1.3350,-212.80,-21.65,-41.52
365,60847982,0.5972,-0.1592,1.3604,-212.32,-23.11,-42.80
366,60852982,0.5889,-0.1885,1.3921,-211.95,-24.57,-44.33
367,60857981,0.5840,-0.1909,1.3667,-211.34,-26.28,-46.16
368,60862982,0.5488,-0.2383,1.3950,-210.91,-28.11,-47.99
369,60867982,0.5322,-0.2856,1.4395,-210.43,-30.06,-49.76
370,60872981,0.5088,-0.3013,1.4526,-210.24,-32.07,-51.71
371,60877980,0.4868,-0.3042,1.4321,-210.43,-33.84,-53.41
372,60882982,0.4946,-0.2925,1.4312,-211.71,-36.40,-55.98
373,60887982,0.5054,-0.2788,1.4458,-213.05,-37.93,-57.87
374,60892982,0.5112,-0.2759,1.4380,-214.88,-39.82,-60.18
375,60897981,0.5107,-0.2686,1.4473,-217.20,-41.83,-62.50
376,60902983,0.4756,-0.2563,1.4507,-219.39,-43.48,-64.70
377,60907982,0.5073,-0.2261,1.4731,-222.07,-45.18,-67.01
378,60912982,0.5669,-0.2139,1.4702,-225.00,-46.77,-69.02
379,60918048,0.5889,-0.2148,1.4854,-227.68,-48.23,-71.16
380,60922982,0.6245,-0.1929,1.4854,-230.06,-49.70,-72.99
381,60927982,0.6626,-0.1445,1.4497,-231.71,-51.34,-74.88
382,60932982,0.6294,-0.1523,1.5044,-232.07,-52.50,-76.52
383,60937981,0.5991,-0.1699,1.5054,-231.89,-53.72,-77.99
384,60942982,0.6177,-0.1455,1.4712,-231.22,-55.37,-79.27
385,60948010,0.6450,-0.1284,1.4438,-229.76,-57.13,-80.79
386,60952982,0.6582,-0.1421,1.4346,-227.99,-58.96,-81.89
387,60957982,0.6465,-0.1436,1.4380,-225.79,-60.49,-82.93
388,60962982,0.6279,-0.1421,1.4136,-222.99,-61.89,-83.78
389,60967981,0.6455,-0.1392,1.4004,-219.88,-63.35,-84.51
390,60972982,0.6489,-0.1499,1.3916,-216.71,-64.63,-85.00
391,60977982,0.6655,-0.1274,1.3838,-213.54,-65.79,-85.12
392,60982982,0.6733,-0.1113,1.3608,-210.30,-66.71,-85.18
393,60987981,0.6646,-0.1050,1.3647,-207.01,-67.93,-85.00
394,60992982,0.6558,-0.0869,1.3657,-203.78,-69.02,-84.57
395,60997982,0.6533,-0.0952,1.3481,-200.73,-70.30,-83.96
396,61002982,0.6343,-0.0781,1.3530,-197.99,-71.22,-83.23
397,61007980,0.6499,-0.0947,1.3569,-195.55,-72.26,-82.56
398,61012980,0.6621,-0.0908,1.3682,-193.72,-72.87,-81.71
399,61017983,0.6182,-0.0864,1.4307,-192.62,-72.74,-80.79
400,61022982,0.6904,-0.0806,1.2920,-192.26,-72.99,-79.82
401,61027981,0.7354,-0.0728,1.2295,-192.20,-74.63,-79.15
402,61032982,0.7329,-0.0518,1.2715,-192.07,-75.79,-78.54
403,61037982,0.7295,-0.0410,1.2617,-192.20,-77.07,-77.68
404,61042982,0.7095,-0.0142,1.2139,-192.32,-78.78,-76.89
405,61047982,0.6831,-0.0015,1.2075,-192.32,-80.37,-76.22
406,61052982,0.6836,0.0010,1.2158,-192.38,-81.77,-75.55
407,61058134,0.6909,0.0000,1.1753,-192.56,-83.35,-74.88
408,61062982,0.7183,-0.0181,1.1484,-192.68,-85.06,-74.02
409,61067982,0.7183,-0.0166,1.1509,-193.05,-86.65,-73.11
410,61072982,0.6836,-0.0005,1.1875,-193.72,-87.80,-72.20
411,61077981,0.6763,0.0132,1.1758,-194.39,-88.48,-71.46
412,61082982,0.6729,0.0103,1.1582,-195.18,-89.09,-70.43
413,61087982,0.6758,0.0156,1.1431,-196.28,-89.27,-69.33
414,61092982,0.6826,0.0195,1.1250,-197.44,-89.39,-68.35
415,61097981,0.6914,0.0273,1.1030,-198.35,-89.63,-67.32
416,61102982,0.6909,0.0425,1.0762,-199.21,-90.12,-66.34
417,61107982,0.6943,0.0508,1.0581,-200.12,-90.55,-65.67
418,61112982,0.6909,0.0669,1.0415,-200.55,-90.55,-64.82
419,61117983,0.6904,0.0703,1.0195,-201.04,-91.10,-64.09
420,61122983,0.6904,0.0698,0.9863,-201.04,-91.59,-63.41
421,61127982,0.6885,0.0669,0.9673,-201.22,-91.65,-62.44
422,61132982,0.6787,0.0684,0.9648,-201.04,-92.44,-61.65
423,61137981,0.6841,0.0737,0.9448,-200.91,-92.74,-60.55
424,61142982,0.6724,0.0806,0.9370,-200.43,-92.80,-59.76
425,61147982,0.6792,0.0889,0.9204,-200.24,-92.62,-58.90
426,61152982,0.6865,0.0918,0.8984,-199.76,-92.20,-57.87
427,61157981,0.6846,0.0952,0.8804,-199.15,-92.32,-56.95
428,61162982,0.6963,0.1035,0.8633,-198.54,-92.56,-56.28
429,61167981,0.6924,0.1064,0.8433,-197.68,-92.56,-55.37
430,61172983,0.6914,0.1182,0.8228,-196.71,-92.20,-54.63
431,61177982,0.6709,0.1616,0.8223,-195.61,-92.20,-54.27
432,61182982,0.6636,0.1899,0.8052,-194.45,-92.32,-54.57
433,61187981,0.6519,0.1650,0.8003,-193.11,-91.46,-55.18
434,61192983,0.6924,0.1187,0.7168,-192.13,-91.59,-55.61
435,61198417,0.7119,0.1440,0.7153,-190.67,-91.46,-55.85
436,61202983,0.7051,0.1011,0.7437,-189.09,-90.91,-55.55
437,61207982,0.6958,0.0723,0.7222,-187.38,-89.94,-55.00
438,61212983,0.7148,0.0835,0.6523,-185.67,-88.90,-54.02
439,61217980,0.7271,0.0620,0.6704,-183.96,-88.23,-53.05
440,61222980,0.7222,0.0957,0.6543,-181.95,-87.13,-51.95
441,61227982,0.7422,0.1235,0.6201,-180.18,-85.98,-51.04
442,61232981,0.7451,0.1260,0.6274,-178.23,-84.88,-50.18
443,61237980,0.7437,0.1484,0.5908,-176.34,-83.60,-49.45
444,61242982,0.7690,0.1318,0.5513,-174.33,-82.74,-48.54
445,61247982,0.7637,0.1431,0.5405,-171.83,-81.95,-47.38
446,61252981,0.7480,0.1572,0.5376,-168.78,-80.79,-46.22
447,61257982,0.7495,0.1616,0.5176,-165.49,-79.88,-45.00
448,61262981,0.7754,0.1562,0.5073,-161.46,-78.66,-43.54
449,61267980,0.7827,0.1558,0.4829,-156.95,-77.62,-41.77
450,61272982,0.8071,0.1465,0.4668,-152.44,-76.10,-40.12
451,61277982,0.8047,0.1313,0.4546,-148.48,-74.63,-38.41
452,61282981,0.8066,0.1260,0.4473,-144.45,-73.17,-36.77
453,61287982,0.8149,0.1216,0.4453,-140.79,-71.46,-34.94
454,61292982,0.8145,0.1108,0.4224,-137.50,-69.94,-33.35
455,61297982,0.8105,0.0928,0.4170,-134.82,-68.66,-31.71
456,61302982,0.8110,0.0820,0.4082,-132.80,-67.26,-30.12
457,61307982,0.8198,0.0669,0.3950,-131.65,-66.22,-28.66
458,61312982,0.8320,0.0649,0.3823,-131.04,-65.18,-27.44
459,61317980,0.8311,0.0659,0.3828,-131.10,-64.33,-26.28
460,61323236,0.8667,0.0791,0.3877,-131.71,-63.05,-25.49
461,61327983,0.8872,0.1084,0.3765,-132.32,-62.01,-24.70
462,61332982,0.9038,0.1123,0.3760,-133.23,-60.49,-23.90
463,61337982,0.9106,0.1353,0.3740,-134.51,-58.72,-23.17
464,61342982,0.9268,0.1299,0.3574,-135.79,-57.13,-22.50
465,61347981,0.9297,0.1621,0.3428,-137.32,-55.37,-21.95
466,61352983,0.9634,0.1611,0.3271,-138.41,-53.78,-21.46
467,61358433,0.9580,0.1875,0.3130,-139.76,-52.26,-20.79
468,61362982,0.9458,0.2046,0.3022,-140.61,-51.40,-20.37
469,61368041,0.9360,0.2183,0.2949,-141.22,-50.12,-19.94
470,61372982,0.9297,0.2095,0.2832,-142.01,-49.39,-19.45
471,61378250,0.9307,0.1899,0.2563,-142.99,-48.66,-18.96
472,61382982,0.9126,0.1694,0.2432,-143.96,-48.35,-18.54
473,61387982,0.9326,0.1226,0.2402,-145.55,-48.05,-18.17
474,61392982,0.9209,0.0996,0.2314,-147.99,-47.68,-17.99
475,61397981,0.9180,0.1177,0.2153,-150.79,-47.20,-17.93
476,61402982,0.9282,0.1328,0.2007,-153.78,-47.07,-18.23
477,61407982,0.9443,0.1313,0.1934,-156.65,-46.83,-18.66
478,61412982,0.9600,0.1357,0.1655,-159.76,-46.46,-19.02
479,61417980,0.9551,0.1431,0.1577,-162.68,-46.28,-19.45
480,61422980,0.9565,0.1445,0.1587,-165.91,-45.73,-20.24
481,61427984,0.9634,0.1479,0.1450,-169.09,-45.06,-20.98
482,61432981,0.9707,0.1528,0.1235,-172.07,-44.57,-21.65
483,61437982,0.9731,0.1543,0.1064,-175.30,-43.96,-22.50
484,61442981,0.9639,0.1597,0.0996,-178.23,-43.66,-23.29
485,61447982,0.9634,0.1665,0.0864,-181.16,-43.11,-24.09
486,61452982,0.9673,0.1641,0.0713,-183.90,-42.68,-25.18
487,61457982,0.9619,0.1670,0.0698,-186.40,-42.26,-26.28
488,61462981,0.9600,0.1641,0.0596,-188.72,-41.83,-27.20
489,61467982,0.9658,0.1582,0.0425,-190.37,-41.40,-28.35
490,61472981,0.9644,0.1597,0.0342,-191.95,-40.85,-29.45
491,61477982,0.9604,0.1646,0.0229,-192.93,-40.12,-30.18
492,61482982,0.9536,0.1704,0.0283,-193.78,-39.45,-31.16
493,61487982,0.9575,0.1714,0.0327,-194.15,-38.35,-31.89
494,61492982,0.9517,0.1738,0.0225,-193.96,-37.38,-32.87
495,61497983,0.9487,0.1860,0.0264,-193.54,-36.46,-33.41
496,61502982,0.9390,0.1914,0.0244,-193.05,-35.30,-34.02
497,61507982,0.9258,0.2002,0.0186,-192.38,-33.96,-34.70
498,61512992,0.9204,0.2158,0.0137,-191.65,-32.93,-35.30
499,61517980,0.9150,0.2236,0.0132,-190.91,-32.13,-36.10
500,61522980,0.9116,0.2300,0.0161,-190.24,-31.22,-36.71
501,61527980,0.9004,0.2393,0.0181,-189.15,-30.00,-37.74
502,61532982,0.8896,0.2378,0.0151,-187.93,-28.96,-38.54
503,61537982,0.8770,0.2456,0.0161,-187.01,-28.17,-39.15
504,61542982,0.8677,0.2368,0.0132,-185.61,-27.07,-39.63
505,61547982,0.8564,0.2476,0.0210,-184.02,-25.98,-40.18
506,61552982,0.8462,0.2485,0.0239,-182.62,-24.88,-40.67
507,61558367,0.8291,0.2451,0.0264,-180.91,-23.54,-41.04
508,61562982,0.8213,0.2461,0.0332,-179.88,-22.74,-41.28
509,61567982,0.8091,0.2495,0.0337,-178.48,-21.65,-41.77
510,61572982,0.7998,0.2524,0.0371,-177.68,-20.67,-42.07
511,61577982,0.7939,0.2632,0.0420,-177.07,-19.63,-42.56
512,61582981,0.7949,0.2705,0.0527,-176.71,-18.41,-43.23
513,61588064,0.7935,0.2861,0.0591,-176.71,-17.26,-43.96
514,61592982,0.7837,0.2939,0.0654,-176.83,-15.91,-44.82
515,61598404,0.7715,0.3003,0.0679,-177.13,-14.45,-45.85
516,61602982,0.7812,0.3018,0.0713,-177.50,-13.41,-46.71
517,61607985,0.7769,0.3037,0.0742,-177.80,-12.13,-47.93
518,61612982,0.7646,0.3105,0.0747,-178.05,-11.10,-48.72
519,61617982,0.7529,0.3076,0.0737,-178.23,-9.70,-49.70
520,61622980,0.7505,0.3125,0.0820,-178.35,-8.60,-50.67
521,61627980,0.7441,0.3135,0.0791,-178.35,-7.50,-51.71
522,61632981,0.7300,0.3184,0.0859,-178.41,-6.34,-52.99
523,61637982,0.7212,0.3242,0.0859,-178.23,-5.24,-53.96
524,61642981,0.7095,0.3325,0.0879,-177.93,-4.09,-55.24
525,61647982,0.7021,0.3359,0.1006,-177.62,-2.99,-56.46
526,61652981,0.6938,0.3472,0.1050,-177.20,-1.89,-57.74
527,61657984,0.6904,0.3545,0.1064,-176.71,-0.85,-59.09
528,61662982,0.6895,0.3682,0.1055,-176.34,0.49,-60.49
529,61667982,0.6909,0.3716,0.1157,-175.79,1.71,-62.07
530,61672981,0.6885,0.3804,0.1240,-175.37,2.80,-63.66
531,61677984,0.6816,0.3936,0.1221,-174.70,4.15,-65.12
532,61682981,0.6792,0.4072,0.1333,-174.15,5.55,-66.89
533,61687980,0.6758,0.4209,0.1396,-173.54,7.07,-68.54
534,61692982,0.6685,0.4253,0.1338,-172.80,8.17,-70.43
535,61697982,0.6660,0.4282,0.1323,-171.95,9.63,-72.32
536,61702982,0.6616,0.4331,0.1382,-170.85,10.98,-74.21
537,61707981,0.6460,0.4326,0.1372,-169.45,12.20,-75.98
538,61712982,0.6289,0.4331,0.1343,-167.87,13.35,-77.80
539,61717982,0.5996,0.4272,0.1323,-165.91,14.45,-79.51
540,61722982,0.5840,0.4360,0.1353,-163.90,15.49,-81.46
541,61727980,0.5767,0.4409,0.1406,-161.52,16.46,-83.23
542,61732982,0.5786,0.4570,0.1411,-159.09,17.56,-85.37
543,61737981,0.5752,0.4644,0.1382,-156.65,18.54,-87.56
544,61742982,0.5615,0.4727,0.1387,-154.02,19.51,-89.94
545,61747982,0.5459,0.4849,0.1450,-151.34,20.12,-92.38
546,61752983,0.5303,0.4966,0.1440,-148.66,20.79,-94.76
547,61757982,0.5122,0.5010,0.1348,-146.10,21.28,-97.20
548,61762981,0.5029,0.5039,0.1328,-143.17,21.65,-99.63
549,61767982,0.4990,0.5005,0.1392,-140.43,22.01,-101.77
550,61772981,0.4941,0.4985,0.1323,-137.68,22.26,-103.78
551,61777982,0.4834,0.4990,0.1372,-135.37,22.38,-105.91
552,61782980,0.4736,0.5039,0.1357,-133.54,22.80,-107.93
553,61788041,0.4648,0.5029,0.1216,-132.20,23.05,-109.94
554,61792982,0.4595,0.4995,0.1143,-131.34,23.11,-112.01
555,61797982,0.4556,0.4946,0.1216,-130.98,23.29,-114.09
556,61802982,0.4595,0.4976,0.1216,-130.98,23.54,-116.22
557,61807982,0.4775,0.5225,0.1235,-131.65,23.90,-118.54
558,61812982,0.4932,0.5591,0.1362,-133.05,24.63,-121.40
559,61817982,0.4990,0.5796,0.1362,-134.76,25.61,-124.51
560,61822981,0.4683,0.5962,0.1177,-136.71,26.10,-127.56
561,61827980,0.4224,0.6035,0.1221,-138.29,26.46,-130.49
562,61832980,0.3872,0.6040,0.1279,-139.57,27.07,-133.17
563,61837984,0.3677,0.6084,0.1411,-140.12,27.68,-135.37
564,61842981,0.3550,0.6172,0.1504,-140.43,28.05,-136.95
565,61847982,0.3491,0.6768,0.1929,-140.91,29.21,-139.15
566,61852981,0.3574,0.6597,0.1592,-142.20,30.55,-141.52
567,61857982,0.3755,0.6509,0.1509,-143.17,31.83,-143.41
568,61862981,0.3306,0.6572,0.1401,-143.66,32.62,-145.06
569,61867982,0.2803,0.6719,0.1338,-143.84,33.48,-146.52
570,61872982,0.2700,0.6841,0.1348,-143.72,34.27,-147.80
571,61877982,0.2793,0.6895,0.1431,-143.29,35.49,-149.15
572,61882981,0.2925,0.7300,0.1562,-142.93,36.95,-150.61
573,61887981,0.3159,0.7632,0.1582,-142.68,38.60,-152.20
574,61892982,0.3101,0.7900,0.1782,-142.74,40.73,-154.02
575,61897981,0.2852,0.8105,0.1729,-142.62,42.74,-155.79
576,61902982,0.2603,0.8311,0.1719,-142.38,44.82,-157.26
577,61907983,0.2397,0.8457,0.1768,-141.52,46.77,-158.54
578,61912982,0.2246,0.8623,0.2026,-140.43,48.96,-159.51
579,61917981,0.2085,0.8765,0.2144,-138.84,51.16,-160.18
580,61922982,0.1953,0.8848,0.2100,-136.59,53.54,-160.67
581,61927981,0.1738,0.8896,0.2222,-133.78,55.98,-160.91
582,61933072,0.1577,0.8965,0.2227,-130.00,57.99,-160.79
583,61938184,0.1265,0.8979,0.2178,-125.55,60.12,-160.73
584,61942982,0.1133,0.9033,0.2349,-120.30,62.13,-160.43
585,61947983,0.1030,0.9248,0.2534,-114.45,64.15,-160.06
586,61953057,0.0981,0.9521,0.2764,-108.05,66.34,-159.94
587,61957985,0.0918,0.9775,0.3027,-101.16,68.66,-159.88
588,61962981,0.0688,1.0132,0.3242,-94.15,70.91,-160.06
589,61968043,0.0459,1.0259,0.3291,-87.13,73.05,-160.30
590,61972982,0.0273,1.0552,0.3516,-80.30,74.82,-160.61
591,61977984,0.0098,1.0786,0.3809,-73.90,76.83,-160.49
592,61982982,-0.0098,1.0957,0.3994,-67.80,78.84,-160.49
593,61987980,-0.0366,1.1108,0.4238,-62.32,80.55,-160.06
594,61992981,-0.0601,1.1201,0.4331,-57.32,82.38,-159.27
595,61997983,-0.0889,1.1240,0.4541,-52.99,84.15,-157.99
596,62002982,-0.1162,1.1323,0.4683,-49.21,85.98,-156.46
597,62007981,-0.1377,1.1348,0.4937,-46.10,85.91,-154.45
598,62012984,-0.1699,1.1426,0.5146,-43.48,85.79,-152.20
599,62017982,-0.1943,1.1567,0.5176,-41.28,86.04,-149.88
600,62022982,-0.2271,1.1714,0.5288,-39.76,87.68,-147.38
601,62027980,-0.2480,1.1943,0.5527,-38.78,88.05,-145.12
602,62032980,-0.2681,1.2236,0.5781,-38.54,88.90,-142.87
603,62037980,-0.2822,1.2427,0.5972,-39.02,89.63,-140.79
604,62042980,-0.3042,1.2588,0.6123,-39.63,89.94,-138.54
605,62047983,-0.3232,1.2681,0.6270,-40.79,90.49,-135.98
606,62052982,-0.3320,1.2935,0.6519,-42.20,90.98,-133.35
607,62057982,-0.3345,1.3130,0.6641,-43.90,91.52,-130.55
608,62062982,-0.3428,1.3423,0.6870,-45.98,92.07,-127.56
609,62067981,-0.3530,1.3779,0.7041,-48.35,92.38,-124.63
610,62072982,-0.3481,1.3838,0.6860,-51.34,93.05,-121.46
611,62078405,-0.3613,1.3789,0.6953,-53.72,93.23,-117.99
612,62082983,-0.3750,1.3911,0.7051,-55.43,93.48,-114.27
613,62087981,-0.3696,1.4077,0.7163,-56.40,93.78,-110.37
614,62092981,-0.3589,1.4165,0.7168,-56.52,94.33,-106.22
615,62097982,-0.3608,1.4185,0.7129,-55.79,94.94,-101.95
616,62102981,-0.3662,1.4170,0.7134,-54.27,95.30,-97.50
617,62108079,-0.3618,1.4209,0.7114,-51.71,95.85,-92.68
618,62112981,-0.3540,1.4272,0.7114,-48.66,96.52,-87.87
619,62117984,-0.3579,1.4390,0.7168,-45.18,97.07,-82.93
620,62122981,-0.3486,1.4409,0.7012,-41.59,97.56,-77.99
621,62127980,-0.3481,1.4492,0.6987,-37.93,98.41,-72.74
622,62132985,-0.3467,1.4575,0.7041,-34.39,98.90,-67.56
623,62137982,-0.3438,1.4653,0.7026,-31.04,99.70,-62.38
624,62142981,-0.3418,1.4653,0.6953,-28.17,100.73,-57.07
625,62147984,-0.3438,1.4668,0.6943,-25.55,101.77,-51.83
626,62153204,-0.3486,1.4644,0.6885,-23.48,102.80,-46.52
627,62157982,-0.3496,1.4570,0.6792,-21.65,104.02,-41.22
628,62162981,-0.3545,1.4512,0.6787,-20.18,105.24,-35.98
629,62167980,-0.3584,1.4497,0.6714,-19.15,106.71,-30.67
630,62172983,-0.3667,1.4463,0.6675,-18.29,107.80,-26.46
631,62177981,-0.3828,1.4443,0.6611,-17.50,109.70,-20.37
632,62182982,-0.3931,1.4458,0.6553,-17.07,111.10,-16.22
633,62187983,-0.3984,1.4492,0.6519,-16.71,112.74,-11.04
634,62192984,-0.3975,1.4507,0.6465,-16.28,115.00,-6.10
635,62197982,-0.4053,1.4468,0.6470,-16.04,117.26,-1.10
636,62202981,-0.4067,1.4409,0.6421,-15.49,119.57,3.96
637,62207980,-0.4097,1.4424,0.6465,-14.70,122.38,9.09
638,62212984,-0.4141,1.4438,0.6401,-14.02,125.12,14.09
639,62217984,-0.4199,1.4336,0.6367,-13.35,128.17,19.09
640,62222981,-0.4229,1.4316,0.6392,-12.74,131.40,24.02
641,62227990,-0.4331,1.4307,0.6416,-12.26,134.70,29.02
642,62232981,-0.4346,1.4277,0.6421,-12.20,138.29,33.90
643,62237982,-0.4443,1.4155,0.6343,-12.62,142.13,38.54
644,62242981,-0.4619,1.4160,0.6348,-13.23,145.85,43.41
645,62248442,-0.4839,1.4165,0.6440,-13.78,150.43,49.15
646,62252983,-0.4907,1.4097,0.6401,-13.72,153.23,53.05
647,62257985,-0.5039,1.4023,0.6533,-13.29,157.20,57.56
648,62262981,-0.5234,1.3994,0.6528,-12.38,161.04,62.13
649,62267982,-0.5435,1.3877,0.6548,-10.98,165.00,66.77
650,62272981,-0.5649,1.3774,0.6602,-9.15,168.54,71.28
651,62277980,-0.5762,1.3726,0.6650,-7.07,172.44,75.91
652,62282984,-0.5981,1.3647,0.6763,-4.76,175.98,80.30
653,62287984,-0.6235,1.3574,0.6816,-2.68,179.70,84.82
654,62292981,-0.6489,1.3486,0.6953,-0.73,183.29,88.41
655,62297981,-0.6743,1.3379,0.7021,1.22,186.71,93.17
656,62302982,-0.7017,1.3232,0.7017,3.17,190.18,97.50
657,62307983,-0.7275,1.3105,0.7163,4.82,193.35,101.89
658,62312982,-0.7539,1.2944,0.7256,6.46,196.65,106.10
659,62317983,-0.7822,1.2856,0.7373,7.80,199.82,110.24
660,62322982,-0.8071,1.2759,0.7456,9.15,203.05,114.21
661,62327982,-0.8379,1.2700,0.7622,10.37,206.28,118.17
662,62332982,-0.8604,1.2563,0.7656,11.40,209.39,121.83
663,62337980,-0.8843,1.2451,0.7842,12.50,212.32,125.49
664,62342980,-0.9102,1.2388,0.7974,13.72,215.43,128.96
665,62347983,-0.9321,1.2290,0.8135,15.12,218.35,132.38
666,62352982,-0.9556,1.2153,0.8179,16.83,221.22,135.91
667,62357982,-0.9800,1.2026,0.8433,18.66,224.45,139.15
668,62362982,-1.0054,1.1895,0.8564,20.98,227.56,142.44
669,62368304,-1.0420,1.1772,0.8755,23.17,230.43,145.61
670,62373040,-1.0786,1.1665,0.8940,25.49,233.35,148.66
671,62377982,-1.1147,1.1562,0.9028,27.50,236.40,151.59
672,62382982,-1.1567,1.1489,0.9238,29.39,239.15,154.57
673,62387980,-1.2002,1.1401,0.9404,30.98,241.83,157.32
674,62392984,-1.2393,1.1387,0.9595,32.32,244.51,159.70
675,62397981,-1.2803,1.1353,0.9805,33.66,247.32,161.77
676,62403128,-1.3140,1.1421,1.0151,34.94,250.18,163.66
677,62407982,-1.3496,1.1396,1.0317,36.16,253.17,165.30
678,62412981,-1.3804,1.1362,1.0430,37.50,255.98,166.71
679,62417982,-1.4087,1.1211,1.0669,39.39,258.90,168.05
680,62422981,-1.4385,1.1191,1.0825,41.89,261.89,169.57
681,62427984,-1.4692,1.1089,1.0972,44.76,264.94,170.85
682,62432981,-1.5073,1.1060,1.1143,48.23,267.50,172.01
683,62437982,-1.5532,1.1030,1.1182,51.89,270.37,173.35
684,62442981,-1.5913,1.1006,1.1401,55.85,273.23,174.57
685,62447980,-1.6426,1.0996,1.1499,59.51,275.79,175.67
686,62452984,-1.6870,1.0991,1.1655,63.23,278.60,176.71
687,62457981,-1.7256,1.0967,1.1665,66.46,281.22,177.74
688,62462982,-1.7607,1.0918,1.1670,69.70,283.84,178.72
689,62467982,-1.7974,1.0962,1.1743,72.68,286.28,179.82
690,62472982,-1.8252,1.1011,1.1826,74.94,288.35,180.43
691,62477981,-1.8545,1.1118,1.1992,77.26,290.85,181.28
692,62482983,-1.8765,1.1172,1.2109,79.51,293.48,182.01
693,62487983,-1.9019,1.1191,1.2144,82.26,296.77,182.74
694,62492982,-1.9248,1.1167,1.2148,84.39,299.09,183.29
695,62497980,-1.9604,1.1162,1.2148,86.89,301.83,184.09
696,62502982,-1.9858,1.1274,1.2197,89.57,304.82,184.94
697,62507982,-2.0146,1.1255,1.2178,92.50,307.56,185.98
698,62512980,-2.0410,1.1353,1.2202,95.43,310.79,187.13
699,62517980,-2.0679,1.1421,1.2319,98.66,314.21,188.17
700,62522984,-2.0908,1.1553,1.2354,101.77,317.74,189.21
701,62527982,-2.1099,1.1611,1.2236,104.82,321.52,190.43
702,62532982,-2.1182,1.1758,1.2339,108.17,325.61,191.46
703,62537982,-2.1348,1.1992,1.2397,111.22,330.00,192.44
704,62542982,-2.1475,1.2231,1.2534,113.72,334.82,193.35
705,62547980,-2.1567,1.2412,1.2485,115.98,339.63,194.27
706,62552982,-2.1787,1.2568,1.2646,118.17,344.76,195.12
707,62557982,-2.2114,1.2695,1.2661,120.12,350.12,196.10
708,62562981,-2.2334,1.2925,1.2744,122.07,355.55,197.01
709,62567982,-2.2666,1.3164,1.2881,123.96,361.16,197.87
710,62572981,-2.2939,1.3301,1.2896,125.73,366.52,198.84
711,62577982,-2.3301,1.3428,1.2944,129.09,371.83,199.76
712,62582981,-2.3706,1.3525,1.3105,129.88,377.26,200.85
713,62587982,-2.4043,1.3745,1.3198,132.26,382.68,201.95
714,62592981,-2.4536,1.3945,1.3350,134.57,388.41,203.05
715,62597982,-2.4932,1.4194,1.3477,136.71,393.84,203.96
716,62602981,-2.5327,1.4463,1.3604,138.60,399.63,204.57
717,62607980,-2.5669,1.4697,1.3921,140.43,405.49,205.06
718,62612984,-2.5942,1.4971,1.4253,142.56,411.77,205.24
719,62617982,-2.6201,1.5254,1.4507,144.63,418.11,205.24
720,62622981,-2.6294,1.5376,1.4727,146.89,424.70,205.06
721,62627982,-2.6577,1.5420,1.5112,149.15,431.04,204.88
722,62632981,-2.6958,1.5459,1.5552,152.07,437.68,204.76
723,62637982,-2.7192,1.5552,1.5635,155.18,444.21,204.82
724,62642981,-2.7842,1.5679,1.5884,158.72,450.30,204.94
725,62647982,-2.8525,1.5835,1.6128,162.87,455.55,205.06
726,62652981,-2.8979,1.5972,1.6289,167.26,460.30,204.94
727,62657984,-2.9375,1.5981,1.6611,171.59,464.63,205.24
728,62662982,-2.9800,1.6147,1.6909,175.79,468.72,205.67
729,62668106,-3.0078,1.6211,1.7139,179.51,472.56,206.28
730,62672982,-3.0186,1.6289,1.7339,182.56,476.28,207.38
731,62677982,-3.0352,1.6382,1.7651,184.45,479.57,208.54
732,62682982,-3.0342,1.6514,1.7847,185.12,483.11,210.18
733,62687983,-3.0420,1.6553,1.8267,184.45,486.28,212.01
734,62692982,-3.0708,1.6685,1.8726,182.26,489.51,214.15
735,62697982,-3.1333,1.6958,1.8857,178.72,492.32,216.65
736,62702982,-3.1929,1.7144,1.8999,174.45,494.09,219.39
737,62707981,-3.2349,1.7256,1.9219,170.30,494.82,222.20
738,62712982,-3.2446,1.7310,1.9521,165.85,495.00,225.79
739,62717983,-3.2378,1.7310,1.9609,162.38,494.82,229.76
740,62722982,-3.2285,1.7305,1.9873,159.33,494.21,234.21
741,62727981,-3.2271,1.7310,2.0103,156.59,493.29,239.27
742,62732982,-3.2134,1.7231,2.0391,153.96,492.01,244.82
743,62738546,-3.1870,1.7173,2.0757,151.16,490.67,250.73
744,62742982,-3.1831,1.7173,2.1089,148.23,489.09,257.20
745,62747983,-3.1758,1.7266,2.1470,144.70,486.83,263.96
746,62752982,-3.1748,1.7173,2.1924,140.61,484.15,270.98
747,62757980,-3.1743,1.7129,2.2363,136.34,480.61,278.29
748,62762982,-3.1836,1.7070,2.2676,132.38,476.95,285.67
749,62767983,-3.1738,1.6982,2.3252,128.11,472.50,293.35
750,62772982,-3.1797,1.6777,2.3755,122.56,467.74,301.10
751,62778180,-3.1846,1.6714,2.4243,117.01,462.38,309.02
752,62782982,-3.1958,1.6709,2.4702,110.49,456.22,317.01
753,62787982,-3.2085,1.6621,2.5156,104.94,450.91,323.17
754,62792982,-3.2124,1.6616,2.5620,97.32,443.05,330.73
755,62797980,-3.2119,1.6519,2.6079,89.33,434.57,338.35
756,62802984,-3.2036,1.6450,2.6602,81.95,425.24,345.79
757,62808238,-3.1631,1.6348,2.7261,73.78,412.93,354.70
758,62812983,-3.1294,1.6196,2.7632,69.02,404.09,360.67
759,62817980,-3.0718,1.5815,2.7954,64.70,392.50,368.35
760,62822983,-2.9878,1.5435,2.8379,62.07,380.43,376.04
761,62827982,-2.9111,1.4985,2.8691,60.98,367.99,383.90
762,62832982,-2.8262,1.4424,2.8906,60.55,355.43,391.77
763,62837981,-2.7358,1.3843,2.9126,60.49,342.80,399.63
764,62842982,-2.6494,1.3271,2.9438,60.61,330.18,407.38
765,62847982,-2.5664,1.2573,2.9434,60.06,317.26,414.94
766,62852982,-2.4951,1.1865,2.9639,57.68,304.57,421.95
767,62857981,-2.4355,1.1294,2.9922,53.66,291.77,428.66
768,62862982,-2.3726,1.0688,2.9932,47.87,278.48,435.00
769,62868195,-2.3213,1.0010,2.9976,40.91,265.06,440.91
770,62872982,-2.2593,0.9277,2.9814,32.93,251.65,446.65
771,62877982,-1.7671,0.1348,4.7646,23.48,241.83,452.93
772,62882982,-2.1729,0.7876,2.0811,11.10,223.84,458.72
773,62887980,-1.7744,0.4863,3.6138,0.49,202.93,463.23
774,62892981,-1.8599,0.5850,4.8394,-13.78,191.46,467.93
775,62897982,-1.7671,0.1963,2.7407,-25.37,173.78,472.93
776,62902981,-1.8442,0.1885,3.1387,-35.73,154.21,477.80
777,62907980,-1.6436,0.3540,3.0527,-46.04,133.60,482.20
778,62912984,-1.7495,0.3550,3.7964,-56.89,115.79,486.46
779,62917981,-1.7163,0.2651,3.2046,-70.55,93.05,491.77
780,62922983,-1.7124,0.0869,3.2031,-79.76,76.16,495.18
781,62927985,-1.7109,0.0547,3.3149,-94.45,53.66,500.30
782,62932982,-1.6987,0.0161,2.8755,-105.12,37.32,503.48
783,62937982,-1.7563,-0.0234,2.9365,-117.38,17.38,507.32
784,62942982,-1.7827,-0.0493,2.6436,-125.79,-0.73,511.04
785,62948020,-1.7832,-0.0820,2.5049,-132.07,-19.27,514.39
786,62952982,-1.8257,-0.2070,2.4214,-136.89,-36.65,517.38
787,62957980,-1.8652,-0.3140,2.1987,-139.02,-53.90,519.94
788,62962984,-1.8994,-0.3857,2.2720,-141.04,-70.61,522.20
789,62967982,-1.9111,-0.4507,2.1680,-143.90,-87.07,523.84
790,62972981,-1.8921,-0.5933,2.1895,-148.23,-103.48,525.12
791,62977982,-1.9131,-1.0776,2.4653,-154.82,-119.27,526.52
792,62982980,-1.8057,-1.7603,2.7144,-166.28,-136.95,528.05
793,62988395,-1.5718,-1.9097,2.8745,-185.49,-156.71,527.44
794,62992983,-1.5283,-1.8071,2.4727,-207.87,-177.62,523.11
795,62998264,-1.6245,-1.7100,2.3452,-229.15,-198.17,516.10
796,63002982,-1.7070,-1.7012,2.0508,-246.40,-217.93,507.87
797,63008025,-1.7056,-1.7085,1.7285,-259.63,-237.07,498.66
798,63012981,-1.6157,-1.7812,1.4990,-270.73,-255.12,488.35
799,63017982,-1.5454,-1.8560,1.3096,-281.89,-271.10,476.16
800,63022982,-1.5151,-1.9380,1.1816,-295.55,-285.67,461.46
801,63027981,-1.5303,-1.9414,1.0879,-310.79,-298.35,444.45
802,63032982,-1.5073,-1.9321,1.0249,-325.06,-309.88,425.55
803,63037980,-1.3989,-1.9155,0.9487,-337.01,-320.49,405.43
804,63042983,-1.2881,-1.9102,0.8765,-346.40,-330.18,384.70
805,63047984,-1.2090,-1.8896,0.7866,-354.27,-338.54,363.41
806,63052980,-1.1670,-1.8433,0.6724,-361.52,-345.61,341.28
807,63057980,-1.1406,-1.8354,0.5176,-368.29,-351.65,318.48
808,63062982,-1.1079,-1.8398,0.3755,-373.29,-356.95,295.30
809,63067982,-1.0713,-1.8696,0.2441,-375.49,-361.10,272.20
810,63072984,-1.0083,-1.8691,0.1470,-373.72,-364.02,249.33
811,63077980,-0.8965,-1.8511,0.0635,-367.20,-365.79,226.95
812,63082992,-0.8218,-1.7871,-0.0200,-355.43,-365.79,205.30
813,63088153,-0.8232,-1.7080,-0.1099,-338.54,-364.51,184.51
814,63092982,-0.8760,-1.6001,-0.1362,-316.83,-361.59,164.21
815,63097982,-0.8608,-1.5435,-0.2266,-290.73,-357.20,144.94
816,63102982,-0.8438,-1.4946,-0.2720,-266.95,-352.80,130.30
817,63107981,-0.8496,-1.4390,-0.3345,-234.45,-346.16,113.23
818,63112982,-0.8369,-1.3633,-0.4067,-200.30,-338.66,97.50
819,63117982,-0.8369,-1.2656,-0.4941,-158.90,-328.66,80.73
820,63122982,-0.8853,-1.2085,-0.5630,-132.62,-321.77,70.00
821,63127984,-0.9609,-1.1743,-0.6299,-102.20,-312.44,58.05
822,63132981,-0.9990,-1.0962,-0.8213,-75.24,-302.87,46.65
823,63138088,-0.9858,-1.1016,-0.9092,-51.59,-293.29,36.28
824,63142985,-1.0547,-1.0874,-1.0713,-32.01,-283.29,26.34
825,63147982,-1.0981,-1.1167,-1.2295,-15.79,-272.68,16.95
826,63152982,-1.1787,-1.1528,-1.4214,-2.68,-261.40,8.05
827,63157983,-1.2671,-1.1929,-1.6211,7.99,-249.63,-0.37
828,63162982,-1.3501,-1.2632,-1.8027,15.49,-237.07,-8.54
829,63167983,-1.4136,-1.3408,-1.9380,20.43,-223.41,-16.71
830,63172982,-1.4224,-1.4136,-2.0376,22.93,-208.96,-24.63
831,63177981,-1.3716,-1.4346,-2.0859,23.96,-193.78,-32.50
832,63182982,-1.3110,-1.4219,-2.0767,23.78,-178.29,-40.49
833,63187981,-1.2573,-1.3901,-2.0210,22.62,-162.50,-48.48
834,63192985,-1.1567,-1.4507,-1.9526,20.37,-146.52,-56.22
835,63197982,-1.0586,-1.4438,-1.9736,18.48,-130.37,-63.48
836,63202980,-0.9238,-1.3174,-1.9497,16.77,-114.63,-70.43
837,63207980,-0.8569,-1.3506,-1.7329,15.73,-98.60,-77.26
838,63212984,-0.6938,-1.3584,-1.6738,15.43,-82.44,-83.48
839,63217981,-0.6299,-1.3232,-1.6396,16.28,-67.26,-89.39
840,63222982,-0.4678,-1.2700,-1.4673,18.17,-52.26,-95.12
841,63227980,-0.4185,-1.2354,-1.3198,21.89,-37.01,-100.55
842,63232982,-0.3022,-1.1709,-1.2393,26.52,-22.80,-105.24
843,63237984,-0.2593,-1.1504,-1.1025,32.56,-8.78,-109.76
844,63242981,-0.1831,-1.0322,-1.0337,39.09,4.57,-113.72
845,63247982,-0.1333,-0.9316,-0.9194,45.98,17.13,-117.62
846,63252980,-0.0986,-0.9590,-0.7476,52.93,29.33,-121.28
847,63257984,-0.0459,-0.9287,-0.7266,59.76,40.73,-124.39
848,63262981,-0.0479,-0.8228,-0.6846,66.34,51.04,-127.50
849,63267982,-0.0439,-0.7388,-0.5664,71.95,60.91,-130.79
850,63272980,-0.0435,-0.7080,-0.5151,76.40,69.76,-133.84
851,63277984,-0.0581,-0.7046,-0.4976,79.76,77.50,-137.01
852,63282981,-0.0703,-0.6997,-0.4399,82.26,83.78,-140.00
853,63288101,-0.0820,-0.6797,-0.3960,83.78,89.94,-142.80
854,63292981,-0.0908,-0.6670,-0.3623,84.94,95.30,-145.73
855,63297980,-0.1001,-0.6772,-0.3271,85.67,99.88,-148.29
856,63302984,-0.1030,-0.6973,-0.2954,86.10,103.66,-150.91
857,63307981,-0.1030,-0.7163,-0.2705,86.34,106.59,-153.11
858,63312984,-0.0903,-0.7329,-0.2412,86.65,108.90,-155.24
859,63317980,-0.0732,-0.7524,-0.2266,86.89,110.61,-157.01
860,63322984,-0.0552,-0.7681,-0.2026,87.26,111.77,-158.72
861,63327981,-0.0327,-0.7866,-0.1870,87.62,112.44,-160.12
862,63332984,-0.0176,-0.7983,-0.1733,88.17,112.32,-161.34
863,63337982,-0.0010,-0.8091,-0.1655,88.72,112.26,-162.26
864,63342981,0.0229,-0.8110,-0.1553,89.51,111.59,-163.11
865,63347982,0.0474,-0.8052,-0.1372,90.37,110.73,-163.60
866,63352980,0.0654,-0.7993,-0.1392,91.40,109.51,-163.96
867,63357982,0.0845,-0.7979,-0.1313,92.68,107.99,-163.96
868,63362981,0.1147,-0.7891,-0.1245,94.15,106.40,-163.72
869,63367980,0.1382,-0.7852,-0.1143,95.79,104.63,-163.23
870,63372984,0.1621,-0.7744,-0.1104,97.50,102.74,-162.62
871,63377982,0.1895,-0.7588,-0.0991,99.51,100.73,-161.83
872,63382981,0.2192,-0.7529,-0.0835,101.52,98.78,-160.91
873,63387982,0.2441,-0.7368,-0.0776,103.23,96.89,-159.88
874,63392980,0.2646,-0.7314,-0.0483,104.82,95.00,-158.54
875,63397980,0.2788,-0.7241,-0.0479,106.04,93.17,-157.07
876,63402980,0.2974,-0.7183,-0.0371,106.89,91.40,-155.61
877,63407984,0.3174,-0.7139,-0.0190,107.50,89.39,-154.09
878,63412981,0.3384,-0.7012,-0.0029,107.56,87.26,-152.44
879,63417980,0.3452,-0.6958,-0.0005,107.32,87.56,-151.04
880,63422981,0.3794,-0.6733,0.0317,106.77,85.61,-149.33
881,63427982,0.4326,-0.6255,0.1016,107.13,85.49,-147.62
882,63432981,0.4478,-0.6309,0.0347,108.78,85.30,-145.67
883,63438577,0.4614,-0.6318,0.0215,110.55,83.41,-143.11
884,63442982,0.4565,-0.6182,0.0405,111.16,82.99,-141.40
885,63447982,0.4424,-0.6050,0.0391,111.65,82.56,-139.02
886,63452984,0.4590,-0.6069,0.0376,111.40,82.50,-137.44
887,63457984,0.4937,-0.6016,0.0459,110.55,81.95,-135.43
888,63462981,0.5029,-0.5786,0.0630,108.66,82.01,-133.72
889,63467980,0.5122,-0.5791,0.0806,106.52,82.20,-132.07
890,63472980,0.5259,-0.5854,0.0928,103.35,82.20,-130.49
891,63477984,0.5410,-0.5874,0.1196,99.63,82.38,-129.02
892,63482981,0.5205,-0.5674,0.1387,95.55,82.87,-127.68
893,63487980,0.5459,-0.5518,0.1377,90.18,82.68,-126.22
894,63492984,0.5576,-0.5249,0.1543,86.46,82.87,-125.24
895,63498111,0.5557,-0.5132,0.1768,81.77,83.11,-124.21
896,63502982,0.5791,-0.5059,0.1763,77.01,84.57,-122.99
897,63507980,0.5728,-0.4751,0.1802,72.07,84.63,-121.89
898,63512984,0.5815,-0.4629,0.1973,67.20,85.61,-120.98
899,63518378,0.5732,-0.4424,0.2119,61.34,85.79,-120.00
900,63522983,0.5815,-0.4170,0.2061,57.56,85.79,-119.51
901,63527981,0.5840,-0.3921,0.2202,52.56,85.79,-118.84
902,63532984,0.5732,-0.3574,0.2363,47.87,85.98,-118.41
903,63537982,0.5698,-0.3325,0.2373,43.29,88.35,-118.11
904,63542981,0.5586,-0.3076,0.2349,39.33,89.51,-117.80
905,63547980,0.5654,-0.2832,0.2378,35.73,90.79,-117.62
906,63552982,0.5679,-0.2617,0.2490,32.44,92.32,-117.50
907,63557983,0.5742,-0.2549,0.2500,29.51,93.84,-117.56
908,63562982,0.5894,-0.2373,0.2563,26.89,95.06,-117.50
909,63567981,0.5986,-0.2231,0.2515,24.45,96.34,-117.56
910,63572982,0.5996,-0.2183,0.2656,22.56,97.50,-117.56
911,63577983,0.5957,-0.2085,0.2910,20.73,98.66,-117.68
912,63582982,0.5947,-0.1938,0.2979,19.45,100.00,-117.93
913,63587983,0.5854,-0.1875,0.3130,18.60,101.04,-117.99
914,63592982,0.5835,-0.1733,0.3213,18.05,102.07,-118.11
915,63597982,0.5918,-0.1606,0.3486,17.62,102.99,-118.35
916,63602982,0.5981,-0.1489,0.3643,17.32,103.96,-118.35
917,63607980,0.6162,-0.1328,0.3818,17.32,104.63,-118.54
918,63612984,0.6377,-0.1172,0.4111,17.32,105.30,-118.66
919,63617982,0.6592,-0.0972,0.4531,17.50,105.61,-118.72
920,63622982,0.7080,-0.0723,0.4897,17.62,105.91,-118.78
921,63627981,0.7559,-0.0581,0.5327,17.50,105.91,-118.84
922,63632981,0.7734,-0.0664,0.5635,17.26,105.30,-118.66
923,63637982,0.7939,-0.0786,0.5942,17.07,104.63,-118.41
924,63643781,0.8403,-0.0952,0.6499,16.83,103.66,-117.99
925,63647984,0.8618,-0.1055,0.6826,16.59,102.74,-117.87
926,63652983,0.9121,-0.1338,0.7173,15.98,101.52,-117.68
927,63657985,0.9790,-0.1719,0.7549,14.94,100.24,-117.38
928,63662981,1.0352,-0.2119,0.7939,13.05,98.72,-117.50
929,63667980,1.0161,-0.2495,0.8101,10.67,96.89,-117.62
930,63672984,0.8750,-0.2549,0.8125,7.68,95.18,-117.80
931,63677982,0.6782,-0.2285,0.8091,4.82,93.48,-118.11
932,63682981,0.5361,-0.1851,0.8008,2.56,92.13,-118.54
933,63687984,0.4834,-0.1499,0.7812,1.22,91.10,-118.90
934,63692980,0.5049,-0.1157,0.7534,0.43,89.82,-119.33
935,63697980,0.5591,-0.0859,0.7427,0.18,88.72,-119.45
936,63702980,0.6001,-0.0630,0.7334,0.61,85.61,-119.45
937,63707984,0.6270,-0.0415,0.7197,1.34,85.24,-119.21
938,63712981,0.6230,-0.0078,0.7090,2.50,84.63,-118.96
939,63717982,0.6104,0.0171,0.7163,4.09,81.52,-118.54
940,63722980,0.6030,0.0283,0.7290,6.04,79.33,-117.93
941,63727980,0.6016,0.0591,0.7310,8.41,77.13,-117.26
942,63732984,0.6055,0.0752,0.7505,11.10,74.82,-116.59
943,63737981,0.6030,0.0767,0.7700,13.84,72.50,-115.73
944,63742983,0.6074,0.0811,0.7925,16.52,70.18,-115.00
945,63747982,0.6064,0.0791,0.8037,19.09,67.87,-114.09
946,63752982,0.6064,0.0815,0.8198,20.85,65.98,-113.41
947,63757980,0.6074,0.0879,0.8198,22.68,63.60,-112.68
948,63762982,0.6172,0.0972,0.8276,23.90,61.46,-112.01
949,63767982,0.6304,0.1172,0.8423,24.39,59.63,-111.59
950,63772982,0.6445,0.1304,0.8506,24.33,57.99,-111.10
951,63777980,0.6611,0.1479,0.8564,23.48,56.46,-110.85
952,63782984,0.6782,0.1641,0.8691,22.13,55.06,-110.55
953,63787983,0.6934,0.1743,0.8867,20.61,54.33,-110.24
954,63792982,0.7021,0.1748,0.8965,18.66,53.54,-109.82
955,63797983,0.7109,0.1851,0.9131,16.52,53.05,-109.33
956,63802982,0.7212,0.1973,0.9204,14.63,52.68,-108.54
957,63807983,0.7241,0.2119,0.9287,12.68,52.74,-107.62
958,63812982,0.7266,0.2168,0.9434,10.73,52.87,-106.40
959,63817981,0.7373,0.2271,0.9478,8.60,53.29,-105.12
960,63822982,0.7490,0.2329,0.9453,6.28,53.66,-103.66
961,63827980,0.7739,0.2407,0.9609,3.35,54.27,-101.89
962,63832983,0.7993,0.2651,0.9546,-0.06,55.00,-100.24
963,63837982,0.8174,0.2817,0.9546,-4.15,55.85,-98.72
964,63842983,0.8311,0.2915,0.9639,-8.78,56.95,-97.38
965,63847982,0.8511,0.2935,0.9756,-14.02,58.84,-96.04
966,63852982,0.8613,0.2935,0.9727,-19.88,60.73,-94.70
967,63857981,0.8862,0.3018,0.9907,-26.16,62.80,-93.11
968,63862982,0.9092,0.3052,0.9946,-32.99,65.12,-91.77
969,63867982,0.9126,0.3052,1.0083,-40.00,67.80,-90.12
970,63872982,0.8906,0.3472,1.0366,-46.65,70.85,-88.66
971,63877980,0.9185,0.2954,0.9614,-52.26,73.48,-86.89
972,63882982,0.9404,0.3862,0.9624,-56.77,75.06,-85.37
973,63887982,0.9600,0.2515,0.9814,-59.45,76.40,-84.27
974,63892981,1.0210,0.2998,0.9922,-60.61,77.80,-83.35
975,63897984,1.0928,0.2588,0.9131,-59.82,78.05,-82.80
976,63902980,1.1162,0.2568,0.9136,-58.60,77.01,-82.32
977,63907982,1.0508,0.2661,0.9463,-57.01,76.28,-81.77
978,63912981,1.0244,0.2754,0.9453,-55.12,75.43,-81.10
979,63917982,1.0220,0.2573,0.9331,-52.99,74.39,-80.12
980,63922980,1.0151,0.2490,0.9517,-50.73,73.41,-78.84
981,63927982,1.0005,0.2559,0.9658,-48.41,72.62,-77.56
982,63932981,0.9888,0.2710,0.9585,-45.98,71.65,-76.16
983,63938018,0.9751,0.2959,0.9233,-43.35,70.49,-74.94
984,63942980,0.9678,0.3198,0.9150,-40.49,68.72,-73.90
985,63947984,0.9482,0.3032,0.9575,-37.50,66.83,-72.80
986,63952981,0.9268,0.2866,0.9399,-34.51,64.88,-71.59
987,63957982,0.8955,0.2793,0.9409,-31.65,62.80,-70.12
988,63962980,0.8618,0.2817,0.9688,-29.09,60.79,-68.54
989,63967984,0.8311,0.2783,0.9849,-26.46,59.09,-66.77
990,63972981,0.8071,0.2817,0.9746,-24.02,57.01,-65.12
991,63977982,0.7949,0.2783,0.9775,-21.65,55.00,-63.11
992,63982980,0.7773,0.2866,0.9868,-19.27,53.11,-61.16
993,63987982,0.7612,0.2935,0.9854,-16.95,51.34,-59.09
994,63992981,0.7451,0.2944,0.9800,-14.63,49.09,-56.95
995,63997984,0.7246,0.2993,0.9878,-12.44,47.07,-54.94
996,64002980,0.7056,0.2979,0.9922,-10.12,45.00,-52.87
997,64008167,0.6880,0.3008,0.9878,-7.80,42.87,-50.73
998,64012982,0.6724,0.2998,0.9814,-5.55,40.61,-48.54
999,64018217,0.6567,0.3066,0.9800,-3.23,38.35,-46.52
1000,64022982,0.6499,0.3125,0.9766,-1.16,36.10,-44.51
1001,64027982,0.6431,0.3179,0.9727,0.91,33.48,-42.44
1002,64032982,0.6421,0.3218,0.9707,2.93,31.16,-40.61
1003,64037981,0.6318,0.3242,0.9727,4.82,28.60,-38.66
1004,64042982,0.6313,0.3228,0.9688,6.46,26.04,-36.83
1005,64047983,0.6230,0.3247,0.9585,8.17,23.29,-34.94
1006,64052982,0.6216,0.3247,0.9575,9.70,20.73,-33.11
1007,64057980,0.6201,0.3242,0.9556,11.46,18.05,-31.46
1008,64062984,0.6172,0.3276,0.9395,13.29,15.49,-29.76
1009,64067982,0.6113,0.3252,0.9380,15.24,12.74,-27.93
1010,64072982,0.6147,0.3184,0.9258,17.32,10.12,-26.34
1011,64077980,0.6157,0.3203,0.9277,19.21,7.99,-25.12
1012,64082980,0.6201,0.3193,0.9185,22.01,4.94,-23.11
1013,64088040,0.6230,0.3164,0.9175,24.63,2.44,-21.52
1014,64092980,0.6230,0.3120,0.9126,26.95,0.49,-20.24
1015,64098307,0.6299,0.3169,0.9033,30.49,-2.56,-18.29
1016,64102983,0.6235,0.3174,0.8999,32.74,-4.51,-17.20
1017,64108472,0.6294,0.3120,0.8911,36.40,-7.26,-15.30
1018,64112982,0.6338,0.3091,0.8901,38.72,-9.15,-14.15
1019,64117983,0.6362,0.3047,0.8872,41.52,-11.22,-12.68
1020,64122982,0.6401,0.3076,0.8833,44.27,-13.54,-11.40
1021,64127981,0.6460,0.3081,0.8823,46.89,-15.61,-10.00
1022,64133002,0.6465,0.3096,0.8794,49.27,-17.56,-8.54
1023,64137980,0.6484,0.3081,0.8716,51.52,-19.57,-7.13
1024,64143094,0.6431,0.3047,0.8667,53.60,-21.83,-5.61
1025,64147985,0.6489,0.2979,0.8613,54.57,-23.48,-4.51
1026,64152982,0.6528,0.2949,0.8564,55.55,-25.43,-3.17
1027,64157983,0.6616,0.2974,0.8599,55.91,-27.20,-1.83
1028,64162982,0.6626,0.2969,0.8530,55.91,-29.02,-0.43
1029,64167980,0.6665,0.2920,0.8550,55.67,-30.79,0.79
1030,64172984,0.6704,0.3003,0.8589,55.12,-32.50,2.07
1031,64177982,0.6763,0.2983,0.8545,54.45,-34.02,3.29
1032,64182982,0.6797,0.3027,0.8584,53.90,-35.67,4.51
1033,64187980,0.6841,0.3052,0.8613,53.05,-37.07,5.55
1034,64192984,0.6841,0.3086,0.8491,52.20,-38.35,6.71
1035,64197983,0.6831,0.3115,0.8569,51.34,-39.70,7.68
1036,64202982,0.6870,0.3149,0.8550,50.67,-40.85,8.66
1037,64207982,0.6943,0.3120,0.8594,50.06,-41.89,9.57
1038,64212982,0.6982,0.3120,0.8579,49.33,-42.93,10.43
1039,64217982,0.7075,0.3188,0.8628,48.96,-43.96,11.16
1040,64222982,0.7104,0.3188,0.8633,48.35,-44.63,11.95
1041,64227983,0.7163,0.3193,0.8667,47.87,-45.55,12.62
1042,64232981,0.7241,0.3184,0.8589,47.56,-46.22,13.29
1043,64237984,0.7280,0.3218,0.8613,47.01,-46.83,13.78
1044,64242981,0.7339,0.3267,0.8628,46.65,-47.20,14.33
1045,64247980,0.7368,0.3281,0.8564,46.28,-47.87,14.82
1046,64252984,0.7432,0.3354,0.8604,45.98,-48.23,15.24
1047,64257982,0.7456,0.3423,0.8618,45.67,-48.60,15.43
1048,64262982,0.7520,0.3374,0.8501,45.30,-48.96,15.61
1049,64267982,0.7544,0.3472,0.8550,44.88,-49.27,15.79
1050,64272982,0.7544,0.3433,0.8506,44.51,-49.39,15.91
1051,64277983,0.7588,0.3457,0.8408,44.02,-49.57,16.10
1052,64283010,0.7583,0.3535,0.8369,43.48,-49.94,16.16
1053,64287983,0.7607,0.3530,0.8320,42.68,-49.82,16.10
1054,64292982,0.7588,0.3501,0.8301,42.07,-50.18,16.10
1055,64297982,0.7646,0.3462,0.8237,41.52,-50.30,16.04
1056,64302982,0.7656,0.3442,0.8198,40.73,-50.12,15.91
1057,64307982,0.7690,0.3452,0.8145,39.88,-50.37,15.85
1058,64312982,0.7715,0.3472,0.8037,38.96,-50.43,15.85
1059,64317982,0.7690,0.3462,0.7993,38.05,-50.30,15.73
1060,64322982,0.7681,0.3472,0.7817,37.20,-50.30,15.67
1061,64327980,0.7695,0.3467,0.7837,36.16,-50.24,15.49
1062,64332984,0.7715,0.3394,0.7710,34.94,-50.06,15.37
1063,64337981,0.7729,0.3452,0.7715,33.96,-49.94,15.18
1064,64342983,0.7759,0.3452,0.7549,33.11,-49.82,15.00
1065,64348055,0.7808,0.3467,0.7456,32.07,-49.82,15.00
1066,64352982,0.7778,0.3506,0.7397,31.10,-49.70,14.70
1067,64357983,0.7793,0.3462,0.7310,30.24,-49.57,14.57
1068,64362982,0.7822,0.3418,0.7153,29.45,-49.63,14.39
1069,64367982,0.7812,0.3374,0.7095,28.60,-49.45,14.15
1070,64372982,0.7842,0.3354,0.7021,28.05,-49.39,14.09
1071,64377982,0.7847,0.3354,0.6943,27.50,-49.27,14.09
1072,64382982,0.7788,0.3350,0.6934,26.95,-49.09,13.90
1073,64387980,0.7827,0.3291,0.6733,26.59,-49.15,13.84
1074,64392983,0.7827,0.3296,0.6714,26.28,-48.90,13.72
1075,64398514,0.7847,0.3325,0.6606,26.16,-48.72,13.60
1076,64402983,0.7856,0.3271,0.6592,26.16,-48.60,13.60
1077,64407982,0.7876,0.3252,0.6431,26.16,-48.48,13.54
1078,64412982,0.7871,0.3208,0.6460,26.28,-48.29,13.48
1079,64417982,0.7896,0.3198,0.6333,26.34,-48.17,13.54
1080,64422982,0.7891,0.3198,0.6318,26.59,-47.80,13.35
1081,64427983,0.7842,0.3164,0.6206,27.20,-47.56,13.41
1082,64432982,0.7925,0.3140,0.6133,27.50,-47.20,13.48
1083,64437982,0.7925,0.3159,0.6045,28.05,-46.89,13.54
1084,64442983,0.7905,0.3066,0.6006,28.66,-46.52,13.48
1085,64447982,0.7964,0.3008,0.5918,29.21,-46.22,13.54
1086,64452984,0.7944,0.2979,0.5884,29.94,-45.67,13.78
1087,64458374,0.7993,0.2998,0.5835,30.73,-45.18,13.96
1088,64462983,0.7969,0.3008,0.5771,31.34,-44.76,14.02
1089,64467983,0.8008,0.3018,0.5747,32.26,-44.33,14.09
1090,64472982,0.8022,0.3071,0.5767,33.17,-43.72,14.21
1091,64477981,0.8086,0.3052,0.5669,34.09,-43.05,14.21
1092,64482982,0.8052,0.3071,0.5713,35.00,-42.38,14.27
1093,64487981,0.8105,0.3081,0.5664,35.91,-41.46,14.21
1094,64493424,0.8086,0.3130,0.5605,36.89,-40.55,14.33
1095,64497985,0.8145,0.3101,0.5586,37.68,-39.82,14.27
1096,64502980,0.8120,0.3120,0.5474,38.48,-39.02,14.21
1097,64507980,0.8203,0.3110,0.5449,39.15,-37.99,14.27
1098,64512984,0.8237,0.3076,0.5435,39.63,-37.20,14.33
1099,64517982,0.8345,0.3042,0.5342,40.06,-36.22,14.15
1100,64522982,0.8340,0.3066,0.5317,40.43,-35.30,14.15
1101,64527982,0.8345,0.3052,0.5278,40.67,-34.27,14.09
1102,64532982,0.8394,0.3091,0.5303,40.73,-33.41,13.96
1103,64538064,0.8398,0.3071,0.5205,40.67,-32.38,13.84
1104,64542983,0.8447,0.3076,0.5112,40.43,-31.52,13.84
1105,64548519,0.8496,0.3086,0.5156,40.12,-30.43,13.60
1106,64553003,0.8530,0.3125,0.5103,39.88,-29.76,13.54
1107,64558451,0.8530,0.3154,0.5088,39.45,-28.66,13.29
1108,64562982,0.8555,0.3149,0.5078,38.90,-27.93,13.11
1109,64567983,0.8584,0.3154,0.5024,38.41,-26.95,12.80
1110,64572982,0.8540,0.3193,0.5054,37.87,-25.98,12.56
1111,64577982,0.8589,0.3193,0.4990,37.26,-25.18,12.26
1112,64582982,0.8647,0.3149,0.5000,36.46,-24.15,11.89
1113,64587980,0.8687,0.3130,0.5015,35.61,-23.17,11.65
1114,64592983,0.8735,0.3130,0.4995,34.82,-22.26,11.34
1115,64597982,0.8779,0.3164,0.4941,33.78,-21.52,10.91
1116,64602982,0.8823,0.3135,0.4883,32.80,-20.61,10.43
1117,64607980,0.8833,0.3159,0.4839,31.59,-19.76,10.00
1118,64612983,0.8848,0.3159,0.4839,30.37,-19.15,9.33
1119,64617984,0.8857,0.3203,0.4829,29.02,-18.35,8.78
1120,64622981,0.8931,0.3198,0.4868,27.56,-17.87,8.17
1121,64627984,0.8955,0.3232,0.4863,26.10,-17.38,7.38
1122,64632981,0.8994,0.3276,0.4810,24.57,-16.71,6.65
1123,64637982,0.9072,0.3354,0.4868,23.11,-16.10,5.73
1124,64642981,0.8984,0.3394,0.4873,21.65,-15.67,4.88
1125,64647980,0.8936,0.3389,0.4854,20.43,-15.18,3.96
1126,64652984,0.8975,0.3335,0.4883,19.33,-14.57,3.11
1127,64657981,0.8989,0.3340,0.4873,18.17,-14.09,2.13
1128,64662984,0.8975,0.3340,0.4883,17.62,-13.60,1.40
1129,64668240,0.8936,0.3350,0.4893,17.01,-12.99,0.55
1130,64672982,0.8901,0.3379,0.4961,16.65,-12.50,-0.37
1131,64677985,0.8862,0.3384,0.4980,16.52,-12.13,-1.10
1132,64682982,0.8813,0.3384,0.4985,16.28,-11.46,-2.01
1133,64687984,0.8789,0.3306,0.5068,16.34,-10.91,-2.62
1134,64692981,0.8774,0.3311,0.5034,16.40,-10.30,-3.29
1135,64697980,0.8740,0.3306,0.5054,16.40,-9.70,-3.90
1136,64702984,0.8672,0.3325,0.5005,16.65,-9.09,-4.57
1137,64707982,0.8633,0.3345,0.5044,16.83,-8.54,-5.00
1138,64712982,0.8574,0.3330,0.5034,16.95,-7.99,-5.61
1139,64717982,0.8545,0.3320,0.4985,17.07,-7.38,-6.04
1140,64722982,0.8496,0.3281,0.5029,17.13,-6.77,-6.40
1141,64727982,0.8486,0.3232,0.5005,16.83,-6.22,-6.71
1142,64732982,0.8447,0.3208,0.5005,16.77,-5.67,-7.01
1143,64737980,0.8423,0.3208,0.5005,16.40,-5.18,-7.20
1144,64743053,0.8477,0.3184,0.4976,16.04,-4.76,-7.26
1145,64747981,0.8472,0.3237,0.4946,15.67,-4.27,-7.44
1146,64752983,0.8418,0.3262,0.4946,15.24,-3.78,-7.56
1147,64758014,0.8438,0.3276,0.4912,14.76,-3.54,-7.62
1148,64762983,0.8457,0.3276,0.5010,14.15,-2.93,-7.74
1149,64767982,0.8423,0.3286,0.4922,13.78,-2.44,-7.80
1150,64772981,0.8442,0.3286,0.4971,13.23,-1.95,-7.87
1151,64777982,0.8413,0.3364,0.5044,12.68,-1.59,-7.99
1152,64782981,0.8447,0.3389,0.5044,12.13,-1.10,-8.05
1153,64787982,0.8501,0.3452,0.4937,11.71,-0.73,-8.11
1154,64792981,0.8447,0.3501,0.5034,11.34,-0.24,-8.17
1155,64797984,0.8447,0.3511,0.4995,10.91,0.30,-8.17
1156,64802981,0.8418,0.3525,0.5039,10.24,0.79,-8.35
1157,64808415,0.8457,0.3550,0.5049,9.88,1.28,-8.23
1158,64812983,0.8462,0.3525,0.5078,9.57,1.65,-8.29
1159,64817983,0.8418,0.3618,0.5107,9.09,2.26,-8.48
1160,64822982,0.8389,0.3721,0.5068,8.41,2.74,-8.35
1161,64827982,0.8428,0.3740,0.5059,7.99,3.35,-8.54
1162,64832981,0.8428,0.3794,0.5103,7.62,3.84,-8.48
1163,64837982,0.8413,0.3735,0.5078,6.95,4.33,-8.48
1164,64842981,0.8394,0.3765,0.5049,6.40,4.76,-8.48
1165,64847982,0.8340,0.3794,0.5127,5.85,5.49,-8.54
1166,64852981,0.8359,0.3784,0.5098,5.30,5.91,-8.41
1167,64857981,0.8374,0.3799,0.5137,4.76,6.52,-8.41
1168,64862982,0.8359,0.3809,0.5103,4.15,7.07,-8.35
1169,64867983,0.8354,0.3853,0.5068,3.35,7.50,-8.11
1170,64872982,0.8345,0.3853,0.5034,2.80,8.17,-8.11
1171,64877983,0.8379,0.3813,0.5078,2.01,8.66,-7.99
1172,64882982,0.8345,0.3789,0.5078,1.34,9.21,-7.93
1173,64888212,0.8325,0.3809,0.5059,0.55,9.63,-7.50
1174,64892982,0.8335,0.3843,0.5054,0.00,10.18,-7.26
1175,64897982,0.8354,0.3823,0.5078,-0.85,10.67,-7.26
1176,64902982,0.8359,0.3804,0.5132,-1.34,11.04,-6.95
1177,64908088,0.8379,0.3799,0.5054,-2.01,11.46,-6.71
1178,64912982,0.8398,0.3760,0.5146,-2.44,11.95,-6.28
1179,64917982,0.8398,0.3755,0.5063,-2.93,12.38,-6.04
1180,64922982,0.8408,0.3770,0.5107,-3.41,12.80,-5.67
1181,64927982,0.8452,0.3770,0.5093,-3.66,13.23,-5.43
1182,64932982,0.8418,0.3779,0.5127,-4.02,13.66,-5.18
1183,64937983,0.8428,0.3857,0.5122,-4.21,13.96,-4.88
1184,64942982,0.8467,0.3833,0.5122,-4.39,14.33,-4.76
1185,64947982,0.8447,0.3823,0.5107,-4.51,14.76,-4.57
1186,64952982,0.8477,0.3755,0.5127,-4.51,15.06,-4.27
1187,64957981,0.8521,0.3794,0.5146,-4.63,15.43,-4.15
1188,64962982,0.8496,0.3813,0.5137,-4.70,15.49,-3.84
1189,64967984,0.8535,0.3857,0.5181,-4.76,15.91,-3.72
1190,64972981,0.8550,0.3887,0.5146,-4.88,16.28,-3.54
1191,64977982,0.8540,0.3848,0.5195,-4.94,16.46,-3.35
1192,64982981,0.8540,0.3896,0.5195,-5.06,16.77,-3.23
1193,64987984,0.8564,0.3877,0.5210,-5.06,16.95,-3.11
1194,64992981,0.8599,0.3867,0.5298,-5.18,17.20,-2.93
1195,64998111,0.8574,0.3867,0.5322,-5.18,17.32,-2.87
1196,65002982,0.8535,0.3872,0.5308,-5.24,17.44,-2.87
1197,65007982,0.8501,0.3882,0.5317,-5.18,17.62,-2.68
1198,65012982,0.8457,0.3857,0.5322,-5.06,17.87,-2.56
1199,65017982,0.8428,0.3813,0.5308,-5.00,17.93,-2.32
1200,65022982,0.8408,0.3789,0.5366,-4.88,18.11,-2.07
