# skilleye imu stream v1
# device=xiao_esp32c6 imu=mpu6050 addr=0x68
# rate_hz=200 accel_range_g=16 gyro_range_dps=2000 dlpf_hz=94
# units: accel in g, gyro in deg/s, t_us in microseconds since boot (monotonic)
# no shared clock with the camera -- tap the racket once before each take
# so both recordings share a spike to align on
seq,t_us,ax,ay,az,gx,gy,gz
0,385009787,0.8843,0.4565,0.1880,-16.46,-9.70,-33.48
1,385014785,0.8877,0.4653,0.1953,-12.20,-10.67,-31.71
2,385019788,0.8940,0.4751,0.1958,-7.44,-11.22,-29.82
3,385024789,0.9058,0.4834,0.1772,-2.80,-11.65,-27.87
4,385029786,0.9116,0.4917,0.1812,2.01,-11.95,-25.98
5,385034785,0.9185,0.4980,0.1772,6.77,-12.26,-24.27
6,385039787,0.9243,0.5054,0.1724,11.22,-12.38,-22.56
7,385044979,0.9268,0.5112,0.1709,15.37,-12.38,-20.79
8,385049787,0.9326,0.5186,0.1748,19.02,-12.26,-19.45
9,385054996,0.9370,0.5200,0.1821,22.13,-12.07,-18.23
10,385059804,0.9321,0.5220,0.1841,24.76,-11.77,-17.13
11,385064788,0.9341,0.5142,0.1797,26.52,-11.65,-16.40
12,385069787,0.9229,0.5132,0.1787,27.74,-11.16,-15.61
13,385074785,0.9180,0.5054,0.1812,27.99,-11.04,-15.18
14,385079785,0.9160,0.5078,0.1816,27.56,-10.67,-14.76
15,385084789,0.9111,0.5039,0.1821,26.71,-10.61,-14.51
16,385089786,0.8999,0.5044,0.1772,25.12,-10.18,-14.51
17,385094787,0.8989,0.5059,0.1772,23.17,-10.18,-14.51
18,385099785,0.8931,0.5063,0.1699,20.73,-10.06,-14.88
19,385104787,0.8882,0.5098,0.1763,18.11,-9.94,-15.12
20,385109786,0.8853,0.5171,0.1694,15.30,-9.76,-15.49
21,385114785,0.8848,0.5205,0.1611,12.26,-9.70,-15.98
22,385119786,0.8774,0.5249,0.1611,9.15,-9.33,-16.65
23,385124790,0.8745,0.5303,0.1543,6.34,-9.33,-17.07
24,385129786,0.8687,0.5298,0.1523,3.48,-8.90,-17.50
25,385134787,0.8643,0.5317,0.1470,0.98,-8.90,-17.93
26,385139785,0.8550,0.5317,0.1450,-1.22,-8.60,-18.41
27,385144787,0.8467,0.5317,0.1406,-3.48,-8.41,-18.72
28,385149786,0.8428,0.5298,0.1377,-5.30,-8.29,-18.84
29,385155137,0.8354,0.5264,0.1416,-7.01,-8.05,-18.72
30,385159787,0.8315,0.5244,0.1455,-8.48,-8.05,-18.72
31,385165328,0.8296,0.5278,0.1440,-9.82,-8.11,-18.41
32,385169787,0.8325,0.5288,0.1450,-10.43,-8.11,-18.23
33,385174786,0.8350,0.5317,0.1494,-11.22,-8.05,-17.80
34,385179785,0.8359,0.5361,0.1470,-11.46,-8.17,-17.44
35,385184788,0.8418,0.5371,0.1499,-11.46,-8.11,-16.95
36,385189786,0.8462,0.5391,0.1475,-11.34,-8.23,-16.65
37,385194790,0.8516,0.5415,0.1465,-10.98,-8.23,-16.16
38,385199789,0.8540,0.5430,0.1484,-10.37,-8.23,-15.73
39,385204786,0.8589,0.5444,0.1475,-9.51,-8.23,-15.18
40,385209789,0.8643,0.5430,0.1455,-8.54,-7.99,-14.94
41,385214785,0.8647,0.5459,0.1499,-7.44,-7.93,-14.45
42,385219785,0.8701,0.5474,0.1450,-6.16,-7.93,-14.09
43,385224787,0.8735,0.5522,0.1523,-5.00,-7.68,-13.72
44,385229786,0.8735,0.5542,0.1455,-3.72,-7.50,-13.35
45,385235115,0.8740,0.5547,0.1543,-2.50,-7.20,-12.93
46,385239788,0.8735,0.5527,0.1489,-1.22,-6.95,-12.56
47,385244787,0.8735,0.5586,0.1499,-0.24,-6.71,-12.20
48,385249787,0.8721,0.5547,0.1431,0.91,-6.59,-11.65
49,385254785,0.8716,0.5562,0.1528,1.71,-6.28,-11.28
50,385259789,0.8701,0.5513,0.1445,2.44,-6.16,-10.79
51,385264785,0.8677,0.5479,0.1499,3.05,-6.10,-10.24
52,385269787,0.8691,0.5444,0.1455,3.41,-6.10,-9.88
53,385274786,0.8706,0.5430,0.1465,3.41,-6.04,-9.27
54,385279788,0.8687,0.5459,0.1416,3.48,-6.22,-8.96
55,385284785,0.8716,0.5381,0.1489,3.48,-6.16,-8.66
56,385289788,0.8696,0.5420,0.1460,3.05,-6.16,-8.23
57,385294787,0.8740,0.5371,0.1494,2.68,-6.22,-7.74
58,385299785,0.8755,0.5376,0.1533,2.20,-6.46,-7.44
59,385304789,0.8760,0.5371,0.1519,1.65,-6.65,-7.01
60,385309786,0.8809,0.5337,0.1489,1.10,-6.46,-6.77
61,385314787,0.8779,0.5361,0.1558,0.55,-6.59,-6.65
62,385319785,0.8755,0.5322,0.1577,0.06,-6.40,-6.40
63,385324819,0.8804,0.5278,0.1504,-0.73,-6.28,-6.22
64,385330275,0.8804,0.5312,0.1592,-1.22,-6.34,-6.22
65,385334789,0.8779,0.5264,0.1514,-1.89,-6.28,-6.10
66,385339786,0.8784,0.5239,0.1602,-2.38,-6.34,-6.10
67,385344787,0.8774,0.5205,0.1548,-2.93,-6.34,-6.04
68,385349785,0.8696,0.5171,0.1602,-3.66,-6.40,-6.34
69,385354789,0.8652,0.5146,0.1641,-4.09,-6.40,-6.46
70,385359786,0.8638,0.5107,0.1650,-4.82,-6.46,-6.59
71,385364785,0.8604,0.5063,0.1724,-5.30,-6.59,-6.89
72,385369789,0.8599,0.5044,0.1738,-5.73,-6.89,-7.20
73,385374787,0.8579,0.5078,0.1699,-6.22,-6.95,-7.62
74,385379786,0.8560,0.5107,0.1753,-6.65,-7.07,-7.99
75,385384789,0.8599,0.5112,0.1699,-7.01,-7.44,-8.29
76,385389785,0.8545,0.5107,0.1743,-7.20,-7.56,-8.84
77,385394789,0.8535,0.5073,0.1714,-7.50,-7.87,-9.39
78,385399786,0.8506,0.5049,0.1743,-7.62,-8.29,-9.94
79,385404787,0.8506,0.5020,0.1709,-7.80,-8.54,-10.37
80,385409785,0.8423,0.4985,0.1748,-7.93,-8.96,-10.91
81,385414787,0.8359,0.4971,0.1821,-7.99,-9.27,-11.34
82,385419786,0.8354,0.4927,0.1709,-8.11,-9.88,-11.89
83,385424785,0.8350,0.4927,0.1738,-7.99,-10.30,-12.20
84,385429785,0.8315,0.4888,0.1802,-7.87,-10.67,-12.62
85,385434789,0.8354,0.4927,0.1772,-7.56,-11.28,-13.05
86,385439786,0.8394,0.4985,0.1792,-7.38,-11.65,-13.35
87,385444785,0.8423,0.4980,0.1831,-6.83,-11.89,-13.72
88,385449788,0.8408,0.5000,0.1821,-6.28,-12.26,-13.90
89,385455289,0.8413,0.5088,0.1753,-5.49,-12.44,-14.27
90,385459787,0.8359,0.5083,0.1743,-4.70,-12.44,-14.51
91,385464788,0.8325,0.5166,0.1743,-3.78,-12.56,-14.70
92,385469787,0.8301,0.5156,0.1689,-2.87,-12.50,-15.00
93,385474788,0.8242,0.5215,0.1641,-2.01,-12.56,-15.30
94,385479787,0.8237,0.5264,0.1602,-1.34,-12.50,-15.61
95,385484785,0.8267,0.5347,0.1553,-0.61,-12.74,-16.04
96,385489789,0.8242,0.5425,0.1519,-0.30,-12.68,-16.40
97,385494787,0.8301,0.5552,0.1440,0.12,-12.68,-16.83
98,385499787,0.8306,0.5576,0.1396,0.37,-12.80,-17.26
99,385504786,0.8369,0.5664,0.1362,0.43,-12.80,-17.80
100,385509787,0.8384,0.5713,0.1323,0.61,-12.74,-18.17
101,385514787,0.8359,0.5742,0.1348,0.37,-12.56,-18.60
102,385519787,0.8384,0.5767,0.1338,0.30,-12.32,-18.96
103,385524785,0.8354,0.5825,0.1333,-0.12,-11.95,-19.33
104,385529948,0.8374,0.5845,0.1323,-0.79,-11.59,-19.63
105,385534789,0.8442,0.5889,0.1265,-1.71,-11.40,-19.94
106,385539786,0.8374,0.5923,0.1279,-2.68,-11.10,-20.12
107,385544787,0.8413,0.5967,0.1138,-3.78,-10.85,-20.55
108,385549786,0.8423,0.5996,0.1113,-5.24,-10.85,-20.73
109,385554787,0.8398,0.6074,0.1094,-6.65,-10.85,-20.91
110,385559785,0.8379,0.6152,0.1025,-8.05,-10.79,-21.04
111,385564789,0.8379,0.6182,0.1108,-9.51,-10.91,-21.16
112,385569786,0.8315,0.6196,0.1006,-10.91,-11.16,-21.28
113,385574788,0.8325,0.6274,0.0952,-12.07,-11.22,-21.40
114,385579786,0.8330,0.6289,0.0957,-13.05,-11.22,-21.40
115,385584789,0.8369,0.6323,0.0972,-13.84,-11.34,-21.52
116,385589786,0.8320,0.6338,0.0977,-14.45,-11.34,-21.34
117,385595214,0.8208,0.6362,0.0981,-14.88,-11.46,-21.16
118,385599787,0.8184,0.6348,0.1021,-15.06,-11.22,-20.91
119,385604788,0.8213,0.6313,0.1021,-14.94,-10.91,-20.55
120,385609787,0.8218,0.6338,0.1011,-14.70,-10.67,-20.06
121,385614787,0.8252,0.6328,0.0957,-14.27,-10.49,-19.63
122,385619787,0.8311,0.6396,0.1001,-13.72,-10.24,-19.15
123,385624786,0.8330,0.6416,0.0903,-12.99,-9.76,-18.66
124,385629785,0.8350,0.6382,0.0820,-12.13,-9.45,-18.11
125,385635201,0.8433,0.6353,0.0908,-11.16,-8.90,-17.62
126,385639788,0.8496,0.6357,0.0811,-10.24,-8.35,-17.07
127,385644787,0.8467,0.6377,0.0776,-8.96,-7.74,-16.46
128,385649787,0.8550,0.6372,0.0762,-7.62,-7.20,-15.79
129,385654785,0.8623,0.6367,0.0708,-6.52,-6.59,-15.18
130,385659787,0.8682,0.6343,0.0703,-5.12,-5.67,-14.51
131,385664787,0.8804,0.6240,0.0581,-3.84,-4.88,-13.84
132,385669787,0.8887,0.6196,0.0537,-2.62,-4.02,-13.05
133,385674854,0.8916,0.6040,0.0464,-1.22,-3.17,-12.20
134,385679787,0.8931,0.5933,0.0317,-0.06,-2.44,-11.16
135,385684786,0.9038,0.5737,0.0308,1.16,-1.89,-9.94
136,385689788,0.9121,0.5596,0.0171,2.32,-1.28,-8.66
137,385694787,0.9185,0.5591,0.0122,3.41,-0.55,-7.01
138,385699787,0.8999,0.5562,0.0176,4.57,0.06,-5.18
139,385704787,0.8965,0.5669,0.0034,5.67,0.49,-3.41
140,385709787,0.9297,0.5562,-0.0146,7.01,0.91,-1.52
141,385714786,0.9409,0.5425,0.0034,8.66,1.59,0.49
142,385719787,0.9360,0.5283,0.0176,10.55,2.44,2.87
143,385725099,0.9297,0.5200,0.0132,12.74,3.11,5.12
144,385729787,0.9258,0.5303,0.0303,15.43,3.84,7.44
145,385734786,0.9136,0.5425,0.0371,18.48,4.82,9.82
146,385739787,0.9048,0.5571,0.0391,21.95,5.91,12.26
147,385744787,0.9111,0.5679,0.0464,25.55,7.01,14.63
148,385749787,0.9150,0.5752,0.0522,29.63,8.17,16.89
149,385754788,0.9297,0.5796,0.0669,33.96,9.39,19.15
150,385759787,0.9253,0.5874,0.0796,38.29,10.98,21.40
151,385764787,0.9170,0.6069,0.0742,42.74,12.20,23.41
152,385769787,0.8999,0.6255,0.0830,47.32,13.60,25.12
153,385774786,0.8867,0.6431,0.0928,51.83,15.24,26.89
154,385779787,0.8848,0.6650,0.0996,56.22,16.77,28.23
155,385784786,0.8833,0.6875,0.0947,60.30,18.17,29.39
156,385789789,0.8882,0.7100,0.1016,64.27,19.82,30.30
157,385794787,0.8999,0.7256,0.1035,67.87,21.46,30.79
158,385799931,0.9053,0.7305,0.1040,71.04,23.05,31.10
159,385804787,0.8945,0.7334,0.1089,73.48,24.51,31.46
160,385809786,0.8833,0.7329,0.1182,75.43,26.04,31.40
161,385814787,0.8691,0.7402,0.1206,76.95,27.87,31.28
162,385819786,0.8496,0.7432,0.1313,77.80,29.39,30.91
163,385824789,0.8379,0.7344,0.1392,78.23,31.10,30.55
164,385829785,0.8257,0.7314,0.1357,78.11,32.20,30.12
165,385834785,0.8081,0.7197,0.1431,77.56,33.96,29.57
166,385839787,0.7827,0.7148,0.1479,76.22,36.16,28.54
167,385844789,0.7744,0.7168,0.1543,75.06,37.38,27.80
168,385849786,0.7861,0.7065,0.1602,73.23,38.84,26.89
169,385854785,0.7842,0.7012,0.1597,71.16,40.18,25.73
170,385859787,0.7754,0.6982,0.1631,68.54,41.71,24.51
171,385864787,0.7632,0.6938,0.1685,65.79,43.11,23.11
172,385869787,0.7393,0.6973,0.1655,62.56,44.45,21.59
173,385874786,0.7271,0.7021,0.1729,59.27,45.98,19.94
174,385879787,0.7148,0.7041,0.1738,55.73,47.07,18.29
175,385884787,0.7021,0.7046,0.1816,52.32,48.35,16.22
176,385889787,0.6924,0.7056,0.1904,48.54,49.45,14.21
177,385894785,0.6963,0.7036,0.1890,44.76,50.49,12.13
178,385899789,0.6948,0.7041,0.1997,40.79,51.65,10.00
179,385904787,0.6924,0.7090,0.1992,36.83,52.50,7.68
180,385909787,0.6855,0.7129,0.2002,32.87,53.41,5.30
181,385914785,0.6587,0.7285,0.1963,28.90,54.02,2.68
182,385919788,0.6782,0.7261,0.1963,25.24,54.70,0.12
183,385924787,0.6855,0.7241,0.1885,20.98,55.30,-3.11
184,385929787,0.6875,0.7178,0.1924,18.11,55.61,-5.24
185,385934785,0.6782,0.7163,0.1885,14.57,55.91,-8.05
186,385939790,0.6699,0.7129,0.1836,10.79,56.04,-10.85
187,385944785,0.6567,0.7090,0.1729,6.95,56.10,-13.60
188,385949786,0.6646,0.7173,0.1597,3.05,55.91,-16.46
189,385954904,0.6641,0.7334,0.1548,-1.71,55.49,-20.00
190,385959785,0.6499,0.7314,0.1294,-4.76,55.06,-22.26
191,385964785,0.6489,0.7246,0.1299,-8.41,54.39,-25.18
192,385969788,0.6572,0.7188,0.1553,-12.20,53.84,-27.99
193,385974789,0.6558,0.7153,0.1450,-15.98,53.17,-30.79
194,385979786,0.6401,0.7139,0.1196,-19.63,52.26,-33.66
195,385984789,0.6221,0.7153,0.1206,-23.23,51.59,-36.28
196,385989785,0.6060,0.7124,0.1245,-26.65,50.43,-38.84
197,385994786,0.5830,0.7075,0.1123,-30.12,49.57,-41.40
198,385999791,0.5679,0.7441,0.1074,-33.54,48.72,-43.90
199,386004785,0.5640,0.7466,0.1025,-36.59,47.80,-46.59
200,386009789,0.5879,0.7080,0.1060,-39.51,46.77,-49.21
201,386014787,0.5972,0.6816,0.1089,-42.38,45.79,-51.40
202,386019787,0.6006,0.6597,0.1172,-45.24,44.70,-53.48
203,386024786,0.6064,0.6514,0.1152,-48.11,43.72,-55.37
204,386029787,0.6055,0.6523,0.1157,-51.16,42.87,-57.01
205,386034885,0.6060,0.6592,0.1123,-53.72,41.95,-58.90
206,386039787,0.6108,0.6646,0.1201,-56.22,40.98,-60.49
207,386044785,0.5991,0.6543,0.1294,-58.72,40.12,-62.07
208,386049789,0.5918,0.6328,0.1270,-61.22,39.39,-63.41
209,386054786,0.5859,0.6177,0.1392,-63.35,38.78,-64.45
210,386059789,0.5889,0.6001,0.1509,-65.30,38.17,-65.30
211,386064792,0.5967,0.5898,0.1699,-67.01,37.74,-65.98
212,386069787,0.5972,0.5781,0.1929,-68.41,37.44,-66.65
213,386074788,0.6021,0.5684,0.2100,-69.63,37.38,-67.07
214,386079787,0.6016,0.5605,0.2158,-70.43,37.32,-67.32
215,386085328,0.5806,0.5586,0.2305,-71.28,37.32,-67.32
216,386089788,0.5903,0.5444,0.2544,-71.95,37.50,-67.26
217,386094787,0.6289,0.5479,0.2476,-72.26,37.74,-67.13
218,386099787,0.6592,0.5605,0.2485,-72.07,38.05,-67.07
219,386104785,0.6904,0.5723,0.2769,-71.40,38.35,-66.83
220,386109788,0.6890,0.5693,0.2915,-70.12,38.90,-66.46
221,386114861,0.6841,0.5630,0.2871,-68.54,39.51,-65.85
222,386119788,0.6777,0.5508,0.2876,-66.52,40.00,-65.18
223,386124788,0.6787,0.5454,0.3149,-64.27,40.91,-64.33
224,386129787,0.6812,0.5493,0.3413,-61.52,41.83,-63.41
225,386134786,0.6812,0.5430,0.3618,-58.72,42.74,-62.38
226,386139789,0.6895,0.5386,0.3760,-55.98,43.66,-61.34
227,386144786,0.7168,0.5483,0.3799,-53.35,44.88,-60.24
228,386149790,0.7446,0.5449,0.3530,-50.67,45.79,-58.90
229,386154787,0.7554,0.5190,0.3491,-48.17,46.22,-57.26
230,386159785,0.7417,0.5527,0.3955,-45.85,46.65,-55.12
231,386164786,0.7324,0.5889,0.4102,-42.99,47.07,-53.48
232,386169787,0.7383,0.5977,0.4126,-40.06,47.93,-51.89
233,386174787,0.7505,0.6050,0.4316,-36.83,48.84,-50.43
234,386179787,0.7646,0.6118,0.4458,-33.72,49.63,-49.02
235,386184786,0.7798,0.6196,0.4487,-30.67,50.55,-47.50
236,386189788,0.7881,0.6265,0.4658,-27.80,51.52,-46.10
237,386194787,0.7925,0.6289,0.4746,-25.43,52.44,-44.70
238,386199787,0.7969,0.6421,0.4834,-23.35,53.54,-43.41
239,386204786,0.8013,0.6514,0.4888,-21.65,54.45,-42.32
240,386209787,0.8042,0.6699,0.4673,-20.43,55.30,-41.52
241,386214785,0.8237,0.7134,0.3999,-19.27,55.30,-41.04
242,386219785,0.8604,0.7227,0.3594,-18.41,53.84,-41.52
243,386224785,0.8779,0.6626,0.3721,-18.11,51.65,-41.89
244,386229785,0.8657,0.6436,0.3652,-18.35,48.54,-42.13
245,386234785,0.8257,0.6284,0.3066,-18.66,44.27,-42.62
246,386239785,0.7788,0.6016,0.3394,-19.57,38.78,-43.23
247,386244785,0.7559,0.5259,0.4761,-20.49,33.11,-43.48
248,386249785,0.7271,0.4561,0.5630,-21.71,28.66,-42.87
249,386254785,0.6880,0.4224,0.6387,-22.74,25.30,-41.46
250,386259790,0.6777,0.4312,0.7002,-23.29,23.35,-39.33
251,386264787,0.6558,0.5166,0.6768,-23.35,22.01,-37.32
252,386269786,0.6157,0.5825,0.6396,-23.29,20.18,-36.59
253,386274787,0.6064,0.5933,0.6401,-23.78,18.54,-36.10
254,386279787,0.6221,0.5869,0.6396,-24.63,16.65,-35.73
255,386284789,0.6411,0.5908,0.6465,-26.04,14.94,-35.37
256,386289786,0.6440,0.6016,0.6416,-28.05,13.29,-34.94
257,386294788,0.6465,0.6274,0.6313,-30.06,11.65,-34.63
258,386299785,0.6533,0.6504,0.6304,-32.07,10.18,-34.63
259,386304785,0.6851,0.6753,0.6577,-34.51,8.84,-34.63
260,386310162,0.6831,0.6699,0.6714,-37.50,7.99,-34.76
261,386314787,0.6870,0.6675,0.6504,-40.85,6.95,-34.70
262,386319786,0.7129,0.6660,0.6294,-43.96,5.43,-34.45
263,386324787,0.7324,0.6641,0.6123,-46.95,3.78,-33.78
264,386329785,0.7505,0.6680,0.6143,-49.63,2.13,-33.23
265,386334785,0.7583,0.6699,0.5938,-51.95,0.43,-32.32
266,386339789,0.7495,0.6650,0.5820,-53.84,-1.40,-31.28
267,386344786,0.7329,0.6714,0.6074,-55.37,-2.93,-30.12
268,386349787,0.7109,0.6855,0.5933,-56.22,-4.51,-29.09
269,386354786,0.6865,0.6831,0.6104,-56.34,-5.79,-27.87
270,386359787,0.6758,0.6870,0.6279,-56.28,-7.20,-26.95
271,386364785,0.6802,0.6699,0.6284,-55.61,-8.35,-25.98
272,386369788,0.6797,0.6572,0.6333,-54.51,-9.57,-25.12
273,386374788,0.6885,0.6475,0.6382,-52.93,-10.61,-24.09
274,386379787,0.6875,0.6392,0.6445,-50.85,-11.40,-23.23
275,386384787,0.6958,0.6338,0.6455,-48.29,-12.32,-22.50
276,386389787,0.6904,0.6323,0.6362,-45.43,-12.80,-21.83
277,386394788,0.6943,0.6196,0.6367,-42.26,-13.35,-21.04
278,386399786,0.6855,0.6104,0.6323,-39.09,-13.66,-20.37
279,386404787,0.6934,0.6040,0.6309,-36.10,-14.02,-19.57
280,386409785,0.6968,0.5874,0.6177,-33.54,-14.27,-18.84
281,386414787,0.7017,0.5747,0.6177,-31.40,-14.45,-17.93
282,386419786,0.6924,0.5684,0.6167,-29.76,-14.63,-17.01
283,386424787,0.6860,0.5664,0.6162,-28.96,-14.82,-16.16
284,386429785,0.6719,0.5684,0.6079,-28.96,-14.94,-15.55
285,386434786,0.6616,0.5732,0.5981,-29.51,-15.24,-15.06
286,386439788,0.6650,0.5786,0.5850,-30.98,-15.55,-14.82
287,386444785,0.6670,0.5835,0.5859,-32.87,-15.79,-14.70
288,386449787,0.6743,0.5898,0.5732,-35.55,-16.22,-14.94
289,386454786,0.6689,0.5552,0.6104,-38.66,-16.71,-15.06
290,386459827,0.6650,0.5635,0.5752,-42.80,-16.89,-15.30
291,386464787,0.6582,0.5688,0.5469,-47.32,-17.50,-15.85
292,386469787,0.6372,0.5601,0.5576,-52.32,-17.74,-16.28
293,386474787,0.6475,0.5449,0.5342,-58.23,-18.11,-17.01
294,386479787,0.6748,0.5435,0.5200,-64.63,-18.29,-17.62
295,386484787,0.6870,0.5430,0.5347,-71.34,-18.23,-18.29
296,386489787,0.6982,0.5322,0.5488,-78.05,-17.87,-19.09
297,386494787,0.7056,0.5352,0.5386,-84.63,-17.68,-19.57
298,386499845,0.7085,0.5386,0.5405,-91.10,-17.20,-20.24
299,386504787,0.7021,0.5356,0.5435,-97.32,-16.65,-21.04
300,386509787,0.6943,0.5337,0.5469,-103.23,-15.98,-21.71
301,386514785,0.6802,0.5322,0.5435,-108.72,-15.37,-22.32
302,386519787,0.6689,0.5249,0.5527,-113.72,-14.39,-23.05
303,386524786,0.6602,0.5298,0.5571,-118.23,-13.35,-23.72
304,386529787,0.6528,0.5239,0.5537,-122.26,-12.38,-24.51
305,386534787,0.6553,0.5347,0.5542,-125.79,-11.59,-25.37
306,386539785,0.6494,0.5356,0.5640,-128.72,-10.43,-26.10
307,386544787,0.6567,0.5352,0.5562,-131.04,-9.45,-26.77
308,386549787,0.6587,0.5449,0.5488,-132.32,-8.54,-27.44
309,386554786,0.6631,0.5527,0.5469,-132.99,-7.62,-28.29
310,386559787,0.6592,0.5527,0.5571,-132.68,-6.59,-28.90
311,386564787,0.6299,0.5498,0.5732,-131.40,-5.67,-29.45
312,386569787,0.6309,0.5566,0.5938,-129.33,-4.63,-29.88
313,386574787,0.6357,0.5601,0.5874,-126.65,-3.66,-30.49
314,386579787,0.6455,0.5693,0.5806,-123.29,-2.80,-30.73
315,386584787,0.6465,0.5859,0.5986,-119.33,-1.77,-30.79
316,386589787,0.6221,0.6128,0.6250,-115.18,-0.73,-31.04
317,386594787,0.6006,0.6182,0.6577,-110.85,0.43,-31.10
318,386599787,0.5938,0.6133,0.6646,-106.59,1.40,-31.04
319,386604810,0.5957,0.6187,0.6821,-102.32,2.44,-30.85
320,386609787,0.6016,0.6211,0.6904,-98.23,3.05,-30.67
321,386614787,0.6050,0.6377,0.7017,-94.63,3.66,-30.67
322,386619789,0.5986,0.6470,0.7036,-91.34,4.02,-30.85
323,386624787,0.5913,0.6445,0.7124,-88.29,4.15,-30.91
324,386629787,0.5942,0.6362,0.7192,-85.67,3.84,-30.98
325,386634787,0.6108,0.6172,0.7305,-83.11,3.29,-30.98
326,386639787,0.6240,0.6060,0.7456,-81.16,2.87,-30.79
327,386644787,0.6191,0.6021,0.7676,-79.88,2.26,-30.61
328,386649787,0.6177,0.5923,0.7485,-78.84,1.46,-30.49
329,386654787,0.6025,0.6001,0.7910,-78.35,0.79,-30.37
330,386659787,0.5879,0.6021,0.8062,-78.41,0.18,-30.30
331,386664787,0.5703,0.6011,0.7974,-78.78,-0.24,-30.61
332,386670113,0.5518,0.5986,0.8101,-79.45,-0.98,-30.91
333,386674788,0.5337,0.5918,0.8135,-80.49,-1.83,-31.34
334,386679787,0.5264,0.5776,0.8110,-81.46,-2.62,-31.83
335,386684787,0.5176,0.5659,0.8140,-82.26,-3.41,-32.20
336,386689787,0.5171,0.5508,0.8257,-82.93,-4.15,-32.56
337,386694787,0.5195,0.5332,0.8359,-83.29,-5.00,-32.68
338,386699787,0.5122,0.5269,0.8374,-82.99,-5.61,-32.62
339,386704789,0.5132,0.5166,0.8345,-82.68,-6.28,-32.38
340,386709786,0.5078,0.5151,0.8438,-82.26,-6.77,-32.13
341,386714785,0.4863,0.5005,0.8467,-81.52,-7.38,-31.40
342,386720194,0.4771,0.5044,0.8442,-80.67,-7.80,-31.04
343,386724886,0.4761,0.5146,0.8457,-79.82,-8.35,-30.67
344,386730344,0.4731,0.5347,0.8457,-79.33,-8.78,-30.55
345,386734787,0.4746,0.5464,0.8340,-79.15,-9.39,-30.37
346,386739786,0.4712,0.5508,0.8340,-78.96,-10.00,-30.18
347,386744789,0.4731,0.5508,0.8369,-78.96,-10.49,-30.00
348,386750256,0.4824,0.5425,0.8433,-78.60,-11.22,-29.76
349,386754789,0.4902,0.5415,0.8486,-78.48,-11.65,-29.45
350,386759786,0.4995,0.5366,0.8506,-78.29,-11.95,-29.21
351,386764787,0.5083,0.5410,0.8462,-78.29,-12.20,-28.96
352,386769785,0.5239,0.5444,0.8467,-78.35,-12.26,-28.84
353,386774854,0.5405,0.5454,0.8462,-78.60,-12.44,-28.78
354,386780103,0.5464,0.5483,0.8521,-78.96,-12.44,-28.66
355,386784787,0.5615,0.5391,0.8525,-79.51,-12.44,-28.54
356,386790309,0.5688,0.5420,0.8599,-80.24,-12.26,-28.35
357,386794787,0.5645,0.5342,0.8711,-81.22,-12.01,-28.41
358,386799786,0.5620,0.5181,0.8711,-82.32,-11.52,-28.41
359,386804788,0.5503,0.5000,0.8667,-83.23,-11.28,-28.41
360,386809785,0.5444,0.4937,0.8726,-84.27,-11.04,-28.60
361,386814787,0.5366,0.4805,0.8760,-85.24,-10.91,-28.66
362,386819786,0.5298,0.4678,0.8687,-86.16,-10.61,-28.78
363,386824787,0.5337,0.4546,0.8784,-86.83,-10.43,-28.96
364,386829785,0.5322,0.4487,0.8804,-87.56,-10.12,-29.27
365,386834787,0.5312,0.4429,0.8965,-87.74,-9.51,-29.76
366,386839786,0.5200,0.4287,0.8887,-87.74,-9.02,-30.24
367,386844787,0.5098,0.4233,0.8882,-87.32,-8.35,-30.67
368,386849785,0.5273,0.3740,0.8970,-86.22,-7.68,-30.91
369,386854787,0.5137,0.3833,0.9199,-85.18,-6.65,-30.98
370,386859787,0.5044,0.3916,0.9160,-83.17,-5.12,-31.04
371,386864787,0.5278,0.4160,0.9590,-80.55,-3.05,-31.59
372,386869786,0.5073,0.4209,0.9033,-77.62,-1.71,-32.07
373,386874787,0.5142,0.2988,0.8555,-72.80,-0.55,-32.50
374,386879892,0.5293,0.3291,0.9014,-65.85,1.16,-32.68
375,386884789,0.4873,0.3188,0.8945,-60.61,2.74,-32.99
376,386889786,0.4678,0.3657,0.8311,-53.54,4.02,-33.35
377,386894787,0.4707,0.2881,0.8745,-45.43,5.12,-33.78
378,386899785,0.4712,0.2114,0.9062,-37.68,6.83,-32.80
379,386904789,0.4644,0.1831,0.9092,-30.06,8.72,-31.28
380,386909786,0.4438,0.1870,0.8906,-20.61,10.98,-28.72
381,386914787,0.4170,0.1763,0.8838,-14.21,12.50,-26.59
382,386919785,0.4033,0.1963,0.8691,-6.59,13.78,-24.09
383,386924787,0.3965,0.2295,0.8711,0.79,14.76,-21.59
384,386929786,0.4160,0.2480,0.8994,7.50,15.55,-19.45
385,386934787,0.4463,0.2461,0.9224,14.15,16.59,-17.32
386,386939785,0.4736,0.2397,0.9438,20.30,17.38,-15.73
387,386944787,0.5044,0.2358,0.9653,25.85,18.48,-14.09
388,386949786,0.5015,0.2300,0.9795,30.43,19.57,-12.80
389,386954787,0.4951,0.2266,0.9854,34.09,20.12,-11.46
390,386959785,0.4810,0.2295,1.0000,36.77,21.04,-10.49
391,386964789,0.4683,0.2349,1.0264,38.66,21.52,-9.63
392,386969786,0.4609,0.2446,1.0444,39.02,22.13,-9.21
393,386974787,0.4512,0.2520,1.0449,38.29,22.38,-8.84
394,386979786,0.4385,0.2480,1.0464,36.22,22.20,-8.72
395,386984787,0.4224,0.2485,1.0591,32.50,21.89,-9.15
396,386989786,0.4150,0.2402,1.0830,27.87,21.22,-9.70
397,386994787,0.4219,0.2300,1.1006,21.77,20.61,-10.55
398,386999785,0.4307,0.2222,1.1099,14.82,19.88,-11.59
399,387004787,0.4307,0.2144,1.1221,7.13,18.96,-12.80
400,387009786,0.4175,0.2095,1.1343,-1.22,17.93,-14.15
401,387014787,0.3965,0.2231,1.1436,-9.88,16.77,-15.79
402,387019785,0.3623,0.2407,1.1499,-18.78,15.24,-17.87
403,387024787,0.3481,0.2178,1.1470,-27.62,13.41,-20.49
404,387029786,0.3599,0.1587,1.1533,-36.04,11.04,-22.68
405,387034787,0.3711,0.1348,1.1812,-44.02,8.54,-24.39
406,387039785,0.3608,0.1401,1.2104,-51.65,6.22,-26.16
407,387044787,0.3652,0.1445,1.2300,-58.72,4.15,-27.68
408,387049786,0.3745,0.1543,1.2217,-65.06,2.01,-29.33
409,387054787,0.3760,0.1499,1.2158,-70.73,-0.30,-30.85
410,387059787,0.3691,0.1504,1.2192,-75.43,-2.93,-32.20
411,387064787,0.3804,0.1567,1.2271,-79.33,-5.49,-33.29
412,387070038,0.3789,0.1562,1.2407,-82.74,-7.99,-34.39
413,387074787,0.3760,0.1499,1.2422,-84.15,-9.94,-35.00
414,387079786,0.3750,0.1343,1.2480,-85.00,-12.32,-35.55
415,387084789,0.3701,0.1240,1.2495,-85.06,-14.45,-35.98
416,387089785,0.3726,0.1172,1.2510,-84.15,-16.95,-36.10
417,387094787,0.3633,0.1152,1.2441,-82.50,-19.51,-36.22
418,387099789,0.3618,0.1084,1.2451,-80.24,-22.20,-36.40
419,387104786,0.3599,0.1025,1.2524,-77.26,-25.00,-36.65
420,387109787,0.3633,0.0913,1.2637,-74.15,-27.87,-36.89
421,387114787,0.3633,0.0752,1.2725,-70.85,-30.55,-37.20
422,387119788,0.3638,0.0562,1.2783,-67.56,-33.17,-37.56
423,387124787,0.3652,0.0415,1.2876,-64.63,-35.49,-38.05
424,387129787,0.3716,0.0278,1.2979,-62.20,-37.62,-38.54
425,387134787,0.3774,0.0215,1.3086,-60.49,-39.57,-39.15
426,387139787,0.3838,0.0186,1.3101,-59.63,-41.10,-39.57
427,387144787,0.3877,0.0195,1.3101,-59.70,-42.80,-40.18
428,387149787,0.3955,0.0293,1.3130,-60.67,-44.33,-40.67
429,387154787,0.4058,0.0269,1.3140,-62.38,-45.79,-41.40
430,387159896,0.4131,0.0332,1.3267,-64.82,-47.38,-41.95
431,387164789,0.4165,0.0356,1.3403,-67.56,-48.84,-42.68
432,387169786,0.4204,0.0327,1.3584,-70.79,-50.30,-43.35
433,387174787,0.4258,0.0293,1.3760,-73.96,-51.83,-44.09
434,387179785,0.4292,0.0322,1.4009,-76.83,-53.17,-44.88
435,387184788,0.4360,0.0254,1.4326,-79.27,-54.88,-45.61
436,387189787,0.3970,0.0190,1.4614,-81.59,-56.46,-46.34
437,387194788,0.4204,0.0259,1.4814,-83.60,-58.41,-47.13
438,387199787,0.4521,0.0327,1.4927,-85.73,-60.43,-47.87
439,387204787,0.4761,0.0259,1.5078,-88.17,-62.68,-48.66
440,387209787,0.4805,0.0215,1.5249,-90.98,-64.70,-49.39
441,387214787,0.4785,0.0171,1.5410,-93.60,-66.77,-50.18
442,387220300,0.4390,0.0239,1.5654,-97.07,-69.09,-50.98
443,387224787,0.4272,0.0181,1.5537,-99.21,-70.73,-51.52
444,387229786,0.4336,0.0200,1.5518,-102.38,-72.62,-52.07
445,387234788,0.4331,0.0171,1.5459,-106.10,-74.70,-52.50
446,387240218,0.4302,0.0195,1.5454,-110.85,-77.20,-53.11
447,387244787,0.4263,0.0220,1.5498,-114.33,-78.66,-53.54
448,387249786,0.4175,0.0205,1.5454,-118.96,-80.79,-53.96
449,387254787,0.4033,0.0225,1.5469,-123.54,-82.68,-54.33
450,387259785,0.3921,0.0269,1.5454,-128.29,-84.94,-54.63
451,387264787,0.3848,0.0273,1.5430,-132.74,-87.07,-55.12
452,387269785,0.3809,0.0254,1.5532,-137.32,-89.27,-55.43
453,387274789,0.3730,0.0264,1.5518,-141.77,-91.59,-55.79
454,387279786,0.3706,0.0303,1.5444,-146.04,-93.84,-56.10
455,387284788,0.3730,0.0352,1.5410,-150.30,-96.28,-56.34
456,387289785,0.3706,0.0430,1.5430,-154.57,-98.60,-56.65
457,387294785,0.3687,0.0527,1.5278,-158.78,-100.73,-57.01
458,387299785,0.3652,0.0586,1.5264,-162.93,-103.17,-57.44
459,387304785,0.3633,0.0645,1.5205,-167.13,-105.12,-57.87
460,387309785,0.3428,0.0767,1.5107,-171.10,-107.44,-58.41
461,387314785,0.2969,0.0947,1.5015,-174.39,-109.63,-59.45
462,387319786,0.3301,0.0605,1.4966,-177.26,-111.40,-60.18
463,387324785,0.3740,0.0400,1.4829,-180.18,-113.29,-60.79
464,387330463,0.4097,0.0405,1.5039,-183.66,-115.06,-61.65
465,387334790,0.4150,0.0469,1.5171,-185.91,-115.91,-62.38
466,387339786,0.4116,0.0557,1.4805,-189.02,-117.13,-63.35
467,387344787,0.4048,0.0674,1.4360,-192.07,-118.48,-64.63
468,387349788,0.4023,0.0718,1.4219,-195.06,-120.30,-65.91
469,387354786,0.3984,0.0796,1.4150,-197.99,-122.32,-67.32
470,387359785,0.4004,0.0845,1.3979,-200.91,-124.39,-68.60
471,387364788,0.4014,0.0947,1.4028,-203.48,-126.34,-69.88
472,387369787,0.4077,0.1030,1.3965,-206.10,-128.23,-71.34
473,387374786,0.4155,0.1055,1.3911,-208.60,-129.63,-72.68
474,387379787,0.4224,0.0952,1.3843,-210.98,-131.04,-74.15
475,387384786,0.4268,0.0967,1.3745,-213.60,-132.26,-75.43
476,387389787,0.4282,0.0986,1.3794,-215.91,-132.87,-76.77
477,387394787,0.4380,0.1055,1.3755,-218.11,-133.41,-77.93
478,387399787,0.4443,0.1084,1.3706,-220.24,-133.54,-79.27
479,387404786,0.4585,0.1113,1.3516,-222.56,-133.78,-80.73
480,387409787,0.4741,0.1152,1.3423,-224.57,-133.72,-82.01
481,387414835,0.4854,0.1191,1.3232,-226.65,-133.78,-83.41
482,387419789,0.4937,0.1304,1.3213,-228.48,-133.84,-84.57
483,387425164,0.4980,0.1411,1.3115,-230.30,-133.48,-85.61
484,387429787,0.5044,0.1465,1.3115,-231.89,-133.17,-86.22
485,387434786,0.5083,0.1592,1.2837,-233.05,-132.80,-86.59
486,387439787,0.5044,0.1777,1.2671,-234.51,-132.44,-86.40
487,387444787,0.5063,0.1890,1.2544,-235.79,-131.89,-86.28
488,387449786,0.5103,0.2114,1.2378,-236.95,-131.46,-85.73
489,387454787,0.5132,0.2354,1.2231,-238.29,-131.04,-85.43
490,387459786,0.4956,0.3027,1.2217,-239.63,-130.18,-85.61
491,387464787,0.4995,0.3242,1.1953,-241.16,-128.96,-86.65
492,387469786,0.5054,0.3140,1.1553,-242.44,-128.05,-87.99
493,387475036,0.5186,0.2583,1.1025,-243.35,-127.44,-88.90
494,387479789,0.5190,0.2397,1.0903,-243.66,-126.83,-89.15
495,387484786,0.5200,0.2285,1.0723,-242.99,-126.34,-88.90
496,387489787,0.5176,0.2432,1.0752,-241.28,-125.49,-88.48
497,387494953,0.5312,0.2188,1.0776,-238.17,-124.21,-87.74
498,387499787,0.5464,0.2163,0.9961,-233.66,-123.17,-86.52
499,387504787,0.5239,0.2393,1.0220,-227.38,-121.83,-84.88
500,387509787,0.5283,0.2466,0.9639,-219.63,-120.61,-82.99
501,387515224,0.5229,0.2798,0.9409,-210.49,-119.27,-80.67
502,387519787,0.5361,0.2954,0.9087,-200.30,-118.11,-78.17
503,387524787,0.5522,0.2891,0.8535,-189.88,-116.77,-75.49
504,387529787,0.5815,0.3071,0.8262,-180.30,-115.55,-72.93
505,387534785,0.6040,0.2979,0.7837,-171.34,-113.66,-70.55
506,387539787,0.6162,0.2920,0.7456,-163.48,-111.83,-68.17
507,387544787,0.6523,0.2920,0.7437,-157.26,-109.45,-66.16
508,387549786,0.6831,0.2563,0.6816,-152.50,-106.77,-64.09
509,387554787,0.7012,0.2300,0.6299,-150.18,-104.21,-62.44
510,387559786,0.7212,0.2080,0.5874,-150.00,-101.34,-61.28
511,387565096,0.7393,0.1719,0.5659,-152.26,-98.60,-60.37
512,387569787,0.7842,0.1089,0.5488,-157.44,-95.61,-59.94
513,387574787,0.7852,0.0640,0.5190,-165.24,-92.07,-60.06
514,387579787,0.7710,0.0396,0.4883,-174.94,-88.90,-60.55
515,387584787,0.7686,0.0103,0.4702,-185.67,-85.55,-61.40
516,387589787,0.7642,-0.0068,0.4580,-196.95,-82.38,-62.26
517,387594785,0.7412,-0.0010,0.4517,-208.05,-79.15,-63.17
518,387599787,0.7192,-0.0015,0.4487,-218.41,-76.16,-64.27
519,387605213,0.7100,-0.0103,0.4390,-228.11,-73.17,-65.12
520,387609787,0.6978,0.0312,0.4683,-236.95,-70.30,-65.98
521,387614816,0.6816,0.0137,0.4258,-244.09,-67.56,-66.83
522,387619789,0.6934,0.0112,0.4336,-250.43,-65.00,-67.38
523,387624787,0.6812,0.0103,0.4365,-256.10,-62.20,-68.23
524,387629787,0.6704,0.0254,0.4116,-260.85,-59.63,-68.96
525,387634785,0.6675,0.0312,0.4277,-264.39,-57.13,-69.82
526,387639789,0.6836,0.0176,0.4224,-266.46,-54.63,-70.55
527,387644787,0.7041,0.0054,0.3955,-267.87,-52.44,-71.46
528,387649785,0.6987,0.0068,0.3838,-268.60,-50.00,-72.07
529,387655223,0.7002,0.0190,0.4033,-268.54,-47.26,-72.99
530,387659787,0.7075,0.0332,0.4048,-267.32,-44.70,-73.78
531,387664787,0.7217,0.0454,0.3926,-265.30,-42.07,-74.57
532,387669787,0.7295,0.0562,0.3989,-262.50,-39.63,-75.18
533,387674785,0.7397,0.0674,0.4058,-258.84,-37.13,-75.85
534,387679785,0.7480,0.0830,0.3945,-254.63,-34.82,-76.65
535,387684789,0.7544,0.0962,0.3911,-250.00,-32.32,-77.38
536,387689786,0.7490,0.1104,0.3950,-245.06,-30.06,-78.11
537,387694785,0.7446,0.1230,0.3853,-240.06,-27.74,-78.72
538,387699785,0.7432,0.1240,0.3823,-234.57,-25.49,-79.39
539,387704787,0.7363,0.1401,0.3843,-229.51,-23.41,-80.00
540,387709786,0.7354,0.1479,0.3730,-224.27,-21.46,-80.61
541,387714787,0.7280,0.1602,0.3726,-219.45,-19.45,-81.28
542,387719785,0.7329,0.1675,0.3696,-214.88,-17.62,-81.71
543,387724788,0.7217,0.1733,0.3647,-210.85,-15.73,-82.32
544,387729786,0.7271,0.1851,0.3560,-207.13,-13.96,-82.87
545,387735016,0.7266,0.1968,0.3501,-203.96,-12.32,-83.48
546,387739787,0.7236,0.2139,0.3477,-201.22,-10.67,-84.09
547,387744787,0.7290,0.2310,0.3423,-199.09,-9.21,-84.76
548,387749787,0.7271,0.2427,0.3345,-197.07,-7.87,-85.49
549,387754786,0.7212,0.2520,0.3237,-195.49,-6.59,-86.10
550,387759787,0.7178,0.2554,0.3262,-193.90,-5.37,-86.83
551,387765005,0.7080,0.2642,0.3208,-192.50,-4.33,-87.32
552,387769787,0.7095,0.2729,0.3149,-191.16,-3.29,-87.87
553,387774786,0.7070,0.2798,0.3096,-189.94,-2.50,-88.35
554,387779785,0.6978,0.2832,0.3071,-188.78,-1.77,-88.54
555,387784786,0.6958,0.2822,0.3042,-187.62,-0.85,-88.72
556,387789967,0.7002,0.2837,0.3042,-186.89,0.00,-88.72
557,387795075,0.7114,0.2959,0.2974,-186.22,0.79,-88.90
558,387799787,0.7188,0.3105,0.3032,-185.61,1.40,-88.96
559,387804787,0.7275,0.3213,0.2969,-185.12,2.13,-89.15
560,387809786,0.7305,0.3330,0.2979,-184.39,2.62,-89.51
561,387814787,0.7319,0.3428,0.3091,-183.48,3.17,-89.76
562,387819785,0.7358,0.3481,0.3149,-181.89,3.84,-90.30
563,387824787,0.7441,0.3594,0.3198,-180.18,4.63,-90.85
564,387829789,0.7476,0.3628,0.3301,-178.17,5.12,-91.40
565,387834786,0.7500,0.3716,0.3335,-175.91,5.91,-92.01
566,387839787,0.7441,0.3872,0.3438,-173.23,6.40,-92.62
567,387844785,0.7368,0.3936,0.3438,-170.79,6.83,-93.05
568,387849787,0.7373,0.4009,0.3604,-167.13,7.20,-94.02
569,387855085,0.7241,0.4062,0.3569,-163.60,7.44,-94.82
570,387859787,0.7202,0.4082,0.3555,-160.67,7.56,-95.37
571,387864787,0.7051,0.4087,0.3682,-156.95,7.62,-95.91
572,387869787,0.6973,0.4175,0.3843,-152.80,7.74,-96.52
573,387874786,0.6890,0.4214,0.3862,-148.84,7.80,-97.32
574,387879787,0.6772,0.4199,0.3862,-144.82,7.74,-97.99
575,387884844,0.6709,0.4229,0.3892,-140.18,7.68,-98.84
576,387889787,0.6606,0.4292,0.3901,-137.01,7.32,-99.39
577,387894787,0.6553,0.4355,0.3857,-133.05,7.13,-100.30
578,387899787,0.6533,0.4424,0.4014,-129.15,6.83,-101.40
579,387905215,0.6582,0.4556,0.3965,-124.63,6.46,-102.80
580,387909787,0.6636,0.4565,0.4014,-121.65,6.22,-103.72
581,387914787,0.6606,0.4614,0.3970,-117.87,6.04,-104.94
582,387919788,0.6572,0.4648,0.3994,-114.21,5.67,-106.28
583,387924786,0.6519,0.4707,0.3921,-110.67,5.18,-107.62
584,387929787,0.6543,0.4736,0.3936,-107.07,4.76,-108.90
585,387934785,0.6533,0.4771,0.3867,-103.78,4.27,-110.06
586,387939785,0.6489,0.4766,0.3804,-100.49,3.72,-111.28
587,387944787,0.6411,0.4785,0.3838,-97.44,3.11,-112.26
588,387949788,0.6406,0.4761,0.3794,-94.70,2.62,-113.11
589,387954787,0.6289,0.4756,0.3765,-92.07,2.26,-114.15
590,387959787,0.6250,0.4785,0.3696,-89.76,1.52,-114.94
591,387964785,0.6284,0.4927,0.3638,-87.38,0.98,-115.85
592,387969787,0.6216,0.5054,0.3677,-85.37,0.30,-116.77
593,387974786,0.6201,0.5176,0.3687,-83.41,0.12,-117.99
594,387979786,0.6157,0.5283,0.3613,-81.77,-0.43,-119.15
595,387984786,0.6113,0.5430,0.3623,-80.12,-0.73,-120.61
596,387989789,0.6050,0.5557,0.3560,-78.48,-1.16,-121.89
597,387994787,0.6069,0.5708,0.3555,-76.89,-1.34,-123.41
598,387999786,0.5991,0.5811,0.3511,-75.37,-1.52,-125.00
599,388004785,0.5898,0.5898,0.3433,-73.66,-1.77,-126.52
600,388009787,0.5884,0.5894,0.3311,-71.77,-2.01,-127.93
601,388014787,0.5771,0.5928,0.3301,-69.76,-2.32,-129.27
602,388019787,0.5728,0.6035,0.3203,-67.62,-2.50,-130.55
603,388024787,0.5708,0.6074,0.3140,-65.43,-2.56,-131.77
604,388029785,0.5630,0.6177,0.2983,-63.29,-2.62,-133.05
605,388034788,0.5552,0.6260,0.2930,-61.04,-2.74,-134.15
606,388039786,0.5483,0.6313,0.2842,-58.72,-2.74,-135.24
607,388044785,0.5391,0.6387,0.2710,-56.52,-2.87,-136.34
608,388049787,0.5269,0.6426,0.2622,-54.63,-2.68,-137.32
609,388054787,0.5171,0.6440,0.2534,-52.74,-2.74,-138.11
610,388059787,0.5112,0.6450,0.2402,-51.10,-2.50,-138.84
611,388064787,0.5063,0.6416,0.2324,-49.57,-2.20,-139.45
612,388069787,0.5078,0.6411,0.2163,-48.11,-2.01,-140.00
613,388074786,0.5063,0.6460,0.2095,-46.77,-1.59,-140.49
614,388079787,0.5020,0.6562,0.2085,-45.55,-1.16,-141.10
615,388084785,0.5122,0.6836,0.2012,-44.57,-0.43,-141.89
616,388090177,0.5215,0.7168,0.2114,-43.78,0.49,-143.05
617,388094788,0.5156,0.7432,0.2124,-43.72,1.65,-144.51
618,388099787,0.5127,0.7734,0.2407,-44.33,2.93,-145.85
619,388105043,0.5098,0.7720,0.2119,-45.61,4.57,-147.62
620,388109788,0.4956,0.7598,0.1758,-46.59,5.30,-148.66
621,388114787,0.4644,0.7603,0.2012,-47.99,6.52,-149.70
622,388119865,0.4390,0.7783,0.2163,-49.33,8.11,-150.61
623,388124788,0.4282,0.8003,0.2144,-50.73,9.82,-151.59
624,388129787,0.4160,0.8115,0.2153,-52.07,11.46,-152.20
625,388134896,0.3936,0.8135,0.2227,-52.93,13.23,-152.68
626,388139787,0.3691,0.8140,0.2256,-53.84,15.12,-152.87
627,388144787,0.3403,0.8052,0.2173,-54.57,16.95,-152.87
628,388149787,0.3218,0.8105,0.2188,-54.94,18.84,-152.56
629,388154786,0.3120,0.8149,0.2217,-54.76,20.67,-152.01
630,388159789,0.3027,0.8491,0.1816,-54.21,22.20,-151.52
631,388164785,0.2676,0.8618,0.2256,-53.35,24.63,-150.67
632,388169788,0.2549,0.8286,0.2666,-52.38,26.77,-150.12
633,388174787,0.2549,0.8203,0.2349,-50.91,28.90,-149.33
634,388179787,0.2510,0.8467,0.2310,-48.84,31.10,-148.60
635,388184786,0.2407,0.8838,0.2642,-46.83,33.60,-147.87
636,388189785,0.2178,0.9092,0.2837,-44.88,35.98,-147.44
637,388194792,0.1958,0.9077,0.2764,-43.29,38.48,-146.95
638,388199787,0.1733,0.9082,0.2949,-42.01,41.04,-146.10
639,388205067,0.1426,0.9067,0.3076,-41.52,43.54,-145.12
640,388209787,0.1133,0.9092,0.3057,-41.77,45.79,-143.96
641,388214787,0.0825,0.9126,0.3130,-42.74,48.17,-142.62
642,388219787,0.0576,0.9277,0.3237,-44.21,50.43,-141.28
643,388224786,0.0415,0.9443,0.3296,-46.34,52.62,-139.94
644,388229787,0.0254,0.9565,0.3403,-48.84,55.00,-138.84
645,388234785,0.0205,0.9722,0.3467,-51.77,57.20,-138.05
646,388239787,0.0225,0.9863,0.3516,-54.82,59.39,-137.32
647,388245064,0.0210,1.0034,0.3613,-57.99,61.89,-136.77
648,388249787,0.0176,1.0264,0.3682,-60.98,64.57,-136.46
649,388254785,0.0127,1.0464,0.3789,-63.54,67.20,-136.16
650,388259787,-0.0034,1.0562,0.3857,-65.30,69.88,-135.85
651,388264787,-0.0176,1.0527,0.3853,-66.10,72.62,-135.30
652,388269787,-0.0342,1.0518,0.4028,-65.79,75.37,-134.27
653,388274786,-0.0469,1.0557,0.4180,-64.21,77.93,-132.74
654,388279787,-0.0581,1.0635,0.4263,-61.83,80.49,-131.04
655,388284787,-0.0879,1.0649,0.4399,-58.72,83.72,-129.15
656,388289785,-0.1079,1.0649,0.4517,-55.24,86.16,-127.07
657,388295495,-0.1221,1.0645,0.4453,-51.28,87.13,-124.45
658,388299788,-0.1333,1.0688,0.4438,-48.60,89.45,-122.44
659,388304787,-0.1592,1.0527,0.4375,-45.24,91.59,-119.82
660,388309787,-0.1890,1.0493,0.4575,-41.83,93.35,-116.71
661,388315336,-0.1987,1.0630,0.4951,-37.87,95.91,-113.29
662,388319788,-0.1924,1.0679,0.5073,-35.61,97.74,-110.85
663,388324785,-0.2070,1.0854,0.5151,-33.23,100.18,-108.05
664,388329787,-0.2275,1.0977,0.5225,-31.22,102.50,-105.43
665,388334802,-0.2471,1.0981,0.5337,-29.76,104.82,-102.62
666,388339788,-0.2607,1.1016,0.5493,-28.54,107.07,-99.94
667,388344788,-0.2803,1.1021,0.5698,-27.93,109.27,-96.89
668,388349785,-0.2891,1.1064,0.5820,-27.50,111.95,-93.72
669,388354789,-0.3032,1.1187,0.6060,-27.68,114.70,-90.91
670,388359785,-0.3257,1.1333,0.6069,-27.93,117.44,-87.93
671,388364787,-0.3477,1.1372,0.6172,-28.29,120.43,-85.18
672,388369786,-0.3696,1.1362,0.6201,-28.78,123.48,-82.26
673,388374785,-0.3916,1.1372,0.6323,-29.09,126.59,-79.33
674,388379789,-0.4111,1.1401,0.6372,-29.27,129.82,-76.34
675,388384787,-0.4297,1.1426,0.6514,-29.39,133.05,-73.35
676,388389786,-0.4507,1.1465,0.6543,-29.21,136.40,-70.37
677,388394787,-0.4780,1.1470,0.6533,-29.09,139.82,-67.44
678,388399785,-0.5010,1.1450,0.6504,-28.60,143.11,-64.02
679,388404787,-0.5205,1.1440,0.6577,-27.87,146.65,-60.73
680,388409786,-0.5444,1.1396,0.6650,-27.07,150.18,-57.07
681,388415090,-0.5708,1.1333,0.6699,-26.28,153.96,-53.41
682,388419787,-0.5986,1.1382,0.6743,-25.67,157.74,-49.45
683,388424909,-0.6274,1.1372,0.6816,-25.37,161.59,-45.43
684,388429787,-0.6553,1.1436,0.6855,-25.55,165.55,-41.28
685,388434785,-0.6870,1.1538,0.6987,-26.40,169.51,-37.20
686,388439926,-0.7173,1.1509,0.6973,-27.62,173.66,-33.05
687,388444787,-0.7500,1.1646,0.7109,-29.63,177.87,-28.84
688,388449957,-0.7612,1.1577,0.7036,-32.26,182.07,-24.45
689,388454787,-0.7920,1.1499,0.6934,-34.57,186.28,-20.00
690,388459786,-0.8228,1.1416,0.7124,-36.65,190.67,-15.30
691,388464787,-0.8403,1.1445,0.7178,-38.41,194.94,-10.43
692,388469787,-0.8569,1.1460,0.7222,-39.70,199.70,-5.30
693,388474787,-0.8828,1.1494,0.7324,-40.61,204.15,-0.37
694,388479786,-0.9106,1.1470,0.7500,-41.28,208.72,4.82
695,388484787,-0.9438,1.1484,0.7656,-41.65,213.54,10.00
696,388489787,-0.9756,1.1475,0.7725,-41.83,218.48,15.24
697,388494787,-1.0210,1.1489,0.7832,-41.83,223.41,20.73
698,388500106,-1.0645,1.1401,0.7910,-41.46,228.35,26.22
699,388504787,-1.1016,1.1343,0.8057,-41.40,233.35,31.89
700,388509787,-1.1460,1.1294,0.8271,-41.04,238.48,37.68
701,388514787,-1.1851,1.1284,0.8442,-41.04,243.66,43.41
702,388519786,-1.2251,1.1260,0.8521,-41.10,249.02,49.09
703,388524787,-1.2637,1.1211,0.8784,-41.52,254.45,54.63
704,388529785,-1.3032,1.1172,0.8926,-42.20,260.00,60.24
705,388534787,-1.3335,1.1089,0.9111,-42.44,265.79,65.79
706,388539787,-1.3594,1.1011,0.9277,-42.93,271.40,71.59
707,388544787,-1.3906,1.0913,0.9468,-43.48,277.38,77.26
708,388549786,-1.4229,1.0811,0.9556,-43.72,283.41,83.11
709,388554787,-1.4531,1.0703,0.9727,-43.96,289.45,88.54
710,388559788,-1.4849,1.0659,0.9907,-43.90,295.43,94.63
711,388564787,-1.5166,1.0576,1.0088,-43.66,301.71,100.61
712,388569786,-1.5537,1.0571,1.0347,-43.23,307.99,106.52
713,388574787,-1.5928,1.0518,1.0596,-42.80,314.15,112.44
714,388579787,-1.6328,1.0386,1.0859,-42.01,320.24,118.35
715,388584787,-1.6694,1.0288,1.1152,-41.16,326.52,124.33
716,388589786,-1.7153,1.0190,1.1406,-40.37,332.56,130.24
717,388594787,-1.7676,1.0190,1.1665,-39.57,338.72,136.16
718,388599785,-1.8228,1.0146,1.1963,-38.78,344.63,141.89
719,388604787,-1.8794,1.0073,1.2319,-38.11,350.55,147.56
720,388609935,-1.9448,0.9971,1.2627,-37.38,356.10,152.99
721,388614786,-2.0171,0.9868,1.2954,-36.71,361.65,158.48
722,388619785,-2.0796,0.9771,1.3267,-36.10,367.01,163.78
723,388624788,-2.1484,0.9697,1.3647,-35.55,372.38,169.21
724,388630171,-2.2192,0.9575,1.4072,-34.76,377.44,174.51
725,388634788,-2.2969,0.9473,1.4507,-34.21,382.13,179.45
726,388639787,-2.3643,0.9492,1.5034,-34.15,386.71,184.57
727,388644787,-2.4292,0.9521,1.5493,-34.39,391.10,189.45
728,388649788,-2.4961,0.9526,1.5908,-35.24,395.12,194.09
729,388654787,-2.5610,0.9683,1.6187,-36.22,398.35,198.60
730,388659785,-2.6309,0.9692,1.6558,-37.62,401.10,202.62
731,388664789,-2.6890,0.9663,1.6909,-38.96,403.11,206.71
732,388669787,-2.7310,0.9668,1.7173,-39.51,404.51,210.55
733,388674787,-2.7827,0.9629,1.7510,-39.70,405.30,214.57
734,388679785,-2.8320,0.9492,1.7939,-38.72,405.73,218.66
735,388684787,-2.8613,0.9468,1.8354,-37.07,405.73,222.68
736,388689787,-2.8911,0.9492,1.8740,-34.94,405.55,226.71
737,388694787,-2.9170,0.9536,1.9224,-32.20,405.43,230.55
738,388699785,-2.9390,0.9541,1.9648,-28.54,405.12,234.33
739,388705015,-2.9629,0.9692,1.9995,-24.45,404.70,237.93
740,388709787,-2.9878,0.9829,2.0327,-19.63,403.96,240.91
741,388714786,-3.0142,1.0063,2.0557,-14.02,403.11,243.54
742,388719785,-3.0532,1.0225,2.0898,-7.87,402.01,245.73
743,388725236,-3.0933,1.0381,2.1040,-0.61,400.79,247.56
744,388729789,-3.1455,1.0547,2.1196,7.50,399.57,249.21
745,388734786,-3.2153,1.0703,2.1289,16.59,398.54,250.91
746,388739787,-3.2705,1.0918,2.1333,26.40,397.56,252.74
747,388744785,-3.2920,1.1230,2.1323,36.89,397.13,254.63
748,388749788,-3.2876,1.1519,2.1426,47.99,397.56,256.77
749,388754786,-3.2388,1.1777,2.1396,59.70,398.72,259.45
750,388759785,-3.1772,1.2192,2.1416,71.40,401.10,262.38
751,388764785,-3.1206,1.2573,2.1279,81.95,404.27,265.73
752,388769789,-3.0884,1.2915,2.0996,91.34,408.60,269.27
753,388774785,-3.1069,1.3462,2.0776,99.33,413.48,273.11
754,388779787,-3.1475,1.3931,2.0562,104.76,418.72,277.13
755,388784786,-3.1841,1.4292,2.0186,107.99,424.33,281.59
756,388789785,-3.2300,1.4678,2.0020,109.45,430.61,286.28
757,388794787,-3.2944,1.4971,1.9927,108.66,436.83,291.59
758,388799786,-3.3398,1.5371,1.9731,105.98,443.35,297.32
759,388804785,-3.3467,1.5479,1.9297,101.34,450.37,303.84
760,388809789,-3.3364,1.5483,1.9209,95.24,457.32,311.46
761,388814786,-3.2788,1.5317,1.8813,88.11,464.15,319.94
762,388819787,-3.2441,1.5400,1.9346,80.79,471.65,329.70
763,388824785,-3.2622,1.5464,1.9365,74.39,479.02,340.49
764,388829787,-3.2915,1.5449,1.9277,70.67,486.65,352.01
765,388834786,-3.3779,1.5391,1.9468,69.51,493.41,364.02
766,388839787,-3.5229,1.5337,1.9609,70.00,499.45,376.28
767,388844785,-3.6309,1.5112,1.9922,72.62,504.51,388.48
768,388849786,-3.7119,1.4937,2.0571,76.40,508.90,400.55
769,388854788,-3.8047,1.4795,2.1138,79.02,512.62,412.20
770,388859788,-3.9097,1.4556,2.1602,80.55,515.18,423.48
771,388864787,-4.0107,1.4282,2.2256,81.16,516.46,434.21
772,388870276,-4.1104,1.4023,2.2900,79.82,516.65,444.51
773,388874787,-4.2090,1.3687,2.3506,77.01,515.49,454.33
774,388880300,-4.2905,1.3369,2.4204,73.60,512.99,463.78
775,388884787,-4.3550,1.3027,2.4580,69.88,509.09,472.99
776,388889788,-4.3950,1.2700,2.5142,66.04,504.02,482.01
777,388894787,-4.4048,1.2129,2.5571,62.80,498.05,490.91
778,388899904,-4.4170,1.1719,2.5952,59.45,490.67,499.70
779,388904787,-4.4375,1.1387,2.6489,55.49,481.89,508.23
780,388909790,-4.4487,1.0913,2.6899,50.85,471.89,516.34
781,388914787,-4.4517,1.0479,2.7056,44.82,460.30,524.27
782,388919786,-4.4292,1.0122,2.7666,37.32,447.62,531.77
783,388924787,-4.3813,0.9619,2.7842,28.54,433.66,539.57
784,388929787,-4.3042,0.9067,2.7998,17.68,418.78,547.01
785,388934787,-4.2070,0.8628,2.8511,4.39,402.50,554.63
786,388939786,-4.0928,0.8037,2.8530,-10.00,385.24,562.38
787,388944787,-4.0259,0.7524,2.8809,-21.77,370.85,568.72
788,388949787,-3.8667,0.6729,2.8965,-40.85,347.80,578.23
789,388954787,-3.7617,0.6206,2.9165,-54.02,331.46,584.82
790,388959788,-3.6235,0.5181,2.9336,-75.00,305.85,594.88
791,388964787,-3.5234,0.4551,2.9214,-89.94,287.93,601.71
792,388969787,-3.4092,0.3716,2.9146,-109.45,264.63,610.12
793,388974787,-3.3003,0.2949,2.8940,-128.72,240.55,618.35
794,388979786,-3.2056,0.2031,2.8452,-147.80,215.61,626.59
795,388984787,-3.1172,0.1069,2.8008,-166.59,190.24,634.45
796,388989787,-3.0327,0.0068,2.7588,-184.21,164.76,642.20
797,388994787,-2.8550,-0.1025,2.1777,-202.93,136.34,649.33
798,388999786,-3.0327,-0.2749,3.3965,-218.35,109.63,656.40
799,389004787,-2.6191,-0.6665,3.3477,-231.89,85.00,663.23
800,389009787,-2.6802,-0.8359,3.0967,-247.93,55.49,669.02
801,389014787,-2.3398,-1.0435,4.3545,-267.68,26.34,674.15
802,389019786,-1.7539,-1.2319,4.0005,-301.77,-8.35,678.48
803,389024787,-2.7388,-1.0688,3.8745,-335.98,-49.02,680.18
804,389030219,-3.0776,-0.7036,2.7935,-362.32,-91.59,680.85
805,389034788,-3.0845,-0.7051,2.2744,-371.77,-120.18,680.49
806,389039787,-3.2070,-0.7036,2.0903,-376.77,-153.72,679.88
807,389044787,-3.3228,-0.6768,1.8545,-376.40,-185.49,679.02
808,389049786,-3.4214,-0.6724,1.7153,-374.39,-215.49,676.77
809,389054787,-3.4863,-0.6870,1.5854,-372.50,-243.05,672.93
810,389059787,-3.5249,-0.6855,1.4282,-371.16,-268.96,667.44
811,389064787,-3.5552,-0.6538,1.3047,-370.18,-292.80,660.18
812,389069785,-3.5557,-0.5938,1.1655,-368.84,-314.88,651.16
813,389074789,-3.5352,-0.5283,1.0049,-365.98,-335.61,640.18
814,389079890,-3.5820,-0.3789,0.7427,-360.30,-354.57,627.62
815,389084787,-3.5864,-0.4531,0.6313,-351.34,-371.40,613.90
816,389089787,-3.6274,-0.4097,0.3926,-339.02,-385.73,599.15
817,389094787,-3.5820,-0.4150,0.1909,-325.00,-397.50,583.35
818,389099787,-3.4355,-0.5762,-0.0254,-312.07,-406.71,566.59
819,389104785,-3.1943,-1.0557,0.0298,-302.20,-413.66,548.84
820,389109785,-2.8149,-1.4312,0.1582,-293.60,-420.12,529.94
821,389114787,-2.4287,-1.7534,0.2695,-289.88,-420.67,509.09
822,389119786,-2.2651,-1.8828,0.3066,-291.04,-421.71,485.85
823,389124790,-2.2031,-1.8262,0.3198,-297.56,-423.11,460.24
824,389129787,-2.1172,-1.7295,0.2002,-307.44,-424.70,433.17
825,389134787,-2.0493,-1.5972,-0.0171,-317.20,-426.83,405.18
826,389139785,-1.9980,-1.4253,-0.1860,-322.32,-429.45,377.44
827,389144789,-1.9268,-1.2363,-0.3164,-320.30,-431.28,350.30
828,389149787,-1.8628,-0.9980,-0.4595,-311.52,-431.34,323.72
829,389154787,-1.8037,-0.8853,-0.4897,-296.22,-429.70,297.80
830,389159786,-1.7671,-0.8252,-0.5703,-275.06,-425.85,273.05
831,389164787,-1.7476,-0.7979,-0.6572,-249.45,-420.67,249.63
832,389169789,-1.7280,-0.7754,-0.6992,-220.37,-414.33,227.93
833,389174786,-1.7397,-0.7876,-0.7524,-190.43,-406.77,207.50
834,389179787,-1.7847,-0.7983,-0.8921,-161.28,-398.35,188.11
835,389184786,-1.8325,-0.8071,-1.0068,-134.94,-389.63,170.30
836,389189787,-1.8960,-0.8457,-1.1001,-112.32,-380.49,153.72
837,389194788,-1.9927,-0.8921,-1.1958,-93.41,-370.55,138.54
838,389199787,-2.1558,-0.9238,-1.2788,-79.02,-360.18,124.82
839,389204785,-2.1587,-0.9951,-1.3027,-68.96,-348.84,111.52
840,389209786,-2.0791,-1.2061,-1.6348,-61.34,-337.87,100.43
841,389214785,-2.1968,-1.3110,-1.5449,-56.28,-326.10,89.27
842,389219789,-2.3130,-1.4175,-1.5918,-54.45,-312.20,79.82
843,389224785,-2.3745,-1.5591,-1.7725,-56.59,-297.38,69.27
844,389229787,-2.3906,-1.7017,-1.8179,-62.26,-282.01,59.02
845,389234786,-2.4004,-1.7593,-1.8115,-70.73,-265.91,48.72
846,389239787,-2.3906,-1.8550,-1.8809,-80.98,-249.27,38.60
847,389244785,-2.3584,-1.9482,-1.8945,-92.20,-232.13,28.66
848,389249787,-2.2769,-1.9521,-1.8418,-104.09,-214.45,18.41
849,389254786,-2.1616,-1.9062,-1.8257,-116.34,-196.28,8.11
850,389259785,-2.0137,-1.8604,-1.7979,-128.11,-178.23,-2.20
851,389264788,-1.8760,-1.8052,-1.7178,-137.99,-160.49,-12.38
852,389269786,-1.7100,-1.7314,-1.6543,-145.00,-142.80,-22.20
853,389274824,-1.5396,-1.6465,-1.6025,-148.72,-125.06,-31.71
854,389279813,-1.3774,-1.5508,-1.5444,-148.78,-107.80,-40.79
855,389284785,-1.2354,-1.4517,-1.4883,-145.43,-90.79,-49.51
856,389289789,-1.0923,-1.3477,-1.4224,-138.84,-74.27,-57.93
857,389294786,-0.9629,-1.2412,-1.3521,-129.63,-58.11,-65.85
858,389299789,-0.8418,-1.1353,-1.2900,-118.60,-42.50,-73.54
859,389304785,-0.7520,-1.0420,-1.2188,-106.10,-27.56,-80.91
860,389309786,-0.6772,-0.9424,-1.1494,-92.87,-13.66,-88.05
861,389314785,-0.6182,-0.8706,-1.0820,-79.39,-0.49,-94.76
862,389319787,-0.5688,-0.8130,-1.0137,-66.22,11.65,-101.16
863,389324786,-0.5229,-0.7578,-0.9463,-53.66,22.74,-107.44
864,389329787,-0.4868,-0.7192,-0.8770,-41.71,32.80,-113.48
865,389334785,-0.4600,-0.6909,-0.8130,-30.85,42.01,-119.27
866,389339787,-0.4468,-0.6807,-0.7593,-20.67,50.55,-124.88
867,389344786,-0.4434,-0.6689,-0.6958,-11.34,57.99,-130.06
868,389349785,-0.4307,-0.6763,-0.6499,-2.44,64.82,-135.06
869,389354787,-0.4321,-0.6738,-0.6064,5.98,70.98,-139.70
870,389359787,-0.4360,-0.6724,-0.5649,14.02,76.22,-143.96
871,389364787,-0.4365,-0.6733,-0.5303,21.46,80.67,-148.11
872,389370332,-0.4355,-0.6802,-0.4873,30.67,86.10,-152.56
873,389374788,-0.4355,-0.6846,-0.4697,36.40,86.59,-155.30
874,389379786,-0.4346,-0.6870,-0.4370,43.78,89.88,-158.35
875,389384787,-0.4390,-0.6909,-0.4131,51.16,92.07,-161.28
876,389389787,-0.4561,-0.6821,-0.3955,58.48,93.48,-163.90
877,389394786,-0.4443,-0.6860,-0.3770,66.28,94.39,-166.34
878,389399787,-0.4360,-0.6904,-0.3589,73.96,94.70,-168.48
879,389404785,-0.4424,-0.6914,-0.3433,81.83,94.76,-170.30
880,389409787,-0.4468,-0.6929,-0.3213,89.76,94.09,-172.07
881,389414786,-0.4336,-0.6938,-0.3062,97.68,92.87,-173.60
882,389419787,-0.4141,-0.7090,-0.2896,105.30,91.46,-174.70
883,389424785,-0.4219,-0.7168,-0.2710,112.44,89.39,-175.79
884,389429787,-0.4175,-0.7212,-0.2559,119.09,86.83,-176.59
885,389434786,-0.3994,-0.7285,-0.2476,124.82,85.24,-177.20
886,389440216,-0.3804,-0.7378,-0.2266,130.00,83.29,-177.74
887,389444788,-0.3809,-0.7617,-0.2104,134.39,80.30,-178.05
888,389449786,-0.3701,-0.7861,-0.1904,137.99,77.26,-178.35
889,389454787,-0.3545,-0.8115,-0.1802,140.91,74.02,-178.48
890,389460078,-0.3423,-0.8354,-0.1714,142.56,70.85,-178.54
891,389464788,-0.3301,-0.8618,-0.1587,143.48,67.50,-178.54
892,389469787,-0.3794,-0.8906,-0.1313,143.23,64.09,-178.66
893,389474787,-0.3369,-0.9062,-0.1426,141.89,60.91,-178.60
894,389479855,-0.2734,-0.9023,-0.1611,140.06,57.56,-178.66
895,389484785,-0.2461,-0.8984,-0.1421,137.62,54.27,-178.60
896,389489789,-0.2344,-0.9062,-0.1177,134.39,51.46,-178.35
897,389494786,-0.2261,-0.9072,-0.1309,130.30,48.90,-178.35
898,389499787,-0.2383,-0.9004,-0.1440,128.72,46.40,-178.17
899,389504785,-0.2393,-0.8877,-0.1367,125.85,44.27,-177.87
900,389509787,-0.2422,-0.8730,-0.1279,122.93,42.44,-177.50
901,389514786,-0.2554,-0.8643,-0.1323,120.43,40.43,-176.95
902,389519787,-0.2598,-0.8506,-0.1392,117.99,38.48,-176.59
903,389524785,-0.2563,-0.8335,-0.1353,115.98,36.89,-175.91
904,389529786,-0.2568,-0.8232,-0.1489,114.45,35.24,-175.06
905,389534788,-0.2495,-0.8174,-0.1636,113.66,33.78,-174.33
906,389539787,-0.2344,-0.7988,-0.1421,113.60,32.56,-173.54
907,389544787,-0.2061,-0.7803,-0.1021,113.96,31.71,-172.74
908,389549786,-0.1758,-0.7803,-0.0933,114.51,30.73,-171.89
909,389554787,-0.1528,-0.7773,-0.0850,115.06,29.94,-170.98
910,389559788,-0.1328,-0.7798,-0.0703,115.67,28.90,-170.12
911,389564787,-0.1235,-0.7749,-0.0498,116.16,27.93,-169.33
912,389569786,-0.1113,-0.7715,-0.0361,116.52,27.20,-168.60
913,389574787,-0.0825,-0.7676,-0.0229,116.52,26.46,-167.93
914,389579786,-0.0542,-0.7676,-0.0195,116.28,25.91,-167.44
915,389584785,-0.0312,-0.7593,-0.0229,116.22,25.43,-166.83
916,389589789,-0.0322,-0.7378,-0.0073,116.10,25.24,-166.46
917,389594786,-0.0049,-0.7388,-0.0176,116.52,25.49,-165.91
918,389599785,0.0610,-0.7207,-0.0195,116.95,25.67,-165.55
919,389604788,0.1191,-0.6924,-0.0264,116.95,26.04,-165.37
920,389609787,0.1611,-0.6772,-0.0054,116.34,26.46,-165.30
921,389614786,0.1943,-0.6699,0.0000,115.30,27.20,-165.55
922,389619787,0.2407,-0.6626,0.0073,113.72,28.23,-165.91
923,389624785,0.2900,-0.6543,-0.0005,111.77,29.15,-166.34
924,389629787,0.3340,-0.6484,0.0083,109.33,30.37,-166.89
925,389634786,0.3691,-0.6431,0.0146,106.40,31.59,-167.50
926,389639787,0.4023,-0.6333,0.0190,103.29,33.11,-168.11
927,389644785,0.4268,-0.6147,0.0273,100.18,34.70,-168.54
928,389649789,0.4370,-0.6025,0.0415,97.07,36.52,-169.02
929,389654786,0.4731,-0.5806,0.0425,94.45,38.48,-169.51
930,389660024,0.4995,-0.5552,0.0469,91.83,40.43,-170.06
931,389664787,0.5229,-0.5405,0.0703,89.82,42.56,-170.49
932,389669787,0.5483,-0.5210,0.0713,87.87,44.70,-170.73
933,389674874,0.5835,-0.5068,0.0869,86.65,47.26,-171.10
934,389679785,0.5986,-0.4893,0.0981,85.67,49.76,-171.16
935,389684785,0.6211,-0.4717,0.0933,84.88,52.13,-171.10
936,389689814,0.6318,-0.4409,0.1172,84.45,54.76,-171.10
937,389694787,0.6548,-0.4209,0.1372,83.84,57.26,-171.04
938,389699787,0.6816,-0.4028,0.1362,83.11,59.88,-170.91
939,389704787,0.6987,-0.3867,0.1431,82.26,62.50,-170.79
940,389709785,0.7163,-0.3711,0.1592,81.16,64.82,-170.73
941,389714789,0.7310,-0.3560,0.1592,79.94,67.07,-170.37
942,389719787,0.7446,-0.3447,0.1689,78.29,69.15,-170.00
943,389724786,0.7554,-0.3311,0.1836,76.52,70.79,-169.57
944,389729787,0.7617,-0.3242,0.1987,74.33,72.38,-169.02
945,389734785,0.7588,-0.3101,0.2070,71.83,73.84,-168.54
946,389739786,0.7573,-0.2993,0.2314,69.02,74.82,-167.87
947,389744787,0.7520,-0.2915,0.2437,65.98,76.04,-167.20
948,389750142,0.7471,-0.2871,0.2607,62.74,77.13,-166.59
949,389754788,0.7339,-0.2900,0.2695,59.21,78.23,-165.79
950,389759787,0.7515,-0.2852,0.2930,55.61,79.21,-165.06
951,389764787,0.7505,-0.2827,0.3115,52.32,80.43,-164.21
952,389769785,0.7305,-0.2656,0.3276,49.02,81.28,-163.48
953,389774787,0.6235,-0.2480,0.3340,46.04,82.01,-162.74
954,389779786,0.6797,-0.2319,0.3579,43.41,82.93,-162.07
955,389784788,0.7446,-0.2290,0.3521,41.28,83.23,-161.22
956,389789787,0.7632,-0.2368,0.3408,40.00,85.30,-160.18
957,389794786,0.7446,-0.2305,0.3521,39.21,85.79,-158.96
958,389799787,0.6870,-0.2305,0.3442,39.27,85.73,-157.74
959,389804785,0.6743,-0.2207,0.3223,39.88,85.73,-156.46
960,389809789,0.6616,-0.2046,0.3247,40.67,85.61,-155.18
961,389814786,0.6440,-0.1909,0.3472,41.34,85.55,-154.09
962,389819787,0.5757,-0.1885,0.3159,41.65,85.49,-153.11
963,389824785,0.4839,-0.1245,0.2310,41.16,85.55,-151.89
964,389829785,0.4990,-0.0952,0.2705,39.57,85.37,-150.85
965,389834787,0.5186,-0.0864,0.2964,37.56,85.55,-149.88
966,389839911,0.5415,-0.0879,0.2695,35.55,85.67,-149.09
967,389844787,0.5420,-0.0879,0.2671,33.72,85.55,-148.23
968,389850295,0.5161,-0.0698,0.3052,31.83,85.55,-147.38
969,389854787,0.5132,-0.0503,0.3105,30.06,85.67,-146.83
970,389859787,0.5386,-0.0225,0.3237,28.48,85.61,-146.34
971,389864787,0.5806,0.0034,0.3525,26.77,85.61,-145.91
972,389869786,0.6958,0.0488,0.4238,25.00,85.49,-145.55
973,389874787,0.8608,0.0996,0.5303,23.23,85.37,-145.06
974,389879889,0.9512,0.0889,0.5981,21.59,83.23,-144.15
975,389884787,0.8979,0.0376,0.6084,20.06,81.59,-142.80
976,389890324,0.8242,0.0005,0.6025,18.96,79.09,-141.04
977,389894788,0.7603,-0.0112,0.5781,17.87,76.89,-139.51
978,389899787,0.7305,-0.0107,0.5674,16.40,74.94,-138.17
979,389904787,0.7188,-0.0112,0.5522,14.70,73.41,-137.07
980,389909786,0.7529,-0.0337,0.5469,12.62,71.89,-136.16
981,389914850,0.8042,-0.0762,0.5688,10.30,70.49,-135.24
982,389919787,0.8540,-0.1216,0.6182,7.44,69.21,-134.39
983,389924787,0.8618,-0.1592,0.6787,4.09,67.87,-133.72
984,389929785,0.7861,-0.1895,0.7192,-0.12,66.40,-133.11
985,389934785,0.6714,-0.2129,0.7080,-4.57,65.12,-132.56
986,389939789,0.5742,-0.2300,0.7021,-8.84,63.66,-132.01
987,389944786,0.5269,-0.2280,0.6763,-12.74,62.38,-131.46
988,389949785,0.5195,-0.2100,0.6704,-15.55,61.40,-130.98
989,389954787,0.5151,-0.1533,0.6357,-19.57,60.06,-130.24
990,389959790,0.5112,-0.0957,0.6035,-22.38,58.84,-129.63
991,389964787,0.5371,-0.0801,0.5786,-23.84,58.05,-128.90
992,389969787,0.5581,-0.0137,0.5850,-25.12,57.01,-127.87
993,389974787,0.5806,0.0234,0.5938,-25.55,56.04,-126.65
994,389979786,0.6060,0.0459,0.5913,-25.67,55.00,-125.37
995,389984787,0.6509,0.0884,0.5786,-25.18,53.96,-124.15
996,389989785,0.6963,0.1196,0.5898,-23.96,52.99,-122.93
997,389994788,0.7285,0.1611,0.6074,-22.13,52.32,-121.83
998,389999787,0.7363,0.1841,0.6255,-19.63,51.71,-120.79
999,390004786,0.7358,0.2178,0.6528,-16.83,51.46,-120.12
1000,390009787,0.7393,0.2437,0.6714,-13.60,51.71,-119.33
1001,390014785,0.7876,0.2681,0.7046,-10.55,51.59,-118.48
1002,390019787,0.8423,0.2578,0.7686,-7.62,52.38,-117.50
1003,390024786,0.8579,0.2656,0.7910,-4.57,53.41,-116.28
1004,390029785,0.8604,0.4185,0.7866,-0.55,54.51,-115.91
1005,390034939,0.9175,0.3213,0.8760,6.40,55.91,-115.49
1006,390040265,0.9531,0.2983,0.9556,12.74,57.68,-114.39
1007,390044787,0.9707,0.3950,0.9868,19.51,59.51,-113.72
1008,390049787,1.0078,0.3501,0.8706,30.00,60.79,-112.44
1009,390054787,1.0161,0.3442,0.8838,40.98,60.98,-111.10
1010,390059964,1.0273,0.3760,0.9009,53.35,60.79,-109.82
1011,390064787,1.0278,0.3457,0.8804,61.46,60.37,-108.84
1012,390069787,1.0557,0.3701,0.8408,70.67,58.29,-107.68
1013,390074787,1.0654,0.4048,0.9028,79.51,56.34,-106.52
1014,390079872,1.0698,0.4321,0.9365,87.01,54.57,-105.61
1015,390084787,1.0723,0.4370,0.9053,94.76,52.20,-104.33
1016,390089963,1.0820,0.4360,0.8628,99.94,49.45,-103.11
1017,390094787,1.0771,0.4307,0.9199,102.74,47.56,-102.13
1018,390099786,1.0664,0.4507,0.9126,105.37,45.61,-100.85
1019,390104787,1.0654,0.4814,0.8809,106.65,43.11,-99.70
1020,390109788,1.0493,0.5195,0.8926,106.95,40.61,-98.72
1021,390114787,1.0400,0.5107,0.9116,106.65,38.60,-97.50
1022,390119788,1.0400,0.5029,0.8896,105.49,36.28,-96.22
1023,390124787,1.0361,0.5063,0.8726,103.29,33.78,-94.88
1024,390129787,1.0166,0.5166,0.8862,100.37,31.40,-93.17
1025,390134787,0.9927,0.5273,0.8809,96.83,29.21,-91.65
1026,390139786,0.9829,0.5386,0.8467,92.56,26.77,-89.94
1027,390144787,0.9653,0.5415,0.8364,88.05,24.45,-88.35
1028,390149787,0.9463,0.5337,0.8359,83.23,22.07,-86.28
1029,390154787,0.9277,0.5371,0.8315,78.41,19.88,-84.21
1030,390160051,0.8984,0.5312,0.8281,72.56,17.44,-81.59
1031,390164787,0.8818,0.5308,0.8198,68.60,15.79,-79.70
1032,390170070,0.8594,0.5396,0.8257,63.05,13.72,-76.65
1033,390174787,0.8369,0.5464,0.8223,59.51,12.32,-74.70
1034,390179786,0.8271,0.5562,0.8252,54.76,10.79,-71.65
1035,390184787,0.8232,0.5522,0.8271,51.83,9.51,-69.63
1036,390189785,0.8115,0.5479,0.8301,47.99,8.17,-66.46
1037,390194790,0.8066,0.5503,0.8242,45.61,7.44,-64.27
1038,390199785,0.7979,0.5552,0.8159,43.23,6.28,-61.65
1039,390204787,0.7881,0.5654,0.8218,41.16,5.37,-59.09
1040,390209786,0.7871,0.5703,0.8130,39.51,4.51,-56.59
1041,390214787,0.7832,0.5728,0.8076,38.23,3.41,-53.84
1042,390219787,0.7832,0.5625,0.8057,37.13,2.62,-51.40
1043,390224787,0.7773,0.5576,0.8174,36.40,1.83,-48.90
1044,390229786,0.7695,0.5547,0.8145,35.98,1.10,-46.16
1045,390234787,0.7637,0.5547,0.8013,35.67,0.30,-43.66
1046,390239795,0.7671,0.5635,0.8037,35.49,-0.55,-41.10
1047,390244788,0.7690,0.5684,0.7969,35.73,-1.28,-38.60
1048,390249788,0.7700,0.5732,0.7910,36.16,-2.20,-36.10
1049,390254787,0.7720,0.5698,0.7808,36.65,-2.93,-33.78
1050,390259785,0.7720,0.5659,0.7832,37.20,-3.72,-31.46
1051,390264788,0.7686,0.5605,0.7798,38.05,-4.82,-29.15
1052,390269787,0.7695,0.5630,0.7695,39.09,-5.61,-26.77
1053,390274787,0.7642,0.5630,0.7612,40.00,-6.65,-24.57
1054,390279787,0.7573,0.5664,0.7539,41.04,-7.68,-22.38
1055,390284787,0.7578,0.5708,0.7422,42.13,-8.72,-20.37
1056,390289788,0.7607,0.5679,0.7441,43.11,-9.70,-18.23
1057,390294787,0.7627,0.5679,0.7324,44.27,-10.67,-16.40
1058,390299918,0.7637,0.5752,0.7344,45.24,-11.65,-14.39
1059,390304787,0.7637,0.5840,0.7192,46.28,-12.68,-12.62
1060,390309789,0.7676,0.6030,0.7197,47.38,-13.66,-11.16
1061,390314786,0.7739,0.6128,0.7261,48.29,-14.63,-9.70
1062,390319789,0.7803,0.6211,0.7256,49.27,-15.30,-8.48
1063,390324786,0.7832,0.6338,0.7227,50.06,-16.16,-7.38
1064,390329787,0.7896,0.6392,0.7217,50.79,-16.83,-6.28
1065,390334786,0.7871,0.6533,0.7202,51.46,-17.38,-5.55
1066,390339787,0.7837,0.6533,0.7188,51.77,-18.05,-4.63
1067,390344786,0.7852,0.6582,0.7163,52.07,-18.54,-3.96
1068,390349787,0.7832,0.6587,0.7061,52.07,-18.96,-3.23
1069,390354786,0.7817,0.6582,0.6973,51.95,-19.45,-2.74
1070,390359785,0.7778,0.6587,0.6992,51.46,-20.00,-2.20
1071,390364787,0.7734,0.6553,0.6919,50.91,-20.55,-1.65
1072,390369786,0.7778,0.6587,0.6899,50.55,-20.85,-1.10
1073,390374787,0.7705,0.6592,0.6782,49.88,-21.04,-0.67
1074,390379787,0.7661,0.6626,0.6758,49.15,-21.40,-0.12
1075,390384787,0.7646,0.6680,0.6768,48.60,-21.65,0.18
1076,390389787,0.7578,0.6675,0.6704,47.93,-21.83,0.49
1077,390394787,0.7456,0.6660,0.6714,47.32,-22.01,0.91
1078,390399785,0.7422,0.6655,0.6675,46.77,-22.07,1.40
1079,390404788,0.7383,0.6729,0.6558,46.10,-22.26,1.65
1080,390409787,0.7358,0.6704,0.6489,45.55,-22.20,1.89
1081,390414786,0.7295,0.6694,0.6348,45.18,-22.32,2.32
1082,390419787,0.7197,0.6675,0.6235,44.39,-22.32,2.56
1083,390424786,0.7119,0.6636,0.6128,43.90,-22.26,2.93
1084,390429785,0.7090,0.6494,0.6133,43.35,-22.01,3.35
1085,390434788,0.7031,0.6436,0.6050,42.62,-22.13,3.84
1086,390439786,0.6895,0.6348,0.5991,41.95,-22.07,4.33
1087,390444785,0.6875,0.6357,0.5815,41.28,-21.89,4.88
1088,390449787,0.6782,0.6377,0.5854,40.79,-21.83,5.43
1089,390454788,0.6738,0.6357,0.5762,40.12,-21.46,5.85
1090,390459787,0.6733,0.6260,0.5718,39.45,-21.40,6.34
1091,390464867,0.6724,0.6265,0.5718,38.66,-21.28,6.89
1092,390469787,0.6680,0.6206,0.5620,38.11,-20.98,7.32
1093,390474787,0.6699,0.6196,0.5522,37.38,-20.67,8.05
1094,390479787,0.6670,0.6187,0.5479,36.59,-20.49,8.29
1095,390484787,0.6597,0.6133,0.5464,35.91,-20.12,8.90
1096,390489787,0.6626,0.6094,0.5449,35.12,-19.76,9.27
1097,390494787,0.6548,0.6064,0.5376,34.39,-19.51,9.88
1098,390499787,0.6543,0.6006,0.5386,33.72,-19.02,10.24
1099,390504788,0.6479,0.5947,0.5342,32.87,-18.90,10.85
1100,390509787,0.6528,0.5933,0.5264,32.50,-18.41,11.28
1101,390514787,0.6509,0.5874,0.5288,31.83,-18.17,11.71
1102,390519787,0.6553,0.5845,0.5249,31.34,-17.56,12.20
1103,390524787,0.6597,0.5786,0.5259,30.67,-16.89,12.62
1104,390529787,0.6602,0.5747,0.5210,30.43,-16.52,13.11
1105,390534787,0.6602,0.5708,0.5142,30.12,-15.98,13.48
1106,390539787,0.6636,0.5684,0.5103,29.82,-15.61,13.84
1107,390544785,0.6616,0.5630,0.5054,29.63,-15.30,14.21
1108,390550111,0.6660,0.5552,0.5068,29.33,-14.76,14.57
1109,390554789,0.6675,0.5508,0.5073,29.02,-14.33,14.82
1110,390559786,0.6709,0.5425,0.5029,29.02,-13.84,15.18
1111,390564785,0.6699,0.5366,0.5039,28.72,-13.35,15.49
1112,390569789,0.6743,0.5273,0.4956,28.66,-13.05,15.79
1113,390574915,0.6768,0.5239,0.4985,28.54,-12.44,15.91
1114,390579787,0.6709,0.5146,0.4946,28.48,-11.95,16.16
1115,390584787,0.6714,0.5083,0.4995,28.60,-11.52,16.40
1116,390589787,0.6724,0.5034,0.4985,28.78,-11.04,16.71
1117,390594788,0.6772,0.4961,0.5005,29.02,-10.49,16.89
1118,390599787,0.6748,0.4961,0.5049,29.39,-9.82,16.95
1119,390604785,0.6812,0.4946,0.5063,29.63,-9.33,17.13
1120,390609789,0.6875,0.4951,0.5029,30.24,-8.60,17.26
1121,390614787,0.6929,0.4927,0.5083,30.73,-7.99,17.32
1122,390619787,0.6997,0.4985,0.5063,31.46,-7.38,17.26
1123,390624789,0.7046,0.4990,0.5112,32.01,-6.83,17.07
1124,390629787,0.7085,0.5059,0.5176,32.87,-6.16,16.95
1125,390634789,0.7192,0.5132,0.5146,33.60,-5.37,16.71
1126,390639786,0.7241,0.5195,0.5269,34.39,-4.88,16.22
1127,390644785,0.7305,0.5254,0.5337,35.18,-4.15,15.79
1128,390649790,0.7373,0.5312,0.5327,35.85,-3.35,15.30
1129,390654786,0.7393,0.5303,0.5356,36.46,-2.56,14.70
1130,390659785,0.7461,0.5352,0.5361,37.01,-1.77,14.09
1131,390664789,0.7505,0.5400,0.5469,37.32,-1.04,13.35
1132,390669786,0.7539,0.5435,0.5435,37.50,-0.49,12.74
1133,390674970,0.7534,0.5488,0.5488,37.50,0.30,11.89
1134,390679789,0.7627,0.5532,0.5420,37.32,0.79,11.04
1135,390684786,0.7710,0.5581,0.5332,36.95,1.52,10.00
1136,390689787,0.7759,0.5640,0.5391,36.40,1.89,9.15
1137,390694787,0.7769,0.5610,0.5308,35.55,2.38,8.29
1138,390699787,0.7759,0.5635,0.5332,34.70,2.93,7.32
1139,390704786,0.7759,0.5684,0.5342,33.35,3.41,6.46
1140,390709786,0.7769,0.5645,0.5278,32.13,3.72,5.55
1141,390714788,0.7764,0.5635,0.5332,30.61,4.15,4.57
1142,390719787,0.7739,0.5596,0.5259,28.84,4.51,3.78
1143,390724787,0.7764,0.5630,0.5308,26.95,4.88,3.05
1144,390729786,0.7769,0.5630,0.5151,24.88,5.18,2.20
1145,390734785,0.7759,0.5659,0.5181,22.68,5.30,1.34
1146,390739787,0.7773,0.5698,0.5205,20.30,5.73,0.55
1147,390744787,0.7783,0.5718,0.5186,17.93,5.98,-0.18
1148,390749787,0.7769,0.5762,0.5103,15.55,6.16,-0.73
1149,390754785,0.7720,0.5811,0.5132,13.29,6.28,-1.52
1150,390759785,0.7725,0.5889,0.5107,10.79,6.52,-2.26
1151,390764789,0.7749,0.5918,0.5059,8.60,6.77,-3.17
1152,390769786,0.7686,0.5957,0.5024,6.34,6.71,-3.78
1153,390774787,0.7725,0.5981,0.5024,4.33,7.07,-4.45
1154,390779786,0.7671,0.6074,0.5049,2.56,7.07,-5.18
1155,390784787,0.7710,0.6069,0.5015,0.61,7.32,-5.85
1156,390789786,0.7627,0.6074,0.4932,-1.04,7.50,-6.46
1157,390794849,0.7627,0.6099,0.4907,-2.74,7.68,-7.01
1158,390799786,0.7603,0.6118,0.4927,-4.02,7.68,-7.44
1159,390804787,0.7627,0.6118,0.4907,-5.37,7.80,-7.99
1160,390809786,0.7617,0.6094,0.4819,-6.40,7.99,-8.48
1161,390814785,0.7549,0.6069,0.4854,-7.38,7.99,-8.84
1162,390819787,0.7524,0.6025,0.4912,-8.17,8.11,-9.15
1163,390824787,0.7480,0.5991,0.4839,-8.72,8.17,-9.33
1164,390829786,0.7480,0.5981,0.4741,-9.27,8.11,-9.57
1165,390834787,0.7510,0.5967,0.4702,-9.57,8.17,-9.63
1166,390839786,0.7476,0.6001,0.4746,-9.70,8.41,-9.70
1167,390844787,0.7515,0.5972,0.4707,-9.51,8.35,-9.63
1168,390849785,0.7471,0.6001,0.4756,-9.39,8.35,-9.76
1169,390854786,0.7446,0.5972,0.4692,-9.02,8.29,-9.63
1170,390859787,0.7437,0.5952,0.4683,-8.48,8.23,-9.57
1171,390864786,0.7393,0.5942,0.4707,-7.74,8.35,-9.45
1172,390869787,0.7368,0.5923,0.4727,-7.01,8.23,-9.33
1173,390874786,0.7388,0.5942,0.4751,-6.28,8.17,-9.09
1174,390879786,0.7368,0.5913,0.4736,-5.24,8.05,-8.90
1175,390885044,0.7334,0.5913,0.4712,-4.21,8.11,-8.60
1176,390889787,0.7329,0.5923,0.4761,-3.11,7.99,-8.23
1177,390894787,0.7300,0.5884,0.4712,-1.89,8.11,-7.99
1178,390899787,0.7300,0.5898,0.4746,-0.61,8.23,-7.56
1179,390904786,0.7256,0.5850,0.4741,0.49,7.99,-7.20
1180,390909787,0.7275,0.5918,0.4731,1.77,7.93,-6.71
1181,390914787,0.7285,0.5947,0.4780,2.87,7.87,-6.40
1182,390919787,0.7310,0.6016,0.4766,3.90,7.99,-5.98
1183,390925159,0.7310,0.6006,0.4785,4.94,7.80,-5.49
1184,390929788,0.7251,0.5962,0.4834,5.98,7.87,-5.18
1185,390934787,0.7236,0.6006,0.4858,6.77,7.87,-4.51
1186,390939787,0.7246,0.5996,0.4844,7.68,7.80,-4.21
1187,390944786,0.7227,0.6040,0.4922,8.35,7.80,-3.66
1188,390949787,0.7178,0.6011,0.4888,8.90,7.74,-3.29
1189,390954785,0.7212,0.6035,0.5044,9.45,7.87,-2.68
1190,390959787,0.7173,0.6011,0.4937,10.06,7.87,-2.26
1191,390964787,0.7188,0.6001,0.4902,10.37,7.87,-1.65
1192,390969786,0.7183,0.5977,0.4976,10.49,8.17,-1.16
1193,390974787,0.7153,0.5977,0.5054,10.55,8.11,-0.67
1194,390979787,0.7129,0.6016,0.5039,10.73,8.17,0.00
1195,390984852,0.7168,0.6021,0.5020,10.61,8.29,0.55
1196,390989881,0.7183,0.6021,0.5068,10.37,8.41,0.98
1197,390994787,0.7144,0.6016,0.5068,10.43,8.35,1.52
1198,390999787,0.7129,0.6064,0.5088,10.24,8.48,2.01
1199,391004852,0.7183,0.6074,0.5151,10.00,8.66,2.50
1200,391009787,0.7139,0.6064,0.5195,9.88,8.72,2.87
1201,391014786,0.7100,0.6113,0.5234,9.45,8.84,3.35
1202,391019787,0.7109,0.6094,0.5288,9.15,8.96,3.66
1203,391024787,0.7104,0.6104,0.5254,8.72,9.15,4.09
1204,391029787,0.7109,0.6064,0.5308,8.41,9.15,4.45
1205,391034787,0.7129,0.6079,0.5283,7.93,9.33,4.82
1206,391039787,0.7124,0.6064,0.5254,7.32,9.39,5.18
1207,391044786,0.7134,0.6069,0.5298,6.77,9.39,5.55
1208,391049787,0.7148,0.6030,0.5298,6.22,9.57,5.91
1209,391054785,0.7124,0.6050,0.5337,5.55,9.33,6.22
