# skilleye imu stream v1
# device=xiao_esp32c6 imu=mpu6050 addr=0x68
# rate_hz=200 accel_range_g=16 gyro_range_dps=2000 dlpf_hz=94
# units: accel in g, gyro in deg/s, t_us in microseconds since boot (monotonic)
# no shared clock with the camera -- tap the racket once before each take
# so both recordings share a spike to align on
seq,t_us,ax,ay,az,gx,gy,gz
0,56691664,-0.9072,0.3994,0.2246,9.21,-23.60,5.61
1,56697143,-0.9097,0.4033,0.2275,8.78,-22.93,5.67
2,56701664,-0.9062,0.4033,0.2222,8.48,-22.32,5.73
3,56706664,-0.9077,0.4062,0.2271,8.29,-21.71,5.67
4,56711664,-0.9062,0.4058,0.2266,7.87,-20.79,5.79
5,56717154,-0.9067,0.4043,0.2295,7.87,-20.18,5.61
6,56721664,-0.9092,0.4048,0.2256,7.74,-19.27,5.67
7,56726664,-0.9097,0.4043,0.2271,7.62,-18.60,5.67
8,56731664,-0.9077,0.4048,0.2236,7.62,-17.74,5.61
9,56736996,-0.9058,0.4019,0.2310,7.74,-16.59,5.49
10,56741664,-0.9097,0.4019,0.2280,7.74,-15.98,5.43
11,56746664,-0.9028,0.4072,0.2324,7.93,-14.82,5.43
12,56751664,-0.8979,0.4033,0.2329,8.23,-13.96,5.43
13,56756664,-0.8970,0.4023,0.2349,8.48,-13.23,5.49
14,56761662,-0.8926,0.4028,0.2324,8.84,-12.07,5.30
15,56766664,-0.8945,0.4014,0.2324,9.02,-11.16,5.30
16,56771664,-0.8867,0.4053,0.2339,9.33,-10.30,5.30
17,56776662,-0.8867,0.4033,0.2344,9.76,-9.15,5.30
18,56781664,-0.8838,0.3994,0.2358,10.24,-8.23,5.30
19,56786664,-0.8853,0.4009,0.2334,10.61,-7.32,5.30
20,56792130,-0.8887,0.4019,0.2388,11.16,-6.10,5.30
21,56796664,-0.8853,0.3994,0.2383,11.46,-5.30,5.37
22,56801920,-0.8892,0.3984,0.2363,11.95,-4.45,5.37
23,56806664,-0.8931,0.3979,0.2378,12.20,-3.35,5.43
24,56812148,-0.8955,0.4014,0.2344,12.68,-2.26,5.37
25,56816664,-0.8960,0.4009,0.2363,12.80,-1.34,5.49
26,56821664,-0.8940,0.4019,0.2412,12.93,-0.55,5.43
27,56826664,-0.8970,0.4004,0.2393,13.11,0.61,5.37
28,56832114,-0.9014,0.4023,0.2402,13.11,1.71,5.43
29,56836664,-0.8999,0.4062,0.2446,12.99,2.56,5.24
30,56841664,-0.9019,0.4048,0.2461,12.80,3.78,5.18
31,56846664,-0.8989,0.4072,0.2471,12.74,4.82,5.12
32,56851664,-0.9004,0.4102,0.2505,12.68,5.49,5.12
33,56856664,-0.8965,0.4043,0.2397,12.50,6.46,5.06
34,56861664,-0.9023,0.4038,0.2388,12.32,7.50,4.94
35,56867144,-0.8984,0.3984,0.2476,12.26,8.48,4.82
36,56871664,-0.9009,0.3965,0.2441,12.07,9.15,4.94
37,56876663,-0.8975,0.3940,0.2471,12.07,10.12,4.94
38,56881663,-0.8984,0.3931,0.2539,12.20,10.98,5.06
39,56886665,-0.8940,0.3950,0.2554,12.32,11.89,5.00
40,56892128,-0.8979,0.3901,0.2480,12.38,13.05,5.12
41,56896664,-0.8989,0.3896,0.2485,12.38,13.60,5.24
42,56901664,-0.8970,0.3901,0.2485,12.20,14.39,5.30
43,56906664,-0.8955,0.3916,0.2495,12.13,15.37,5.43
44,56911664,-0.8994,0.3911,0.2583,11.89,16.28,5.37
45,56916664,-0.8931,0.3940,0.2598,11.71,16.83,5.37
46,56921727,-0.8984,0.3926,0.2627,11.40,17.44,5.49
47,56927142,-0.8955,0.3955,0.2495,10.61,18.35,5.43
48,56931664,-0.8979,0.3965,0.2563,10.06,18.90,5.37
49,56937106,-0.8955,0.3960,0.2485,9.39,19.45,5.37
50,56941664,-0.8999,0.3984,0.2544,8.41,20.12,5.30
51,56946666,-0.9077,0.3979,0.2534,7.50,20.67,5.30
52,56951664,-0.9033,0.3989,0.2544,6.65,21.10,5.18
53,56956664,-0.9058,0.3989,0.2607,5.67,21.65,5.06
54,56961883,-0.9023,0.3994,0.2573,4.63,22.20,5.00
55,56966664,-0.8989,0.4009,0.2627,3.48,22.56,4.82
56,56971854,-0.8936,0.3989,0.2598,2.38,23.11,4.63
57,56976663,-0.8931,0.3989,0.2583,1.16,23.35,4.63
58,56981774,-0.8950,0.3989,0.2627,0.06,23.84,4.51
59,56987170,-0.8916,0.4019,0.2612,-1.34,24.39,4.27
60,56991664,-0.8916,0.3960,0.2598,-2.44,24.63,4.15
61,56996681,-0.8945,0.4009,0.2622,-3.60,24.94,4.15
62,57001664,-0.8950,0.4038,0.2583,-4.76,25.43,3.96
63,57007142,-0.8916,0.3994,0.2607,-5.98,25.43,3.84
64,57011667,-0.8921,0.3999,0.2651,-7.13,25.79,3.78
65,57016663,-0.8931,0.3989,0.2598,-8.17,26.04,3.66
66,57021666,-0.8916,0.4014,0.2578,-9.33,26.16,3.60
67,57026664,-0.8857,0.4053,0.2593,-10.30,26.52,3.54
68,57031669,-0.8833,0.4053,0.2607,-11.40,26.59,3.48
69,57036664,-0.8887,0.4014,0.2676,-12.44,26.77,3.35
70,57041664,-0.8867,0.4038,0.2563,-13.35,26.83,3.29
71,57046666,-0.8784,0.4004,0.2544,-14.33,26.89,3.17
72,57051663,-0.8779,0.3999,0.2632,-15.18,27.07,3.17
73,57056664,-0.8765,0.3999,0.2568,-15.85,27.07,3.29
74,57061662,-0.8789,0.3979,0.2642,-16.65,27.07,3.23
75,57066662,-0.8789,0.3960,0.2583,-17.13,27.01,3.17
76,57071859,-0.8730,0.4014,0.2593,-17.80,26.95,3.17
77,57076665,-0.8760,0.4004,0.2603,-18.17,26.89,3.29
78,57081664,-0.8818,0.3999,0.2598,-18.60,27.01,3.35
79,57087148,-0.8823,0.3965,0.2632,-18.78,26.89,3.48
80,57091666,-0.8853,0.3940,0.2622,-19.02,26.77,3.54
81,57097086,-0.8906,0.3975,0.2622,-19.09,26.77,3.78
82,57101664,-0.8931,0.3960,0.2588,-19.21,26.59,3.84
83,57107137,-0.8955,0.3970,0.2607,-19.21,26.46,3.78
84,57112115,-0.8994,0.3945,0.2583,-19.27,26.28,4.09
85,57116666,-0.9014,0.3931,0.2583,-19.21,26.04,4.15
86,57121664,-0.9019,0.3965,0.2563,-19.09,25.85,4.27
87,57126664,-0.9097,0.3955,0.2612,-18.96,25.67,4.57
88,57131664,-0.9141,0.3975,0.2554,-18.84,25.30,4.63
89,57137112,-0.9160,0.3999,0.2651,-18.66,25.18,4.70
90,57141666,-0.9160,0.4014,0.2617,-18.41,25.06,4.82
91,57147099,-0.9199,0.4009,0.2646,-18.11,24.88,4.88
92,57151664,-0.9185,0.4019,0.2651,-17.56,24.63,4.94
93,57156664,-0.9199,0.4014,0.2710,-17.13,24.57,5.00
94,57161664,-0.9150,0.3960,0.2671,-16.65,24.33,5.06
95,57166664,-0.9121,0.3999,0.2720,-15.91,24.27,5.18
96,57172093,-0.9106,0.3911,0.2695,-15.12,24.15,5.37
97,57176667,-0.9082,0.3867,0.2671,-14.15,24.15,5.43
98,57181696,-0.9058,0.3833,0.2695,-13.29,23.96,5.85
99,57186663,-0.9043,0.3813,0.2671,-12.20,23.72,6.04
100,57191662,-0.9038,0.3765,0.2632,-11.04,23.60,6.28
101,57197111,-0.8989,0.3735,0.2671,-9.94,23.23,6.52
102,57202132,-0.8984,0.3770,0.2671,-8.90,23.29,6.83
103,57207077,-0.8955,0.3740,0.2666,-7.80,22.93,6.95
104,57211664,-0.8970,0.3770,0.2656,-7.01,22.87,7.07
105,57216862,-0.8989,0.3823,0.2671,-6.22,22.62,7.13
106,57221664,-0.8955,0.3828,0.2715,-5.67,22.44,7.13
107,57226664,-0.8999,0.3867,0.2651,-5.06,22.20,7.07
108,57231664,-0.9009,0.3843,0.2627,-4.76,21.95,7.07
109,57237118,-0.9004,0.3823,0.2544,-4.63,21.46,6.95
110,57241664,-0.9009,0.3823,0.2549,-4.57,21.10,6.65
111,57247090,-0.9023,0.3818,0.2500,-4.76,20.61,6.40
112,57251667,-0.8989,0.3818,0.2466,-5.00,20.18,6.22
113,57256664,-0.9014,0.3838,0.2397,-5.37,19.39,5.85
114,57261664,-0.9067,0.3799,0.2383,-6.10,18.54,5.55
115,57266664,-0.9131,0.3779,0.2539,-6.77,17.56,5.30
116,57271664,-0.9092,0.3833,0.2466,-7.32,17.01,4.94
117,57276664,-0.9082,0.3779,0.2505,-7.74,16.22,4.63
118,57281664,-0.9116,0.3809,0.2480,-8.23,15.43,4.21
119,57286902,-0.9097,0.3833,0.2578,-8.66,14.63,3.78
120,57291666,-0.9058,0.3877,0.2607,-9.21,14.09,3.35
121,57297145,-0.9082,0.3906,0.2573,-9.70,13.35,2.68
122,57302114,-0.9102,0.3926,0.2573,-10.43,12.62,2.20
123,57306664,-0.9121,0.3911,0.2627,-11.22,11.89,1.52
124,57312140,-0.9097,0.3892,0.2549,-12.01,11.10,1.04
125,57317159,-0.9111,0.3940,0.2529,-13.05,10.43,0.37
126,57322147,-0.9053,0.3936,0.2549,-14.09,9.63,-0.30
127,57326664,-0.9043,0.3911,0.2637,-15.06,8.78,-0.98
128,57331664,-0.8989,0.3926,0.2612,-16.10,8.17,-1.52
129,57336666,-0.8994,0.3950,0.2554,-17.20,7.32,-2.26
130,57341664,-0.8960,0.3896,0.2510,-18.23,6.59,-2.87
131,57346664,-0.8931,0.3877,0.2490,-19.15,5.91,-3.60
132,57351663,-0.8960,0.3867,0.2515,-20.06,5.30,-4.21
133,57356664,-0.8945,0.3862,0.2485,-20.98,4.70,-4.88
134,57361666,-0.8926,0.3853,0.2505,-21.77,4.27,-5.49
135,57366663,-0.8896,0.3857,0.2510,-22.44,3.72,-6.04
136,57371664,-0.8838,0.3872,0.2573,-23.17,3.41,-6.65
137,57377362,-0.8823,0.3823,0.2637,-24.15,2.87,-7.20
138,57382140,-0.8818,0.3828,0.2490,-25.00,2.56,-7.74
139,57386664,-0.8784,0.3828,0.2554,-25.67,2.32,-8.23
140,57391663,-0.8804,0.3794,0.2500,-26.22,1.95,-8.66
141,57396876,-0.8809,0.3804,0.2529,-27.01,1.65,-9.09
142,57401664,-0.8799,0.3804,0.2534,-27.68,1.40,-9.51
143,57406664,-0.8789,0.3818,0.2544,-28.23,1.22,-9.88
144,57411925,-0.8799,0.3804,0.2500,-29.02,0.91,-10.30
145,57416664,-0.8794,0.3823,0.2505,-29.57,0.67,-10.61
146,57421667,-0.8809,0.3857,0.2520,-30.24,0.30,-11.04
147,57427119,-0.8838,0.3853,0.2568,-31.16,0.18,-11.40
148,57431664,-0.8857,0.3926,0.2559,-31.83,0.12,-11.71
149,57436663,-0.8950,0.3940,0.2642,-32.68,-0.06,-12.07
150,57441664,-0.8994,0.3960,0.2637,-33.35,-0.12,-12.44
151,57446664,-0.9023,0.3984,0.2642,-34.21,-0.49,-12.87
152,57451662,-0.9077,0.3965,0.2646,-35.06,-0.55,-13.11
153,57456664,-0.9126,0.3989,0.2612,-35.91,-0.85,-13.54
154,57461665,-0.9175,0.3999,0.2612,-36.65,-0.91,-13.78
155,57466743,-0.9165,0.4014,0.2617,-37.44,-1.16,-14.02
156,57471662,-0.9224,0.4053,0.2646,-38.17,-1.28,-14.27
157,57477164,-0.9219,0.3994,0.2642,-38.84,-1.52,-14.51
158,57481666,-0.9272,0.4009,0.2666,-39.27,-1.71,-14.57
159,57486663,-0.9321,0.3999,0.2627,-39.76,-2.07,-14.51
160,57491853,-0.9302,0.3945,0.2725,-40.43,-2.44,-14.57
161,57497153,-0.9297,0.3970,0.2642,-40.79,-2.74,-14.51
162,57501664,-0.9321,0.3955,0.2656,-40.91,-2.87,-14.27
163,57507094,-0.9321,0.3945,0.2695,-41.34,-3.23,-14.09
164,57512137,-0.9297,0.3950,0.2612,-41.40,-3.41,-13.78
165,57516664,-0.9331,0.3955,0.2676,-41.40,-3.60,-13.54
166,57522086,-0.9302,0.3926,0.2676,-41.65,-4.02,-13.23
167,57526664,-0.9336,0.3965,0.2676,-41.83,-4.15,-12.93
168,57532072,-0.9351,0.3960,0.2637,-41.77,-4.15,-12.56
169,57536667,-0.9336,0.3931,0.2690,-41.83,-4.09,-12.26
170,57541664,-0.9321,0.3975,0.2676,-41.83,-4.02,-12.01
171,57546904,-0.9355,0.3940,0.2676,-41.95,-4.33,-11.59
172,57551664,-0.9336,0.3955,0.2681,-41.83,-4.27,-11.28
173,57557103,-0.9302,0.3901,0.2710,-41.83,-4.27,-10.79
174,57561664,-0.9307,0.3906,0.2676,-41.65,-4.15,-10.43
175,57566664,-0.9248,0.3872,0.2651,-41.59,-4.02,-10.00
176,57571664,-0.9219,0.3862,0.2705,-41.40,-3.96,-9.57
177,57576663,-0.9204,0.3867,0.2720,-41.16,-3.72,-9.02
178,57581664,-0.9160,0.3818,0.2637,-40.79,-3.66,-8.35
179,57587445,-0.9126,0.3740,0.2642,-40.30,-3.41,-7.62
180,57591664,-0.9121,0.3716,0.2705,-39.94,-3.17,-7.01
181,57596662,-0.9097,0.3687,0.2705,-39.15,-2.99,-6.28
182,57601664,-0.9072,0.3618,0.2690,-38.54,-2.62,-5.55
183,57606665,-0.9067,0.3623,0.2769,-37.62,-2.32,-4.70
184,57612137,-0.9038,0.3618,0.2788,-36.46,-1.89,-3.66
185,57616664,-0.9033,0.3589,0.2729,-35.79,-1.59,-2.87
186,57622092,-0.8945,0.3560,0.2812,-34.51,-1.16,-1.89
187,57626664,-0.8940,0.3579,0.2822,-33.60,-0.85,-1.28
188,57632094,-0.8931,0.3599,0.2837,-32.50,-0.24,-0.24
189,57636664,-0.8921,0.3599,0.2847,-31.65,0.18,0.43
190,57641664,-0.9019,0.3589,0.2837,-30.61,0.55,1.28
191,57646664,-0.9023,0.3589,0.2871,-29.70,0.98,2.01
192,57652149,-0.9033,0.3613,0.2798,-28.48,1.65,2.93
193,57656664,-0.9028,0.3638,0.2852,-27.56,2.07,3.54
194,57661949,-0.9014,0.3677,0.2881,-26.95,2.44,4.02
195,57666664,-0.8960,0.3667,0.2886,-26.04,3.11,4.82
196,57671664,-0.8965,0.3701,0.2852,-25.06,3.54,5.24
197,57676668,-0.8931,0.3696,0.2871,-24.27,4.02,5.73
198,57681664,-0.8901,0.3726,0.2837,-23.60,4.45,6.04
199,57686757,-0.8882,0.3691,0.2896,-22.68,5.12,6.65
200,57691665,-0.8892,0.3691,0.2969,-21.83,5.49,6.95
201,57696665,-0.8867,0.3716,0.2935,-20.85,6.04,7.44
202,57701862,-0.8911,0.3667,0.2925,-19.88,6.59,7.93
203,57706854,-0.8960,0.3647,0.2935,-18.90,6.95,8.54
204,57711666,-0.8979,0.3604,0.2925,-17.87,7.32,8.90
205,57716664,-0.9014,0.3599,0.2891,-16.71,7.80,9.57
206,57722096,-0.9106,0.3628,0.2983,-15.55,8.29,10.37
207,57726664,-0.9204,0.3662,0.2983,-14.39,8.60,11.04
208,57731664,-0.9263,0.3687,0.3008,-13.66,8.84,11.40
209,57736664,-0.9380,0.3721,0.2988,-12.50,9.45,11.95
210,57741664,-0.9556,0.3735,0.3076,-11.34,9.88,12.44
211,57746663,-0.9688,0.3809,0.3140,-10.37,10.37,13.05
212,57751664,-0.9775,0.3813,0.3105,-9.33,10.73,13.48
213,57756664,-0.9800,0.3804,0.3101,-8.29,11.22,13.84
214,57761664,-0.9800,0.3862,0.3110,-7.38,11.52,14.27
215,57766664,-0.9897,0.3813,0.3110,-6.59,12.01,14.76
216,57771664,-0.9941,0.3872,0.3203,-5.98,12.38,15.12
217,57776664,-0.9995,0.3843,0.3213,-5.18,12.80,15.55
218,57781663,-1.0015,0.3833,0.3179,-4.82,13.11,15.85
219,57787480,-1.0112,0.3838,0.3193,-4.09,13.60,16.40
220,57792145,-1.0127,0.3862,0.3140,-3.84,13.90,16.77
221,57796664,-1.0200,0.3857,0.3135,-3.60,14.15,17.26
222,57801663,-1.0352,0.3848,0.3179,-3.35,14.45,17.68
223,57806664,-1.0420,0.3979,0.3203,-3.29,14.70,18.17
224,57812094,-1.0518,0.4062,0.3154,-3.54,14.82,18.60
225,57816664,-1.0552,0.4175,0.3159,-3.78,15.06,18.96
226,57822066,-1.0620,0.4253,0.3140,-4.09,15.24,19.27
227,57826666,-1.0596,0.4331,0.3086,-4.57,15.43,19.63
228,57831668,-1.0596,0.4390,0.3071,-4.70,15.18,20.00
229,57836664,-1.0630,0.4419,0.3091,-4.94,15.30,20.37
230,57841664,-1.0640,0.4404,0.3101,-4.82,15.30,20.79
231,57846663,-1.0610,0.4453,0.3042,-4.63,15.30,21.16
232,57851666,-1.0566,0.4463,0.3130,-4.09,15.43,21.77
233,57856663,-1.0493,0.4478,0.3110,-3.41,15.55,22.38
234,57862136,-1.0405,0.4473,0.3086,-2.38,15.67,22.99
235,57866664,-1.0303,0.4468,0.3091,-1.34,15.91,23.60
236,57872077,-1.0244,0.4478,0.3154,0.00,16.04,24.51
237,57876664,-1.0146,0.4478,0.3105,1.28,16.34,25.30
238,57881918,-1.0093,0.4453,0.3105,2.80,16.65,26.28
239,57886666,-0.9995,0.4512,0.3203,4.27,17.13,27.20
240,57892128,-0.9946,0.4531,0.3232,5.61,17.44,28.17
241,57896664,-0.9927,0.4565,0.3145,7.01,17.87,29.15
242,57901713,-0.9902,0.4658,0.3130,8.11,18.41,30.06
243,57906666,-0.9937,0.4688,0.3154,8.84,18.60,31.10
244,57912158,-0.9883,0.4824,0.3120,9.09,19.09,31.95
245,57916664,-0.9849,0.4902,0.3062,9.21,19.45,32.87
246,57922098,-0.9834,0.4961,0.3086,8.90,19.70,33.66
247,57926664,-0.9761,0.5146,0.3057,8.11,19.88,34.39
248,57932101,-0.9727,0.5151,0.2974,7.26,20.06,35.24
249,57936664,-0.9653,0.5122,0.3022,6.22,20.30,36.04
250,57941664,-0.9648,0.5112,0.2944,5.18,20.55,37.01
251,57946865,-0.9648,0.5122,0.2969,4.33,20.73,38.11
252,57951664,-0.9580,0.5146,0.2949,3.78,20.91,39.21
253,57956664,-0.9604,0.5137,0.2983,3.60,21.10,40.37
254,57962139,-0.9497,0.5190,0.2993,3.41,21.46,41.71
255,57966664,-0.9453,0.5151,0.3057,3.60,21.83,43.05
256,57971664,-0.9409,0.5210,0.3008,4.02,22.20,44.45
257,57976664,-0.9277,0.5181,0.2998,4.57,22.56,46.10
258,57981664,-0.9268,0.5200,0.3071,5.49,23.23,47.56
259,57986664,-0.9243,0.5171,0.3052,6.52,23.66,49.39
260,57991867,-0.9189,0.5220,0.3042,7.44,24.15,51.04
261,57996664,-0.9141,0.5186,0.2969,8.54,24.63,53.05
262,58001664,-0.9111,0.5244,0.2988,9.45,25.12,54.76
263,58006712,-0.9077,0.5303,0.2969,10.24,25.43,56.65
264,58011664,-0.9106,0.5322,0.2944,10.61,25.91,58.41
265,58016665,-0.9102,0.5410,0.2881,10.67,26.10,60.18
266,58021664,-0.9067,0.5493,0.2827,10.49,26.28,61.95
267,58026663,-0.9033,0.5557,0.2847,9.76,26.52,63.60
268,58031664,-0.9038,0.5610,0.2803,8.54,26.52,65.00
269,58036664,-0.9067,0.5659,0.2788,7.01,26.65,66.46
270,58041663,-0.9023,0.5781,0.2749,5.24,26.71,67.80
271,58046663,-0.9023,0.5830,0.2764,3.05,26.65,69.09
272,58051664,-0.8965,0.5854,0.2705,0.49,26.59,70.43
273,58056665,-0.8984,0.5933,0.2671,-2.13,26.52,71.65
274,58061664,-0.8989,0.5952,0.2739,-4.88,26.28,72.93
275,58066719,-0.8975,0.5938,0.2729,-7.80,26.16,74.27
276,58072159,-0.9028,0.6006,0.2764,-10.73,25.85,75.49
277,58076664,-0.9072,0.6045,0.2729,-13.48,25.67,76.89
278,58081899,-0.9160,0.6094,0.2690,-16.52,25.43,78.41
279,58086667,-0.9111,0.6118,0.2725,-19.57,25.37,80.00
280,58091668,-0.9023,0.6128,0.2681,-22.56,25.18,81.52
281,58097112,-0.8911,0.6206,0.2720,-25.91,25.00,83.17
282,58101664,-0.8774,0.6294,0.2695,-29.15,24.88,84.70
283,58106663,-0.8628,0.6431,0.2744,-32.87,24.88,86.65
284,58112133,-0.8486,0.6323,0.2656,-36.71,24.76,87.32
285,58116665,-0.8462,0.6211,0.2720,-40.61,24.76,87.74
286,58121668,-0.8511,0.6167,0.2671,-44.63,24.63,90.12
287,58126664,-0.8564,0.6240,0.2773,-48.41,24.51,91.77
288,58132097,-0.8550,0.6313,0.2749,-52.13,24.27,93.41
289,58136664,-0.8486,0.6309,0.2715,-55.85,24.15,94.94
290,58141664,-0.8413,0.6362,0.2808,-59.51,24.09,96.28
291,58147149,-0.8398,0.6362,0.2778,-63.11,23.78,97.74
292,58151664,-0.8389,0.6367,0.2886,-66.52,23.66,99.15
293,58156663,-0.8438,0.6313,0.2827,-69.82,23.23,100.43
294,58161664,-0.8457,0.6357,0.2852,-73.11,22.87,101.83
295,58166664,-0.8413,0.6387,0.2896,-76.28,22.56,103.11
296,58171664,-0.8354,0.6436,0.2900,-79.45,22.01,104.27
297,58176668,-0.8335,0.6475,0.2896,-82.50,21.40,105.43
298,58181664,-0.8286,0.6519,0.2935,-84.94,21.04,106.34
299,58187129,-0.8213,0.6567,0.3013,-88.41,20.24,107.56
300,58191663,-0.8311,0.6689,0.2974,-91.34,19.51,108.54
301,58196667,-0.8359,0.6841,0.2871,-94.27,18.54,109.33
302,58201664,-0.8384,0.6860,0.2744,-96.46,17.50,109.94
303,58206663,-0.8418,0.6875,0.3003,-99.15,15.98,110.61
304,58211662,-0.8315,0.6880,0.3115,-101.16,14.94,111.59
305,58216664,-0.8179,0.6895,0.3037,-102.56,13.72,112.50
306,58221666,-0.8101,0.6855,0.3179,-103.48,12.13,113.54
307,58226664,-0.8032,0.6860,0.3364,-103.72,11.10,114.51
308,58231664,-0.7983,0.6875,0.3330,-103.60,10.18,115.30
309,58236664,-0.7925,0.6973,0.3369,-102.93,9.21,116.34
310,58242106,-0.7808,0.7036,0.3389,-101.83,7.99,117.32
311,58247119,-0.7812,0.7061,0.3481,-100.61,6.89,118.29
312,58251664,-0.7754,0.7046,0.3457,-99.39,5.98,119.09
313,58256664,-0.7778,0.7061,0.3569,-97.56,5.06,120.12
314,58262113,-0.7808,0.7070,0.3682,-95.00,4.02,121.28
315,58266664,-0.7778,0.7056,0.3696,-92.93,3.17,122.01
316,58272118,-0.7715,0.7051,0.3789,-89.51,2.44,123.23
317,58276664,-0.7617,0.7061,0.3867,-87.13,2.01,124.09
318,58281664,-0.7520,0.7095,0.3975,-84.02,1.59,125.00
319,58286663,-0.7554,0.7163,0.4004,-80.91,0.91,125.73
320,58292118,-0.7544,0.7329,0.4077,-77.32,0.55,126.52
321,58296664,-0.7549,0.7461,0.4097,-75.12,0.12,126.95
322,58301663,-0.7495,0.7573,0.4116,-72.62,-0.18,127.38
323,58306664,-0.7510,0.7646,0.4067,-70.12,-0.85,127.68
324,58311663,-0.7456,0.7705,0.4092,-67.62,-1.52,127.87
325,58316664,-0.7490,0.7764,0.4160,-65.30,-2.13,128.11
326,58321666,-0.7402,0.7832,0.4199,-62.74,-2.93,128.41
327,58326664,-0.7300,0.7827,0.4233,-60.37,-3.60,128.48
328,58331664,-0.7168,0.7832,0.4204,-57.87,-4.51,128.72
329,58336664,-0.7012,0.7793,0.4268,-55.43,-5.12,129.09
330,58341664,-0.6885,0.7783,0.4272,-53.05,-6.10,129.27
331,58346665,-0.6753,0.7739,0.4297,-50.55,-6.83,129.63
332,58351662,-0.6592,0.7769,0.4312,-47.93,-7.74,130.00
333,58356662,-0.6421,0.7739,0.4268,-45.24,-8.41,130.37
334,58361664,-0.6250,0.7754,0.4316,-42.93,-9.09,130.67
335,58366664,-0.6040,0.7700,0.4209,-40.61,-9.88,130.91
336,58371664,-0.5796,0.7754,0.4229,-38.66,-10.67,131.16
337,58376665,-0.5601,0.7759,0.4297,-36.77,-11.52,131.34
338,58381664,-0.5449,0.7798,0.4355,-35.30,-12.13,131.52
339,58386666,-0.5410,0.7939,0.4434,-34.39,-12.68,131.77
340,58391664,-0.5464,0.8223,0.4370,-34.33,-13.23,131.77
341,58396664,-0.5469,0.8555,0.4336,-35.61,-14.21,131.34
342,58401664,-0.5396,0.8804,0.4385,-37.74,-15.18,130.73
343,58406664,-0.5327,0.9043,0.4326,-39.94,-15.61,130.12
344,58411663,-0.5210,0.9497,0.4263,-43.48,-16.40,129.33
345,58416664,-0.5093,0.9805,0.4165,-47.93,-17.44,128.05
346,58422142,-0.4839,0.9907,0.4209,-53.78,-18.90,126.28
347,58426664,-0.4590,1.0044,0.4102,-57.68,-19.51,125.30
348,58431664,-0.4292,1.0229,0.4077,-62.44,-20.49,124.02
349,58437161,-0.3950,1.0298,0.4150,-67.93,-21.83,122.44
350,58441664,-0.3789,1.0332,0.3984,-71.59,-22.74,121.52
351,58447139,-0.3540,1.0244,0.4004,-76.34,-23.96,120.24
352,58451664,-0.3301,1.0615,0.5078,-80.12,-25.55,119.39
353,58456664,-0.2896,1.0337,0.4692,-84.45,-25.98,118.72
354,58462143,-0.2568,1.0117,0.4165,-91.10,-27.87,118.23
355,58466664,-0.2598,1.0078,0.5239,-95.00,-29.57,118.23
356,58471664,-0.2515,1.0327,0.5093,-99.88,-31.28,118.11
357,58476664,-0.2173,1.0591,0.4658,-105.12,-32.56,117.99
358,58481664,-0.1914,1.0840,0.5093,-110.73,-34.33,117.80
359,58486663,-0.1709,1.0991,0.5283,-117.20,-36.28,117.87
360,58491664,-0.1660,1.0972,0.4858,-121.46,-37.62,117.80
361,58496664,-0.1504,1.1055,0.4800,-126.77,-39.27,117.68
362,58502098,-0.1284,1.1196,0.5034,-133.05,-41.04,117.32
363,58506664,-0.1104,1.1284,0.5596,-137.38,-42.38,116.95
364,58511664,-0.0859,1.1445,0.5327,-142.50,-43.72,116.65
365,58516663,-0.0825,1.1641,0.5459,-147.07,-45.06,116.10
366,58521664,-0.0737,1.1719,0.5757,-151.65,-46.65,115.67
367,58526666,-0.0732,1.1733,0.6201,-154.70,-47.87,115.30
368,58531664,-0.0625,1.1592,0.5918,-156.22,-48.90,115.18
369,58537111,-0.0459,1.1460,0.6006,-157.50,-50.12,115.43
370,58541664,-0.0327,1.1367,0.6431,-157.62,-51.46,115.85
371,58546664,-0.0186,1.1279,0.6494,-156.89,-52.62,116.52
372,58551664,0.0107,1.0981,0.6436,-155.30,-54.02,117.44
373,58556664,0.0488,1.0479,0.6685,-152.93,-55.37,118.41
374,58561663,0.0854,1.0073,0.7271,-150.12,-56.65,119.63
375,58566666,0.0801,1.0146,0.7627,-147.50,-57.68,120.79
376,58572107,0.0713,1.0293,0.7910,-145.43,-58.96,121.89
377,58576664,0.0801,1.0615,0.8750,-143.90,-60.43,123.17
378,58581664,0.1099,1.0806,0.9707,-143.84,-61.89,124.21
379,58586664,0.1255,1.0771,1.0171,-145.12,-63.96,125.30
380,58591664,0.1470,1.0532,1.0483,-147.44,-66.59,126.59
381,58596663,0.1665,1.0112,1.1274,-150.24,-69.82,127.87
382,58602089,0.2046,0.9487,1.2295,-153.23,-73.17,129.15
383,58606665,0.2559,0.8984,1.3125,-156.46,-77.01,130.43
384,58612092,0.3037,0.7979,1.3101,-160.24,-81.04,131.34
385,58616664,0.3394,0.8130,1.5044,-164.02,-85.61,132.20
386,58621663,0.1924,0.8242,1.6294,-169.76,-90.49,132.50
387,58626664,0.1162,0.8457,1.5278,-177.01,-96.16,132.20
388,58631666,0.0391,0.8774,1.4297,-184.09,-102.74,131.52
389,58636664,0.0273,0.9282,1.4292,-189.33,-109.88,130.43
390,58641663,0.0298,0.9150,1.4468,-192.01,-116.71,129.21
391,58646663,0.0483,0.8721,1.3770,-192.56,-122.68,128.17
392,58651664,0.0557,0.8325,1.3789,-191.34,-128.90,127.38
393,58656664,0.0474,0.7769,1.3794,-188.90,-135.24,126.71
394,58661663,0.0352,0.7261,1.3418,-185.61,-141.22,126.16
395,58666663,0.0249,0.6875,1.3208,-181.52,-147.26,125.55
396,58671664,0.0259,0.6587,1.3145,-177.13,-153.48,124.88
397,58676664,0.0215,0.6255,1.3022,-172.56,-159.33,123.90
398,58681664,0.0312,0.5908,1.2749,-167.99,-165.37,122.80
399,58686664,0.0352,0.5615,1.2520,-163.60,-171.22,121.40
400,58691810,0.0312,0.5259,1.2700,-159.45,-177.20,119.76
401,58696664,0.0322,0.4897,1.2603,-155.61,-182.80,117.87
402,58701664,0.0293,0.4717,1.2344,-152.32,-188.35,115.37
403,58707110,0.0195,0.4385,1.2183,-149.33,-193.78,112.56
404,58711664,0.0171,0.4048,1.2090,-146.83,-198.90,109.27
405,58716664,0.0112,0.3770,1.1816,-144.57,-203.72,105.61
406,58721664,0.0088,0.3477,1.1528,-142.62,-208.29,101.59
407,58726930,0.0161,0.3218,1.1250,-140.79,-212.62,97.38
408,58731664,0.0225,0.3169,1.0977,-138.84,-216.77,92.62
409,58736664,0.0161,0.2964,1.0693,-136.95,-220.55,86.95
410,58741664,0.0244,0.2715,1.0444,-135.49,-223.90,83.17
411,58746699,0.0078,0.2671,1.0044,-134.21,-227.07,77.93
412,58751664,0.0005,0.2627,0.9487,-132.87,-230.00,72.44
413,58757120,0.0161,0.2549,0.9058,-131.52,-233.05,67.07
414,58761664,0.0400,0.2358,0.8687,-130.24,-235.55,61.59
415,58767026,0.0400,0.2168,0.8325,-129.09,-237.87,56.10
416,58771664,0.0454,0.2129,0.8076,-127.87,-240.06,50.91
417,58776993,0.0474,0.2124,0.7642,-126.46,-241.77,45.55
418,58781664,0.0630,0.1909,0.7271,-125.00,-243.48,40.24
419,58786664,0.0737,0.1914,0.6982,-123.66,-244.94,35.43
420,58791664,0.0562,0.2271,0.6602,-122.13,-246.28,30.24
421,58796664,0.0337,0.2520,0.6226,-120.12,-247.32,24.70
422,58802139,0.0620,0.2349,0.5996,-117.32,-248.17,18.90
423,58806664,0.0947,0.1968,0.5767,-114.02,-249.51,13.23
424,58811664,0.1021,0.1587,0.5581,-110.55,-250.61,7.68
425,58816664,0.0918,0.1475,0.5303,-106.71,-251.52,2.56
426,58821663,0.0811,0.1401,0.5137,-102.26,-252.13,-2.50
427,58826740,0.0693,0.1309,0.4780,-97.68,-252.68,-7.32
428,58831887,0.0698,0.1230,0.4502,-92.62,-253.05,-11.95
429,58836664,0.0645,0.1299,0.4067,-87.44,-253.41,-16.40
430,58841924,0.0532,0.1328,0.3828,-82.26,-253.54,-20.85
431,58846664,0.0552,0.1216,0.3530,-77.26,-253.90,-25.37
432,58852103,0.0430,0.1313,0.3184,-72.56,-254.09,-29.63
433,58856664,0.0508,0.1245,0.2773,-68.17,-254.33,-34.02
434,58862117,0.0542,0.1069,0.2407,-64.39,-254.70,-38.23
435,58866664,0.0581,0.1074,0.2021,-60.98,-255.06,-42.13
436,58872134,0.0718,0.1011,0.1616,-57.93,-255.18,-46.22
437,58876664,0.0737,0.1172,0.1309,-55.24,-255.61,-50.00
438,58881664,0.0620,0.1304,0.0898,-52.56,-256.22,-53.78
439,58886664,0.0693,0.1333,0.0649,-49.82,-256.59,-57.68
440,58892009,0.0815,0.1216,0.0469,-46.95,-257.13,-61.22
441,58896664,0.0874,0.1221,0.0239,-44.09,-257.44,-64.51
442,58901663,0.0801,0.1240,0.0034,-41.16,-257.68,-67.62
443,58906666,0.0630,0.1323,-0.0186,-38.23,-257.99,-70.61
444,58911666,0.0459,0.1465,-0.0156,-35.43,-258.17,-73.41
445,58916664,0.0366,0.1406,-0.0254,-32.50,-258.23,-76.22
446,58921664,0.0273,0.1499,-0.0415,-30.06,-258.05,-78.90
447,58926664,0.0127,0.1655,-0.0503,-27.74,-257.93,-81.59
448,58931666,-0.0044,0.1831,-0.0562,-25.73,-257.50,-84.45
449,58936662,-0.0229,0.1880,-0.0747,-24.21,-257.20,-87.38
450,58941663,-0.0151,0.1899,-0.0981,-22.74,-256.95,-90.37
451,58946664,-0.0054,0.1870,-0.1045,-21.77,-256.77,-93.48
452,58951662,0.0088,0.1919,-0.1343,-21.10,-256.34,-96.52
453,58956662,0.0327,0.2085,-0.1631,-20.61,-256.16,-100.00
454,58961662,0.0654,0.2095,-0.1724,-20.12,-255.79,-103.23
455,58967203,0.0996,0.2168,-0.2051,-20.12,-255.30,-106.77
456,58971666,0.1265,0.2500,-0.2573,-20.00,-254.94,-110.37
457,58976663,0.1538,0.2676,-0.2695,-19.88,-254.51,-113.48
458,58981664,0.1851,0.2837,-0.3066,-19.82,-253.54,-118.11
459,58986664,0.2256,0.2886,-0.3354,-19.57,-252.74,-121.16
460,58991664,0.1997,0.3213,-0.3516,-18.78,-251.28,-125.61
461,58997052,0.0967,0.3623,-0.3672,-18.72,-250.18,-129.57
462,59001664,0.0972,0.3428,-0.3218,-19.63,-248.35,-133.84
463,59006664,0.1196,0.3613,-0.3628,-20.37,-246.52,-137.07
464,59011663,0.1338,0.3730,-0.3975,-21.28,-244.02,-141.22
465,59016663,0.1406,0.3828,-0.4321,-22.44,-241.34,-145.43
466,59021664,0.1289,0.4053,-0.4434,-23.60,-238.35,-149.70
467,59026664,0.1108,0.4434,-0.4585,-25.06,-234.70,-154.09
468,59031663,0.1035,0.4834,-0.4844,-26.59,-230.85,-158.72
469,59036666,0.0845,0.5435,-0.4966,-27.74,-226.46,-163.66
470,59041886,0.1196,0.6206,-0.4766,-28.90,-220.61,-170.00
471,59046664,0.1128,0.6396,-0.5430,-29.09,-215.79,-174.51
472,59051767,0.0684,0.6685,-0.6270,-28.29,-208.96,-181.16
473,59056663,0.0498,0.6958,-0.6211,-26.83,-203.90,-185.55
474,59061981,0.0205,0.7344,-0.6792,-23.84,-196.04,-192.13
475,59066664,-0.0083,0.7554,-0.7749,-21.28,-190.61,-196.40
476,59071664,-0.0391,0.7690,-0.8047,-17.50,-183.35,-201.52
477,59076664,-0.0918,0.7798,-0.8232,-13.29,-175.91,-206.46
478,59081668,-0.1299,0.7681,-0.9043,-7.38,-166.71,-211.83
479,59086664,-0.1616,0.7773,-0.9668,-2.87,-160.24,-215.12
480,59091664,-0.2139,0.7959,-1.0015,4.51,-150.06,-219.94
481,59096664,-0.2524,0.7983,-1.0186,9.63,-142.99,-223.11
482,59101664,-0.2852,0.8086,-1.0664,16.40,-133.60,-226.71
483,59106663,-0.3110,0.8555,-1.1045,23.90,-123.84,-230.49
484,59111940,-0.3398,0.9385,-1.1523,33.66,-111.52,-235.18
485,59116665,-0.3418,0.9961,-1.1953,40.98,-103.05,-238.41
486,59121771,-0.3652,1.0459,-1.2661,50.61,-92.20,-242.68
487,59126663,-0.4048,1.0879,-1.3315,60.67,-80.91,-247.07
488,59131663,-0.4985,1.1509,-1.4399,72.80,-67.13,-252.38
489,59136666,-0.5762,1.1699,-1.5156,80.67,-57.87,-256.10
490,59141664,-0.6909,1.1841,-1.6201,90.00,-46.28,-260.67
491,59146664,-0.8022,1.1821,-1.7339,97.56,-34.45,-265.49
492,59151664,-0.9189,1.1631,-1.8354,102.93,-22.99,-270.24
493,59156664,-0.9673,1.1470,-1.9175,105.06,-10.61,-275.06
494,59161664,-0.9639,1.1494,-1.9580,104.57,3.05,-280.18
495,59166664,-0.9824,1.1899,-1.9819,102.68,18.41,-285.61
496,59171664,-0.9941,1.2319,-2.0688,99.88,39.63,-292.93
497,59176664,-1.0107,1.2827,-2.1685,98.60,55.00,-297.99
498,59181664,-1.0596,1.3647,-2.2588,97.56,75.55,-304.94
499,59186664,-1.0986,1.4263,-2.3560,97.50,97.50,-312.26
500,59191662,-1.2070,1.4600,-2.4380,98.96,121.52,-319.63
501,59196667,-1.2627,1.4961,-2.5137,102.80,146.89,-326.52
502,59201951,-1.3091,1.5171,-2.5864,111.89,179.33,-333.84
503,59206804,-1.4302,1.5674,-2.6733,120.79,202.07,-338.17
504,59211663,-1.3872,1.6348,-2.7012,134.63,231.28,-343.05
505,59216664,-1.5591,1.6733,-2.8052,152.87,262.74,-347.80
506,59221663,-1.8618,1.6943,-2.9297,173.29,294.76,-351.59
507,59226664,-2.0488,1.7988,-2.9995,190.55,327.32,-354.82
508,59231664,-2.0967,1.9668,-3.0615,203.35,361.65,-358.35
509,59236664,-2.1235,2.1167,-3.0288,213.72,397.13,-362.56
510,59241664,-2.1514,2.2261,-2.9551,222.44,433.84,-367.38
511,59246662,-2.2427,2.3291,-2.9019,229.51,471.34,-372.26
512,59251663,-2.3525,2.4297,-2.8682,234.27,508.78,-377.20
513,59256664,-2.4302,2.5044,-2.8057,235.91,544.94,-381.83
514,59261664,-2.4795,2.5674,-2.7007,234.70,580.00,-386.16
515,59266664,-2.5083,2.6274,-2.5347,229.70,619.94,-390.91
516,59271665,-2.5522,2.6973,-2.4043,224.51,645.18,-393.60
517,59276664,-2.6079,2.8457,-2.2095,217.01,674.94,-396.77
518,59281664,-2.6182,2.9810,-1.9946,209.02,702.38,-399.33
519,59286664,-2.6338,3.1880,-1.7588,201.71,727.56,-400.73
520,59292140,-2.6943,3.3989,-1.4282,195.67,753.72,-401.10
521,59296664,-2.6914,3.5264,-1.1953,191.65,768.72,-399.45
522,59301664,-2.6602,3.6650,-0.9648,186.83,783.84,-395.55
523,59306664,-2.5557,3.6240,-0.6802,179.51,794.70,-388.05
524,59311663,-2.4492,3.4541,-0.3579,167.68,801.40,-376.46
525,59316664,-2.5122,3.2207,-0.1611,148.72,804.21,-359.21
526,59321664,-2.5776,3.0977,-0.0078,118.23,802.74,-335.61
527,59326664,-2.5786,3.2178,0.1606,77.80,797.20,-307.07
528,59331664,-2.4951,3.3994,0.3574,32.93,788.29,-275.67
529,59336739,-2.3271,3.3350,0.5845,-13.23,775.18,-240.61
530,59342324,-2.1143,3.1519,0.9463,-69.94,754.45,-193.17
531,59346666,-2.1084,3.0581,1.1831,-107.01,738.17,-159.09
532,59352074,-2.1963,2.8618,1.4888,-159.82,709.39,-105.12
533,59356664,-2.2344,2.7920,1.6494,-192.20,687.50,-68.23
534,59361664,-2.1851,2.6221,1.7729,-228.05,656.83,-21.59
535,59366664,-2.0293,2.4902,1.8491,-255.98,622.07,24.63
536,59371837,-1.8862,2.2476,1.8828,-275.30,582.50,69.39
537,59376664,-1.7910,2.1104,2.0083,-284.76,538.84,112.13
538,59381663,-1.7793,1.9580,2.1709,-284.09,494.57,151.22
539,59386664,-1.7329,1.7866,2.2407,-271.95,450.12,186.77
540,59391664,-1.5898,1.5845,2.2549,-243.54,397.74,223.60
541,59396664,-1.4087,1.4277,2.1924,-211.40,355.67,249.09
542,59401664,-1.3862,1.4238,2.0698,-181.95,322.93,265.73
543,59406753,-1.1426,1.2690,2.1426,-141.95,285.00,281.95
544,59411664,-0.9331,1.1030,2.1338,-101.16,248.72,294.27
545,59416664,-0.8965,0.9717,2.0532,-60.30,217.80,302.56
546,59421664,-0.8638,0.9053,2.0273,-20.67,188.72,307.56
547,59426664,-0.7490,0.8452,2.0366,16.16,163.05,309.21
548,59431664,-0.6104,0.7676,2.0015,48.78,140.24,308.35
549,59437196,-0.4805,0.7031,1.9355,82.07,116.16,304.51
550,59441761,-0.4209,0.6660,1.9062,100.55,101.89,300.37
551,59446664,-0.3521,0.6729,1.8320,119.15,86.40,293.78
552,59451664,-0.2534,0.6060,1.7412,131.34,72.32,285.67
553,59457155,-0.1772,0.5933,1.6299,142.07,57.44,275.61
554,59461664,-0.1343,0.5757,1.5513,145.91,48.72,268.11
555,59466917,-0.0596,0.5488,1.4619,146.89,38.54,258.35
556,59471664,0.0112,0.5337,1.3638,144.57,29.27,248.35
557,59476664,0.0439,0.5249,1.2783,139.09,21.34,237.87
558,59481664,0.0913,0.5322,1.2227,131.71,14.27,226.83
559,59486664,0.1567,0.5073,1.1772,121.52,8.05,215.37
560,59491664,0.1421,0.4785,1.1069,109.39,2.32,203.54
561,59497115,0.1626,0.4624,1.0654,96.46,-2.44,191.52
562,59501664,0.1938,0.4683,1.0371,83.17,-6.16,179.15
563,59507111,0.2593,0.4536,1.0522,70.12,-9.45,166.71
564,59511664,0.2500,0.3843,1.1123,59.02,-11.59,155.00
565,59516663,0.2173,0.4482,0.9785,51.52,-11.65,143.78
566,59521664,0.2915,0.4478,0.9780,44.33,-13.11,132.50
567,59526664,0.3608,0.4209,0.9795,36.65,-13.90,121.22
568,59531664,0.3652,0.3965,0.9414,28.48,-14.15,110.37
569,59536664,0.3354,0.3687,0.8989,20.24,-14.39,99.82
570,59541663,0.3145,0.3359,0.8608,12.01,-15.12,89.27
571,59546663,0.3057,0.3027,0.8379,3.48,-15.30,81.16
572,59551662,0.3091,0.2705,0.8193,-4.94,-15.73,72.87
573,59556662,0.3120,0.2388,0.7930,-13.17,-15.85,65.37
574,59561664,0.3008,0.2158,0.7773,-21.10,-16.16,58.54
575,59566867,0.2925,0.2017,0.7603,-28.72,-16.22,52.20
576,59571663,0.2886,0.1826,0.7285,-35.98,-15.98,46.65
577,59577133,0.2832,0.1689,0.7114,-42.99,-15.67,41.46
578,59581664,0.2852,0.1577,0.6958,-49.76,-15.24,36.59
579,59586663,0.2852,0.1489,0.6772,-56.22,-14.88,32.01
580,59591664,0.2881,0.1445,0.6616,-62.56,-14.45,27.68
581,59597129,0.2925,0.1494,0.6489,-68.72,-13.96,23.60
582,59601664,0.2939,0.1587,0.6357,-74.70,-13.17,19.63
583,59607120,0.2905,0.1753,0.6284,-80.85,-12.50,15.37
584,59611664,0.2944,0.1953,0.6211,-87.13,-11.77,11.46
585,59616664,0.2983,0.2051,0.6069,-93.60,-10.98,7.26
586,59621664,0.3032,0.2266,0.5957,-100.24,-10.24,3.17
587,59626665,0.3032,0.2422,0.5771,-106.89,-9.51,-1.10
588,59631664,0.2983,0.2559,0.5635,-113.41,-8.78,-5.30
589,59636664,0.2925,0.2754,0.5547,-119.39,-8.11,-9.27
590,59642207,0.2871,0.2983,0.5347,-124.82,-7.44,-13.48
591,59646666,0.2822,0.3003,0.5186,-129.27,-6.77,-17.20
592,59651664,0.2876,0.2983,0.5273,-132.50,-6.28,-20.79
593,59656664,0.2974,0.3140,0.5249,-134.88,-5.55,-24.15
594,59661664,0.3076,0.3301,0.5181,-136.04,-4.88,-27.38
595,59667119,0.3120,0.3364,0.5151,-135.98,-3.96,-30.37
596,59671664,0.3174,0.3516,0.5234,-134.82,-2.87,-33.23
597,59676875,0.3135,0.3608,0.5347,-132.44,-1.59,-35.85
598,59681664,0.3198,0.3701,0.5347,-129.27,-0.12,-38.35
599,59686664,0.3223,0.3901,0.5459,-125.30,1.59,-40.73
600,59691664,0.3257,0.4009,0.5527,-120.79,3.54,-42.93
601,59696669,0.3306,0.4097,0.5684,-115.91,5.49,-45.18
602,59701664,0.3315,0.4268,0.5752,-110.73,7.62,-47.01
603,59706664,0.3354,0.4355,0.5840,-105.49,9.82,-49.02
604,59711772,0.3296,0.4429,0.6011,-100.55,11.95,-50.91
605,59716665,0.3232,0.4448,0.5874,-95.91,14.33,-52.68
606,59721664,0.3208,0.4551,0.5693,-91.65,16.40,-54.33
607,59726668,0.3267,0.5864,0.5640,-88.29,17.80,-55.91
608,59731664,0.3281,0.5894,0.5649,-87.07,19.45,-58.11
609,59736780,0.2866,0.5132,0.5742,-86.46,20.79,-59.70
610,59741663,0.2925,0.4712,0.5786,-85.79,21.77,-60.91
611,59746664,0.3320,0.4790,0.5200,-85.30,22.13,-62.13
612,59751664,0.3423,0.4951,0.4844,-85.12,22.07,-63.54
613,59756669,0.3125,0.5425,0.4941,-85.00,21.95,-65.06
614,59761664,0.3062,0.6147,0.5249,-84.94,22.26,-66.65
615,59766951,0.3335,0.6709,0.5503,-84.70,22.62,-68.29
616,59771664,0.3545,0.6875,0.5586,-84.33,23.48,-69.82
617,59776894,0.3667,0.6968,0.5601,-83.84,24.09,-70.98
618,59781664,0.3574,0.6895,0.5649,-82.99,24.88,-72.01
619,59786664,0.3174,0.6641,0.6138,-82.07,25.43,-72.68
620,59791664,0.3364,0.6509,0.6411,-81.83,26.34,-72.87
621,59797115,0.3530,0.6597,0.6211,-81.59,27.01,-72.68
622,59801664,0.3672,0.6489,0.6694,-80.49,27.20,-72.32
623,59807142,0.3594,0.6538,0.6729,-77.80,27.74,-71.34
624,59811664,0.3447,0.6621,0.6240,-74.33,28.23,-70.24
625,59817110,0.3315,0.6768,0.6182,-70.55,28.48,-69.33
626,59821664,0.3296,0.6973,0.6348,-66.34,28.96,-68.41
627,59826663,0.3242,0.7056,0.6128,-62.01,29.63,-67.62
628,59831664,0.3271,0.7266,0.5596,-57.13,30.55,-67.07
629,59836662,0.3247,0.7422,0.5435,-52.13,31.52,-66.59
630,59841663,0.3105,0.7280,0.5649,-47.20,32.93,-66.28
631,59846662,0.3101,0.6855,0.5825,-43.29,34.57,-66.16
632,59851662,0.3232,0.6875,0.5786,-40.79,36.65,-66.22
633,59857343,0.3301,0.6924,0.5708,-39.02,38.66,-66.71
634,59861666,0.3389,0.7070,0.5840,-38.05,40.73,-67.13
635,59866663,0.3398,0.7310,0.5820,-37.74,42.80,-67.74
636,59871885,0.3438,0.7549,0.5693,-38.54,44.88,-68.72
637,59876664,0.3423,0.7510,0.5728,-39.88,46.22,-69.63
638,59882139,0.3477,0.7695,0.5874,-43.23,48.29,-71.28
639,59886664,0.3540,0.7637,0.5859,-46.71,49.70,-72.44
640,59891664,0.3716,0.8115,0.5747,-51.77,51.52,-74.63
641,59896664,0.3960,0.8564,0.5742,-58.35,52.99,-77.32
642,59901914,0.4346,0.8809,0.5723,-67.93,54.76,-80.91
643,59907115,0.4541,0.8975,0.5708,-77.13,56.16,-84.51
644,59911664,0.4639,0.8979,0.5483,-85.12,57.26,-87.32
645,59917118,0.4639,0.9009,0.5435,-98.29,58.90,-91.71
646,59921664,0.4619,0.8833,0.5435,-107.32,60.00,-94.63
647,59926664,0.4551,0.8735,0.5269,-118.84,61.22,-98.23
648,59931664,0.4463,0.8682,0.5259,-130.61,62.56,-101.71
649,59936664,0.4399,0.8584,0.5444,-142.20,64.09,-105.24
650,59941664,0.4409,0.8530,0.5464,-153.41,65.79,-108.84
651,59946664,0.4341,0.8511,0.5342,-164.51,67.74,-112.20
652,59951664,0.4312,0.8408,0.5332,-174.82,69.63,-115.61
653,59956664,0.4204,0.8330,0.5371,-184.51,71.77,-118.90
654,59961666,0.4102,0.8345,0.5498,-193.41,74.21,-122.26
655,59967111,0.3955,0.8242,0.5513,-202.93,76.95,-125.98
656,59971664,0.3853,0.8125,0.5586,-208.60,78.84,-128.41
657,59976664,0.3657,0.8018,0.5664,-214.45,81.40,-131.16
658,59981813,0.3423,0.7837,0.5737,-220.12,85.06,-133.78
659,59986664,0.3306,0.7720,0.5820,-222.87,86.46,-135.49
660,59991664,0.3120,0.7607,0.6079,-225.12,87.07,-137.20
661,59996664,0.3062,0.7383,0.6274,-225.61,90.67,-138.60
662,60001664,0.2935,0.7290,0.6460,-224.94,93.60,-139.63
663,60007129,0.3008,0.7349,0.6704,-222.20,97.32,-140.98
664,60011664,0.3076,0.7417,0.6914,-219.39,99.88,-141.71
665,60017111,0.3223,0.7500,0.7173,-213.84,103.90,-142.99
666,60021664,0.3286,0.7490,0.7222,-209.45,106.65,-143.84
667,60026741,0.3364,0.7480,0.7285,-203.11,110.18,-144.88
668,60031663,0.3374,0.7402,0.7388,-196.04,113.54,-145.85
669,60036666,0.3296,0.7329,0.7461,-188.41,116.77,-146.83
670,60041664,0.3218,0.7256,0.7505,-180.30,119.76,-147.44
671,60046664,0.3091,0.7090,0.7593,-171.52,122.50,-148.11
672,60051677,0.2964,0.7007,0.7700,-162.20,125.18,-148.72
673,60056666,0.2778,0.6997,0.7900,-152.80,127.74,-149.27
674,60061664,0.2769,0.6978,0.8066,-143.11,130.00,-149.63
675,60066664,0.2803,0.6895,0.8252,-133.48,132.07,-150.06
676,60071666,0.2817,0.6846,0.8354,-124.02,134.15,-150.49
677,60076664,0.2798,0.6797,0.8462,-115.06,135.79,-150.91
678,60081664,0.2725,0.6855,0.8579,-106.59,137.13,-151.40
679,60086663,0.2734,0.6880,0.8833,-98.84,138.41,-151.95
680,60091664,0.2832,0.6987,0.8975,-91.65,139.63,-152.56
681,60096664,0.2905,0.7012,0.9014,-85.06,140.98,-153.54
682,60101664,0.2969,0.6973,0.9053,-78.84,142.13,-154.45
683,60106664,0.2974,0.6821,0.9131,-72.68,143.17,-155.24
684,60111974,0.2812,0.6753,0.9243,-65.79,144.33,-156.22
685,60116665,0.2661,0.6719,0.9326,-61.28,145.06,-156.95
686,60121664,0.2373,0.6685,0.9351,-56.10,145.67,-157.80
687,60126664,0.2104,0.6475,0.9385,-51.10,146.22,-158.60
688,60131664,0.1860,0.6353,0.9351,-46.10,146.52,-159.09
689,60136664,0.1572,0.6260,0.9224,-41.46,146.52,-159.76
690,60141663,0.1406,0.6226,0.9321,-36.83,146.59,-160.30
691,60146662,0.1265,0.6094,0.9448,-32.62,146.65,-160.73
692,60151663,0.1191,0.5996,0.9497,-28.48,146.65,-161.34
693,60156662,0.1064,0.5908,0.9424,-24.39,146.52,-161.77
694,60161772,0.1060,0.5835,0.9399,-20.61,146.59,-162.38
695,60166743,0.0947,0.5806,0.9434,-17.01,146.71,-163.05
696,60171664,0.0923,0.5869,0.9526,-13.54,146.95,-164.02
697,60176668,0.0991,0.5972,0.9800,-9.82,147.62,-165.49
698,60181664,0.1104,0.6060,0.9937,-7.32,147.99,-166.65
699,60187107,0.1211,0.6084,1.0127,-4.09,148.72,-168.23
700,60191663,0.1230,0.6143,1.0205,-2.20,149.02,-169.51
701,60196667,0.1157,0.6162,1.0225,0.24,149.51,-171.10
702,60201664,0.0957,0.6152,1.0244,2.50,149.76,-172.68
703,60206664,0.0752,0.6138,1.0234,4.70,150.00,-174.21
704,60212069,0.0513,0.6040,1.0220,7.26,150.43,-176.10
705,60216664,0.0317,0.5918,1.0176,9.76,150.79,-177.62
706,60221664,0.0166,0.5781,1.0117,11.71,150.98,-178.96
707,60227151,-0.0122,0.5645,0.9980,14.88,151.46,-180.67
708,60231664,-0.0386,0.5522,0.9927,17.20,151.95,-181.89
709,60236962,-0.0649,0.5649,0.9897,20.43,152.80,-183.66
710,60241697,-0.1016,0.5767,1.0156,23.66,154.02,-185.67
711,60246664,-0.1196,0.5884,1.0503,26.95,155.49,-187.74
712,60251664,-0.1562,0.5693,1.0571,30.06,157.13,-189.94
713,60256663,-0.1836,0.5698,1.0239,33.23,158.05,-191.83
714,60261664,-0.2236,0.5767,1.0117,36.52,158.96,-193.54
715,60266666,-0.2554,0.5894,1.0332,39.39,159.39,-195.37
716,60271664,-0.3013,0.5908,1.0181,41.95,159.63,-197.13
717,60276665,-0.3228,0.5864,1.0151,44.45,159.70,-199.15
718,60281662,-0.3784,0.5972,1.0142,47.07,159.39,-201.46
719,60286664,-0.4048,0.5869,1.0303,48.90,159.09,-202.99
720,60291663,-0.4419,0.6001,0.9966,51.52,158.84,-204.94
721,60296662,-0.4556,0.5996,0.9854,54.51,158.48,-207.01
722,60301664,-0.4873,0.5981,1.0034,57.87,158.41,-209.33
723,60306663,-0.5093,0.6094,0.9814,61.95,158.41,-211.65
724,60311664,-0.5371,0.6235,0.9663,66.59,158.60,-214.33
725,60316666,-0.5737,0.6299,0.9829,71.59,159.21,-217.26
726,60321664,-0.6196,0.6133,0.9834,77.32,159.63,-220.12
727,60327153,-0.6445,0.6104,0.9819,83.11,160.00,-222.93
728,60331664,-0.7051,0.6050,0.9790,89.27,160.06,-225.67
729,60336664,-0.7451,0.6157,0.9858,95.37,159.70,-228.29
730,60341664,-0.7939,0.6094,0.9937,101.34,159.27,-230.73
731,60346664,-0.8477,0.6011,0.9839,107.13,158.66,-232.87
732,60351668,-0.8965,0.5767,0.9834,112.32,157.62,-234.82
733,60356664,-0.9165,0.5493,0.9893,117.38,155.91,-236.46
734,60361664,-0.9556,0.5352,0.9692,121.59,154.15,-237.87
735,60366664,-0.9878,0.5327,0.9365,125.30,151.65,-239.21
736,60371665,-1.0088,0.5454,0.9243,127.68,148.78,-240.30
737,60376664,-1.0352,0.5479,0.9219,129.57,145.98,-241.59
738,60381664,-1.0581,0.5513,0.8843,131.10,142.62,-242.74
739,60386666,-1.0825,0.5605,0.8657,132.87,139.63,-244.15
740,60391664,-1.1187,0.5649,0.8677,133.35,136.10,-245.73
741,60396863,-1.1572,0.5679,0.8579,133.48,132.80,-247.68
742,60401664,-1.1997,0.5820,0.8447,133.29,129.82,-249.76
743,60406664,-1.2314,0.5879,0.8438,132.62,126.83,-251.89
744,60411711,-1.2646,0.5991,0.8569,132.74,124.09,-254.02
745,60417167,-1.3101,0.6055,0.8555,132.38,121.52,-256.04
746,60421664,-1.3423,0.5962,0.8545,132.20,118.96,-257.80
747,60426664,-1.3613,0.5825,0.8530,132.99,116.22,-259.33
748,60431664,-1.3428,0.5596,0.8330,133.60,113.23,-260.24
749,60436664,-1.3184,0.5200,0.8086,134.51,109.70,-260.43
750,60441663,-1.3169,0.4941,0.8018,135.61,105.49,-259.94
751,60446664,-1.2974,0.4727,0.7886,137.07,101.34,-258.66
752,60451664,-1.2568,0.4507,0.7803,138.78,96.65,-257.01
753,60456663,-1.2124,0.4312,0.7446,140.55,91.28,-254.88
754,60461662,-1.2251,0.3984,0.7358,142.32,85.24,-252.01
755,60466995,-1.2539,0.3955,0.7300,144.27,80.30,-249.02
756,60471666,-1.2900,0.3965,0.7388,146.22,74.63,-245.67
757,60477134,-1.3198,0.3813,0.7197,148.54,68.84,-242.50
758,60481664,-1.3345,0.3711,0.7168,151.28,63.05,-238.90
759,60487140,-1.3418,0.3564,0.7202,154.45,57.93,-235.18
760,60491664,-1.3262,0.3389,0.7222,158.48,52.62,-231.16
761,60497117,-1.2905,0.3223,0.7080,163.11,47.62,-227.07
762,60501664,-1.2524,0.2920,0.6997,168.72,43.05,-222.87
763,60506664,-1.2085,0.2681,0.6934,174.70,38.72,-218.29
764,60511664,-1.1909,0.2427,0.6909,181.34,34.63,-213.54
765,60517118,-1.1685,0.3862,0.4868,187.13,25.24,-205.91
766,60521664,-1.1406,0.0166,0.1943,191.22,24.57,-199.39
767,60527128,-1.1533,0.0190,1.0142,194.76,15.12,-192.74
768,60531664,-1.1411,-0.0288,0.7871,196.77,7.80,-186.34
769,60536664,-1.1094,0.1895,0.4160,198.11,4.27,-180.98
770,60541664,-1.1016,0.4751,0.6665,198.72,0.06,-176.46
771,60547041,-1.0879,0.5322,0.7954,199.02,-4.82,-172.20
772,60551664,-1.0483,0.4053,0.6655,199.39,-8.54,-167.68
773,60556664,-1.0166,0.2827,0.6953,200.00,-11.89,-162.68
774,60561664,-0.9824,0.2002,0.7769,201.22,-15.18,-157.62
775,60566663,-0.9517,0.1689,0.7290,202.93,-17.80,-152.32
776,60571664,-0.9302,0.2080,0.7056,205.30,-19.88,-147.20
777,60577167,-0.9189,0.2598,0.7441,208.23,-21.65,-142.20
778,60581664,-0.9038,0.2656,0.7393,211.59,-23.17,-137.01
779,60587147,-0.8984,0.2344,0.7314,215.37,-24.45,-131.59
780,60591664,-0.8975,0.1943,0.7256,219.45,-25.61,-126.16
781,60597119,-0.9077,0.1494,0.7041,223.66,-26.71,-120.37
782,60601664,-0.9287,0.1411,0.7031,228.23,-27.80,-114.63
783,60606664,-0.9399,0.1289,0.6865,232.62,-28.66,-109.27
784,60611664,-0.9541,0.1323,0.6831,237.26,-29.51,-103.41
785,60616664,-0.9653,0.1396,0.6714,242.07,-30.43,-97.80
786,60621664,-0.9551,0.1240,0.6523,246.83,-31.04,-92.01
787,60626664,-0.9434,0.1279,0.6543,251.34,-31.83,-86.10
788,60631664,-0.9209,0.1597,0.7056,255.18,-31.65,-80.98
789,60637154,-0.8960,0.1299,0.6392,258.78,-31.46,-76.28
790,60641664,-0.8750,0.1016,0.5996,261.71,-31.28,-71.40
791,60646664,-0.8691,0.0962,0.6226,264.33,-31.04,-66.46
792,60651664,-0.8730,0.0928,0.6348,266.22,-30.79,-61.65
793,60656664,-0.8809,0.0908,0.5972,267.38,-30.43,-56.89
794,60661663,-0.8828,0.1011,0.5942,267.87,-29.82,-53.11
795,60666663,-0.8838,0.0996,0.6211,267.68,-29.15,-48.60
796,60671664,-0.8804,0.0977,0.6055,266.16,-28.23,-43.48
797,60676666,-0.8750,0.1055,0.5674,264.57,-27.32,-40.12
798,60681664,-0.8618,0.1040,0.5879,261.83,-26.22,-36.34
799,60687000,-0.8589,0.1074,0.6035,257.62,-24.45,-32.01
800,60691664,-0.8574,0.1108,0.5850,253.96,-23.35,-29.33
801,60696942,-0.8389,0.1235,0.5659,248.17,-21.28,-25.73
802,60701664,-0.8379,0.1357,0.5820,243.84,-19.88,-23.60
803,60706664,-0.8389,0.1299,0.5850,237.01,-17.56,-20.61
804,60711664,-0.8525,0.1304,0.5757,232.07,-16.04,-18.90
805,60716805,-0.8701,0.1372,0.5625,224.39,-13.54,-16.22
806,60721664,-0.8721,0.1274,0.5786,218.84,-11.77,-14.70
807,60726779,-0.8706,0.1323,0.5815,210.18,-9.27,-12.56
808,60731664,-0.8672,0.1406,0.5615,203.96,-7.32,-11.40
809,60736663,-0.8579,0.1523,0.5571,196.34,-5.00,-10.00
810,60741662,-0.8530,0.1577,0.5620,188.17,-2.87,-8.72
811,60746662,-0.8506,0.1641,0.5669,179.70,-0.73,-7.74
812,60751666,-0.8516,0.1621,0.5527,170.79,1.59,-6.83
813,60757260,-0.8516,0.1753,0.5439,159.82,4.27,-5.73
814,60761664,-0.8579,0.1733,0.5605,152.38,6.10,-5.12
815,60766663,-0.8579,0.1865,0.5474,142.87,8.23,-4.51
816,60771664,-0.8555,0.1885,0.5415,132.26,10.37,-4.02
817,60776664,-0.8574,0.1914,0.5376,123.66,12.38,-3.48
818,60781722,-0.8657,0.1978,0.5415,113.78,14.15,-3.17
819,60786663,-0.8711,0.1982,0.5303,103.78,15.61,-2.68
820,60791664,-0.8760,0.1978,0.5190,94.09,17.32,-2.26
821,60797055,-0.8779,0.2056,0.5220,82.32,19.02,-1.83
822,60801664,-0.8823,0.2026,0.5312,74.70,20.18,-1.40
823,60806664,-0.8877,0.2056,0.5146,65.67,21.52,-1.04
824,60811664,-0.8857,0.1953,0.4800,54.94,22.74,-0.24
825,60816664,-0.8887,0.1909,0.4287,47.93,22.50,0.37
826,60821667,-0.9009,0.1958,0.5278,39.21,22.01,1.28
827,60826666,-0.9067,0.1953,0.5039,30.98,22.38,2.01
828,60831664,-0.8940,0.1929,0.4858,23.23,22.44,2.99
829,60836664,-0.8818,0.1943,0.5239,16.04,22.32,3.78
830,60841664,-0.8765,0.1870,0.5317,9.09,22.44,4.88
831,60846663,-0.8760,0.1851,0.5298,2.38,22.50,5.91
832,60851664,-0.8740,0.1855,0.5322,-3.90,22.50,6.95
833,60856666,-0.8701,0.1821,0.5425,-9.88,22.50,8.05
834,60862063,-0.8613,0.1777,0.5498,-16.65,22.07,9.39
835,60866664,-0.8628,0.1768,0.5532,-20.98,21.95,10.37
836,60871663,-0.8662,0.1772,0.5508,-26.22,21.65,11.59
837,60876664,-0.8716,0.1787,0.5723,-31.10,21.22,12.80
838,60881744,-0.8765,0.1719,0.5728,-35.73,20.67,14.15
839,60886663,-0.8721,0.1748,0.5801,-39.94,20.12,15.61
840,60891668,-0.8657,0.1714,0.5830,-44.57,19.27,17.20
841,60896664,-0.8599,0.1714,0.5864,-47.38,18.72,18.35
842,60902013,-0.8589,0.1650,0.5952,-50.98,17.80,20.00
843,60906664,-0.8594,0.1606,0.6025,-53.23,16.95,20.91
844,60911663,-0.8564,0.1553,0.6021,-55.37,16.10,22.32
845,60916664,-0.8545,0.1509,0.6045,-57.44,14.94,23.54
846,60921664,-0.8491,0.1543,0.6006,-59.02,13.54,24.70
847,60927160,-0.8403,0.1592,0.6011,-60.55,11.83,25.91
848,60931664,-0.8286,0.2085,0.6128,-61.89,10.79,26.34
849,60936664,-0.8125,0.1997,0.6079,-64.15,9.45,26.46
850,60941664,-0.8018,0.1646,0.6040,-66.34,8.05,26.59
851,60946664,-0.8311,0.1328,0.6006,-68.54,6.65,27.01
852,60951664,-0.8765,0.1030,0.6113,-70.55,5.06,27.87
853,60956664,-0.8945,0.1011,0.6143,-71.65,4.21,28.48
854,60961663,-0.9067,0.1035,0.6143,-72.74,3.23,29.27
855,60966664,-0.9028,0.1211,0.6152,-73.54,2.07,29.88
856,60971663,-0.8901,0.1270,0.6064,-74.02,1.22,30.37
857,60976664,-0.8779,0.1240,0.6152,-74.27,0.24,30.79
858,60981666,-0.8716,0.1187,0.6206,-74.21,-0.24,31.10
859,60986664,-0.8691,0.1123,0.6270,-73.90,-0.85,31.52
860,60991664,-0.8662,0.1094,0.6250,-73.60,-1.16,32.07
861,60996664,-0.8662,0.1050,0.6250,-73.05,-1.46,32.44
862,61002141,-0.8589,0.1069,0.6191,-72.32,-1.83,32.99
863,61006664,-0.8555,0.1030,0.6069,-71.71,-1.95,33.35
864,61011664,-0.8550,0.0967,0.6201,-70.73,-2.20,33.72
865,61016664,-0.8628,0.0957,0.6157,-69.70,-2.44,34.15
866,61021664,-0.8589,0.0928,0.6187,-68.29,-2.50,34.70
867,61026664,-0.8579,0.0942,0.6084,-67.44,-2.44,34.88
868,61031997,-0.8579,0.0918,0.6157,-66.22,-2.26,35.24
869,61036664,-0.8584,0.0913,0.6084,-65.00,-2.26,35.55
870,61041663,-0.8550,0.0928,0.6133,-63.66,-2.13,35.85
871,61046662,-0.8574,0.0913,0.6167,-62.62,-1.95,36.10
872,61051662,-0.8569,0.0889,0.6152,-61.52,-1.52,36.40
873,61056662,-0.8560,0.0928,0.6167,-60.49,-1.22,36.46
874,61061662,-0.8574,0.0903,0.6182,-59.39,-0.91,36.77
875,61066662,-0.8613,0.0913,0.6201,-58.41,-0.43,36.95
876,61071664,-0.8613,0.0889,0.6240,-57.50,0.06,37.01
877,61076664,-0.8647,0.0947,0.6235,-56.65,0.61,37.07
878,61081665,-0.8589,0.0913,0.6265,-55.67,1.16,37.20
879,61087086,-0.8540,0.0962,0.6240,-54.94,1.71,37.13
880,61091664,-0.8506,0.0957,0.6226,-53.96,2.13,37.20
881,61096665,-0.8486,0.0972,0.6226,-53.23,2.87,37.13
882,61101664,-0.8486,0.0952,0.6250,-52.56,3.29,37.07
883,61106664,-0.8486,0.0903,0.6240,-51.89,3.78,37.07
884,61111996,-0.8594,0.0957,0.6284,-51.04,4.33,36.77
885,61116665,-0.8682,0.0957,0.6304,-50.30,4.88,36.77
886,61121664,-0.8735,0.0918,0.6250,-49.51,5.24,36.59
887,61127074,-0.8784,0.0898,0.6338,-48.84,5.79,36.46
888,61131664,-0.8735,0.0820,0.6294,-48.17,6.28,36.40
889,61137064,-0.8755,0.0767,0.6382,-47.56,6.65,36.34
890,61141664,-0.8760,0.0786,0.6304,-46.95,6.83,36.16
891,61147029,-0.8765,0.0771,0.6343,-46.40,7.38,36.04
892,61151664,-0.8774,0.0762,0.6392,-46.04,7.50,35.98
893,61157063,-0.8735,0.0752,0.6362,-45.67,7.56,35.85
894,61161664,-0.8657,0.0737,0.6333,-45.37,7.62,35.61
895,61166664,-0.8594,0.0747,0.6372,-45.24,7.62,35.24
896,61171664,-0.8521,0.0728,0.6333,-45.12,7.50,35.12
897,61176664,-0.8418,0.0693,0.6377,-45.30,7.56,34.88
898,61181982,-0.8403,0.0708,0.6348,-45.43,7.44,34.51
899,61186666,-0.8364,0.0693,0.6396,-45.55,7.26,34.21
900,61191664,-0.8335,0.0698,0.6357,-45.79,7.13,33.90
901,61197057,-0.8384,0.0732,0.6343,-45.91,6.95,33.54
902,61201664,-0.8364,0.0762,0.6313,-46.10,6.89,33.17
903,61206664,-0.8379,0.0698,0.6323,-46.16,6.65,32.74
904,61211664,-0.8423,0.0684,0.6328,-46.52,6.46,32.38
905,61216669,-0.8530,0.0601,0.6411,-46.65,6.40,31.77
906,61221664,-0.8623,0.0586,0.6367,-46.71,6.28,31.52
907,61226664,-0.8574,0.0571,0.6333,-47.01,6.10,31.10
908,61231664,-0.8540,0.0576,0.6348,-47.13,6.10,30.73
909,61237093,-0.8481,0.0566,0.6343,-47.20,5.85,30.37
910,61241664,-0.8486,0.0557,0.6338,-47.38,5.67,29.88
911,61246664,-0.8496,0.0581,0.6299,-47.74,5.43,29.39
912,61251664,-0.8491,0.0615,0.6333,-47.93,5.24,28.84
913,61256663,-0.8452,0.0581,0.6279,-48.23,5.06,28.29
914,61261664,-0.8447,0.0581,0.6274,-48.60,4.76,27.87
915,61266666,-0.8511,0.0620,0.6196,-49.02,4.57,27.20
916,61272004,-0.8506,0.0630,0.6255,-49.63,4.45,26.65
917,61276664,-0.8433,0.0669,0.6177,-50.24,4.33,25.98
918,61281663,-0.8442,0.0708,0.6191,-50.91,4.27,25.24
919,61286664,-0.8511,0.0737,0.6201,-51.46,3.90,24.57
920,61292155,-0.8540,0.0688,0.6216,-52.20,3.84,23.90
921,61296664,-0.8604,0.0615,0.6182,-52.87,3.78,23.35
922,61301955,-0.8613,0.0562,0.6230,-53.41,3.72,22.68
923,61306664,-0.8633,0.0532,0.6162,-54.27,3.78,22.13
924,61312012,-0.8638,0.0552,0.6104,-54.82,3.72,21.65
925,61316664,-0.8633,0.0557,0.6187,-55.49,3.72,21.16
926,61321867,-0.8608,0.0503,0.6162,-55.98,3.84,20.73
927,61326665,-0.8579,0.0459,0.6177,-56.65,3.84,20.24
928,61332111,-0.8584,0.0410,0.6143,-57.26,4.09,19.88
929,61336664,-0.8564,0.0400,0.6060,-58.05,4.09,19.33
930,61341663,-0.8545,0.0376,0.6133,-58.66,4.15,19.02
931,61346662,-0.8555,0.0386,0.6016,-59.51,4.21,18.48
932,61351662,-0.8560,0.0405,0.6079,-60.43,4.33,18.11
933,61356662,-0.8564,0.0410,0.6021,-61.28,4.21,17.56
934,61361662,-0.8579,0.0474,0.6084,-62.44,4.39,17.07
935,61366664,-0.8574,0.0483,0.6035,-63.48,4.63,16.52
936,61371664,-0.8608,0.0469,0.6021,-64.57,4.63,15.98
937,61376664,-0.8667,0.0542,0.6099,-65.85,4.88,15.37
938,61381663,-0.8701,0.0527,0.6123,-67.07,5.18,14.82
939,61386664,-0.8662,0.0508,0.6138,-68.23,5.18,14.27
940,61391665,-0.8667,0.0508,0.6045,-69.39,5.43,13.54
941,61396664,-0.8672,0.0576,0.6006,-70.55,5.85,13.11
942,61401664,-0.8667,0.0537,0.6025,-71.52,6.04,12.44
943,61406666,-0.8691,0.0532,0.5991,-72.62,6.28,11.83
944,61411664,-0.8633,0.0522,0.6021,-73.35,6.46,11.28
945,61416664,-0.8657,0.0479,0.5942,-74.09,6.59,10.79
946,61422057,-0.8662,0.0459,0.5952,-74.57,6.77,10.18
947,61426664,-0.8677,0.0361,0.5972,-75.06,7.07,9.82
948,61432075,-0.8672,0.0376,0.5996,-75.30,7.32,9.39
949,61436664,-0.8726,0.0381,0.6025,-75.79,7.44,8.90
950,61442056,-0.8696,0.0352,0.5972,-75.79,7.56,8.60
951,61446664,-0.8730,0.0361,0.5986,-75.85,7.93,8.41
952,61451664,-0.8696,0.0312,0.5967,-75.91,7.99,8.23
953,61457136,-0.8760,0.0322,0.6060,-75.85,8.23,7.93
954,61461664,-0.8765,0.0308,0.5972,-75.79,8.29,7.68
955,61467075,-0.8706,0.0293,0.6016,-75.91,8.35,7.44
956,61471664,-0.8750,0.0308,0.5991,-75.79,8.48,7.50
957,61476933,-0.8652,0.0293,0.6006,-75.73,8.72,7.26
958,61481664,-0.8638,0.0322,0.5986,-75.67,8.60,7.20
959,61486676,-0.8579,0.0303,0.5923,-75.55,8.72,7.01
960,61491664,-0.8584,0.0259,0.5986,-75.37,8.60,6.89
961,61496666,-0.8574,0.0293,0.5923,-75.06,8.66,6.83
962,61501663,-0.8613,0.0308,0.5947,-74.57,8.60,6.77
963,61507027,-0.8613,0.0269,0.5967,-73.84,8.48,6.71
964,61511664,-0.8647,0.0254,0.6006,-73.35,8.41,6.65
965,61517015,-0.8667,0.0239,0.6045,-72.50,8.29,6.59
966,61521664,-0.8682,0.0249,0.6016,-71.83,8.35,6.65
967,61526668,-0.8672,0.0171,0.5972,-70.61,8.11,6.77
968,61531664,-0.8687,0.0166,0.6021,-69.70,7.99,6.77
969,61536664,-0.8716,0.0190,0.5991,-68.29,8.05,6.83
970,61542056,-0.8652,0.0171,0.5933,-66.77,7.87,6.95
971,61546664,-0.8672,0.0181,0.5918,-65.67,7.80,6.95
972,61551990,-0.8647,0.0137,0.5942,-63.72,7.50,7.07
973,61556664,-0.8677,0.0098,0.6016,-62.74,7.44,7.07
974,61561664,-0.8696,0.0132,0.5991,-60.98,7.32,7.13
975,61567148,-0.8687,0.0132,0.5908,-58.90,7.26,7.26
976,61571664,-0.8672,0.0156,0.5884,-57.32,7.13,7.32
977,61576663,-0.8691,0.0098,0.5898,-55.37,6.83,7.38
978,61581664,-0.8696,0.0083,0.6021,-53.48,6.77,7.62
979,61586668,-0.8721,0.0015,0.5986,-51.34,6.65,7.62
980,61591664,-0.8706,0.0039,0.5933,-49.27,6.71,7.74
981,61596664,-0.8716,0.0049,0.5903,-47.20,6.52,7.93
982,61601665,-0.8774,0.0044,0.5923,-45.00,6.59,7.80
983,61607158,-0.8755,0.0054,0.5908,-42.26,6.59,7.99
984,61611664,-0.8755,0.0034,0.5967,-40.49,6.46,8.05
985,61617117,-0.8784,0.0029,0.6040,-37.87,6.52,8.05
986,61621664,-0.8794,0.0039,0.5977,-36.10,6.52,8.11
987,61626664,-0.8750,-0.0015,0.5972,-33.78,6.65,8.11
988,61631664,-0.8711,0.0044,0.6016,-31.59,6.52,8.17
989,61636664,-0.8721,0.0044,0.5923,-29.45,6.52,8.17
990,61641663,-0.8687,0.0039,0.5942,-27.26,6.59,8.23
991,61646664,-0.8647,0.0088,0.5913,-25.00,6.52,8.23
992,61651662,-0.8667,0.0029,0.5903,-22.87,6.52,8.23
993,61656662,-0.8711,0.0068,0.5947,-20.79,6.65,8.23
994,61661663,-0.8687,0.0049,0.5923,-18.48,6.46,8.35
995,61666664,-0.8726,0.0000,0.5957,-16.52,6.40,8.41
996,61671663,-0.8740,0.0005,0.5952,-14.45,6.40,8.66
997,61676899,-0.8779,0.0029,0.5967,-12.26,6.34,8.78
998,61681664,-0.8740,0.0034,0.5996,-10.73,6.28,8.84
999,61686664,-0.8770,-0.0020,0.6006,-9.02,6.16,9.02
1000,61691663,-0.8838,-0.0015,0.6060,-7.26,6.28,9.33
1001,61696664,-0.8867,0.0000,0.6016,-5.55,5.91,9.70
1002,61701666,-0.8882,-0.0005,0.6001,-4.57,5.73,9.94
1003,61706830,-0.8892,0.0015,0.5991,-3.41,5.61,10.18
1004,61711664,-0.8921,0.0049,0.6025,-2.38,5.30,10.43
1005,61717071,-0.8901,0.0049,0.6055,-1.34,5.06,10.73
1006,61721664,-0.8940,0.0073,0.6045,-0.73,5.00,11.04
1007,61726664,-0.8931,0.0068,0.6055,-0.24,4.76,11.34
1008,61731664,-0.8921,0.0103,0.6006,0.24,4.45,11.65
1009,61736664,-0.8960,0.0083,0.6055,0.61,4.09,11.89
1010,61741664,-0.8926,0.0093,0.6064,0.67,4.02,12.13
1011,61746665,-0.8950,0.0112,0.6113,0.79,3.78,12.38
1012,61751663,-0.8926,0.0098,0.6089,0.73,3.78,12.56
1013,61757134,-0.8950,0.0103,0.6099,0.55,3.35,12.80
1014,61761664,-0.8887,0.0083,0.6104,0.30,3.35,13.11
1015,61766828,-0.8877,0.0103,0.6035,-0.18,3.29,13.23
1016,61771664,-0.8882,0.0107,0.6050,-0.61,3.05,13.41
1017,61776902,-0.8853,0.0176,0.6040,-1.22,2.80,13.60
1018,61781664,-0.8838,0.0171,0.6055,-2.13,2.87,13.78
1019,61786664,-0.8818,0.0146,0.6064,-2.93,2.56,13.90
1020,61791663,-0.8779,0.0156,0.6040,-3.90,2.32,13.96
1021,61796664,-0.8721,0.0181,0.5957,-4.88,2.26,14.15
1022,61801664,-0.8726,0.0215,0.6001,-6.04,2.13,14.21
1023,61806664,-0.8696,0.0215,0.5962,-7.20,2.01,14.39
1024,61811665,-0.8711,0.0273,0.5952,-8.29,1.83,14.39
1025,61816682,-0.8750,0.0259,0.5986,-9.63,1.59,14.57
1026,61821663,-0.8789,0.0273,0.5977,-10.85,1.71,14.63
1027,61826666,-0.8765,0.0283,0.5972,-12.01,1.83,14.70
1028,61832061,-0.8755,0.0293,0.6035,-13.23,1.77,14.76
1029,61836664,-0.8750,0.0312,0.5947,-14.27,2.01,14.88
1030,61842051,-0.8721,0.0293,0.5996,-15.61,2.07,14.82
1031,61846664,-0.8706,0.0332,0.5967,-16.65,2.20,15.06
1032,61851969,-0.8628,0.0337,0.5981,-17.80,2.32,15.00
1033,61856664,-0.8711,0.0396,0.5923,-18.84,2.26,15.12
1034,61862079,-0.8701,0.0347,0.5996,-20.00,2.44,15.30
1035,61866664,-0.8677,0.0347,0.5903,-21.04,2.68,15.55
1036,61871846,-0.8647,0.0347,0.5952,-22.01,2.56,15.73
1037,61876664,-0.8687,0.0376,0.6040,-23.17,2.74,15.98
1038,61882108,-0.8647,0.0347,0.5977,-24.09,2.68,16.40
1039,61886664,-0.8730,0.0361,0.5981,-25.12,2.62,16.59
1040,61891664,-0.8687,0.0312,0.5977,-26.10,2.74,17.07
1041,61896900,-0.8706,0.0347,0.5962,-27.13,2.80,17.44
1042,61901666,-0.8726,0.0352,0.5986,-27.99,2.68,17.74
1043,61906666,-0.8745,0.0322,0.5962,-28.84,2.80,18.05
1044,61911671,-0.8770,0.0337,0.5991,-29.82,2.74,18.48
1045,61916664,-0.8760,0.0317,0.5957,-30.49,2.62,18.78
1046,61921664,-0.8706,0.0342,0.5923,-31.04,2.50,19.09
1047,61926665,-0.8677,0.0312,0.5898,-31.59,2.62,19.45
1048,61931664,-0.8687,0.0303,0.5947,-32.01,2.62,19.57
1049,61936664,-0.8657,0.0278,0.5972,-32.38,2.50,19.70
1050,61941663,-0.8652,0.0308,0.6040,-32.44,2.44,20.00
1051,61946662,-0.8696,0.0322,0.6011,-32.62,2.62,20.18
1052,61951662,-0.8687,0.0244,0.5996,-32.62,2.62,20.37
1053,61956662,-0.8779,0.0273,0.6001,-32.44,2.74,20.67
1054,61961662,-0.8770,0.0264,0.6006,-32.50,2.56,20.79
1055,61966665,-0.8818,0.0308,0.5942,-32.50,2.50,20.98
1056,61971665,-0.8843,0.0288,0.5977,-32.44,2.38,21.16
1057,61976664,-0.8833,0.0327,0.5952,-32.32,2.20,21.28
1058,61981741,-0.8848,0.0234,0.5967,-32.44,1.83,21.46
1059,61986663,-0.8921,0.0244,0.6025,-32.32,1.77,21.77
1060,61991664,-0.8960,0.0239,0.6021,-32.38,1.40,21.95
1061,61997024,-0.8950,0.0234,0.6050,-32.38,1.22,22.20
1062,62001664,-0.8916,0.0205,0.5986,-32.38,0.85,22.50
1063,62006664,-0.8926,0.0259,0.5957,-32.44,0.49,22.50
1064,62011664,-0.8916,0.0190,0.5972,-32.32,0.24,22.74
1065,62016664,-0.8906,0.0181,0.6011,-32.50,0.06,22.87
1066,62022075,-0.8862,0.0181,0.5942,-32.50,-0.30,23.17
1067,62026664,-0.8901,0.0176,0.5977,-32.38,-0.55,23.35
1068,62032135,-0.8872,0.0127,0.6025,-32.32,-1.04,23.54
1069,62036664,-0.8916,0.0112,0.5986,-32.13,-1.28,23.78
1070,62041965,-0.8896,0.0117,0.5947,-31.95,-1.52,23.96
1071,62046664,-0.8896,0.0103,0.5942,-31.83,-1.89,24.15
1072,62051664,-0.8896,0.0103,0.5957,-31.77,-2.26,24.39
1073,62056663,-0.8867,0.0083,0.5981,-31.52,-2.62,24.63
1074,62061919,-0.8872,0.0059,0.5918,-31.28,-2.99,24.76
1075,62066664,-0.8882,0.0024,0.5962,-30.85,-3.23,25.00
1076,62072076,-0.8867,0.0034,0.5874,-30.67,-3.78,25.18
1077,62076664,-0.8862,0.0015,0.5903,-30.18,-3.84,25.30
1078,62081664,-0.8887,-0.0044,0.5903,-29.63,-4.09,25.43
1079,62086664,-0.8901,-0.0039,0.5869,-29.09,-4.39,25.61
1080,62092069,-0.8843,-0.0029,0.5840,-28.72,-4.45,25.73
1081,62096664,-0.8813,-0.0020,0.5894,-28.05,-4.88,25.79
1082,62101771,-0.8804,-0.0024,0.5845,-27.50,-4.88,25.91
1083,62106664,-0.8857,-0.0024,0.5830,-26.95,-4.94,25.91
1084,62112031,-0.8833,-0.0005,0.5840,-26.52,-5.18,25.91
1085,62116665,-0.8867,-0.0020,0.5825,-25.91,-5.49,25.98
1086,62121985,-0.8896,-0.0054,0.5728,-25.49,-5.55,25.98
1087,62126665,-0.8896,-0.0015,0.5737,-24.88,-5.79,25.91
1088,62131990,-0.8887,-0.0044,0.5728,-24.63,-5.91,25.73
1089,62136664,-0.8936,-0.0044,0.5767,-24.27,-5.91,25.73
1090,62141664,-0.8916,-0.0020,0.5757,-23.90,-6.10,25.73
1091,62146664,-0.8926,-0.0029,0.5757,-23.54,-6.40,25.55
1092,62151664,-0.8906,0.0015,0.5708,-23.41,-6.46,25.55
1093,62156664,-0.8989,0.0015,0.5718,-23.17,-6.83,25.30
1094,62162007,-0.8999,0.0024,0.5649,-23.17,-7.01,25.18
1095,62166664,-0.8989,0.0000,0.5654,-23.05,-7.26,25.00
1096,62171916,-0.8921,0.0029,0.5659,-22.93,-7.56,24.82
1097,62176664,-0.8960,-0.0020,0.5625,-22.80,-7.80,24.57
1098,62181664,-0.8960,-0.0044,0.5645,-22.68,-7.99,24.45
1099,62186888,-0.8979,-0.0010,0.5674,-22.50,-8.23,24.21
1100,62191663,-0.8936,-0.0039,0.5630,-22.44,-8.35,24.02
1101,62196666,-0.8950,0.0020,0.5620,-22.20,-8.60,23.84
1102,62201856,-0.8965,0.0020,0.5630,-22.07,-8.90,23.60
1103,62206664,-0.8965,-0.0005,0.5527,-21.95,-9.15,23.48
1104,62211664,-0.8911,0.0000,0.5605,-21.77,-9.02,23.29
1105,62216664,-0.8936,-0.0005,0.5596,-21.52,-9.33,23.05
1106,62221665,-0.8970,0.0029,0.5542,-21.40,-9.39,22.93
1107,62226666,-0.8965,-0.0020,0.5522,-21.16,-9.45,22.68
1108,62231665,-0.8989,0.0034,0.5537,-20.85,-9.45,22.50
1109,62236667,-0.8994,0.0000,0.5542,-20.73,-9.57,22.26
1110,62241663,-0.9014,0.0049,0.5547,-20.49,-9.70,22.07
1111,62246664,-0.9004,0.0029,0.5518,-20.30,-9.82,22.01
1112,62251664,-0.8955,0.0063,0.5479,-19.88,-9.82,21.71
1113,62256662,-0.8950,0.0073,0.5474,-19.51,-10.00,21.46
1114,62261663,-0.8931,0.0059,0.5479,-19.33,-10.00,21.22
1115,62266664,-0.8887,0.0078,0.5488,-18.90,-9.94,21.10
1116,62271664,-0.8872,0.0078,0.5493,-18.48,-9.88,20.91
1117,62276664,-0.8896,0.0039,0.5425,-17.99,-9.82,20.73
1118,62281664,-0.8867,0.0044,0.5459,-17.62,-9.76,20.55
1119,62286664,-0.8896,0.0059,0.5464,-17.07,-9.82,20.43
1120,62291664,-0.8911,0.0029,0.5410,-16.59,-9.70,20.24
1121,62297064,-0.8965,0.0073,0.5449,-16.22,-9.57,20.06
1122,62301664,-0.8994,0.0098,0.5449,-15.79,-9.33,19.94
1123,62306663,-0.9019,0.0107,0.5410,-15.24,-9.09,19.70
1124,62311667,-0.9053,0.0088,0.5508,-14.94,-8.90,19.57
1125,62316666,-0.9053,0.0112,0.5435,-14.76,-8.78,19.45
1126,62321666,-0.9028,0.0151,0.5469,-14.33,-8.41,19.27
1127,62326664,-0.9058,0.0142,0.5435,-14.21,-8.29,19.15
1128,62331809,-0.9028,0.0171,0.5439,-14.15,-7.99,18.96
1129,62336663,-0.9028,0.0151,0.5405,-14.02,-7.74,18.78
1130,62341664,-0.9023,0.0156,0.5449,-13.96,-7.50,18.72
1131,62346715,-0.8994,0.0181,0.5415,-13.84,-7.26,18.54
1132,62351667,-0.8975,0.0161,0.5381,-13.90,-6.95,18.41
1133,62356666,-0.8896,0.0146,0.5376,-13.90,-6.77,18.29
1134,62361983,-0.8896,0.0166,0.5391,-13.90,-6.46,18.17
1135,62366664,-0.8887,0.0166,0.5366,-13.84,-6.10,18.17
1136,62371678,-0.8843,0.0181,0.5430,-13.84,-6.10,18.11
1137,62376662,-0.8823,0.0210,0.5391,-13.72,-5.85,18.05
1138,62381666,-0.8809,0.0151,0.5376,-13.54,-5.49,17.87
1139,62386664,-0.8784,0.0117,0.5327,-13.54,-5.12,17.74
1140,62391664,-0.8794,0.0137,0.5352,-13.41,-4.88,17.74
1141,62396666,-0.8833,0.0122,0.5410,-13.23,-4.51,17.68
1142,62401664,-0.8818,0.0171,0.5352,-13.35,-4.39,17.56
1143,62406968,-0.8784,0.0142,0.5352,-13.23,-3.90,17.44
1144,62411664,-0.8789,0.0142,0.5381,-13.41,-3.78,17.44
1145,62416681,-0.8755,0.0146,0.5337,-13.54,-3.35,17.26
1146,62421665,-0.8784,0.0146,0.5327,-13.84,-2.99,17.20
1147,62426664,-0.8784,0.0146,0.5361,-13.96,-2.56,17.07
1148,62431664,-0.8789,0.0210,0.5332,-14.27,-2.26,16.95
1149,62436663,-0.8740,0.0210,0.5312,-14.70,-1.89,16.89
1150,62442150,-0.8765,0.0205,0.5288,-15.37,-1.59,16.71
1151,62446664,-0.8750,0.0205,0.5298,-15.85,-1.34,16.52
1152,62451664,-0.8765,0.0259,0.5288,-16.77,-0.91,16.34
1153,62456664,-0.8789,0.0283,0.5352,-17.50,-0.43,16.16
1154,62462134,-0.8823,0.0269,0.5303,-18.72,-0.12,16.04
1155,62466664,-0.8838,0.0308,0.5342,-19.57,0.12,15.98
1156,62472067,-0.8862,0.0327,0.5347,-20.91,0.55,15.73
1157,62476664,-0.8896,0.0312,0.5391,-21.89,0.91,15.61
1158,62481664,-0.8931,0.0303,0.5396,-23.11,1.34,15.67
1159,62486665,-0.8994,0.0332,0.5400,-24.39,1.71,15.61
1160,62491928,-0.8970,0.0293,0.5410,-25.79,2.26,15.67
1161,62496664,-0.8979,0.0308,0.5400,-26.52,2.38,15.79
1162,62501664,-0.9019,0.0322,0.5425,-27.38,2.80,15.85
1163,62506663,-0.9028,0.0303,0.5425,-28.35,2.93,15.98
1164,62511665,-0.8999,0.0259,0.5371,-28.90,3.17,16.10
1165,62516664,-0.8940,0.0298,0.5391,-29.63,3.54,16.28
1166,62521664,-0.8931,0.0269,0.5396,-29.76,3.72,16.40
1167,62527128,-0.8921,0.0239,0.5430,-30.18,3.84,16.46
1168,62531664,-0.8843,0.0229,0.5410,-30.12,3.90,16.52
1169,62536664,-0.8789,0.0195,0.5396,-29.88,4.09,16.59
1170,62541663,-0.8770,0.0156,0.5435,-29.82,4.33,16.59
1171,62546664,-0.8750,0.0146,0.5435,-29.33,4.45,16.77
1172,62551664,-0.8750,0.0161,0.5347,-29.02,4.76,16.59
1173,62556665,-0.8789,0.0137,0.5391,-28.54,4.94,16.65
1174,62561664,-0.8784,0.0156,0.5317,-27.87,5.12,16.40
1175,62566664,-0.8774,0.0156,0.5322,-27.38,5.43,16.28
1176,62571664,-0.8818,0.0127,0.5425,-26.83,5.85,16.10
1177,62576664,-0.8789,0.0176,0.5337,-26.46,6.34,15.98
1178,62581663,-0.8818,0.0176,0.5386,-25.98,6.65,15.73
1179,62586664,-0.8877,0.0195,0.5420,-25.55,7.07,15.37
1180,62591663,-0.8853,0.0142,0.5435,-25.24,7.32,15.30
1181,62596664,-0.8843,0.0151,0.5410,-24.88,7.74,15.06
1182,62601664,-0.8853,0.0137,0.5444,-24.51,8.35,14.82
1183,62606663,-0.8867,0.0142,0.5425,-24.21,8.60,14.51
1184,62611662,-0.8853,0.0176,0.5444,-23.84,8.84,14.09
1185,62616664,-0.8838,0.0107,0.5469,-23.41,9.27,13.90
1186,62621987,-0.8867,0.0127,0.5410,-22.99,9.39,13.60
1187,62626664,-0.8838,0.0103,0.5469,-22.44,9.82,13.29
1188,62632027,-0.8779,0.0083,0.5474,-21.71,10.18,12.99
1189,62637107,-0.8813,0.0068,0.5430,-21.10,10.30,12.62
1190,62641664,-0.8804,0.0054,0.5449,-20.43,10.43,12.44
1191,62646664,-0.8833,0.0044,0.5459,-19.82,10.73,12.20
1192,62651664,-0.8779,0.0054,0.5439,-19.09,10.98,11.89
1193,62656664,-0.8828,0.0029,0.5444,-18.48,11.28,11.59
1194,62661664,-0.8813,0.0112,0.5547,-17.87,11.65,11.16
1195,62666664,-0.8760,0.0068,0.5552,-17.38,11.65,10.79
1196,62672016,-0.8838,0.0093,0.5508,-16.83,11.89,10.49
1197,62676664,-0.8848,0.0073,0.5566,-16.34,12.20,10.18
1198,62682101,-0.8882,0.0044,0.5532,-15.98,12.38,9.63
1199,62686664,-0.8931,0.0073,0.5542,-15.67,12.62,9.33
1200,62691842,-0.8960,0.0107,0.5518,-15.49,12.87,8.84
1201,62696665,-0.8926,0.0073,0.5557,-15.06,12.80,8.48
1202,62701880,-0.8979,0.0039,0.5571,-14.76,13.05,8.05
1203,62706664,-0.8955,0.0015,0.5591,-14.57,13.11,7.74
1204,62711664,-0.8965,0.0029,0.5552,-14.27,13.35,7.44
1205,62716663,-0.9004,0.0039,0.5596,-14.15,13.35,7.01
1206,62721666,-0.8984,0.0083,0.5586,-13.96,13.48,6.71
1207,62726663,-0.8984,0.0024,0.5601,-13.78,13.54,6.34
1208,62732135,-0.8970,0.0059,0.5645,-13.60,13.48,6.04
1209,62736664,-0.8984,0.0034,0.5640,-13.35,13.54,5.67
1210,62741667,-0.9004,0.0010,0.5562,-13.23,13.41,5.37
1211,62746664,-0.8916,0.0029,0.5610,-13.11,13.29,5.00
1212,62751665,-0.8936,0.0039,0.5640,-12.87,13.23,4.82
1213,62756664,-0.8975,0.0034,0.5674,-12.80,13.05,4.45
1214,62761664,-0.8999,0.0034,0.5684,-12.74,12.87,4.21
1215,62767157,-0.9019,0.0054,0.5640,-12.74,12.80,3.84
1216,62771664,-0.9023,0.0044,0.5737,-12.68,12.56,3.72
1217,62776664,-0.9014,0.0044,0.5640,-12.80,12.38,3.54
1218,62781664,-0.9062,0.0054,0.5654,-12.68,12.26,3.17
1219,62786664,-0.9048,0.0044,0.5698,-12.74,12.07,3.11
1220,62791664,-0.9087,0.0049,0.5649,-12.80,11.89,2.99
1221,62796664,-0.9023,0.0020,0.5732,-12.87,11.59,2.74
1222,62801664,-0.9009,-0.0024,0.5713,-12.87,11.34,2.56
1223,62806667,-0.8989,0.0010,0.5620,-13.05,11.16,2.44
1224,62811664,-0.8999,0.0024,0.5664,-13.11,10.98,2.38
1225,62816663,-0.8979,0.0020,0.5659,-13.05,10.73,2.32
1226,62821665,-0.8979,0.0000,0.5693,-13.23,10.49,2.20
1227,62826664,-0.9062,0.0015,0.5669,-13.35,10.24,2.07
1228,62831664,-0.9058,0.0029,0.5693,-13.41,10.00,1.95
1229,62836663,-0.9072,0.0010,0.5708,-13.60,9.63,1.89
1230,62841662,-0.9028,0.0029,0.5669,-13.66,9.39,1.83
1231,62846665,-0.9058,0.0020,0.5630,-13.90,9.02,1.77
1232,62851664,-0.9019,0.0010,0.5659,-13.84,8.78,1.65
1233,62856664,-0.8994,0.0029,0.5649,-13.84,8.60,1.52
1234,62861664,-0.8965,-0.0005,0.5669,-13.96,8.23,1.46
1235,62866664,-0.8979,0.0000,0.5693,-13.84,7.80,1.40
1236,62871728,-0.8994,0.0010,0.5703,-13.78,7.68,1.22
1237,62876663,-0.8965,-0.0020,0.5669,-13.78,7.50,1.16
1238,62881662,-0.8960,0.0029,0.5654,-13.60,6.95,1.16
1239,62886665,-0.8940,0.0020,0.5591,-13.17,6.83,1.04
1240,62891663,-0.8984,0.0024,0.5625,-12.99,6.71,0.85
1241,62896664,-0.8970,0.0010,0.5615,-12.87,6.22,0.79
1242,62901664,-0.9033,0.0034,0.5630,-12.62,5.98,0.73
1243,62906664,-0.9092,0.0010,0.5601,-12.44,5.79,0.61
1244,62911664,-0.9116,0.0015,0.5630,-12.20,5.49,0.49
1245,62916664,-0.9136,0.0020,0.5659,-11.95,5.43,0.43
1246,62921663,-0.9199,0.0015,0.5605,-11.71,5.12,0.30
1247,62926666,-0.9219,0.0039,0.5620,-11.40,4.94,0.18
1248,62931664,-0.9189,0.0044,0.5635,-11.28,4.57,-0.06
1249,62936663,-0.9165,0.0039,0.5635,-10.91,4.57,-0.18
1250,62941664,-0.9136,0.0029,0.5557,-10.67,4.21,-0.37
1251,62946664,-0.9131,0.0039,0.5605,-10.24,4.02,-0.61
1252,62951664,-0.9136,0.0059,0.5547,-10.06,3.84,-0.79
1253,62957154,-0.9155,0.0039,0.5542,-9.57,3.54,-0.98
1254,62961664,-0.9136,0.0059,0.5601,-9.33,3.29,-1.16
1255,62966986,-0.9062,0.0063,0.5596,-8.90,3.17,-1.34
1256,62971664,-0.9004,0.0083,0.5586,-8.41,2.99,-1.52
1257,62976664,-0.9004,0.0059,0.5503,-8.11,2.74,-1.52
1258,62981664,-0.8960,0.0073,0.5537,-7.62,2.38,-1.77
1259,62987115,-0.8994,0.0088,0.5483,-7.01,2.13,-1.95
1260,62991664,-0.8989,0.0103,0.5552,-6.65,2.13,-1.95
1261,62996664,-0.9009,0.0049,0.5566,-5.98,1.83,-2.07
1262,63001664,-0.9009,0.0063,0.5513,-5.43,1.52,-2.13
1263,63006664,-0.8994,0.0088,0.5532,-4.82,1.22,-2.26
1264,63011664,-0.9004,0.0039,0.5483,-4.21,1.10,-2.13
1265,63016665,-0.9019,0.0083,0.5469,-3.54,0.98,-2.13
1266,63021664,-0.9028,0.0103,0.5488,-3.11,0.73,-2.26
1267,63026665,-0.9019,0.0103,0.5498,-2.26,0.55,-2.13
1268,63031787,-0.9072,0.0088,0.5483,-1.83,0.30,-2.13
1269,63036664,-0.9077,0.0117,0.5503,-1.16,0.30,-2.13
1270,63041663,-0.9077,0.0098,0.5464,-0.55,-0.12,-2.01
1271,63046664,-0.9097,0.0151,0.5439,-0.06,-0.06,-2.01
1272,63051664,-0.9067,0.0122,0.5483,0.61,-0.18,-2.01
1273,63056664,-0.9058,0.0132,0.5420,0.98,-0.49,-2.01
1274,63062119,-0.9043,0.0161,0.5459,1.46,-0.61,-1.95
1275,63066664,-0.9077,0.0161,0.5425,2.07,-0.85,-1.95
1276,63071667,-0.9067,0.0156,0.5454,2.56,-0.85,-1.89
1277,63076664,-0.9102,0.0132,0.5405,2.99,-1.16,-1.83
1278,63081664,-0.9072,0.0176,0.5410,3.60,-1.28,-1.77
1279,63086664,-0.9131,0.0215,0.5381,3.96,-1.34,-1.71
1280,63091664,-0.9072,0.0200,0.5361,4.39,-1.34,-1.71
1281,63096663,-0.9072,0.0215,0.5454,4.82,-1.46,-1.71
1282,63102147,-0.9058,0.0220,0.5361,5.24,-1.52,-1.52
1283,63106664,-0.9043,0.0195,0.5439,5.61,-1.59,-1.59
1284,63111664,-0.9067,0.0210,0.5405,5.79,-1.40,-1.52
1285,63116665,-0.9053,0.0229,0.5366,6.16,-1.59,-1.40
1286,63121664,-0.9082,0.0254,0.5371,6.34,-1.52,-1.40
1287,63126662,-0.9048,0.0229,0.5381,6.52,-1.71,-1.34
1288,63131666,-0.9077,0.0215,0.5400,6.59,-1.77,-1.04
1289,63136664,-0.9087,0.0254,0.5366,6.71,-1.83,-1.10
1290,63141663,-0.9077,0.0283,0.5332,6.77,-1.65,-0.91
1291,63146662,-0.9048,0.0254,0.5342,6.77,-1.71,-0.85
1292,63151662,-0.9077,0.0273,0.5312,6.77,-1.65,-0.79
1293,63156662,-0.9067,0.0278,0.5264,6.52,-1.71,-0.55
1294,63161662,-0.9019,0.0278,0.5322,6.40,-1.59,-0.43
1295,63166662,-0.9023,0.0288,0.5332,6.16,-1.77,-0.24
1296,63171856,-0.8975,0.0293,0.5327,6.10,-1.65,0.00
1297,63176664,-0.8965,0.0278,0.5293,5.73,-1.71,0.12
1298,63181666,-0.8921,0.0308,0.5317,5.37,-1.71,0.24
1299,63186663,-0.8901,0.0269,0.5308,5.00,-1.46,0.49
1300,63191664,-0.8882,0.0312,0.5342,4.57,-1.52,0.73
1301,63197142,-0.8906,0.0337,0.5327,3.96,-1.65,0.91
1302,63201664,-0.8936,0.0342,0.5332,3.60,-1.52,1.16
1303,63206664,-0.8916,0.0317,0.5337,3.05,-1.52,1.22
1304,63211664,-0.8882,0.0332,0.5347,2.44,-1.40,1.46
1305,63216988,-0.8901,0.0308,0.5278,1.59,-1.40,1.83
1306,63221664,-0.8936,0.0366,0.5278,1.22,-1.22,1.83
1307,63226664,-0.8960,0.0366,0.5361,0.43,-1.22,2.01
1308,63231792,-0.9009,0.0361,0.5376,-0.30,-1.22,2.32
1309,63236664,-0.8975,0.0400,0.5312,-0.85,-1.28,2.38
1310,63241664,-0.9014,0.0376,0.5327,-1.65,-1.22,2.74
1311,63246664,-0.9043,0.0386,0.5288,-2.38,-1.28,2.93
1312,63251664,-0.9087,0.0405,0.5381,-3.05,-1.22,3.11
1313,63256664,-0.9150,0.0415,0.5347,-3.72,-1.34,3.48
1314,63261717,-0.9268,0.0386,0.5405,-4.70,-1.28,3.72
1315,63266663,-0.9390,0.0400,0.5366,-5.43,-1.40,4.02
1316,63271662,-0.9487,0.0356,0.5498,-6.04,-1.46,4.33
1317,63276662,-0.9526,0.0366,0.5503,-6.59,-1.46,4.63
1318,63281662,-0.9595,0.0356,0.5532,-7.32,-1.83,5.00
1319,63286666,-0.9609,0.0371,0.5630,-7.87,-1.89,5.30
1320,63291664,-0.9614,0.0376,0.5562,-8.35,-2.07,5.73
1321,63296664,-0.9609,0.0396,0.5605,-8.90,-2.44,6.16
1322,63301662,-0.9551,0.0317,0.5630,-9.39,-2.68,6.52
1323,63306664,-0.9507,0.0308,0.5571,-9.82,-2.99,6.89
1324,63311663,-0.9399,0.0288,0.5537,-10.24,-3.48,7.32
1325,63316664,-0.9312,0.0303,0.5532,-10.55,-4.15,7.62
1326,63321665,-0.9224,0.0254,0.5542,-10.67,-4.57,8.11
1327,63326663,-0.9111,0.0298,0.5508,-10.91,-5.12,8.54
1328,63331662,-0.9121,0.0249,0.5474,-10.91,-6.10,8.84
1329,63337152,-0.9077,0.0254,0.5430,-11.04,-6.95,9.33
1330,63341664,-0.9058,0.0239,0.5527,-10.91,-7.80,9.57
1331,63346664,-0.9019,0.0181,0.5410,-10.73,-8.60,10.00
1332,63351664,-0.8984,0.0127,0.5439,-10.61,-9.51,10.61
1333,63356664,-0.9028,0.0093,0.5454,-10.12,-10.55,11.04
1334,63361898,-0.9028,0.0063,0.5454,-9.63,-11.40,11.65
1335,63366664,-0.9023,0.0049,0.5439,-8.96,-12.44,12.32
1336,63371662,-0.9033,0.0034,0.5400,-8.17,-13.23,12.87
1337,63376664,-0.9038,-0.0015,0.5381,-7.07,-14.45,13.66
1338,63382238,-0.9048,-0.0029,0.5381,-5.98,-15.37,14.27
1339,63386665,-0.9072,-0.0044,0.5332,-5.06,-16.10,14.88
1340,63391667,-0.9072,-0.0054,0.5303,-3.41,-16.89,15.67
1341,63396664,-0.9033,-0.0137,0.5288,-2.44,-17.50,16.10
1342,63401664,-0.9062,-0.0107,0.5254,-0.91,-18.17,16.77
1343,63406663,-0.9043,-0.0132,0.5234,0.55,-18.66,17.38
1344,63411664,-0.9038,-0.0137,0.5161,2.01,-19.09,17.80
1345,63416664,-0.8984,-0.0127,0.5190,3.54,-19.51,18.35
1346,63422097,-0.8921,-0.0098,0.5117,5.18,-19.76,18.84
1347,63426664,-0.8945,-0.0112,0.5093,6.28,-19.88,19.15
1348,63431663,-0.8965,-0.0107,0.5029,7.68,-19.94,19.45
1349,63436662,-0.8945,-0.0083,0.4980,8.84,-19.76,19.70
1350,63441662,-0.8955,-0.0098,0.4941,10.12,-19.70,19.88
1351,63446666,-0.8926,-0.0073,0.4966,11.10,-19.39,20.06
1352,63451663,-0.8916,-0.0083,0.4961,12.13,-19.02,20.18
1353,63456662,-0.8867,-0.0073,0.4927,13.05,-18.54,20.24
1354,63461664,-0.8896,-0.0078,0.4878,13.78,-17.93,20.24
1355,63466664,-0.8862,-0.0034,0.4863,14.51,-17.13,20.24
1356,63471664,-0.8853,-0.0083,0.4834,15.00,-16.34,20.24
1357,63476664,-0.8804,-0.0078,0.4839,15.37,-15.30,20.18
1358,63481664,-0.8706,-0.0059,0.4854,15.61,-14.27,20.06
1359,63487047,-0.8711,-0.0132,0.4800,15.91,-12.74,20.06
1360,63491664,-0.8696,-0.0068,0.4844,15.91,-11.59,20.06
1361,63496664,-0.8691,-0.0068,0.4858,15.85,-10.30,20.12
1362,63501664,-0.8760,-0.0054,0.4902,15.37,-8.66,20.12
1363,63506664,-0.8804,-0.0049,0.4971,14.88,-7.01,19.94
1364,63511663,-0.8765,0.0078,0.4912,13.84,-5.18,19.82
1365,63516665,-0.8711,0.0054,0.4897,13.05,-3.84,19.63
1366,63522145,-0.8525,0.0029,0.4980,11.83,-1.95,19.51
1367,63526664,-0.8730,0.0039,0.5195,10.91,-0.30,19.33
1368,63531663,-0.8975,0.0088,0.5171,9.33,1.59,19.15
1369,63536665,-0.9014,0.0166,0.5015,7.68,3.41,18.84
1370,63541664,-0.8975,0.0244,0.5088,5.79,5.18,18.48
1371,63546666,-0.8862,0.0259,0.5005,3.60,6.89,18.05
1372,63551664,-0.8838,0.0337,0.4937,1.40,8.41,17.50
1373,63556667,-0.8799,0.0332,0.4956,-1.40,10.43,16.77
1374,63561664,-0.8784,0.0312,0.5068,-3.41,11.59,16.34
1375,63567069,-0.8760,0.0337,0.5083,-5.98,13.11,15.61
1376,63571664,-0.8794,0.0400,0.4956,-8.72,14.45,14.94
1377,63576664,-0.8770,0.0371,0.5054,-11.34,15.67,14.15
1378,63581664,-0.8789,0.0474,0.5088,-13.96,16.77,13.23
1379,63587163,-0.8809,0.0474,0.5005,-17.07,18.05,12.13
1380,63591664,-0.8804,0.0464,0.5000,-19.02,18.84,11.46
1381,63596664,-0.8818,0.0469,0.5088,-21.52,19.51,10.67
1382,63602088,-0.8867,0.0454,0.5054,-23.84,20.12,9.94
1383,63606664,-0.8911,0.0430,0.5049,-26.22,20.61,9.15
1384,63611664,-0.8950,0.0420,0.5093,-28.41,20.91,8.41
1385,63616665,-0.8975,0.0415,0.5117,-30.49,21.28,7.74
1386,63621664,-0.9004,0.0420,0.5156,-32.44,21.52,7.32
1387,63626664,-0.9019,0.0444,0.5112,-34.27,21.46,6.65
1388,63631664,-0.9048,0.0439,0.5127,-36.28,21.28,6.16
1389,63636664,-0.9062,0.0430,0.5229,-38.11,21.22,5.67
1390,63641666,-0.9058,0.0400,0.5215,-39.94,21.04,5.30
1391,63646663,-0.9058,0.0386,0.5229,-41.65,20.55,5.00
1392,63651664,-0.9048,0.0430,0.5249,-43.35,20.18,4.63
1393,63656663,-0.9106,0.0459,0.5220,-45.00,19.76,4.33
1394,63661765,-0.9106,0.0400,0.5239,-46.46,19.33,3.96
1395,63666663,-0.9092,0.0430,0.5244,-47.93,18.60,3.90
1396,63671664,-0.9097,0.0420,0.5239,-49.39,18.23,3.72
1397,63676664,-0.9087,0.0425,0.5220,-50.55,17.44,3.41
1398,63681664,-0.9072,0.0464,0.5293,-51.77,16.65,3.41
1399,63686664,-0.9082,0.0420,0.5244,-52.56,16.16,3.17
1400,63691664,-0.9019,0.0410,0.5190,-53.41,15.37,3.05
1401,63697000,-0.8999,0.0474,0.5278,-53.90,14.94,2.99
1402,63701664,-0.8975,0.0439,0.5161,-54.33,14.27,3.05
1403,63706669,-0.9009,0.0400,0.5210,-54.45,13.84,2.99
1404,63711663,-0.8994,0.0425,0.5195,-54.39,13.17,2.99
1405,63716665,-0.8989,0.0400,0.5156,-54.15,12.74,3.05
1406,63721664,-0.8970,0.0386,0.5166,-53.60,12.26,3.23
1407,63726704,-0.8970,0.0396,0.5137,-52.93,11.89,3.35
1408,63731664,-0.9023,0.0400,0.5181,-52.13,11.40,3.54
1409,63736663,-0.8989,0.0420,0.5093,-51.04,11.28,3.72
1410,63741664,-0.9062,0.0352,0.5205,-50.00,11.16,3.84
1411,63746662,-0.9097,0.0391,0.5244,-48.60,11.10,4.27
1412,63751662,-0.9155,0.0342,0.5146,-47.07,11.10,4.70
1413,63756662,-0.9097,0.0327,0.5151,-45.43,10.91,5.00
1414,63761662,-0.9136,0.0312,0.5088,-43.72,10.91,5.24
1415,63766662,-0.9136,0.0293,0.5107,-41.71,10.98,5.79
1416,63771662,-0.9111,0.0288,0.5181,-39.51,11.10,6.28
1417,63778194,-0.9146,0.0254,0.5166,-36.83,11.28,6.77
1418,63782105,-0.9146,0.0259,0.5190,-35.12,11.52,7.26
1419,63786666,-0.9170,0.0234,0.5146,-32.80,11.71,7.74
1420,63791928,-0.9189,0.0239,0.5142,-30.43,11.95,8.29
1421,63796664,-0.9243,0.0254,0.5146,-28.23,12.26,8.84
1422,63801664,-0.9272,0.0264,0.5156,-25.98,12.56,9.51
1423,63806664,-0.9331,0.0220,0.5151,-23.66,12.87,9.94
1424,63811664,-0.9331,0.0273,0.5195,-21.46,13.35,10.49
1425,63816993,-0.9365,0.0205,0.5190,-19.39,13.60,10.98
1426,63821664,-0.9341,0.0171,0.5215,-17.50,14.02,11.65
1427,63827107,-0.9370,0.0156,0.5220,-15.55,14.09,12.13
1428,63831664,-0.9365,0.0171,0.5190,-13.66,14.39,12.87
1429,63836664,-0.9360,0.0127,0.5195,-12.13,14.51,13.41
1430,63841663,-0.9331,0.0146,0.5215,-10.73,14.63,14.02
1431,63846664,-0.9302,0.0103,0.5234,-9.45,14.88,14.57
1432,63851665,-0.9277,0.0137,0.5200,-8.48,15.00,15.18
1433,63856664,-0.9238,0.0112,0.5249,-7.62,15.00,15.79
1434,63861664,-0.9204,0.0122,0.5093,-7.07,15.18,16.40
1435,63867064,-0.9141,0.0112,0.5142,-6.89,15.06,16.95
1436,63871664,-0.9028,0.0103,0.5142,-6.83,14.88,17.38
1437,63876664,-0.8975,0.0103,0.5156,-7.01,15.00,18.05
1438,63881664,-0.8843,0.0083,0.5151,-7.56,14.88,18.54
1439,63886668,-0.8745,0.0093,0.5078,-8.41,14.94,19.02
1440,63891664,-0.8652,0.0137,0.5063,-9.33,14.82,19.39
1441,63896664,-0.8628,0.0171,0.5044,-10.85,14.57,19.94
1442,63901664,-0.8550,0.0151,0.5034,-12.20,14.57,20.43
1443,63907049,-0.8555,0.0142,0.5098,-13.96,14.51,20.73
1444,63911664,-0.8628,0.0176,0.5093,-15.85,14.45,21.16
1445,63916664,-0.8687,0.0190,0.5059,-17.99,14.39,21.52
1446,63921664,-0.8735,0.0176,0.5063,-20.37,14.21,21.89
1447,63927073,-0.8843,0.0171,0.5029,-22.62,14.57,22.01
1448,63931664,-0.8945,0.0210,0.5024,-25.24,14.51,22.32
1449,63936664,-0.9004,0.0146,0.5073,-27.93,14.57,22.50
1450,63941663,-0.9136,0.0176,0.5059,-30.49,14.82,22.62
1451,63946664,-0.9233,0.0181,0.5054,-33.17,14.88,22.62
1452,63951664,-0.9307,0.0166,0.5083,-35.91,15.18,22.56
1453,63956666,-0.9370,0.0229,0.5093,-38.72,15.55,22.38
1454,63961664,-0.9478,0.0205,0.5015,-41.34,15.85,22.13
1455,63966664,-0.9521,0.0244,0.4990,-43.96,16.40,21.83
1456,63972033,-0.9595,0.0298,0.4961,-46.71,16.83,21.34
1457,63976664,-0.9663,0.0273,0.4961,-49.27,17.56,20.85
1458,63982062,-0.9814,0.0312,0.5010,-51.83,17.99,20.24
1459,63986664,-0.9937,0.0356,0.4990,-54.21,18.72,19.63
1460,63991916,-1.0068,0.0405,0.5029,-56.77,19.21,19.02
1461,63996664,-1.0205,0.0415,0.4941,-59.15,19.94,18.05
1462,64001664,-1.0249,0.0435,0.4893,-61.40,20.73,17.26
1463,64006836,-1.0332,0.0469,0.4927,-63.54,21.71,16.28
1464,64011664,-1.0391,0.0449,0.4888,-65.55,22.38,15.18
1465,64016664,-1.0396,0.0391,0.4966,-67.44,23.05,14.39
1466,64021664,-1.0459,0.0459,0.4941,-69.27,24.02,13.48
1467,64026664,-1.0474,0.0498,0.4951,-70.85,25.00,12.62
1468,64031664,-1.0503,0.0610,0.4956,-72.32,25.98,11.59
1469,64036664,-1.0518,0.0693,0.4922,-73.78,26.71,10.61
1470,64041663,-1.0503,0.0723,0.4897,-75.18,27.68,9.57
1471,64046662,-1.0444,0.0649,0.4824,-76.52,28.48,8.35
1472,64051662,-1.0088,0.0796,0.4526,-77.62,29.27,7.13
1473,64056662,-1.0195,0.0864,0.4741,-78.35,29.94,5.98
1474,64061662,-1.0391,0.1055,0.4839,-78.78,30.73,4.57
1475,64066666,-1.0425,0.1133,0.4653,-79.45,31.22,3.23
1476,64071664,-1.0249,0.1133,0.4526,-79.88,31.52,1.83
1477,64076665,-1.0039,0.1050,0.4473,-80.06,31.71,0.49
1478,64081664,-0.9800,0.0967,0.4458,-79.94,31.95,-0.98
1479,64087088,-0.9590,0.1050,0.4448,-79.76,32.01,-2.44
1480,64091664,-0.9419,0.1152,0.4307,-79.39,32.20,-3.60
1481,64097058,-0.9258,0.1035,0.4321,-78.41,32.26,-5.24
1482,64101664,-0.9204,0.1074,0.4399,-77.68,31.95,-6.16
1483,64106664,-0.9072,0.0938,0.4429,-76.52,31.89,-7.50
1484,64112017,-0.9033,0.0913,0.4409,-74.51,31.59,-8.54
1485,64116665,-0.8999,0.0811,0.4424,-73.05,31.52,-9.15
1486,64121664,-0.8926,0.0713,0.4375,-70.85,31.10,-9.76
1487,64126664,-0.8882,0.0669,0.4336,-68.72,30.73,-10.43
1488,64131662,-0.8887,0.0708,0.4390,-66.34,30.37,-10.79
1489,64136662,-0.8882,0.0713,0.4395,-63.90,29.94,-11.04
1490,64141664,-0.8823,0.0718,0.4385,-61.40,29.33,-11.40
1491,64146663,-0.8765,0.0723,0.4409,-58.90,28.72,-11.59
1492,64151665,-0.8662,0.0708,0.4385,-56.59,28.17,-11.71
1493,64156664,-0.8691,0.0659,0.4438,-54.27,27.44,-11.89
1494,64161664,-0.8735,0.0659,0.4507,-52.07,26.77,-11.83
1495,64167031,-0.8813,0.0630,0.4458,-49.39,25.85,-11.71
1496,64171664,-0.8892,0.0640,0.4473,-47.80,25.24,-11.59
1497,64176927,-0.8965,0.0605,0.4492,-45.12,24.02,-11.22
1498,64181664,-0.8945,0.0630,0.4443,-43.48,23.35,-11.10
1499,64186665,-0.8989,0.0596,0.4531,-41.28,22.56,-10.73
1500,64192146,-0.9082,0.0557,0.4438,-38.60,21.34,-10.49
1501,64196666,-0.9087,0.0537,0.4546,-36.89,20.73,-10.18
1502,64202016,-0.9204,0.0557,0.4512,-34.09,19.76,-9.76
1503,64206664,-0.9282,0.0542,0.4580,-32.13,18.90,-9.51
1504,64212038,-0.9326,0.0557,0.4575,-29.39,17.93,-9.21
1505,64217153,-0.9355,0.0552,0.4561,-27.07,17.26,-8.90
1506,64221664,-0.9360,0.0522,0.4556,-25.06,16.71,-8.90
1507,64226755,-0.9292,0.0557,0.4541,-22.50,15.98,-8.78
1508,64231663,-0.9292,0.0522,0.4575,-19.70,15.18,-8.66
1509,64237142,-0.9268,0.0532,0.4551,-16.40,14.33,-8.66
1510,64241664,-0.9248,0.0449,0.4526,-14.21,13.72,-8.72
1511,64246664,-0.9287,0.0479,0.4570,-11.16,13.17,-8.72
1512,64251663,-0.9263,0.0439,0.4604,-8.17,12.38,-8.72
1513,64256698,-0.9424,0.0454,0.4565,-4.57,11.52,-8.84
1514,64261664,-0.9556,0.0430,0.4590,-2.26,10.91,-8.90
1515,64266664,-0.9746,0.0410,0.4575,0.55,10.12,-9.21
1516,64271664,-1.0044,0.0542,0.4697,3.54,9.45,-9.45
1517,64277089,-1.0474,0.0547,0.4644,6.59,8.35,-10.00
1518,64281664,-1.0791,0.0566,0.4678,8.54,7.50,-10.49
1519,64286664,-1.1211,0.0645,0.4678,11.10,6.28,-11.22
1520,64291664,-1.1475,0.0679,0.4658,12.56,5.49,-11.83
1521,64297089,-1.1489,0.0728,0.4629,14.70,3.90,-12.93
1522,64301664,-1.1646,0.0747,0.4531,16.46,3.29,-13.66
1523,64306664,-1.1655,0.0806,0.4536,18.35,2.38,-14.63
1524,64311664,-1.1641,0.0815,0.4502,20.30,1.22,-15.67
1525,64316664,-1.1348,0.0820,0.4448,22.74,0.18,-16.95
1526,64321664,-1.1006,0.0786,0.4370,24.51,-0.79,-17.74
1527,64326665,-1.0449,0.0713,0.4375,27.26,-2.07,-18.60
1528,64331664,-1.0117,0.0723,0.4346,29.39,-2.80,-19.27
1529,64336664,-0.9824,0.0698,0.4355,32.26,-3.66,-19.88
1530,64341663,-0.9590,0.0649,0.4370,35.37,-4.51,-20.12
1531,64346662,-0.9429,0.0635,0.4272,38.35,-5.43,-20.49
1532,64351663,-0.9272,0.0659,0.4189,41.40,-6.16,-20.37
1533,64356662,-0.9150,0.0649,0.4180,44.51,-7.38,-20.37
1534,64361662,-0.9077,0.0669,0.4150,47.68,-8.48,-20.12
1535,64366662,-0.9014,0.0664,0.4077,50.67,-9.45,-19.82
1536,64371665,-0.8979,0.0679,0.4077,53.66,-10.61,-19.33
1537,64376664,-0.8999,0.0684,0.4126,56.28,-11.71,-18.78
1538,64382012,-0.8931,0.0664,0.4038,59.45,-12.99,-18.11
1539,64386665,-0.8901,0.0625,0.4092,61.40,-13.60,-17.50
1540,64391664,-0.8965,0.0649,0.4067,63.60,-14.51,-16.59
1541,64396706,-0.9028,0.0610,0.4077,65.85,-15.37,-15.79
1542,64401663,-0.9155,0.0586,0.4106,67.80,-16.22,-14.76
1543,64407104,-0.9307,0.0552,0.4111,70.12,-17.38,-13.54
1544,64411664,-0.9429,0.0449,0.4106,71.46,-18.05,-12.44
1545,64416664,-0.9668,0.0391,0.4072,73.29,-18.96,-11.04
1546,64421664,-0.9727,0.0376,0.4131,74.45,-19.63,-9.88
1547,64427146,-0.9863,0.0332,0.4072,76.28,-20.61,-8.23
1548,64431770,-0.9873,0.0254,0.4028,77.13,-21.04,-7.13
1549,64436664,-0.9878,0.0259,0.3994,78.17,-21.83,-5.73
1550,64442130,-0.9927,0.0200,0.4116,79.33,-22.56,-3.90
1551,64446664,-0.9868,0.0161,0.4048,79.76,-22.80,-2.68
1552,64451664,-0.9922,0.0166,0.4038,80.43,-23.29,-1.22
1553,64456731,-0.9932,0.0112,0.4023,81.10,-23.84,0.49
1554,64461666,-0.9839,0.0015,0.3975,81.46,-24.15,2.01
1555,64466663,-0.9771,-0.0039,0.3936,81.89,-24.21,3.66
1556,64472069,-0.9692,-0.0098,0.3921,82.26,-24.70,5.49
1557,64476664,-0.9580,-0.0142,0.3804,82.32,-24.82,7.32
1558,64482142,-0.9370,-0.0225,0.3770,82.68,-25.18,9.57
1559,64486664,-0.9229,-0.0249,0.3779,82.80,-25.30,11.04
1560,64491664,-0.9048,-0.0220,0.3760,82.99,-25.43,13.23
1561,64496664,-0.8804,-0.0732,0.3955,83.11,-25.67,14.70
1562,64501664,-0.8379,-0.1768,0.4346,85.12,-26.04,16.10
1563,64506664,-0.8032,-0.2773,0.4858,90.43,-26.71,16.77
1564,64512160,-0.8013,-0.3530,0.5244,101.22,-28.11,16.65
1565,64516664,-0.8193,-0.3555,0.5405,109.82,-29.33,16.10
1566,64521664,-0.8457,-0.3555,0.5400,120.98,-31.40,15.12
1567,64526664,-0.8721,-0.3501,0.5522,131.59,-33.41,14.02
1568,64531664,-0.9004,-0.3252,0.5386,141.46,-35.61,12.87
1569,64537152,-0.9209,-0.2871,0.5288,150.00,-37.99,11.83
1570,64541664,-0.9385,-0.2471,0.5146,156.95,-40.18,10.91
1571,64547067,-0.9399,-0.2051,0.5063,162.07,-42.20,10.37
1572,64551664,-0.9185,-0.1606,0.4946,165.30,-43.84,10.12
1573,64556663,-0.9512,-0.1348,0.4673,166.83,-45.12,10.18
1574,64561665,-0.9868,-0.1230,0.4438,166.71,-45.91,10.85
1575,64566664,-1.0137,-0.1328,0.4302,165.00,-46.46,11.95
1576,64571664,-1.0312,-0.1729,0.4209,161.83,-46.46,13.78
1577,64576664,-1.0405,-0.2119,0.4136,157.20,-46.22,16.10
1578,64581664,-1.0356,-0.2549,0.3989,151.28,-45.61,19.15
1579,64586664,-0.9756,-0.3032,0.3584,143.90,-44.45,22.68
1580,64591664,-0.9858,-0.3442,0.3877,135.85,-43.23,26.71
1581,64596952,-1.0381,-0.3525,0.4297,127.01,-41.28,30.91
1582,64601664,-1.0815,-0.3354,0.4087,116.89,-39.02,34.94
1583,64606664,-1.0913,-0.3179,0.3799,105.73,-36.95,38.66
1584,64612007,-1.0659,-0.2939,0.3574,93.84,-35.24,41.95
1585,64616664,-0.9409,-0.2803,0.2959,81.40,-33.72,44.76
1586,64621664,-0.9326,-0.2910,0.3379,69.21,-32.44,47.50
1587,64626664,-0.9888,-0.2495,0.4219,56.52,-30.49,49.94
1588,64631664,-1.0376,-0.1880,0.4106,43.48,-28.48,51.89
1589,64636664,-1.0327,-0.1484,0.3691,30.73,-26.40,53.05
1590,64641663,-1.0215,-0.0942,0.3398,18.41,-24.51,53.84
1591,64646664,-0.9937,-0.0557,0.3291,6.46,-23.17,54.02
1592,64651662,-0.9058,-0.0449,0.3101,-5.18,-21.89,53.96
1593,64656663,-0.8994,-0.0415,0.3096,-15.55,-20.91,53.66
1594,64662430,-0.9463,-0.0171,0.3403,-27.38,-18.84,53.23
1595,64666666,-0.9609,-0.0239,0.3555,-34.76,-17.50,52.80
1596,64671663,-0.9614,-0.0146,0.3276,-43.41,-16.10,52.20
1597,64677098,-0.9385,-0.0024,0.3164,-51.16,-14.82,51.52
1598,64681664,-0.9229,0.0107,0.3228,-58.29,-13.41,50.73
1599,64686666,-0.9038,0.0225,0.3379,-64.45,-11.95,49.82
1600,64691664,-0.8916,0.0244,0.3286,-69.94,-10.61,49.02
1601,64696666,-0.8906,0.0205,0.3232,-74.82,-9.33,48.11
1602,64701664,-0.8936,0.0156,0.3501,-78.96,-7.68,47.32
1603,64706664,-0.8926,0.0166,0.3613,-82.56,-6.10,46.34
1604,64712061,-0.8975,0.0215,0.3560,-85.67,-4.33,45.37
1605,64716664,-0.8892,0.0322,0.3623,-88.41,-2.56,44.51
1606,64722153,-0.8867,0.0488,0.3794,-90.55,-0.49,43.35
1607,64726664,-0.8813,0.0679,0.3779,-92.62,1.34,42.13
1608,64732091,-0.8784,0.0684,0.3696,-94.27,3.23,40.98
1609,64736664,-0.8735,0.0649,0.3813,-95.67,5.37,39.63
1610,64741664,-0.8682,0.0605,0.3979,-96.77,7.32,38.41
1611,64746664,-0.8701,0.0767,0.3838,-97.68,9.51,37.13
1612,64752130,-0.8706,0.0840,0.3784,-98.54,11.52,35.79
1613,64756664,-0.8750,0.0894,0.3877,-99.33,13.48,34.39
1614,64761663,-0.8721,0.0903,0.3926,-100.00,15.43,32.87
1615,64766665,-0.8730,0.0981,0.3784,-100.55,17.44,31.59
1616,64771664,-0.8672,0.1016,0.3667,-101.22,19.45,30.12
1617,64776664,-0.8613,0.0991,0.3701,-101.71,21.16,28.72
1618,64781664,-0.8589,0.0952,0.3770,-102.20,22.80,27.38
1619,64787056,-0.8584,0.0928,0.3687,-102.56,24.33,26.16
1620,64791664,-0.8594,0.0903,0.3657,-102.80,25.73,24.94
1621,64797092,-0.8574,0.0854,0.3696,-102.87,27.50,23.78
1622,64801664,-0.8584,0.0786,0.3706,-102.68,28.78,22.74
1623,64807066,-0.8613,0.0771,0.3608,-102.32,30.06,21.77
1624,64811664,-0.8623,0.0718,0.3589,-101.95,31.28,21.10
1625,64817147,-0.8721,0.0601,0.3711,-101.16,32.44,20.55
1626,64821664,-0.8711,0.0522,0.3711,-100.30,33.60,19.82
1627,64827009,-0.8779,0.0391,0.3716,-99.27,34.63,19.45
1628,64831664,-0.8794,0.0273,0.3809,-97.99,35.61,19.33
1629,64836814,-0.8853,0.0171,0.3843,-96.40,36.46,19.15
1630,64841664,-0.8857,0.0029,0.4224,-94.57,37.20,19.21
1631,64847014,-0.8862,-0.0298,0.4746,-90.67,37.93,19.33
1632,64851664,-0.8828,-0.0698,0.5371,-83.35,38.60,19.57
1633,64856664,-0.8970,-0.1152,0.6035,-71.65,37.99,19.94
1634,64861664,-0.8994,-0.1523,0.6177,-57.07,37.07,20.06
1635,64866663,-0.9072,-0.1909,0.6006,-42.38,35.55,19.76
1636,64872083,-0.9126,-0.2139,0.5854,-28.11,34.02,18.96
1637,64876665,-0.9136,-0.2192,0.5933,-14.82,31.71,17.56
1638,64882161,-0.9453,-0.2114,0.5908,-2.68,29.39,15.91
1639,64886664,-0.9805,-0.1914,0.5659,8.17,27.07,13.72
1640,64892160,-1.0049,-0.1680,0.5513,17.50,24.70,11.28
1641,64896664,-1.0000,-0.1450,0.5269,25.24,22.13,8.66
1642,64902161,-1.0059,-0.1260,0.5107,31.52,19.82,6.10
1643,64906664,-1.0210,-0.1030,0.4946,36.28,17.50,3.60
1644,64911664,-1.0298,-0.0825,0.4766,39.45,15.18,0.98
1645,64916664,-1.0303,-0.0605,0.4629,41.40,13.17,-1.52
1646,64921667,-1.0269,-0.0435,0.4448,42.32,11.46,-3.78
1647,64926664,-1.0205,-0.0195,0.4209,42.07,9.82,-5.79
1648,64931995,-1.0122,-0.0103,0.4126,41.16,8.35,-7.56
1649,64936664,-1.0107,-0.0059,0.3867,39.57,6.71,-9.02
1650,64941663,-1.0098,0.0103,0.3867,37.56,5.00,-9.94
1651,64946662,-1.0063,0.0337,0.3882,34.76,3.78,-10.61
1652,64951664,-1.0049,0.0366,0.3721,31.71,2.74,-11.40
1653,64956664,-0.9961,0.0474,0.3862,28.48,1.95,-11.77
1654,64961665,-0.9785,0.0581,0.3823,25.12,1.46,-12.01
1655,64966755,-0.9668,0.0659,0.3818,21.59,1.10,-12.20
1656,64971662,-0.9663,0.0708,0.3843,18.96,0.85,-12.20
1657,64976666,-0.9604,0.0684,0.3789,15.00,0.79,-11.95
1658,64981664,-0.9585,0.0723,0.3813,11.65,0.79,-11.71
1659,64986664,-0.9497,0.0762,0.3735,9.09,0.79,-11.40
1660,64991664,-0.9424,0.0757,0.3701,5.12,0.79,-10.61
1661,64996664,-0.9380,0.0732,0.3779,2.87,0.85,-10.00
1662,65002146,-0.9297,0.0767,0.3823,-0.67,0.85,-9.27
1663,65006664,-0.9233,0.0781,0.3794,-2.93,0.98,-8.72
1664,65011664,-0.9268,0.0815,0.3813,-5.85,1.16,-7.93
1665,65016664,-0.9155,0.0845,0.3867,-8.48,1.34,-7.20
1666,65021951,-0.9185,0.0850,0.3848,-11.89,1.52,-6.22
1667,65026664,-0.9229,0.0869,0.3809,-14.02,1.71,-5.49
1668,65032149,-0.9253,0.0898,0.3843,-17.32,1.83,-4.63
1669,65036664,-0.9243,0.0923,0.3804,-19.45,1.95,-4.09
1670,65042224,-0.9282,0.1040,0.3809,-22.68,2.07,-3.29
1671,65046664,-0.9307,0.1079,0.3745,-24.76,2.07,-2.87
1672,65051664,-0.9297,0.1069,0.3804,-27.26,2.26,-2.26
1673,65056664,-0.9312,0.1123,0.3843,-29.82,2.44,-1.77
1674,65061663,-0.9302,0.1138,0.3799,-32.13,2.56,-1.34
1675,65066776,-0.9263,0.1143,0.3755,-34.70,2.80,-0.85
1676,65071704,-0.9316,0.1118,0.3789,-36.22,2.80,-0.55
1677,65076666,-0.9409,0.1099,0.3862,-37.99,2.93,-0.12
1678,65081663,-0.9468,0.1079,0.3804,-39.82,2.99,0.37
1679,65086664,-0.9487,0.1050,0.3833,-40.67,3.23,0.67
1680,65092007,-0.9526,0.1021,0.3833,-41.89,3.48,1.28
1681,65096664,-0.9565,0.1001,0.3833,-42.56,3.66,1.71
1682,65101664,-0.9575,0.0967,0.3867,-43.05,3.78,2.26
1683,65106664,-0.9595,0.1035,0.3921,-43.35,3.96,2.50
1684,65111664,-0.9668,0.0967,0.3940,-43.35,4.15,2.99
1685,65116664,-0.9727,0.0947,0.3989,-43.35,4.27,3.48
1686,65121662,-0.9741,0.0938,0.3979,-43.05,4.39,3.84
1687,65126662,-0.9775,0.0923,0.4048,-42.93,4.45,4.33
1688,65131664,-0.9736,0.0835,0.4106,-42.44,4.27,4.88
1689,65136664,-0.9727,0.0781,0.4111,-41.83,4.33,5.37
1690,65142140,-0.9678,0.0767,0.4067,-41.28,4.09,5.85
1691,65146664,-0.9644,0.0757,0.4111,-40.73,3.78,6.22
1692,65151664,-0.9595,0.0679,0.4131,-39.88,3.54,6.77
1693,65156664,-0.9546,0.0659,0.4180,-38.96,3.23,7.07
1694,65162165,-0.9478,0.0601,0.4155,-37.68,2.80,7.50
1695,65166664,-0.9419,0.0596,0.4150,-36.77,2.56,7.80
1696,65171664,-0.9370,0.0630,0.4165,-35.49,2.13,8.11
1697,65176664,-0.9287,0.0625,0.4116,-34.15,1.59,8.23
1698,65181665,-0.9253,0.0605,0.4146,-32.44,1.10,8.35
1699,65186664,-0.9180,0.0586,0.4219,-30.49,0.67,8.29
1700,65192158,-0.9126,0.0522,0.4204,-27.80,0.06,8.35
1701,65196666,-0.9058,0.0503,0.4214,-25.73,-0.30,8.35
1702,65202081,-0.8960,0.0488,0.4233,-22.50,-0.73,8.17
1703,65206664,-0.8911,0.0459,0.4233,-20.12,-0.98,8.23
1704,65211664,-0.8750,0.0420,0.4209,-16.83,-1.65,8.05
1705,65216664,-0.8765,0.0464,0.4312,-13.29,-1.89,7.99
1706,65222006,-0.8789,0.0454,0.4365,-9.15,-2.07,7.80
1707,65226664,-0.8564,0.0518,0.4302,-6.65,-2.20,7.68
1708,65231945,-0.8345,0.0566,0.4243,-3.17,-2.56,7.20
1709,65236664,-0.8564,0.0479,0.4370,-0.06,-2.87,6.65
1710,65241664,-0.8838,0.0425,0.4424,2.87,-3.11,6.22
1711,65246663,-0.8911,0.0435,0.4512,5.85,-3.23,5.79
1712,65251662,-0.8936,0.0415,0.4463,8.72,-3.29,5.43
1713,65256664,-0.9062,0.0439,0.4565,11.34,-3.35,5.06
1714,65261663,-0.9150,0.0342,0.4663,14.15,-3.41,4.82
1715,65266664,-0.9116,0.0337,0.4761,16.40,-3.41,4.45
1716,65271664,-0.9512,0.0391,0.4614,18.60,-3.66,4.27
1717,65276666,-0.9731,0.0332,0.4668,20.67,-3.72,4.09
1718,65281667,-0.9810,0.0342,0.4814,22.99,-3.78,3.84
1719,65286664,-0.9800,0.0352,0.4932,24.21,-3.90,3.66
1720,65292002,-0.9668,0.0376,0.4941,25.85,-3.96,3.48
1721,65296664,-0.9663,0.0400,0.4966,27.50,-4.02,3.41
1722,65302147,-0.9619,0.0376,0.4966,29.39,-4.33,3.29
1723,65306664,-0.9653,0.0391,0.4990,30.55,-4.57,3.17
1724,65311667,-0.9648,0.0464,0.4927,32.32,-5.18,3.11
1725,65316664,-0.9629,0.0522,0.4961,33.41,-5.67,2.93
1726,65321664,-0.9575,0.0581,0.4990,34.70,-6.16,2.74
1727,65326664,-0.9536,0.0698,0.4995,36.22,-6.71,2.50
1728,65332023,-0.9468,0.0771,0.5005,37.50,-7.44,2.20
1729,65336664,-0.9365,0.0874,0.5073,38.78,-8.23,1.77
1730,65342147,-0.9268,0.0845,0.5146,40.49,-8.78,1.28
1731,65346664,-0.9180,0.0869,0.5093,41.59,-9.45,0.85
1732,65351998,-0.9146,0.0952,0.5142,42.93,-10.24,0.43
1733,65356664,-0.9087,0.0923,0.5107,44.45,-11.10,-0.12
1734,65361775,-0.9097,0.0933,0.5225,45.85,-11.95,-0.67
1735,65366664,-0.9106,0.0903,0.5269,47.32,-12.68,-1.10
1736,65371664,-0.9009,0.0874,0.5225,48.48,-13.60,-1.71
1737,65376663,-0.8643,0.0723,0.5298,49.82,-14.39,-2.13
1738,65381664,-0.8403,0.0664,0.5264,51.16,-15.06,-2.44
1739,65386665,-0.8135,0.0698,0.5308,52.56,-15.73,-2.50
1740,65391664,-0.8628,0.0864,0.5254,53.78,-16.46,-2.87
1741,65396664,-0.8960,0.1006,0.5264,54.51,-17.13,-3.35
1742,65402026,-0.9023,0.1055,0.5342,55.00,-17.74,-4.02
1743,65406662,-0.9033,0.1079,0.5464,55.43,-18.29,-4.88
1744,65411664,-0.9087,0.1201,0.5488,55.43,-19.02,-5.67
1745,65416662,-0.9233,0.1299,0.5449,55.73,-19.70,-6.52
1746,65421704,-0.9321,0.1431,0.5479,55.73,-20.37,-7.62
1747,65426663,-0.9414,0.1514,0.5483,55.73,-21.04,-8.90
1748,65431666,-0.9492,0.1572,0.5557,55.91,-21.89,-10.30
1749,65436664,-0.9731,0.1636,0.5679,55.98,-22.38,-11.71
1750,65442148,-0.9941,0.1680,0.5737,56.34,-23.11,-13.17
1751,65446664,-0.9990,0.1963,0.5669,56.89,-23.41,-14.63
1752,65451664,-1.0000,0.2041,0.5757,57.68,-23.78,-16.40
1753,65456664,-1.0024,0.1963,0.5776,58.96,-24.27,-18.05
1754,65461664,-0.9844,0.1851,0.5801,60.98,-24.39,-19.70
1755,65466664,-0.9624,0.1860,0.5786,63.41,-24.70,-20.98
1756,65471664,-0.9399,0.1885,0.5757,66.10,-25.06,-22.32
1757,65476663,-0.9136,0.1948,0.5786,69.45,-25.43,-23.54
1758,65481664,-0.8779,0.1846,0.5713,73.11,-25.67,-24.70
1759,65486664,-0.8633,0.1816,0.5894,77.56,-25.85,-25.49
1760,65491666,-0.8755,0.1797,0.5918,82.07,-25.91,-26.04
1761,65496664,-0.8896,0.1719,0.5952,87.32,-26.04,-26.65
1762,65501664,-0.9204,0.1738,0.5840,93.11,-26.34,-27.07
1763,65506831,-0.9409,0.1821,0.5703,98.96,-26.22,-27.50
1764,65511878,-0.9414,0.1870,0.5952,105.37,-26.71,-27.80
1765,65516664,-0.9365,0.1919,0.5957,112.07,-26.77,-28.17
1766,65521664,-0.9385,0.2056,0.6055,119.39,-26.52,-28.23
1767,65526664,-0.9375,0.2041,0.6128,127.74,-26.40,-28.35
1768,65531664,-0.9365,0.1919,0.6206,134.15,-25.91,-28.29
1769,65536664,-0.9258,0.1836,0.6211,141.89,-25.30,-28.05
1770,65541663,-0.9263,0.1914,0.6294,149.76,-24.57,-27.87
1771,65546664,-0.9253,0.1875,0.6079,157.93,-23.72,-27.74
1772,65551663,-0.9321,0.1919,0.6099,166.22,-22.99,-27.26
1773,65556662,-0.9248,0.2017,0.6421,174.51,-22.01,-26.83
1774,65561662,-0.9336,0.1709,0.5566,182.74,-20.79,-26.28
1775,65566772,-0.9390,0.1895,0.6016,191.52,-20.30,-25.49
1776,65571664,-0.9561,0.1865,0.6387,200.18,-19.27,-25.06
1777,65576665,-0.9624,0.2007,0.5659,209.15,-18.96,-24.45
1778,65581663,-0.9395,0.3198,0.6123,217.68,-17.80,-24.33
1779,65587035,-0.9565,0.2168,0.4404,225.18,-15.37,-24.63
1780,65591665,-0.9702,0.1943,0.6055,233.05,-15.30,-24.21
1781,65597010,-0.9624,0.2163,0.5962,241.04,-15.55,-23.84
1782,65601664,-0.8535,0.3423,0.5918,247.87,-13.96,-24.27
1783,65606664,-0.8608,0.3613,0.4536,252.93,-10.73,-25.85
1784,65611664,-0.8828,0.3662,0.5957,257.38,-8.54,-27.50
1785,65616665,-0.9111,0.3540,0.5864,261.46,-7.01,-29.33
1786,65621664,-0.9146,0.2778,0.3599,265.30,-5.18,-31.04
1787,65626996,-0.9282,0.2510,0.3574,268.05,-3.60,-32.01
1788,65631664,-0.9639,0.2847,0.5024,270.43,-2.99,-33.17
1789,65636664,-0.9873,0.2798,0.4170,272.38,-2.93,-34.39
1790,65641664,-1.0181,0.2559,0.2202,274.27,-2.50,-35.24
1791,65646663,-1.0571,0.2217,0.2441,275.79,-2.44,-35.73
1792,65652065,-1.0747,0.1865,0.3828,276.71,-3.11,-36.28
1793,65656664,-1.1133,0.1719,0.3052,277.01,-3.60,-36.40
1794,65661784,-1.1377,0.1416,0.1494,277.01,-3.60,-36.65
1795,65666664,-1.1768,0.1128,0.1987,276.89,-4.21,-36.59
1796,65671664,-1.2158,0.0981,0.2847,276.46,-5.61,-36.10
1797,65676667,-1.2466,0.0879,0.1636,276.04,-6.77,-35.49
1798,65681664,-1.2607,0.0625,0.0684,275.30,-7.62,-34.57
1799,65686663,-1.2603,0.0474,0.1729,274.15,-9.09,-33.48
1800,65691665,-1.2349,0.0396,0.2329,272.56,-10.91,-32.13
1801,65696666,-1.1875,0.0381,0.1211,270.18,-12.13,-30.79
1802,65701666,-1.1411,0.0449,0.0776,267.01,-13.23,-29.57
1803,65706663,-1.1177,0.0620,0.1733,262.99,-14.88,-28.35
1804,65711664,-1.0869,0.0884,0.1938,258.17,-16.46,-27.50
1805,65716664,-1.0669,0.1006,0.0903,252.62,-17.80,-26.77
1806,65722000,-1.0649,0.0986,0.0806,246.34,-19.02,-25.98
1807,65726664,-1.0825,0.0996,0.1724,239.76,-20.67,-25.30
1808,65731664,-1.0522,0.0962,0.1587,232.99,-22.26,-24.45
1809,65737016,-1.0649,0.0864,0.0884,226.16,-23.29,-23.54
1810,65741664,-1.0791,0.0757,0.1255,219.09,-24.02,-22.56
1811,65746664,-1.0840,0.0752,0.2402,211.71,-24.88,-21.52
1812,65751664,-1.0854,0.0752,0.2080,204.45,-25.49,-20.49
1813,65756664,-1.0845,0.0786,0.1240,196.95,-25.67,-19.51
1814,65761666,-1.0820,0.0703,0.1655,189.57,-26.10,-18.23
1815,65766673,-1.0791,0.0669,0.2417,182.26,-26.65,-17.13
1816,65771663,-1.0693,0.0654,0.1724,175.18,-27.01,-15.91
1817,65776664,-1.0625,0.0527,0.1099,168.35,-26.89,-14.57
1818,65781664,-1.0747,0.0352,0.1738,161.95,-27.13,-12.99
1819,65786664,-1.0908,0.0073,0.2515,155.91,-27.26,-11.34
1820,65791666,-1.0933,0.0034,0.1987,150.18,-27.07,-9.57
1821,65796663,-1.0908,0.0117,0.1743,144.57,-26.52,-7.56
1822,65801664,-1.0942,0.0210,0.2466,139.39,-25.67,-5.67
1823,65806663,-1.0874,0.0186,0.2764,134.45,-25.12,-3.78
1824,65811927,-1.0674,0.0088,0.2007,129.15,-24.21,-1.77
1825,65816664,-1.0405,0.0269,0.2031,125.79,-23.11,0.24
1826,65821664,-1.0259,0.0469,0.2769,121.59,-21.95,2.07
1827,65826664,-1.0220,0.0586,0.2720,117.99,-21.10,3.72
1828,65831664,-1.0063,0.0518,0.2017,114.94,-19.57,5.24
1829,65836663,-0.9585,0.0581,0.2134,112.38,-18.35,6.89
1830,65842221,-0.9028,0.0835,0.2476,110.12,-17.62,8.11
1831,65846664,-0.8779,0.1030,0.1938,108.29,-16.59,9.27
1832,65851663,-0.8516,0.1138,0.1099,107.07,-16.04,10.37
1833,65856664,-0.8228,0.1025,0.1460,106.52,-15.43,11.34
1834,65861664,-0.8022,0.0806,0.1890,106.46,-15.00,12.50
1835,65866666,-0.7891,0.0566,0.1553,106.59,-14.45,13.96
1836,65871663,-0.7783,0.0220,0.1426,107.44,-13.60,15.37
1837,65876664,-0.5347,0.0444,0.4360,109.63,-11.77,16.71
1838,65881669,-0.4131,-0.0220,0.6196,113.78,-8.05,18.35
1839,65886664,-0.2578,-0.1709,1.3813,117.44,-1.83,20.67
1840,65891663,0.0337,-0.1152,2.3525,118.41,20.37,24.21
1841,65896666,-0.0464,0.0825,1.7407,118.35,42.26,26.71
1842,65901663,-0.2305,0.2788,1.1807,118.17,55.43,26.83
1843,65906664,-0.4653,0.2593,0.6367,117.68,64.21,25.85
1844,65911664,-0.6392,0.2832,0.4424,116.52,70.12,24.94
1845,65917148,-0.7324,0.3496,0.4995,114.63,73.72,23.23
1846,65921664,-0.7690,0.4307,0.4004,112.62,76.16,21.04
1847,65926955,-0.7954,0.5791,0.1606,110.37,78.48,17.99
1848,65931664,-0.8291,0.6333,0.1104,107.38,79.82,13.78
1849,65936664,-0.8535,0.5532,0.1943,104.09,79.21,9.94
1850,65941851,-0.8496,0.3574,0.0820,100.85,78.60,7.20
1851,65946664,-0.8599,0.1987,-0.0854,98.11,77.80,6.34
1852,65952068,-0.7695,0.1553,0.0576,96.28,76.40,6.65
1853,65956664,-0.6616,0.2041,0.2490,95.18,75.24,6.83
1854,65962041,-0.5908,0.2612,0.1958,94.63,75.61,6.40
1855,65966664,-0.5474,0.3032,0.1226,94.21,76.89,5.37
1856,65971664,-0.5571,0.3491,0.2446,93.35,78.11,3.72
1857,65976664,-0.5352,0.3418,0.3013,92.26,78.84,1.83
1858,65981664,-0.4780,0.2783,0.1274,91.83,80.00,0.06
1859,65986664,-0.4243,0.2236,0.0146,91.77,80.73,-1.16
1860,65991663,-0.4233,0.2090,0.1426,91.95,80.18,-2.20
1861,65996664,-0.4888,0.2168,0.1528,92.50,80.06,-3.41
1862,66001663,-0.5107,0.2407,0.0430,93.23,80.85,-4.39
1863,66006665,-0.5815,0.1416,0.0352,93.41,81.77,-5.43
1864,66011664,-0.6455,0.0898,0.0908,93.17,82.32,-5.67
1865,66016665,-0.7505,-0.0034,-0.0356,91.89,81.46,-5.00
1866,66021664,-0.8774,-0.0894,-0.2388,89.63,80.00,-3.35
1867,66026664,-1.0024,-0.0815,-0.1978,88.05,78.17,-1.46
1868,66031665,-1.1665,-0.0615,-0.2896,86.28,74.63,0.43
1869,66036738,-1.3418,-0.1816,-0.4517,83.90,69.45,3.41
1870,66041664,-1.3623,-0.1509,-0.4727,82.68,65.91,6.22
1871,66046664,-1.2407,-0.0225,-0.2363,82.44,61.89,8.90
1872,66052096,-1.0830,0.1289,-0.0361,84.76,59.63,10.61
1873,66056664,-0.9849,0.2085,-0.0933,87.13,59.51,10.73
1874,66061970,-0.8799,0.2139,-0.1191,91.52,59.63,10.12
1875,66066664,-0.8325,0.1987,-0.0771,94.88,58.90,9.82
1876,66071664,-0.7827,0.2412,-0.2080,100.06,57.07,9.33
1877,66076664,-0.7534,0.4888,-0.4858,105.91,54.88,7.74
1878,66081664,-0.7148,0.3911,-0.2715,112.38,49.94,4.63
1879,66086664,-0.7812,0.3413,-0.0708,120.91,46.95,1.77
1880,66091664,-0.8667,0.3530,-0.0083,127.01,46.95,-0.06
1881,66096664,-0.9878,0.3545,0.0347,134.27,49.21,-3.48
1882,66101664,-1.0596,0.4121,0.1035,139.88,50.79,-6.10
1883,66106664,-1.1387,0.4014,0.0024,146.65,52.20,-9.27
1884,66111664,-1.1885,0.3530,-0.1196,152.74,53.11,-12.26
1885,66116667,-1.1885,0.3135,-0.1387,158.11,53.11,-15.06
1886,66121664,-1.1240,0.3076,-0.1865,162.93,51.59,-18.11
1887,66126664,-1.1118,0.2437,-0.1431,164.82,50.37,-19.82
1888,66131664,-1.1045,0.2310,-0.1021,165.12,49.63,-21.59
1889,66136664,-1.1001,0.2285,-0.0337,163.90,49.45,-23.17
1890,66141666,-1.1270,0.2031,-0.0581,161.04,49.33,-24.27
1891,66146663,-1.1553,0.1895,-0.1255,157.13,48.60,-24.94
1892,66151662,-1.1426,0.1689,-0.1357,152.38,47.87,-25.37
1893,66156662,-1.1245,0.1665,-0.0977,147.07,47.26,-25.73
1894,66161662,-1.1279,0.1719,-0.0898,141.16,46.59,-26.16
1895,66166663,-1.1274,0.1655,-0.1299,134.94,46.04,-26.83
1896,66171666,-1.1304,0.1753,-0.1323,128.78,45.55,-27.32
1897,66176663,-1.1260,0.2041,-0.0576,122.44,45.06,-27.80
1898,66181664,-1.1519,0.2373,-0.0103,115.73,46.22,-28.60
1899,66186663,-1.1753,0.2134,-0.1650,109.02,45.91,-29.27
1900,66191679,-1.1641,0.2114,-0.1719,102.13,46.10,-29.70
1901,66196662,-1.1499,0.1812,-0.1064,94.82,46.46,-30.18
1902,66201696,-1.1133,0.1768,-0.0483,87.80,45.98,-30.67
1903,66206664,-1.0698,0.1587,-0.1636,80.79,46.34,-31.28
1904,66212137,-1.0718,0.1445,-0.1919,72.44,46.22,-31.77
1905,66216664,-1.0864,0.1772,-0.1357,66.52,45.85,-32.07
1906,66222145,-1.1123,0.1743,-0.1138,57.44,45.37,-32.56
1907,66226664,-1.1143,0.1855,-0.1636,51.28,45.18,-32.87
1908,66231664,-1.1050,0.1816,-0.1519,43.48,45.24,-33.29
1909,66236663,-1.0605,0.1777,-0.0913,36.04,45.49,-34.02
1910,66242101,-1.0249,0.1660,-0.1001,27.26,45.30,-34.63
1911,66247098,-1.0371,0.1538,-0.1309,20.24,45.12,-35.18
1912,66251664,-1.0571,0.1699,-0.1514,14.88,44.94,-35.61
1913,66256841,-1.0684,0.1709,-0.1187,8.35,44.94,-36.22
1914,66261664,-1.0674,0.1738,-0.1206,2.38,44.76,-36.89
1915,66266668,-1.0522,0.1694,-0.1250,-3.96,44.70,-37.50
1916,66271664,-1.0415,0.1685,-0.1333,-7.80,44.57,-37.99
1917,66276664,-1.0298,0.1670,-0.1123,-12.13,44.51,-38.60
1918,66281937,-1.0098,0.1636,-0.1187,-16.46,44.45,-39.45
1919,66286664,-1.0010,0.1597,-0.1372,-18.84,44.51,-39.88
1920,66291664,-1.0034,0.1646,-0.1411,-21.40,44.02,-40.37
1921,66296663,-1.0024,0.1685,-0.1392,-23.11,43.84,-41.04
1922,66301666,-1.0117,0.1689,-0.1504,-24.51,43.41,-41.77
1923,66307037,-1.0088,0.1655,-0.1582,-25.67,42.87,-42.50
1924,66311664,-1.0151,0.1704,-0.1631,-26.10,42.32,-43.05
1925,66316664,-1.0249,0.1689,-0.1680,-26.34,41.77,-43.84
1926,66322137,-1.0229,0.1680,-0.1626,-26.10,41.10,-44.63
1927,66326664,-1.0190,0.1694,-0.1641,-25.67,40.67,-45.30
1928,66331664,-1.0166,0.1714,-0.1592,-25.00,39.88,-46.04
1929,66336976,-1.0127,0.1650,-0.1738,-24.02,39.15,-46.95
1930,66341664,-1.0122,0.1670,-0.1753,-23.05,38.41,-47.56
1931,66346664,-1.0151,0.1621,-0.1812,-21.89,37.74,-48.29
1932,66351664,-1.0176,0.1489,-0.1816,-20.61,36.89,-48.96
1933,66356664,-1.0132,0.1445,-0.1978,-19.09,35.85,-49.33
1934,66361664,-1.0083,0.1396,-0.1914,-17.62,34.70,-49.82
1935,66367116,-0.9946,0.1313,-0.2153,-15.61,33.41,-50.18
1936,66371664,-0.9971,0.1309,-0.2061,-14.09,32.32,-50.30
1937,66376663,-0.9927,0.1318,-0.2090,-12.38,30.85,-50.49
1938,66381666,-0.9937,0.1328,-0.2109,-10.55,29.51,-50.67
1939,66386731,-0.9956,0.1377,-0.2163,-8.78,27.87,-50.73
1940,66391664,-1.0005,0.1372,-0.2158,-7.07,26.59,-51.10
1941,66396665,-0.9941,0.1416,-0.2212,-5.55,25.24,-51.34
1942,66401664,-0.9951,0.1396,-0.2266,-4.21,23.78,-51.71
1943,66406665,-0.9941,0.1416,-0.2251,-2.87,22.26,-52.13
1944,66411664,-0.9917,0.1406,-0.2246,-1.95,20.85,-52.44
1945,66416664,-1.0000,0.1411,-0.2378,-1.16,19.51,-52.87
1946,66421664,-1.0015,0.1348,-0.2407,-0.67,18.29,-53.29
1947,66427146,-1.0107,0.1343,-0.2451,-0.37,16.71,-53.78
1948,66431664,-1.0166,0.1323,-0.2505,-0.37,15.79,-54.15
1949,66436664,-1.0215,0.1304,-0.2510,-0.37,14.45,-54.33
1950,66441663,-1.0200,0.1245,-0.2642,-0.73,13.48,-54.63
1951,66446696,-1.0181,0.1196,-0.2627,-1.34,12.26,-54.76
1952,66451662,-1.0146,0.1123,-0.2666,-2.13,11.16,-54.82
1953,66456666,-0.9976,0.1113,-0.2632,-2.93,9.94,-54.88
1954,66461663,-1.0044,0.1113,-0.2759,-4.15,8.72,-54.82
1955,66466663,-1.0068,0.1064,-0.2856,-5.30,7.32,-54.63
1956,66471664,-0.9990,0.1006,-0.2842,-6.34,5.98,-54.39
1957,66476664,-0.9927,0.0972,-0.2896,-7.44,4.76,-54.09
1958,66482068,-0.9824,0.1016,-0.2891,-8.60,3.54,-53.66
1959,66486664,-0.9795,0.0977,-0.2900,-9.63,2.32,-53.29
1960,66491666,-0.9683,0.0933,-0.2959,-10.73,1.04,-52.80
1961,66496664,-0.9570,0.0938,-0.2969,-11.83,-0.43,-52.20
1962,66501663,-0.9419,0.0962,-0.3027,-13.05,-1.59,-51.59
1963,66506664,-0.9229,0.0938,-0.3091,-14.21,-2.87,-51.04
1964,66511666,-0.9087,0.0928,-0.3037,-15.49,-4.21,-50.24
1965,66516664,-0.8984,0.0884,-0.3052,-16.83,-5.37,-49.57
1966,66521919,-0.8887,0.0840,-0.3062,-18.29,-6.34,-48.66
1967,66526664,-0.8774,0.0825,-0.3018,-19.88,-7.68,-47.80
1968,66531664,-0.8711,0.0776,-0.3091,-21.52,-8.66,-46.83
1969,66536664,-0.8618,0.0767,-0.3091,-23.72,-9.94,-45.61
1970,66541664,-0.8550,0.0767,-0.3076,-25.12,-10.79,-44.76
1971,66546664,-0.8496,0.0693,-0.3013,-27.01,-11.71,-43.48
1972,66551664,-0.8457,0.0649,-0.3066,-28.72,-12.87,-42.26
1973,66556664,-0.8364,0.0615,-0.3013,-30.18,-13.66,-40.98
1974,66562099,-0.8359,0.0610,-0.3145,-31.77,-14.63,-39.57
1975,66566664,-0.8418,0.0571,-0.3135,-32.80,-15.43,-38.17
1976,66571664,-0.8408,0.0571,-0.3135,-33.72,-16.34,-36.77
1977,66576663,-0.8403,0.0581,-0.3169,-34.39,-17.13,-35.49
1978,66581664,-0.8389,0.0566,-0.3179,-34.76,-17.80,-34.02
1979,66587136,-0.8428,0.0586,-0.3262,-34.82,-18.90,-32.56
1980,66591664,-0.8413,0.0645,-0.3330,-34.63,-19.70,-31.04
1981,66596903,-0.8330,0.0649,-0.3296,-34.21,-20.73,-29.63
1982,66601664,-0.8242,0.0659,-0.3242,-33.60,-21.46,-28.23
1983,66606663,-0.8154,0.0708,-0.3345,-32.44,-22.38,-26.77
1984,66611666,-0.8057,0.0693,-0.3228,-31.28,-23.05,-25.37
1985,66616664,-0.7944,0.0732,-0.3237,-29.70,-23.84,-24.02
1986,66621664,-0.7891,0.0713,-0.3159,-27.93,-24.51,-22.68
1987,66627077,-0.7881,0.0674,-0.3169,-26.10,-25.24,-21.28
1988,66631664,-0.7881,0.0649,-0.3247,-24.02,-25.85,-19.94
1989,66636668,-0.7866,0.0688,-0.3198,-21.46,-26.46,-18.35
1990,66641664,-0.7861,0.0693,-0.3232,-18.96,-27.20,-16.95
1991,66647078,-0.7754,0.0728,-0.3247,-16.04,-27.80,-15.61
1992,66651664,-0.7666,0.0713,-0.3145,-12.80,-28.29,-14.15
1993,66656668,-0.7637,0.0776,-0.3198,-9.57,-28.72,-12.87
1994,66661664,-0.7603,0.0781,-0.3193,-6.10,-29.15,-11.65
1995,66666664,-0.7598,0.0791,-0.3135,-2.44,-29.51,-10.30
1996,66671664,-0.7612,0.0801,-0.3174,1.22,-29.76,-9.27
1997,66676686,-0.7661,0.0840,-0.3169,5.12,-29.94,-8.11
1998,66681663,-0.7686,0.0884,-0.3232,8.90,-30.06,-6.95
1999,66686666,-0.7715,0.0928,-0.3203,12.74,-30.12,-6.04
2000,66691662,-0.7764,0.1001,-0.3218,16.59,-30.24,-5.12
2001,66696662,-0.7798,0.1074,-0.3179,20.49,-30.00,-4.45
2002,66701666,-0.7861,0.1104,-0.3169,24.39,-29.63,-3.78
2003,66706663,-0.7905,0.1094,-0.3164,28.23,-29.21,-3.29
2004,66711664,-0.7974,0.1143,-0.3066,31.95,-28.84,-2.93
2005,66716664,-0.8057,0.1167,-0.3057,35.55,-28.35,-2.56
2006,66721664,-0.7998,0.1240,-0.3130,39.09,-27.56,-2.20
2007,66727017,-0.8042,0.1230,-0.3091,42.38,-26.59,-2.01
2008,66731664,-0.7993,0.1245,-0.3105,45.43,-25.79,-1.95
2009,66736664,-0.8042,0.1245,-0.3115,48.66,-24.82,-1.83
2010,66741663,-0.8105,0.1274,-0.3164,51.52,-23.72,-1.77
2011,66746662,-0.8135,0.1240,-0.3203,54.21,-22.56,-1.52
2012,66751664,-0.8164,0.1294,-0.3232,56.65,-21.59,-1.52
2013,66756663,-0.8203,0.1304,-0.3286,58.84,-20.55,-1.65
2014,66761664,-0.8237,0.1309,-0.3291,60.98,-19.33,-1.59
2015,66766663,-0.8208,0.1333,-0.3306,62.68,-18.23,-1.52
2016,66771664,-0.8223,0.1348,-0.3369,63.96,-16.83,-1.52
2017,66776665,-0.8247,0.1318,-0.3335,64.94,-15.61,-1.59
2018,66781988,-0.8311,0.1216,-0.3340,65.55,-14.21,-1.52
2019,66786664,-0.8398,0.1157,-0.3345,65.91,-12.87,-1.46
2020,66791664,-0.8438,0.1133,-0.3389,65.85,-11.52,-1.22
2021,66796668,-0.8423,0.1123,-0.3379,65.49,-10.30,-1.10
2022,66801664,-0.8496,0.1079,-0.3364,64.82,-8.84,-0.91
2023,66806666,-0.8516,0.1040,-0.3442,64.09,-7.44,-0.61
2024,66811663,-0.8555,0.1060,-0.3496,63.05,-6.22,-0.30
2025,66816861,-0.8618,0.1060,-0.3550,61.95,-5.06,0.00
2026,66821664,-0.8638,0.1021,-0.3574,60.55,-3.54,0.49
2027,66826846,-0.8667,0.0986,-0.3564,59.15,-2.26,0.91
2028,66831664,-0.8701,0.0962,-0.3569,57.56,-1.10,1.34
2029,66836665,-0.8838,0.0981,-0.3633,55.98,0.06,1.89
2030,66841671,-0.9028,0.0938,-0.3813,54.15,1.10,2.26
2031,66846664,-0.9155,0.0918,-0.3765,52.38,2.38,2.74
2032,66851664,-0.9277,0.0947,-0.3809,50.61,3.29,3.29
2033,66856663,-0.9385,0.0908,-0.3979,48.84,4.45,3.78
2034,66861664,-0.9434,0.0908,-0.3896,46.83,5.49,4.33
2035,66867007,-0.9468,0.0884,-0.3892,45.00,6.52,4.82
2036,66871664,-0.9541,0.0825,-0.3892,42.80,7.50,5.43
2037,66876664,-0.9590,0.0771,-0.3989,40.61,8.41,6.16
2038,66882064,-0.9648,0.0718,-0.3970,38.17,9.45,6.71
2039,66886664,-0.9648,0.0688,-0.3906,35.61,10.37,7.38
2040,66892051,-0.9639,0.0654,-0.3936,32.80,11.40,8.11
2041,66896664,-0.9614,0.0669,-0.3906,30.00,12.50,9.02
2042,66901663,-0.9580,0.0596,-0.3867,27.20,13.48,9.88
2043,66906664,-0.9541,0.0596,-0.3838,24.21,14.21,10.67
2044,66912495,-0.9546,0.0552,-0.3779,21.04,15.12,11.59
2045,66916666,-0.9521,0.0513,-0.3809,18.17,16.16,12.50
2046,66921664,-0.9453,0.0488,-0.3745,15.06,16.83,13.41
2047,66926664,-0.9458,0.0405,-0.3730,11.95,17.62,14.51
2048,66931819,-0.9458,0.0366,-0.3726,8.78,18.48,15.73
2049,66936664,-0.9395,0.0342,-0.3643,5.61,19.09,16.65
2050,66941942,-0.9375,0.0264,-0.3604,2.56,19.70,17.93
2051,66946664,-0.9351,0.0166,-0.3560,-0.49,20.30,19.27
2052,66952048,-0.9263,0.0205,-0.3501,-3.41,20.73,20.49
2053,66956664,-0.9204,0.0166,-0.3477,-6.04,21.28,21.95
2054,66961664,-0.9209,0.0127,-0.3428,-8.54,21.52,23.17
2055,66966664,-0.9189,0.0044,-0.3438,-10.85,21.83,24.51
2056,66971664,-0.9194,0.0063,-0.3413,-12.80,22.01,25.85
2057,66977040,-0.9102,0.0015,-0.3335,-14.39,22.01,27.26
2058,66981664,-0.9067,0.0000,-0.3330,-15.79,22.07,28.60
2059,66986664,-0.9072,-0.0015,-0.3291,-16.77,22.01,30.00
2060,66991663,-0.9043,-0.0068,-0.3291,-17.32,21.77,31.34
2061,66996664,-0.9014,-0.0098,-0.3257,-17.44,21.65,32.80
2062,67001664,-0.8965,-0.0132,-0.3247,-17.26,21.10,34.21
2063,67006664,-0.8975,-0.0132,-0.3159,-16.89,20.85,35.43
2064,67011664,-0.8970,-0.0166,-0.3149,-15.79,20.55,37.01
2065,67016914,-0.8979,-0.0215,-0.3115,-14.63,20.06,38.29
2066,67021664,-0.9023,-0.0166,-0.3115,-13.23,19.57,39.51
2067,67026663,-0.9033,-0.0137,-0.3086,-11.34,19.15,40.73
2068,67031705,-0.9009,-0.0176,-0.3018,-9.45,18.66,42.01
2069,67036663,-0.8970,-0.0166,-0.3008,-7.74,18.11,43.05
2070,67041664,-0.8975,-0.0176,-0.3008,-5.00,17.32,44.21
2071,67046664,-0.8999,-0.0146,-0.2974,-2.38,16.71,45.43
2072,67051664,-0.9023,-0.0151,-0.2876,-0.30,16.10,46.40
2073,67056662,-0.9004,-0.0186,-0.2964,2.32,15.43,47.26
2074,67061662,-0.8940,-0.0166,-0.3022,5.30,14.63,48.11
2075,67066662,-0.8911,-0.0137,-0.3008,8.41,13.72,48.96
2076,67071662,-0.8857,-0.0093,-0.2949,11.52,12.99,49.76
2077,67076662,-0.8833,-0.0088,-0.3008,14.94,12.20,50.49
2078,67081662,-0.8857,-0.0098,-0.2974,18.41,11.59,51.04
2079,67086662,-0.8843,-0.0093,-0.2949,22.07,10.91,51.65
2080,67091662,-0.8848,-0.0093,-0.2920,25.43,10.37,52.07
2081,67096662,-0.8818,-0.0078,-0.2935,29.15,9.76,52.50
2082,67101662,-0.8765,-0.0068,-0.2949,32.80,9.27,52.93
2083,67106662,-0.8750,-0.0059,-0.2935,36.40,8.72,53.23
2084,67111662,-0.8774,0.0010,-0.2896,39.94,8.11,53.41
2085,67116663,-0.8716,0.0024,-0.2871,43.54,7.68,53.48
2086,67121662,-0.8760,0.0059,-0.2900,46.77,7.26,53.54
2087,67126662,-0.8745,0.0024,-0.2930,50.18,6.89,53.72
2088,67131662,-0.8735,0.0015,-0.2910,53.41,6.46,53.66
2089,67136662,-0.8730,0.0049,-0.2852,56.16,6.04,53.72
2090,67141662,-0.8711,0.0010,-0.2910,59.02,5.67,53.60
2091,67146662,-0.8706,0.0010,-0.2856,61.65,5.49,53.41
2092,67151662,-0.8438,0.0103,-0.2769,63.90,5.18,53.29
2093,67156662,-0.8550,0.0088,-0.2822,65.67,4.82,53.11
2094,67161662,-0.8569,0.0078,-0.2900,67.44,4.51,52.87
2095,67167366,-0.8618,0.0073,-0.2871,69.21,4.27,52.50
2096,67171882,-0.8569,0.0103,-0.2808,70.30,4.09,52.32
2097,67176664,-0.8530,0.0059,-0.2783,71.04,3.78,52.01
2098,67181664,-0.8433,0.0107,-0.2876,71.83,3.78,51.71
2099,67186664,-0.8374,0.0054,-0.2700,72.13,3.66,51.34
2100,67191663,-0.8354,0.0059,-0.2734,72.32,3.72,51.04
2101,67196667,-0.8398,0.0039,-0.2759,71.95,3.54,50.67
2102,67201862,-0.8452,0.0015,-0.2773,71.40,3.54,50.37
2103,67206664,-0.8433,-0.0044,-0.2734,70.67,3.66,50.12
2104,67211664,-0.8511,-0.0059,-0.2744,69.76,3.54,49.63
2105,67216662,-0.8535,-0.0068,-0.2778,68.66,3.60,49.33
2106,67221662,-0.8501,-0.0049,-0.2744,67.44,3.41,48.78
2107,67226663,-0.8555,-0.0054,-0.2803,65.91,3.54,48.48
2108,67231662,-0.8594,-0.0039,-0.2842,64.45,3.48,47.99
2109,67236662,-0.8623,-0.0005,-0.2803,62.99,3.54,47.44
2110,67241662,-0.8662,-0.0049,-0.2837,61.28,3.60,46.77
2111,67246662,-0.8652,-0.0015,-0.2847,59.70,3.72,46.10
2112,67251662,-0.8687,0.0010,-0.2866,57.93,3.84,45.49
2113,67256750,-0.8691,0.0020,-0.2842,56.22,3.96,44.70
2114,67261663,-0.8696,0.0020,-0.2852,54.45,4.02,43.96
2115,67266668,-0.8730,0.0044,-0.2842,52.74,4.33,43.11
2116,67271663,-0.8794,-0.0005,-0.2871,50.85,4.63,42.20
2117,67276662,-0.8843,0.0020,-0.2847,48.90,4.82,41.34
2118,67281662,-0.8882,0.0020,-0.2822,47.07,5.06,40.55
2119,67286662,-0.8896,-0.0015,-0.2915,44.88,5.43,39.63
2120,67291662,-0.8945,-0.0010,-0.2881,42.93,5.67,38.78
2121,67296662,-0.8926,0.0000,-0.2905,40.79,5.61,37.80
2122,67301662,-0.8896,-0.0024,-0.2905,38.66,5.61,37.07
2123,67306662,-0.8901,-0.0029,-0.2949,36.40,5.61,36.16
2124,67311662,-0.8950,-0.0059,-0.3076,34.27,5.61,35.30
2125,67316662,-0.9028,0.0010,-0.3047,32.13,5.43,34.57
2126,67321662,-0.9106,-0.0015,-0.3115,30.24,5.49,33.54
2127,67326662,-0.9106,-0.0010,-0.3115,28.35,5.12,32.62
2128,67331662,-0.9102,0.0020,-0.3149,26.28,4.88,31.83
2129,67336662,-0.9141,0.0054,-0.3130,24.57,4.39,30.98
2130,67341662,-0.9170,0.0088,-0.3198,22.80,3.96,29.88
2131,67346662,-0.9170,0.0054,-0.3223,21.22,3.66,28.90
2132,67351662,-0.9229,0.0112,-0.3237,19.57,3.35,27.93
2133,67356662,-0.9199,0.0088,-0.3286,18.05,2.99,27.01
2134,67361662,-0.9131,0.0146,-0.3237,16.52,2.44,25.91
2135,67366662,-0.9141,0.0142,-0.3193,15.00,2.01,25.06
2136,67371662,-0.9102,0.0122,-0.3271,13.41,1.52,24.15
2137,67376662,-0.9146,0.0093,-0.3228,11.83,1.04,23.17
2138,67381665,-0.9185,0.0093,-0.3364,10.12,0.49,22.32
2139,67386663,-0.9204,0.0083,-0.3345,8.29,0.18,21.59
2140,67391664,-0.9165,0.0059,-0.3364,6.52,-0.49,20.91
2141,67396664,-0.9106,-0.0010,-0.3335,4.51,-0.98,20.49
2142,67401664,-0.9116,0.0039,-0.3335,2.56,-1.52,20.06
2143,67406662,-0.9102,0.0024,-0.3345,0.73,-2.01,19.63
2144,67411664,-0.9146,0.0024,-0.3354,-1.34,-2.74,19.27
2145,67416664,-0.9087,-0.0024,-0.3418,-3.05,-3.41,18.90
2146,67421664,-0.9028,0.0015,-0.3374,-5.00,-4.09,18.78
2147,67426663,-0.9009,-0.0059,-0.3398,-6.83,-4.70,18.66
2148,67431662,-0.9009,-0.0020,-0.3452,-8.54,-5.43,18.60
2149,67436662,-0.8955,-0.0024,-0.3472,-10.18,-5.91,18.54
2150,67441662,-0.8975,-0.0059,-0.3394,-11.65,-6.65,18.66
2151,67446662,-0.8965,-0.0054,-0.3408,-12.99,-7.32,18.78
2152,67451662,-0.9019,-0.0049,-0.3477,-14.02,-8.05,18.84
2153,67456662,-0.8989,-0.0078,-0.3506,-15.12,-8.66,19.02
2154,67461662,-0.8989,-0.0034,-0.3452,-15.79,-9.39,19.15
2155,67466662,-0.8960,-0.0015,-0.3477,-16.46,-10.00,19.21
2156,67471662,-0.8940,-0.0039,-0.3564,-16.83,-10.67,19.51
2157,67476662,-0.8882,-0.0010,-0.3481,-17.20,-11.34,19.63
2158,67481662,-0.8896,0.0000,-0.3599,-17.07,-12.07,19.94
2159,67486662,-0.8906,-0.0015,-0.3569,-17.07,-12.68,20.12
2160,67491662,-0.8838,-0.0044,-0.3579,-16.83,-13.41,20.49
2161,67496662,-0.8896,-0.0029,-0.3662,-16.77,-14.02,20.73
2162,67501662,-0.8857,-0.0015,-0.3657,-16.16,-14.70,21.16
2163,67506662,-0.8950,-0.0020,-0.3691,-15.67,-15.43,21.34
2164,67511662,-0.9014,-0.0005,-0.3735,-15.00,-16.04,21.77
2165,67516666,-0.9009,-0.0015,-0.3643,-14.39,-16.71,22.13
2166,67521665,-0.9023,-0.0005,-0.3667,-13.66,-17.32,22.74
2167,67526664,-0.8979,0.0029,-0.3701,-12.93,-17.87,23.05
2168,67531664,-0.8901,0.0020,-0.3701,-12.20,-18.41,23.48
2169,67536758,-0.8867,0.0039,-0.3643,-11.46,-18.96,24.02
2170,67541663,-0.8887,0.0024,-0.3647,-10.61,-19.63,24.45
2171,67546894,-0.8926,0.0068,-0.3691,-9.57,-20.06,24.82
2172,67551664,-0.8940,0.0107,-0.3696,-8.41,-20.73,25.24
2173,67557067,-0.9004,0.0146,-0.3657,-7.32,-21.04,25.73
2174,67561664,-0.9131,0.0127,-0.3691,-5.98,-21.40,26.22
2175,67566664,-0.9214,0.0098,-0.3794,-4.63,-21.95,26.65
2176,67571663,-0.9277,0.0132,-0.3779,-2.99,-22.32,27.07
2177,67576662,-0.9380,0.0112,-0.3799,-1.28,-22.99,27.56
2178,67581662,-0.9458,0.0117,-0.3779,0.61,-23.35,27.99
2179,67586662,-0.9463,0.0112,-0.3828,2.44,-23.66,28.48
2180,67591662,-0.9482,0.0127,-0.3813,4.63,-23.96,29.09
2181,67596662,-0.9458,0.0161,-0.3760,6.71,-24.21,29.51
2182,67601664,-0.9355,0.0264,-0.3784,9.02,-24.27,29.70
2183,67606666,-0.9229,0.0391,-0.3682,11.77,-24.51,29.88
2184,67611664,-0.9146,0.0532,-0.3643,14.63,-24.27,29.94
2185,67616663,-0.9014,0.0630,-0.3652,17.56,-24.27,29.88
2186,67621662,-0.8940,0.0718,-0.3623,20.85,-23.84,29.57
2187,67626663,-0.8892,0.0830,-0.3608,24.02,-23.60,29.33
2188,67631664,-0.8799,0.0884,-0.3643,27.20,-22.99,28.84
