# skilleye imu stream v1
# device=xiao_esp32c6 imu=mpu6050 addr=0x68
# rate_hz=200 accel_range_g=16 gyro_range_dps=2000 dlpf_hz=94
# units: accel in g, gyro in deg/s, t_us in microseconds since boot (monotonic)
# no shared clock with the camera -- tap the racket once before each take
# so both recordings share a spike to align on
seq,t_us,ax,ay,az,gx,gy,gz
0,761108085,-0.0903,0.3750,1.0625,-8.90,5.91,7.68
1,761113086,-0.0889,0.3735,1.0625,-7.74,5.67,7.26
2,761118479,-0.0835,0.3735,1.0654,-6.28,5.43,6.71
3,761123088,-0.0845,0.3735,1.0664,-5.24,5.30,6.40
4,761128086,-0.0869,0.3740,1.0615,-3.84,5.30,5.85
5,761133087,-0.0889,0.3779,1.0596,-2.56,5.12,5.49
6,761138085,-0.0918,0.3760,1.0620,-1.52,4.94,4.88
7,761143087,-0.0923,0.3789,1.0684,-0.49,4.70,4.27
8,761148086,-0.0947,0.3784,1.0659,0.43,4.57,3.72
9,761153087,-0.0957,0.3755,1.0635,1.22,4.45,3.17
10,761158085,-0.1006,0.3750,1.0601,1.89,4.15,2.62
11,761163087,-0.0996,0.3735,1.0615,2.56,3.96,2.07
12,761168139,-0.1001,0.3755,1.0605,3.11,3.96,1.46
13,761173089,-0.0967,0.3765,1.0571,3.72,3.66,0.85
14,761178085,-0.1021,0.3799,1.0669,4.21,3.48,0.30
15,761183086,-0.1021,0.3784,1.0610,4.57,3.35,-0.24
16,761188088,-0.1030,0.3818,1.0596,5.06,3.35,-0.79
17,761193087,-0.1025,0.3779,1.0615,5.49,3.05,-1.40
18,761198088,-0.1025,0.3755,1.0610,5.85,2.99,-1.95
19,761203087,-0.1060,0.3784,1.0596,6.16,2.99,-2.44
20,761208085,-0.1079,0.3828,1.0562,6.40,2.87,-2.93
21,761213086,-0.1040,0.3833,1.0596,6.65,2.56,-3.41
22,761218085,-0.1055,0.3828,1.0518,6.71,2.50,-3.90
23,761223087,-0.1045,0.3887,1.0601,6.71,2.20,-4.39
24,761228089,-0.1050,0.3838,1.0581,6.65,2.13,-5.00
25,761233087,-0.0986,0.3911,1.0576,6.65,1.71,-5.37
26,761238087,-0.0972,0.3916,1.0552,6.71,1.46,-5.91
27,761243086,-0.0947,0.3896,1.0532,6.77,1.04,-6.34
28,761248087,-0.0996,0.3877,1.0522,7.01,0.91,-6.77
29,761253088,-0.0981,0.3921,1.0527,7.38,0.43,-7.13
30,761258087,-0.0957,0.3911,1.0513,7.74,0.12,-7.56
31,761263085,-0.1001,0.3916,1.0508,8.29,0.00,-7.80
32,761268087,-0.0952,0.3936,1.0444,8.78,-0.18,-8.17
33,761273088,-0.0952,0.3931,1.0493,9.27,-0.55,-8.41
34,761278087,-0.0952,0.3945,1.0474,9.70,-0.91,-8.72
35,761283086,-0.0957,0.3970,1.0435,10.06,-1.04,-9.02
36,761288087,-0.0952,0.4009,1.0488,10.30,-1.10,-9.21
37,761293153,-0.0977,0.3984,1.0386,10.55,-1.46,-9.57
38,761298575,-0.0991,0.4004,1.0400,10.73,-1.77,-9.94
39,761303087,-0.0981,0.4023,1.0430,10.73,-2.01,-10.12
40,761308087,-0.0972,0.4038,1.0400,10.73,-2.01,-10.49
41,761313085,-0.0991,0.4058,1.0386,10.73,-2.38,-10.73
42,761318085,-0.0962,0.4072,1.0371,10.67,-2.56,-11.10
43,761323087,-0.0977,0.4092,1.0352,10.55,-2.62,-11.28
44,761328086,-0.0952,0.4087,1.0312,10.55,-2.74,-11.59
45,761333087,-0.1021,0.4150,1.0327,10.61,-2.80,-11.83
46,761338086,-0.1025,0.4170,1.0366,10.61,-2.87,-12.13
47,761343087,-0.1011,0.4204,1.0288,10.67,-2.80,-12.32
48,761348086,-0.1021,0.4150,1.0288,10.61,-2.99,-12.62
49,761353087,-0.1045,0.4194,1.0278,10.79,-3.05,-12.87
50,761358087,-0.1069,0.4204,1.0327,10.91,-3.17,-13.17
51,761363087,-0.1050,0.4243,1.0239,11.10,-3.11,-13.41
52,761368086,-0.1030,0.4219,1.0269,11.28,-3.17,-13.66
53,761373085,-0.1030,0.4224,1.0264,11.59,-3.23,-13.90
54,761378087,-0.1011,0.4233,1.0259,11.95,-3.17,-14.21
55,761383087,-0.1001,0.4258,1.0186,12.20,-3.17,-14.39
56,761388087,-0.0991,0.4258,1.0151,12.68,-3.17,-14.63
57,761393085,-0.0972,0.4282,1.0210,13.11,-3.05,-14.76
58,761398087,-0.0933,0.4316,1.0132,13.54,-2.99,-15.06
59,761403087,-0.0947,0.4316,1.0156,13.96,-3.11,-15.18
60,761408087,-0.0977,0.4360,1.0122,14.45,-2.87,-15.43
61,761413085,-0.0967,0.4351,1.0103,14.76,-2.80,-15.61
62,761418085,-0.0977,0.4399,1.0142,15.06,-2.56,-15.79
63,761423085,-0.0977,0.4409,1.0137,15.49,-2.62,-15.91
64,761428089,-0.1001,0.4424,1.0127,15.73,-2.50,-16.04
65,761433179,-0.1006,0.4434,1.0068,15.79,-2.26,-16.10
66,761438087,-0.1040,0.4482,1.0146,16.04,-2.26,-16.22
67,761443086,-0.1050,0.4482,1.0146,16.10,-2.26,-16.28
68,761448087,-0.1099,0.4551,1.0151,16.16,-2.07,-16.46
69,761453086,-0.1118,0.4575,1.0112,16.22,-2.07,-16.46
70,761458088,-0.1143,0.4644,1.0127,15.98,-1.95,-16.40
71,761463086,-0.1191,0.4673,1.0127,15.85,-2.07,-16.40
72,761468087,-0.1167,0.4722,1.0127,15.43,-1.95,-16.28
73,761473087,-0.1182,0.4722,1.0054,15.24,-2.01,-16.04
74,761478087,-0.1172,0.4771,1.0078,14.88,-1.95,-15.79
75,761483088,-0.1221,0.4785,1.0063,14.39,-2.01,-15.55
76,761488087,-0.1265,0.4849,1.0068,13.96,-2.13,-15.37
77,761493087,-0.1250,0.4893,1.0093,13.60,-1.95,-14.88
78,761498087,-0.1250,0.4932,1.0063,13.17,-2.07,-14.51
79,761503087,-0.1299,0.4946,1.0044,12.74,-2.07,-14.02
80,761508087,-0.1299,0.4917,1.0059,12.50,-2.13,-13.66
81,761513089,-0.1343,0.4980,1.0015,12.07,-2.26,-13.17
82,761518085,-0.1323,0.5024,1.0083,11.59,-2.32,-12.56
83,761523085,-0.1353,0.5049,1.0044,11.16,-2.56,-12.07
84,761528087,-0.1318,0.5044,0.9961,10.85,-2.62,-11.59
85,761533087,-0.1313,0.5049,0.9946,10.49,-2.62,-10.98
86,761538140,-0.1284,0.5093,0.9961,10.18,-2.74,-10.30
87,761543089,-0.1289,0.5117,0.9976,10.06,-3.05,-9.94
88,761548086,-0.1255,0.5088,0.9868,9.94,-2.87,-9.33
89,761553087,-0.1255,0.5107,0.9854,9.88,-2.87,-8.78
90,761558086,-0.1235,0.5127,0.9873,10.06,-3.11,-8.35
91,761563087,-0.1255,0.5093,0.9814,10.55,-3.05,-7.74
92,761568086,-0.1245,0.5103,0.9756,11.22,-2.99,-7.32
93,761573087,-0.1323,0.5098,0.9707,12.13,-2.87,-6.71
94,761578086,-0.1318,0.5098,0.9673,13.05,-2.80,-6.28
95,761583087,-0.1304,0.5083,0.9614,14.27,-2.74,-5.73
96,761588087,-0.1270,0.5078,0.9556,15.49,-2.56,-5.24
97,761593086,-0.1284,0.5088,0.9512,16.71,-2.32,-4.82
98,761598087,-0.1270,0.5078,0.9497,17.74,-2.13,-4.33
99,761603088,-0.1226,0.5059,0.9380,18.78,-1.89,-3.96
100,761608087,-0.1191,0.5122,0.9336,19.57,-1.52,-3.60
101,761613086,-0.1172,0.5181,0.9233,20.18,-1.16,-3.35
102,761618087,-0.1172,0.5171,0.9258,20.73,-0.61,-3.05
103,761623085,-0.1172,0.5229,0.9209,21.04,-0.18,-2.93
104,761628171,-0.1187,0.5278,0.9180,21.28,0.43,-2.74
105,761633087,-0.1162,0.5273,0.9189,21.77,1.10,-2.56
106,761638088,-0.1226,0.5361,0.9136,22.01,1.59,-2.50
107,761643087,-0.1265,0.5361,0.9092,22.56,2.32,-2.26
108,761648087,-0.1274,0.5366,0.9082,23.48,3.11,-2.20
109,761653086,-0.1284,0.5444,0.9043,24.57,3.84,-2.01
110,761658087,-0.1299,0.5425,0.9004,25.98,4.63,-1.83
111,761663087,-0.1382,0.5464,0.8931,27.74,5.43,-1.65
112,761668087,-0.1396,0.5464,0.8955,29.70,6.16,-1.40
113,761673086,-0.1411,0.5503,0.8838,32.01,7.01,-1.16
114,761678087,-0.1431,0.5542,0.8906,34.39,8.11,-0.91
115,761683087,-0.1396,0.5552,0.8853,36.83,9.15,-0.85
116,761688088,-0.1411,0.5620,0.8809,39.27,10.24,-0.61
117,761693086,-0.1475,0.5664,0.8770,41.46,11.28,-0.43
118,761698087,-0.1523,0.5752,0.8789,43.23,12.62,-0.12
119,761703090,-0.1543,0.5786,0.8735,44.76,13.78,0.06
120,761708086,-0.1587,0.5850,0.8745,45.79,15.12,0.49
121,761713087,-0.1631,0.5874,0.8638,46.52,16.46,0.91
122,761718086,-0.1626,0.5928,0.8608,47.20,18.11,1.34
123,761723085,-0.1636,0.5942,0.8555,47.38,19.51,1.83
124,761728085,-0.1738,0.6006,0.8511,47.56,21.22,2.50
125,761733505,-0.1714,0.5991,0.8394,47.56,23.05,3.23
126,761738087,-0.1743,0.6050,0.8354,47.44,24.39,3.78
127,761743085,-0.1782,0.6123,0.8354,47.38,26.04,4.57
128,761748087,-0.1743,0.6177,0.8330,47.32,27.99,5.30
129,761753087,-0.1714,0.6201,0.8281,47.13,29.70,6.10
130,761758086,-0.1748,0.6260,0.8208,47.07,31.59,6.89
131,761763087,-0.1768,0.6357,0.8154,46.89,33.48,7.62
132,761768086,-0.1826,0.6416,0.8135,46.77,35.43,8.35
133,761773087,-0.1880,0.6426,0.8115,46.59,37.50,8.90
134,761778086,-0.1899,0.6479,0.8027,46.65,39.70,9.70
135,761783578,-0.1992,0.6543,0.8022,46.65,42.20,10.49
136,761788088,-0.2031,0.6587,0.8037,46.83,44.27,11.04
137,761793087,-0.2158,0.6602,0.8032,46.89,46.65,11.77
138,761798087,-0.2280,0.6660,0.8047,46.95,48.90,12.62
139,761803085,-0.2427,0.6689,0.8032,46.77,51.22,13.60
140,761808089,-0.2598,0.6743,0.8062,46.52,53.29,14.45
141,761813087,-0.2710,0.6792,0.8071,46.10,55.55,15.49
142,761818088,-0.2744,0.6777,0.7993,45.73,57.50,16.71
143,761823087,-0.2832,0.6772,0.7998,45.49,59.51,17.74
144,761828085,-0.2925,0.6777,0.7935,45.18,61.52,19.02
145,761833085,-0.2993,0.6841,0.7964,45.06,63.48,20.24
146,761838087,-0.3066,0.6777,0.7944,45.00,65.43,21.52
147,761843087,-0.3076,0.6816,0.7959,44.94,67.32,22.74
148,761848087,-0.3169,0.6846,0.7954,44.88,69.45,23.96
149,761853086,-0.3188,0.6851,0.7910,45.00,71.46,25.06
150,761858087,-0.3232,0.6821,0.7900,44.94,73.41,26.40
151,761863088,-0.3301,0.6895,0.7827,44.70,75.30,27.62
152,761868087,-0.3408,0.6904,0.7817,44.45,77.32,28.96
153,761873086,-0.3423,0.6899,0.7773,44.15,79.27,30.12
154,761878087,-0.3530,0.6914,0.7798,43.60,80.91,31.46
155,761883087,-0.3550,0.6885,0.7734,43.29,82.44,32.87
156,761888087,-0.3691,0.6895,0.7769,42.44,83.96,34.39
157,761893086,-0.3643,0.6924,0.7793,41.59,85.43,35.91
158,761898087,-0.3608,0.6987,0.7798,40.43,85.91,37.56
159,761903087,-0.3481,0.7007,0.7852,39.33,87.44,39.21
160,761908088,-0.3345,0.7036,0.7881,38.23,88.84,40.85
161,761913086,-0.3330,0.7124,0.8008,37.01,90.18,42.62
162,761918087,-0.3306,0.7231,0.7974,36.16,91.04,44.33
163,761923087,-0.3379,0.7329,0.7988,35.30,92.20,46.10
164,761928087,-0.3403,0.7388,0.7993,34.63,93.05,47.80
165,761933085,-0.3535,0.7539,0.8081,34.21,93.96,49.63
166,761938087,-0.3638,0.7603,0.8140,33.90,94.63,51.46
167,761943087,-0.3735,0.7690,0.8174,33.78,95.18,53.48
168,761948086,-0.3896,0.7788,0.8198,34.02,95.73,55.49
169,761953087,-0.4111,0.7969,0.8252,34.27,96.04,57.44
170,761958086,-0.4214,0.8071,0.8359,34.76,96.10,59.51
171,761963087,-0.4316,0.8169,0.8335,35.49,96.16,61.59
172,761968086,-0.4443,0.8267,0.8335,36.40,96.22,63.78
173,761973087,-0.4541,0.8384,0.8398,37.68,96.04,65.91
174,761978086,-0.4614,0.8506,0.8472,39.15,96.10,68.11
175,761983087,-0.4697,0.8638,0.8408,40.55,95.85,70.30
176,761988088,-0.4746,0.8804,0.8423,41.77,95.73,72.44
177,761993088,-0.4805,0.8931,0.8423,42.99,95.43,74.57
178,761998087,-0.4839,0.9019,0.8384,44.09,95.00,76.83
179,762003086,-0.4863,0.9160,0.8369,44.94,94.70,78.84
180,762008087,-0.4897,0.9292,0.8369,45.49,94.27,80.85
181,762013088,-0.4912,0.9512,0.8335,45.98,94.09,82.93
182,762018087,-0.4966,0.9634,0.8320,46.10,93.96,84.51
183,762023087,-0.5020,0.9834,0.8267,46.04,93.96,86.95
184,762028087,-0.5010,0.9907,0.8145,45.91,93.90,87.87
185,762033376,-0.5044,1.0059,0.8135,45.73,94.27,89.94
186,762038087,-0.5093,1.0117,0.8047,45.85,94.63,91.34
187,762043087,-0.5171,1.0190,0.8003,45.73,95.18,92.99
188,762048087,-0.5190,1.0308,0.7964,45.67,95.73,94.51
189,762053548,-0.5259,1.0347,0.7969,45.30,96.52,96.40
190,762058087,-0.5195,1.0308,0.7764,45.06,97.07,97.68
191,762063087,-0.5156,1.0298,0.7788,44.76,97.80,99.39
192,762068087,-0.5239,1.0459,0.7778,44.33,98.48,101.10
193,762073087,-0.5342,1.0532,0.7637,43.84,99.21,102.99
194,762078087,-0.5425,1.0664,0.7676,43.23,99.82,104.82
195,762083088,-0.5503,1.0728,0.7637,42.62,100.55,106.71
196,762088087,-0.5615,1.0854,0.7656,42.13,101.34,108.78
197,762093085,-0.5688,1.0962,0.7573,41.71,102.13,110.73
198,762098085,-0.5762,1.1050,0.7515,41.28,103.05,113.35
199,762103088,-0.5811,1.1084,0.7500,41.10,103.54,115.18
200,762108086,-0.5830,1.1123,0.7412,41.22,104.45,117.38
201,762113089,-0.5938,1.1201,0.7363,41.46,105.43,120.12
202,762118087,-0.5967,1.1265,0.7275,41.65,106.16,121.83
203,762123087,-0.5972,1.1333,0.7197,42.07,107.01,124.02
204,762128086,-0.5981,1.1367,0.7124,42.62,107.80,125.98
205,762133085,-0.5967,1.1343,0.7065,43.29,108.78,127.99
206,762138087,-0.5918,1.1372,0.6929,44.51,110.06,130.30
207,762143089,-0.5903,1.1323,0.6826,45.91,111.10,132.26
208,762148086,-0.5947,1.1279,0.6694,47.26,112.20,133.78
209,762153087,-0.5952,1.1230,0.6606,49.45,113.54,136.04
210,762158086,-0.5923,1.1201,0.6489,51.04,114.63,137.50
211,762163087,-0.5947,1.1133,0.6367,53.66,116.16,139.63
212,762168086,-0.6001,1.1143,0.6274,55.67,117.32,141.34
213,762173089,-0.6030,1.1123,0.6211,57.44,118.48,142.93
214,762178086,-0.6118,1.1123,0.6147,58.41,119.33,143.90
215,762183087,-0.6143,1.1172,0.5967,59.02,120.43,145.43
216,762188086,-0.6143,1.1201,0.5928,58.84,121.04,146.22
217,762193086,-0.6113,1.1270,0.5825,57.74,121.77,147.13
218,762198090,-0.6167,1.1274,0.5723,56.04,122.44,147.68
219,762203087,-0.6108,1.1318,0.5586,53.84,122.93,148.11
220,762208087,-0.5977,1.1328,0.5479,51.52,123.41,148.35
221,762213085,-0.5811,1.1343,0.5469,49.21,123.84,148.48
222,762218087,-0.5747,1.1377,0.5400,47.13,124.21,148.48
223,762223087,-0.5674,1.1387,0.5244,45.12,124.51,148.35
224,762228087,-0.5566,1.1470,0.5249,43.54,125.00,148.05
225,762233087,-0.5464,1.1504,0.5195,42.26,125.18,147.68
226,762238087,-0.5356,1.1479,0.5146,41.40,125.24,147.26
227,762243560,-0.5352,1.1509,0.5127,40.98,125.37,146.77
228,762248087,-0.5205,1.1553,0.5073,40.98,125.37,146.22
229,762253087,-0.5122,1.1421,0.5103,41.52,125.30,145.73
230,762258088,-0.4961,1.1392,0.5103,42.68,125.30,145.43
231,762263087,-0.4858,1.1294,0.5093,44.09,125.24,144.94
232,762268086,-0.4766,1.1216,0.5151,45.85,125.06,144.88
233,762273087,-0.4653,1.1104,0.5088,47.87,125.00,144.70
234,762278086,-0.4507,1.0942,0.5078,49.57,124.88,144.45
235,762283153,-0.4365,1.0820,0.5073,51.22,124.82,144.39
236,762288089,-0.4233,1.0718,0.5024,52.56,124.76,144.27
237,762293087,-0.4067,1.0557,0.4966,53.60,124.45,144.09
238,762298086,-0.3965,1.0498,0.4927,54.15,124.15,143.72
239,762303087,-0.3794,1.0439,0.4922,54.09,123.84,143.23
240,762308089,-0.3691,1.0293,0.4868,53.84,123.48,142.62
241,762313086,-0.3594,1.0171,0.4785,53.41,122.99,142.01
242,762318147,-0.3486,0.9941,0.4819,53.11,122.50,141.34
243,762323087,-0.3340,0.9727,0.4741,52.93,121.77,140.85
244,762328087,-0.3174,0.9492,0.4692,52.93,120.98,140.24
245,762333088,-0.3037,0.9297,0.4663,52.99,120.12,139.76
246,762338087,-0.2959,0.9165,0.4702,53.17,119.45,139.21
247,762343087,-0.2822,0.9019,0.4609,53.17,118.72,138.72
248,762348087,-0.2637,0.8950,0.4575,52.80,117.74,138.11
249,762353087,-0.2490,0.8887,0.4600,52.20,116.71,137.32
250,762358087,-0.2373,0.8833,0.4595,51.28,115.67,136.52
251,762363087,-0.2261,0.8818,0.4624,50.06,114.70,135.37
252,762368087,-0.2227,0.8730,0.4585,48.60,113.35,134.02
253,762373087,-0.2100,0.8560,0.4619,46.89,112.07,132.68
254,762378087,-0.1875,0.8413,0.4600,44.70,110.67,131.10
255,762383087,-0.1572,0.8296,0.4570,42.38,109.15,129.45
256,762388088,-0.1318,0.8174,0.4521,39.63,107.68,127.62
257,762393087,-0.1138,0.8145,0.4565,37.01,106.04,125.61
258,762398087,-0.0957,0.8032,0.4634,34.45,104.27,123.54
259,762403089,-0.0786,0.7964,0.4673,31.95,102.32,121.46
260,762408086,-0.0693,0.7925,0.4697,30.00,100.30,119.15
261,762413086,-0.0669,0.7856,0.4839,28.48,98.23,116.95
262,762418730,-0.0620,0.7832,0.4897,27.26,95.98,114.70
263,762423087,-0.0508,0.7827,0.4961,26.89,93.84,112.56
264,762428088,-0.0356,0.7788,0.4951,27.13,91.46,110.30
265,762433089,-0.0249,0.7710,0.5078,27.87,88.78,108.17
266,762438086,-0.0103,0.7617,0.5161,29.51,86.16,106.10
267,762443085,0.0024,0.7578,0.5151,31.52,84.94,104.15
268,762448085,0.0190,0.7539,0.5112,34.15,82.26,102.44
269,762453087,0.0264,0.7402,0.5190,37.07,79.88,100.61
270,762458087,0.0400,0.7329,0.5225,40.37,77.50,98.90
271,762463085,0.0537,0.7305,0.5259,43.60,75.55,97.26
272,762468087,0.0781,0.7236,0.5322,46.77,73.60,95.61
273,762473087,0.0938,0.7197,0.5298,49.82,71.46,93.96
274,762478086,0.1074,0.7192,0.5229,52.56,69.70,92.38
275,762483093,0.1196,0.7114,0.5244,55.00,67.56,90.73
276,762488088,0.1260,0.7100,0.5327,56.83,65.67,89.45
277,762493087,0.1328,0.7002,0.5288,58.41,63.84,87.07
278,762498087,0.1504,0.6938,0.5259,59.45,61.89,86.28
279,762503145,0.1592,0.6875,0.5264,60.06,60.00,84.51
280,762508088,0.1709,0.6768,0.5234,60.30,58.05,83.05
281,762513086,0.1768,0.6699,0.5146,60.12,55.91,81.52
282,762518085,0.1826,0.6572,0.5083,59.21,53.90,80.12
283,762523087,0.1895,0.6440,0.5020,57.93,51.89,78.66
284,762528088,0.1958,0.6313,0.4961,56.04,49.70,77.32
285,762533089,0.2012,0.6191,0.4893,53.54,47.74,76.04
286,762538087,0.2021,0.6006,0.4829,50.79,45.49,74.88
287,762543085,0.2051,0.5835,0.4829,47.56,43.54,73.66
288,762548085,0.2109,0.5952,0.5029,43.84,41.52,72.50
289,762553087,0.2354,0.6875,0.5801,39.09,39.57,71.28
290,762558086,0.2554,0.6836,0.5435,33.05,37.32,70.24
291,762563085,0.3027,0.6450,0.5449,27.20,34.45,69.57
292,762568090,0.3467,0.6294,0.5859,21.46,31.89,69.27
293,762573087,0.3364,0.6182,0.5635,15.55,29.45,68.90
294,762578086,0.3228,0.6235,0.5347,9.57,26.89,68.66
295,762583085,0.3203,0.6245,0.5596,2.80,24.45,68.23
296,762588087,0.3193,0.6221,0.5679,-4.63,22.07,67.44
297,762593089,0.3403,0.6216,0.5400,-12.56,19.45,67.01
298,762598086,0.3564,0.6362,0.5327,-20.85,16.89,66.22
299,762603087,0.3428,0.6416,0.4937,-29.63,13.96,65.43
300,762608086,0.3540,0.6367,0.5332,-39.09,11.28,64.63
301,762613087,0.3760,0.6562,0.4937,-48.66,8.90,63.60
302,762618086,0.3931,0.6641,0.4985,-58.17,6.71,62.38
303,762623085,0.4004,0.6265,0.5063,-67.26,4.82,60.91
304,762628087,0.3447,0.5439,0.4692,-75.49,2.80,59.70
305,762633087,0.3604,0.4771,0.5278,-82.38,1.04,58.72
306,762638087,0.4062,0.5000,0.5444,-88.66,0.06,57.32
307,762643087,0.4258,0.5386,0.5654,-95.18,-0.79,55.61
308,762648645,0.3862,0.5415,0.5571,-101.65,-1.40,53.72
309,762653090,0.3628,0.5601,0.5425,-108.17,-2.20,51.95
310,762658085,0.3271,0.5605,0.5483,-114.21,-3.29,50.12
311,762663087,0.3232,0.5635,0.5713,-119.70,-4.27,48.29
312,762668085,0.3408,0.5742,0.5698,-124.82,-5.06,46.46
313,762673087,0.3750,0.5957,0.5527,-129.15,-5.85,44.70
314,762678087,0.4033,0.6245,0.5454,-132.74,-6.71,42.80
315,762683087,0.4199,0.6509,0.5464,-135.85,-7.50,40.85
316,762688086,0.4268,0.6641,0.5474,-138.35,-8.29,38.90
317,762693085,0.4233,0.6704,0.5503,-140.18,-9.15,37.07
318,762698158,0.4263,0.6763,0.5552,-141.59,-9.82,35.18
319,762703086,0.4351,0.6865,0.5625,-142.56,-10.49,33.48
320,762708089,0.4380,0.6948,0.5562,-143.29,-11.04,31.71
321,762713086,0.4409,0.6875,0.5693,-143.90,-11.46,29.94
322,762718088,0.4287,0.6880,0.5728,-144.51,-12.20,28.41
323,762723086,0.4102,0.6895,0.5776,-145.12,-12.56,26.83
324,762728086,0.3945,0.6846,0.5928,-145.85,-13.17,25.24
325,762733087,0.3853,0.6880,0.6094,-146.22,-13.66,23.78
326,762738086,0.4033,0.6055,0.6094,-145.61,-13.96,22.20
327,762743089,0.4248,0.6104,0.6270,-144.57,-14.45,21.22
328,762748086,0.4194,0.6372,0.6729,-143.17,-14.70,20.18
329,762753087,0.4248,0.6387,0.6709,-141.34,-14.57,19.09
330,762758086,0.4209,0.6274,0.6743,-139.27,-14.51,18.29
331,762763150,0.4106,0.6094,0.6997,-136.71,-14.51,17.74
332,762768087,0.4009,0.5645,0.6963,-134.02,-14.39,17.20
333,762773087,0.4146,0.7549,0.8774,-129.88,-13.05,15.79
334,762778087,0.4229,0.6694,0.6987,-122.32,-11.40,13.72
335,762783086,0.4102,0.6328,0.7124,-113.11,-10.30,12.32
336,762788087,0.4248,0.6201,0.7861,-103.35,-9.33,11.10
337,762793087,0.4258,0.5952,0.7583,-93.17,-8.78,10.30
338,762798129,0.4248,0.5645,0.6621,-82.62,-9.39,10.18
339,762803088,0.4268,0.5459,0.7085,-72.26,-10.12,10.91
340,762808087,0.4995,0.7529,0.8545,-63.11,-10.18,10.49
341,762813086,0.4932,0.5078,0.7271,-55.73,-10.67,10.06
342,762818087,0.4727,0.3428,0.6958,-48.84,-12.32,11.71
343,762823086,0.4521,0.3242,0.8032,-42.26,-13.96,14.76
344,762828086,0.4253,0.3960,0.8188,-36.28,-15.67,17.50
345,762833087,0.4102,0.4829,0.7817,-30.85,-17.44,19.57
346,762838086,0.4536,0.5449,0.8320,-26.59,-18.72,20.98
347,762843087,0.6206,0.6001,0.9019,-23.29,-19.27,21.65
348,762848086,0.5732,0.6313,0.8784,-20.73,-19.57,21.71
349,762853085,0.5522,0.6523,0.8418,-18.90,-20.18,21.10
350,762858088,0.5430,0.6416,0.8979,-17.62,-20.61,20.18
351,762863087,0.5527,0.6265,0.9609,-17.44,-20.55,19.27
352,762868087,0.5640,0.6323,0.9536,-18.23,-20.67,18.41
353,762873086,0.5640,0.6396,0.9683,-19.94,-20.85,17.68
354,762878087,0.5537,0.6460,1.0278,-22.80,-20.91,17.01
355,762883087,0.5488,0.6323,1.0767,-27.07,-21.04,16.34
356,762888087,0.5361,0.6211,1.0889,-32.44,-21.22,15.79
357,762893088,0.4785,0.6138,1.1147,-38.96,-21.83,15.37
358,762898087,0.4121,0.6226,1.1577,-46.77,-22.93,14.94
359,762903087,0.4136,0.6226,1.1401,-56.04,-24.63,14.33
360,762908087,0.3706,0.6318,1.1089,-66.89,-27.87,13.11
361,762913086,0.3599,0.6167,1.1294,-79.21,-32.62,11.28
362,762918087,0.3667,0.5796,1.2036,-92.93,-38.35,8.72
363,762923087,0.4165,0.5156,1.2949,-107.80,-44.09,5.73
364,762928087,0.4873,0.4595,1.4023,-123.54,-49.57,2.68
365,762933203,0.5659,0.4443,1.5029,-139.76,-54.15,-0.79
366,762938087,0.5957,0.4487,1.5430,-155.79,-58.05,-4.63
367,762943087,0.5806,0.4795,1.5508,-170.98,-61.77,-9.57
368,762948087,0.5596,0.4653,1.5479,-184.63,-65.43,-15.00
369,762953086,0.5796,0.3901,1.5449,-196.16,-69.02,-20.37
370,762958087,0.6040,0.3262,1.5264,-205.24,-73.11,-24.76
371,762963475,0.6191,0.3120,1.5479,-211.28,-77.13,-28.48
372,762968087,0.6040,0.3018,1.5527,-214.63,-81.28,-31.59
373,762973088,0.5801,0.3042,1.5547,-215.37,-85.55,-34.27
374,762978087,0.5620,0.3135,1.5659,-213.90,-89.70,-36.59
375,762983089,0.5371,0.3247,1.6016,-209.57,-94.21,-38.41
376,762988178,0.5044,0.3438,1.5312,-202.68,-99.51,-39.70
377,762993087,0.4663,0.3433,1.6104,-193.48,-105.24,-40.61
378,762998086,0.4351,0.3623,1.6250,-182.62,-110.91,-41.04
379,763003088,0.4248,0.3677,1.6514,-170.06,-116.83,-41.28
380,763008088,0.4316,0.3916,1.6719,-157.07,-122.44,-41.28
381,763013136,0.4463,0.4126,1.6890,-143.66,-127.99,-41.16
382,763018087,0.4575,0.4321,1.6821,-130.85,-133.35,-40.98
383,763023088,0.4536,0.4634,1.6753,-119.15,-138.66,-40.67
384,763028087,0.4453,0.4819,1.6602,-109.15,-143.41,-40.30
385,763033354,0.4355,0.5171,1.6333,-101.71,-148.23,-39.76
386,763038087,0.4189,0.5449,1.6074,-96.28,-152.68,-39.09
387,763043088,0.4155,0.5439,1.5811,-93.41,-156.83,-38.35
388,763048087,0.4062,0.5635,1.5605,-92.93,-160.91,-37.38
389,763053086,0.4121,0.5767,1.5269,-94.51,-164.76,-36.34
390,763058087,0.4473,0.5659,1.4922,-98.17,-168.29,-35.18
391,763063366,0.4297,0.5552,1.4814,-103.48,-171.52,-34.39
392,763068087,0.4150,0.5620,1.4614,-110.06,-174.33,-33.60
393,763073087,0.4209,0.5737,1.4189,-117.44,-177.01,-33.05
394,763078087,0.4272,0.5845,1.3882,-125.61,-179.02,-32.62
395,763083085,0.4263,0.5840,1.3721,-134.09,-180.61,-32.44
396,763088088,0.4346,0.5718,1.3745,-142.99,-181.89,-32.44
397,763093087,0.4370,0.5674,1.3423,-152.56,-182.68,-32.62
398,763098086,0.4502,0.5576,1.2998,-162.56,-183.17,-33.23
399,763103087,0.5083,0.5781,1.3501,-173.72,-182.99,-34.15
400,763108086,0.4912,0.5542,1.3013,-185.85,-182.26,-35.73
401,763113089,0.5083,0.5073,1.2661,-198.11,-181.83,-37.56
402,763118087,0.5283,0.4824,1.2769,-210.37,-180.79,-39.63
403,763123560,0.5366,0.4766,1.2622,-221.83,-179.57,-42.01
404,763128087,0.5327,0.4727,1.2368,-231.83,-178.11,-44.51
405,763133086,0.5229,0.4531,1.2231,-240.43,-176.83,-47.01
406,763138087,0.5171,0.4292,1.2065,-247.07,-175.37,-49.51
407,763143087,0.5005,0.4023,1.1919,-251.89,-173.78,-52.01
408,763148202,0.4785,0.3901,1.1792,-254.63,-172.20,-54.51
409,763153089,0.4644,0.3843,1.1611,-255.55,-170.43,-56.95
410,763158086,0.4468,0.3940,1.1602,-254.88,-168.66,-59.33
411,763163085,0.4448,0.3931,1.1504,-252.80,-166.95,-61.71
412,763168087,0.4414,0.3809,1.1479,-249.70,-165.18,-63.84
413,763173085,0.4277,0.3677,1.1367,-246.10,-163.66,-65.98
414,763178087,0.3979,0.3618,1.1343,-242.07,-162.07,-67.87
415,763183085,0.3628,0.3765,1.1494,-237.87,-160.67,-69.82
416,763188085,0.3701,0.3716,1.1514,-233.60,-159.45,-71.65
417,763193086,0.3555,0.3647,1.1577,-229.94,-158.29,-73.54
418,763198090,0.3208,0.3823,1.1768,-226.83,-157.50,-75.24
419,763203086,0.2939,0.4028,1.1865,-224.09,-156.65,-77.20
420,763208087,0.2788,0.4248,1.1929,-221.65,-156.22,-79.21
421,763213089,0.2637,0.4360,1.1987,-219.57,-156.10,-80.98
422,763218086,0.2500,0.4487,1.2021,-217.68,-155.91,-82.80
423,763223167,0.2324,0.4648,1.2041,-215.91,-156.16,-84.63
424,763228087,0.2119,0.4810,1.2104,-214.39,-156.40,-86.22
425,763233086,0.1924,0.4927,1.2012,-212.99,-157.01,-87.93
426,763238253,0.1821,0.5010,1.1987,-211.71,-157.38,-89.45
427,763243087,0.1650,0.5132,1.1826,-210.49,-158.05,-90.98
428,763248086,0.1597,0.5278,1.1719,-209.21,-158.48,-92.26
429,763253087,0.1558,0.5396,1.1548,-208.05,-159.21,-93.48
430,763258087,0.1538,0.5566,1.1465,-206.95,-159.63,-94.70
431,763263086,0.1543,0.5664,1.1299,-205.91,-159.94,-95.91
432,763268085,0.1514,0.5845,1.1226,-204.94,-160.30,-96.95
433,763273089,0.1509,0.5957,1.1064,-204.39,-160.43,-98.05
434,763278086,0.1440,0.6084,1.0894,-203.96,-160.73,-99.33
435,763283085,0.1377,0.6235,1.0659,-203.84,-160.85,-100.61
436,763288087,0.1279,0.6328,1.0615,-203.84,-160.98,-101.95
437,763293087,0.1255,0.6392,1.0420,-204.09,-161.16,-103.23
438,763298087,0.1177,0.6455,1.0200,-204.70,-161.34,-104.45
439,763303199,0.1128,0.6582,1.0029,-205.61,-161.52,-105.55
440,763308088,0.1074,0.6748,0.9717,-206.95,-161.77,-106.59
441,763313087,0.1025,0.6782,0.9517,-208.60,-161.95,-107.80
442,763318087,0.1021,0.6846,0.9336,-210.06,-162.07,-108.84
443,763323087,0.0986,0.6953,0.9150,-211.65,-162.07,-109.70
444,763328087,0.0972,0.7109,0.8916,-213.35,-162.20,-110.79
445,763333086,0.0942,0.7231,0.8696,-215.06,-162.32,-111.71
446,763338086,0.0986,0.7334,0.8481,-216.65,-162.26,-112.56
447,763343089,0.1035,0.7515,0.8354,-217.99,-162.13,-113.54
448,763348086,0.1108,0.7622,0.8188,-219.21,-161.77,-114.45
449,763353087,0.1240,0.7769,0.8062,-220.18,-161.28,-115.43
450,763358086,0.1260,0.7861,0.7842,-220.73,-160.73,-116.34
451,763363085,0.1313,0.7881,0.7690,-221.04,-160.12,-117.32
452,763368089,0.1294,0.7896,0.7446,-220.67,-159.45,-118.11
453,763373085,0.1338,0.7900,0.7397,-219.88,-158.78,-118.78
454,763378087,0.1343,0.7896,0.7231,-218.78,-158.05,-119.21
455,763383088,0.1406,0.7949,0.7114,-217.38,-157.20,-119.51
456,763388087,0.1382,0.8066,0.7109,-216.10,-156.34,-119.76
457,763393086,0.1455,0.8135,0.6997,-214.88,-155.24,-120.06
458,763398087,0.1387,0.8257,0.6934,-214.09,-154.27,-120.49
459,763403087,0.1387,0.8433,0.6885,-213.66,-153.23,-120.79
460,763408087,0.1465,0.8604,0.6792,-213.60,-151.95,-121.40
461,763413086,0.1548,0.8799,0.6743,-214.15,-150.55,-122.26
462,763418088,0.1753,0.8901,0.6592,-215.24,-149.21,-123.29
463,763423086,0.1968,0.9004,0.6577,-216.28,-147.62,-124.27
464,763428087,0.2065,0.9033,0.6533,-217.44,-145.98,-125.37
465,763433419,0.2119,0.9131,0.6440,-218.54,-144.15,-126.40
466,763438087,0.2075,0.9209,0.6309,-219.45,-142.26,-127.74
467,763443086,0.2031,0.9336,0.6284,-219.94,-140.61,-128.96
468,763448085,0.2041,0.9375,0.6226,-220.00,-138.78,-130.24
469,763453085,0.2065,0.9463,0.6187,-219.63,-137.07,-131.65
470,763458087,0.2056,0.9468,0.6055,-218.35,-135.30,-133.17
471,763463085,0.2031,0.9502,0.5952,-216.52,-133.66,-134.57
472,763468086,0.2002,0.9531,0.5869,-214.27,-132.07,-136.04
473,763473087,0.1943,0.9487,0.5762,-211.28,-130.73,-137.32
474,763478085,0.1899,0.9404,0.5630,-207.74,-129.39,-138.72
475,763483087,0.1938,0.9258,0.5537,-203.60,-128.05,-139.88
476,763488085,0.1982,0.9214,0.5366,-198.84,-126.95,-140.98
477,763493087,0.1973,0.9209,0.5210,-193.78,-125.73,-142.01
478,763498086,0.1953,0.9185,0.5049,-188.29,-124.82,-143.17
479,763503089,0.1797,0.9121,0.4917,-182.74,-123.96,-144.45
480,763508085,0.1719,0.9077,0.4707,-177.20,-123.23,-145.67
481,763513085,0.1704,0.9062,0.4551,-171.77,-122.44,-146.95
482,763518085,0.1699,0.9077,0.4385,-166.16,-122.07,-148.29
483,763523085,0.1685,0.9028,0.4189,-160.43,-121.71,-149.76
484,763528086,0.1611,0.9062,0.4004,-154.70,-121.40,-151.40
485,763533085,0.1509,0.9038,0.3857,-148.72,-121.22,-153.23
486,763538238,0.1421,0.9048,0.3638,-142.62,-121.04,-155.12
487,763543085,0.1289,0.8936,0.3345,-134.82,-121.10,-157.44
488,763548087,0.1226,0.8896,0.3296,-129.33,-121.22,-159.02
489,763553085,0.1240,0.8843,0.3008,-122.13,-121.22,-160.91
490,763558085,0.1099,0.8789,0.2842,-114.57,-121.46,-162.80
491,763563088,0.0928,0.8711,0.2612,-106.83,-121.71,-164.70
492,763568087,0.0869,0.8613,0.2412,-98.72,-122.07,-166.52
493,763573085,0.0859,0.8521,0.2178,-90.43,-122.38,-168.29
494,763578087,0.0884,0.8408,0.2012,-82.01,-122.99,-169.88
495,763583340,0.0869,0.8320,0.1899,-73.84,-123.35,-171.46
496,763588086,0.0830,0.8315,0.1670,-65.85,-123.90,-172.99
497,763593263,0.0732,0.8286,0.1558,-58.72,-124.21,-174.21
498,763598089,0.0586,0.8301,0.1479,-52.62,-124.57,-175.55
499,763603086,0.0464,0.8311,0.1328,-47.68,-125.00,-176.83
500,763608087,0.0190,0.8267,0.1167,-43.78,-125.30,-177.80
501,763613087,-0.0029,0.8188,0.1069,-41.10,-125.85,-178.90
502,763618087,-0.0151,0.8198,0.0938,-39.39,-125.98,-179.82
503,763623087,-0.0273,0.8218,0.0811,-38.72,-126.10,-180.79
504,763628087,-0.0430,0.8257,0.0664,-38.78,-126.22,-181.65
505,763633087,-0.0615,0.8232,0.0493,-39.45,-126.10,-182.56
506,763638086,-0.0723,0.8140,0.0308,-40.55,-125.91,-183.41
507,763643255,-0.0820,0.8184,0.0181,-41.83,-125.55,-184.21
508,763648087,-0.0835,0.8262,0.0146,-43.23,-124.94,-185.06
509,763653087,-0.1011,0.8301,0.0000,-44.88,-124.27,-185.98
510,763658087,-0.1294,0.8408,-0.0122,-46.89,-123.29,-186.83
511,763663089,-0.1680,0.8428,-0.0249,-49.09,-122.32,-187.32
512,763668086,-0.1943,0.8491,-0.0439,-51.46,-121.28,-187.87
513,763673089,-0.2012,0.8467,-0.0566,-53.78,-120.24,-188.35
514,763678088,-0.2100,0.8525,-0.0767,-56.10,-118.90,-188.48
515,763683087,-0.2300,0.8599,-0.0796,-58.35,-117.44,-188.60
516,763688087,-0.2710,0.8608,-0.0811,-60.61,-115.67,-188.60
517,763693086,-0.2803,0.8604,-0.0918,-62.68,-113.90,-188.41
518,763698087,-0.2871,0.8774,-0.1162,-64.57,-112.13,-188.17
519,763703088,-0.3188,0.8984,-0.1040,-66.52,-110.12,-188.05
520,763708087,-0.3535,0.9121,-0.1108,-68.72,-107.80,-187.99
521,763713088,-0.3862,0.9219,-0.1294,-71.34,-105.37,-187.68
522,763718087,-0.4150,0.9341,-0.1304,-73.84,-102.93,-187.38
523,763723086,-0.4380,0.9399,-0.1274,-76.52,-100.18,-186.71
524,763728088,-0.4629,0.9463,-0.1318,-79.02,-97.20,-185.98
525,763733199,-0.4824,0.9517,-0.1392,-81.16,-93.72,-185.06
526,763738086,-0.5020,0.9634,-0.1460,-82.93,-90.49,-184.21
527,763743086,-0.5146,0.9932,-0.1465,-84.21,-86.83,-183.23
528,763748087,-0.5342,1.0186,-0.1597,-85.06,-83.23,-182.62
529,763753089,-0.5503,1.0273,-0.1611,-85.55,-79.39,-181.89
530,763758086,-0.5649,1.0415,-0.1519,-85.30,-75.49,-181.22
531,763763087,-0.5713,1.0688,-0.1533,-84.76,-71.16,-180.49
532,763768087,-0.5874,1.0889,-0.1567,-83.90,-66.77,-179.76
533,763773085,-0.6118,1.1006,-0.1523,-82.74,-62.07,-179.02
534,763778085,-0.6338,1.1143,-0.1646,-81.65,-57.32,-178.05
535,763783085,-0.6470,1.1274,-0.1646,-80.18,-51.46,-176.52
536,763788088,-0.6602,1.1392,-0.1606,-79.27,-47.38,-175.43
537,763793086,-0.6841,1.1567,-0.1489,-78.35,-42.01,-173.96
538,763798085,-0.7168,1.1729,-0.1343,-77.68,-36.34,-172.38
539,763803087,-0.7578,1.1899,-0.1309,-77.13,-30.61,-170.79
540,763808087,-0.7988,1.1997,-0.1250,-76.59,-24.63,-169.21
541,763813087,-0.8369,1.2197,-0.1196,-75.85,-18.72,-167.62
542,763818085,-0.8745,1.2451,-0.0991,-74.94,-12.68,-166.59
543,763823085,-0.9092,1.2705,-0.0752,-73.72,-6.40,-165.73
544,763828085,-0.9404,1.2974,-0.0601,-72.07,0.06,-165.49
545,763833085,-0.9795,1.3369,-0.0508,-69.70,6.65,-165.55
546,763838087,-1.0234,1.3691,-0.0400,-67.01,13.29,-166.10
547,763843086,-1.0610,1.3926,-0.0293,-63.84,19.94,-166.77
548,763848085,-1.0962,1.4077,-0.0142,-60.18,26.52,-167.32
549,763853085,-1.1260,1.4189,0.0166,-56.10,33.35,-167.74
550,763858087,-1.1538,1.4302,0.0317,-51.34,40.37,-167.87
551,763863090,-1.1909,1.4443,0.0435,-45.73,47.50,-167.80
552,763868087,-1.2261,1.4526,0.0459,-39.57,54.39,-167.44
553,763873086,-1.2622,1.4561,0.0381,-33.35,61.10,-166.95
554,763878085,-1.2920,1.4478,0.0254,-26.77,67.44,-166.16
555,763883087,-1.3086,1.4297,0.0098,-20.37,73.54,-164.88
556,763888085,-1.3330,1.4233,0.0127,-13.96,79.45,-163.23
557,763893087,-1.3623,1.4160,-0.0010,-8.29,85.67,-161.28
558,763898086,-1.3975,1.4170,-0.0269,-3.54,90.06,-158.90
559,763903087,-1.4204,1.4160,-0.0557,-0.24,95.12,-156.22
560,763908086,-1.4424,1.4072,-0.0820,1.59,99.63,-153.17
561,763913087,-1.4575,1.4121,-0.1030,2.01,103.96,-149.88
562,763918086,-1.4702,1.4136,-0.1338,0.73,107.99,-146.10
563,763923087,-1.4814,1.4116,-0.1704,-1.89,112.01,-141.77
564,763928086,-1.4854,1.4116,-0.1914,-6.04,116.10,-137.26
565,763933087,-1.4844,1.4097,-0.2139,-11.46,120.24,-132.01
566,763938086,-1.4810,1.3838,-0.2500,-18.11,124.39,-126.34
567,763943087,-1.4731,1.3599,-0.2749,-25.18,128.96,-119.76
568,763948086,-1.4561,1.3394,-0.2900,-32.44,134.02,-112.74
569,763953085,-1.4360,1.3252,-0.3071,-39.57,139.27,-105.30
570,763958087,-1.4165,1.3066,-0.3184,-46.71,145.06,-97.62
571,763963088,-1.4053,1.3076,-0.3076,-53.35,151.71,-89.63
572,763968087,-1.4019,1.3203,-0.3052,-59.76,158.72,-81.89
573,763973085,-1.4150,1.3389,-0.2900,-65.79,166.34,-74.45
574,763978086,-1.4341,1.3506,-0.2812,-71.83,174.39,-67.07
575,763983235,-1.4668,1.3511,-0.2720,-77.62,182.62,-59.70
576,763988087,-1.4800,1.3613,-0.2476,-83.60,191.40,-52.07
577,763993087,-1.5063,1.3525,-0.2256,-89.70,200.55,-44.51
578,763998087,-1.5469,1.3496,-0.1909,-95.73,210.30,-36.46
579,764003085,-1.5898,1.3638,-0.1587,-101.46,220.43,-28.41
580,764008087,-1.6479,1.3857,-0.1270,-106.46,230.79,-20.61
581,764013086,-1.7139,1.3950,-0.0991,-110.85,241.52,-12.87
582,764018086,-1.7793,1.3970,-0.0742,-114.63,252.20,-5.24
583,764023088,-1.8589,1.3965,-0.0542,-117.56,263.11,2.26
584,764028086,-1.9380,1.3882,-0.0225,-119.82,273.23,9.94
585,764033565,-2.0200,1.3740,-0.0005,-121.46,283.54,17.87
586,764038087,-2.1006,1.3687,0.0317,-122.38,293.60,25.67
587,764043086,-2.1846,1.3711,0.0679,-123.11,303.78,33.41
588,764048086,-2.2598,1.3745,0.1221,-123.41,313.96,41.04
589,764053085,-2.3276,1.3813,0.1621,-123.29,324.15,48.23
590,764058087,-2.3911,1.3828,0.1919,-122.99,334.27,55.30
591,764063089,-2.4453,1.3770,0.2192,-122.20,344.45,62.13
592,764068087,-2.5029,1.3750,0.2563,-120.98,354.39,69.02
593,764073087,-2.5669,1.3608,0.2881,-119.57,364.51,75.79
594,764078176,-2.6260,1.3560,0.3188,-117.62,374.39,82.44
595,764083086,-2.6963,1.3506,0.3516,-115.43,384.09,89.09
596,764088087,-2.7749,1.3525,0.3940,-113.11,393.78,95.85
597,764093087,-2.8462,1.3540,0.4307,-110.85,403.48,102.32
598,764098085,-2.9238,1.3716,0.4775,-108.96,412.99,108.66
599,764103087,-3.0210,1.4009,0.5352,-107.26,422.56,114.45
600,764108087,-3.1196,1.4351,0.5747,-105.91,432.20,119.82
601,764113087,-3.2124,1.4702,0.6040,-104.70,441.59,124.82
602,764118089,-3.2949,1.5029,0.6294,-103.17,451.04,129.45
603,764123086,-3.3530,1.5386,0.6699,-100.85,460.67,134.27
604,764128087,-3.3970,1.5581,0.6895,-97.74,470.12,139.09
605,764133086,-3.4297,1.5669,0.7163,-93.29,480.12,144.33
606,764138087,-3.4614,1.5908,0.7427,-87.80,490.06,149.57
607,764143086,-3.4912,1.6079,0.7661,-81.52,500.00,155.30
608,764148087,-3.5239,1.6201,0.7891,-74.51,510.12,161.16
609,764153088,-3.5728,1.6304,0.8188,-66.95,519.94,167.20
610,764158087,-3.6338,1.6406,0.8467,-59.09,529.76,173.48
611,764163086,-3.7246,1.6499,0.8828,-51.16,538.96,179.76
612,764168089,-3.8247,1.6665,0.9121,-43.35,547.93,186.10
613,764173086,-3.9155,1.6860,0.9678,-36.16,556.65,192.26
614,764178087,-3.9893,1.7139,1.0376,-29.70,565.43,198.17
615,764183085,-4.0811,1.7529,1.1230,-24.02,573.90,203.84
616,764188191,-4.1860,1.7905,1.1855,-19.33,582.32,209.15
617,764193088,-4.3008,1.8252,1.2378,-14.82,589.88,214.27
618,764198088,-4.4243,1.8379,1.2896,-10.12,596.16,219.51
619,764203087,-4.5337,1.8398,1.3418,-4.88,601.59,225.24
620,764208086,-4.6313,1.8447,1.3936,0.67,605.61,231.28
621,764213087,-4.6953,1.8384,1.4482,6.34,608.90,237.80
622,764218087,-4.7427,1.8428,1.5156,11.65,611.34,244.39
623,764223087,-4.7695,1.8604,1.5732,16.40,613.29,251.10
624,764228087,-4.8076,1.8804,1.6470,20.37,614.88,257.99
625,764233087,-4.8330,1.8936,1.7109,23.17,615.73,265.00
626,764238087,-4.8740,1.9087,1.7637,25.06,615.98,272.07
627,764243087,-4.9087,1.9219,1.8135,25.67,615.37,279.51
628,764248088,-4.9419,1.9316,1.8652,25.18,613.84,287.26
629,764253087,-4.9971,1.9326,1.9102,23.78,610.98,295.30
630,764258087,-5.0464,1.9341,1.9258,21.28,606.71,303.90
631,764263087,-5.0767,1.9346,1.9678,18.23,601.04,313.11
632,764268088,-5.1021,1.9307,2.0044,14.15,593.90,322.99
633,764273087,-5.1177,1.9082,2.0396,9.21,585.30,333.66
634,764278087,-5.0991,1.8955,2.0801,3.11,575.73,344.82
635,764283087,-5.0547,1.8867,2.1055,-4.27,564.94,356.65
636,764288087,-5.0239,1.8730,2.1509,-13.41,553.29,369.02
637,764293087,-4.9688,1.8706,2.1768,-24.09,540.43,381.59
638,764298087,-4.8789,1.8599,2.2134,-36.10,526.52,394.39
639,764303087,-4.7866,1.8447,2.2471,-48.60,512.01,407.62
640,764308087,-4.6792,1.8228,2.2778,-60.49,496.83,420.85
641,764313087,-4.5776,1.8149,2.3433,-71.40,481.10,433.90
642,764318087,-4.4702,1.7832,2.3667,-80.06,465.06,446.89
643,764323087,-4.3662,1.7573,2.4131,-86.40,448.72,459.63
644,764328087,-4.2510,1.7031,2.4663,-90.61,432.13,472.44
645,764333087,-4.1265,1.6572,2.4966,-92.32,415.55,485.30
646,764338087,-4.0122,1.5913,2.5396,-91.40,399.15,498.17
647,764343087,-3.8965,1.5083,2.5566,-89.39,383.35,510.79
648,764348087,-3.8184,1.4375,2.5825,-86.22,367.62,523.05
649,764353087,-3.7539,1.3569,2.5850,-83.23,352.62,535.06
650,764358087,-3.6885,1.2612,2.5864,-81.71,337.87,546.34
651,764363309,-3.6528,1.1709,2.6294,-82.01,323.35,557.07
652,764368089,-3.6240,1.0854,2.6216,-84.57,308.90,567.07
653,764373086,-3.5859,0.9854,2.6206,-90.37,294.51,576.10
654,764378087,-3.5649,0.8760,2.6289,-98.78,279.76,584.27
655,764383086,-3.5371,0.7866,2.6230,-108.78,264.51,591.71
656,764388087,-3.5210,0.6748,2.6079,-119.94,248.72,598.54
657,764393086,-3.4790,0.5312,2.5908,-134.15,229.09,605.55
658,764398087,-3.4463,0.4478,2.5767,-143.23,215.18,609.82
659,764403086,-3.4160,0.3354,2.5469,-153.54,197.26,614.51
660,764408087,-3.2324,0.2754,2.5410,-165.49,177.56,618.11
661,764413086,-3.4561,0.1006,3.5557,-176.95,161.16,620.98
662,764418087,-3.2324,0.2715,2.3354,-189.02,138.29,622.87
663,764423330,-3.0913,-0.1309,3.6177,-201.22,116.83,623.48
664,764428087,-3.0386,-0.1406,2.8623,-214.57,93.17,623.41
665,764433086,-3.1138,-0.1553,2.5371,-227.44,66.89,622.50
666,764438087,-3.0088,-0.2065,3.0537,-239.76,42.68,619.94
667,764443086,-2.8677,-0.3521,2.9692,-252.74,17.62,617.20
668,764448087,-2.8340,-0.5972,2.8359,-265.67,-9.76,613.78
669,764453086,-2.7852,-0.7295,2.7402,-279.57,-37.93,609.70
670,764458087,-2.9165,-0.5503,2.4121,-294.88,-68.05,603.72
671,764463085,-3.3271,-0.6323,2.7427,-307.99,-94.82,596.22
672,764468087,-3.0215,-0.8687,1.4902,-305.06,-122.50,593.66
673,764473088,-2.7910,-0.7974,1.8350,-290.79,-149.02,593.05
674,764478087,-2.9375,-0.6245,1.7627,-277.13,-170.98,589.82
675,764483087,-3.1011,-0.5405,1.4282,-267.07,-192.44,583.84
676,764488087,-3.0303,-0.6343,1.4185,-259.21,-212.26,575.73
677,764493085,-2.8740,-0.8799,1.3521,-252.50,-229.94,567.01
678,764498087,-2.7876,-1.3740,1.2539,-247.99,-246.71,558.29
679,764503087,-2.8154,-1.7734,1.2529,-249.82,-265.12,547.44
680,764508087,-2.8813,-1.8247,1.2480,-256.59,-276.46,538.54
681,764513086,-2.9219,-1.6587,1.2212,-269.02,-289.88,524.70
682,764518087,-2.7808,-1.4346,1.1577,-282.74,-302.93,508.41
683,764523085,-2.5200,-1.2310,1.1191,-295.49,-315.79,490.37
684,764528087,-2.3291,-1.0498,1.0615,-305.55,-328.05,471.40
685,764533087,-2.2476,-0.9771,1.0645,-311.71,-338.96,451.65
686,764538087,-2.2725,-0.9473,0.9585,-312.44,-349.15,431.89
687,764543086,-2.2559,-0.9077,0.9219,-308.35,-357.99,412.01
688,764548087,-2.1494,-0.8696,0.8496,-300.30,-365.73,391.83
689,764553085,-2.0830,-0.8110,0.7388,-288.90,-372.56,371.59
690,764558089,-2.0630,-0.7485,0.6172,-274.45,-378.35,351.65
691,764563087,-2.0430,-0.7446,0.4888,-256.95,-383.35,332.20
692,764568087,-2.0273,-0.7974,0.3804,-237.20,-387.13,313.84
693,764573087,-1.9995,-0.8677,0.2661,-216.71,-389.76,296.40
694,764578087,-1.9746,-0.9287,0.1606,-197.38,-391.28,280.12
695,764583089,-1.9678,-0.9517,0.0537,-180.30,-391.65,264.51
696,764588086,-1.9443,-0.9976,-0.0122,-165.91,-390.98,249.45
697,764593085,-1.9282,-1.0190,-0.1265,-153.84,-389.51,235.06
698,764598087,-1.9326,-1.0405,-0.1694,-144.27,-386.83,221.10
699,764603087,-1.9639,-1.0610,-0.2432,-136.59,-383.23,208.11
700,764608087,-1.9932,-1.0835,-0.3325,-129.76,-379.15,195.85
701,764613085,-2.0254,-1.1133,-0.4292,-123.78,-374.57,184.21
702,764618087,-2.0767,-1.1577,-0.5195,-118.41,-369.27,173.60
703,764623086,-2.1343,-1.2119,-0.6611,-113.84,-363.54,163.72
704,764628089,-2.1694,-1.2837,-0.7891,-110.79,-357.20,154.27
705,764633085,-2.1797,-1.3828,-0.9258,-109.76,-349.94,145.00
706,764638087,-2.2246,-1.4849,-1.0635,-111.22,-342.13,135.67
707,764643087,-2.2212,-1.6108,-1.1968,-114.94,-333.35,126.28
708,764648087,-2.1289,-1.6948,-1.2920,-121.10,-323.29,116.22
709,764653085,-2.0928,-1.7715,-1.4170,-129.15,-312.26,105.85
710,764658087,-2.1021,-1.8481,-1.5352,-138.11,-300.49,95.30
711,764663087,-2.0303,-1.9326,-1.5908,-147.68,-287.87,84.33
712,764668086,-1.8994,-1.9878,-1.6733,-157.62,-274.33,73.17
713,764673086,-1.7671,-2.0273,-1.7290,-167.50,-259.76,61.71
714,764678087,-1.6621,-2.0557,-1.7661,-176.77,-243.96,49.82
715,764683088,-1.5317,-2.0430,-1.7729,-184.15,-226.89,37.99
716,764688087,-1.4023,-1.9951,-1.7827,-188.90,-209.02,26.16
717,764693087,-1.2646,-1.9453,-1.7671,-189.82,-190.79,14.39
718,764698087,-1.1641,-1.8086,-1.7822,-185.73,-172.13,2.80
719,764703087,-1.0054,-1.7354,-1.7178,-176.71,-153.48,-8.35
720,764708087,-0.9141,-1.6294,-1.6855,-163.72,-134.45,-19.21
721,764713087,-0.8521,-1.5420,-1.6631,-147.50,-115.98,-29.76
722,764718087,-0.8076,-1.4546,-1.6265,-129.09,-97.93,-39.94
723,764723087,-0.7661,-1.3423,-1.4590,-109.82,-79.70,-50.18
724,764728085,-0.6162,-1.2451,-1.6250,-90.98,-63.84,-59.39
725,764733087,-0.5796,-1.2358,-1.4902,-71.65,-49.63,-68.35
726,764738087,-0.5820,-1.2080,-1.3125,-52.68,-35.18,-76.95
727,764743085,-0.5708,-1.1294,-1.3032,-35.12,-21.77,-85.24
728,764748089,-0.5449,-1.0688,-1.3003,-19.51,-9.94,-93.48
729,764753086,-0.5298,-1.0381,-1.1865,-6.16,0.43,-101.46
730,764758087,-0.5259,-1.0186,-1.1133,4.82,10.06,-109.21
731,764763087,-0.5205,-1.0044,-1.0938,14.09,18.54,-116.46
732,764768150,-0.5151,-0.9951,-1.0308,21.77,25.79,-123.35
733,764773085,-0.5176,-0.9893,-0.9541,28.60,32.56,-129.82
734,764778087,-0.5190,-0.9863,-0.9170,34.70,38.72,-135.67
735,764783088,-0.5249,-0.9800,-0.8916,40.24,44.09,-141.10
736,764788087,-0.5200,-0.9854,-0.8311,45.37,49.09,-145.91
737,764793087,-0.5127,-0.9824,-0.7915,49.88,53.29,-150.49
738,764798087,-0.5083,-0.9771,-0.7651,54.33,57.07,-154.57
739,764803087,-0.4937,-0.9771,-0.7271,58.48,60.24,-158.35
740,764808087,-0.4907,-0.9570,-0.6758,62.26,62.99,-161.46
741,764813088,-0.4766,-0.9702,-0.6509,65.79,65.18,-164.63
742,764818086,-0.4546,-0.9746,-0.6240,68.84,66.83,-167.50
743,764823087,-0.4385,-0.9707,-0.5977,71.34,68.35,-169.82
744,764828087,-0.4194,-0.9619,-0.5625,73.05,69.45,-172.13
745,764833087,-0.4014,-0.9561,-0.5439,74.33,70.18,-174.27
746,764838085,-0.3809,-0.9546,-0.5327,74.82,70.55,-176.10
747,764843087,-0.3560,-0.9424,-0.5034,75.00,70.49,-177.87
748,764848086,-0.3398,-0.9351,-0.4858,74.57,70.49,-179.39
749,764853090,-0.3257,-0.9277,-0.4692,74.02,70.12,-180.85
750,764858086,-0.3159,-0.9243,-0.4507,73.41,69.70,-181.83
751,764863087,-0.3101,-0.9155,-0.4380,72.74,69.27,-182.74
752,764868086,-0.3022,-0.9116,-0.4292,72.01,68.41,-183.41
753,764873087,-0.2949,-0.9102,-0.4180,71.46,67.87,-183.78
754,764878117,-0.2881,-0.8970,-0.4028,70.91,67.32,-184.15
755,764883087,-0.2773,-0.8804,-0.3999,70.67,67.07,-184.21
756,764888087,-0.2637,-0.8643,-0.3911,70.61,66.65,-184.09
757,764893087,-0.2529,-0.8530,-0.3740,70.61,66.34,-183.96
758,764898085,-0.2456,-0.8301,-0.3691,70.85,65.85,-183.66
759,764903086,-0.2402,-0.8281,-0.3589,71.04,65.79,-183.17
760,764908087,-0.2334,-0.8159,-0.3521,71.46,65.55,-182.56
761,764913087,-0.2246,-0.8013,-0.3389,71.95,65.37,-181.95
762,764918087,-0.2114,-0.7827,-0.3286,72.74,65.18,-181.16
763,764923087,-0.2036,-0.7690,-0.3184,73.84,65.06,-180.37
764,764928085,-0.1973,-0.7490,-0.3091,75.37,65.06,-179.63
765,764933087,-0.1733,-0.7432,-0.3091,77.32,64.88,-178.72
766,764938088,-0.1621,-0.7344,-0.2979,79.57,65.00,-177.68
767,764943087,-0.1553,-0.7334,-0.2974,81.89,65.06,-176.40
768,764948087,-0.1362,-0.7256,-0.3027,84.33,65.06,-174.88
769,764953087,-0.1108,-0.7236,-0.2920,86.16,65.06,-172.99
770,764958085,-0.0825,-0.7124,-0.3198,86.52,64.51,-171.34
771,764963087,-0.0640,-0.7070,-0.3193,85.61,64.21,-169.57
772,764968087,-0.0703,-0.6963,-0.2725,83.72,64.27,-167.68
773,764973088,-0.0669,-0.6860,-0.2612,80.67,65.00,-165.79
774,764978482,-0.0312,-0.6382,-0.3232,75.49,65.49,-163.84
775,764983089,-0.0205,-0.6562,-0.3291,70.24,65.55,-162.74
776,764988086,0.0181,-0.6479,-0.2715,62.44,66.16,-161.40
777,764993087,0.0464,-0.6455,-0.2466,53.60,67.56,-160.00
778,764998087,0.0488,-0.6318,-0.2754,44.27,69.45,-158.60
779,765003087,0.0620,-0.6123,-0.2817,35.06,71.16,-157.38
780,765008085,0.1006,-0.5986,-0.2979,26.34,72.74,-156.34
781,765013089,0.1611,-0.6025,-0.3110,19.15,73.66,-154.94
782,765018087,0.2007,-0.6118,-0.3315,13.23,74.09,-153.35
783,765023087,0.1924,-0.5913,-0.2344,8.48,75.18,-151.71
784,765028086,0.2661,-0.5601,-0.2144,5.06,76.83,-150.00
785,765033172,0.2837,-0.5210,-0.2656,3.66,77.80,-148.84
786,765038088,0.2983,-0.5459,-0.2793,4.39,78.17,-147.56
787,765043088,0.3354,-0.5229,-0.2310,7.93,78.66,-146.83
788,765048087,0.3760,-0.5244,-0.1899,14.15,78.78,-146.10
789,765053087,0.5342,-0.4282,-0.3481,22.62,76.89,-145.67
790,765058087,0.5601,-0.5347,-0.1582,33.23,74.57,-145.37
791,765063087,0.5742,-0.6060,-0.1216,44.70,72.50,-144.82
792,765068087,0.5522,-0.6357,-0.1895,56.83,70.18,-144.45
793,765073087,0.5249,-0.6035,-0.1582,69.21,67.80,-144.09
794,765078085,0.5200,-0.5488,-0.0527,81.65,65.98,-144.27
795,765083087,0.5244,-0.4937,-0.0449,94.15,64.33,-144.57
796,765088202,0.5244,-0.4644,-0.0894,105.91,62.20,-144.82
797,765093086,0.5122,-0.4526,-0.0435,117.13,60.30,-145.18
798,765098085,0.4985,-0.4609,0.0376,127.68,58.66,-145.49
799,765103085,0.4819,-0.4736,0.0312,136.59,57.20,-145.91
800,765108086,0.4717,-0.4785,0.0015,144.82,55.18,-146.28
801,765113089,0.4565,-0.4590,0.0591,151.95,53.48,-146.59
802,765118089,0.4438,-0.4224,0.1250,158.23,52.32,-146.95
803,765123086,0.4312,-0.3823,0.1079,163.29,50.98,-147.32
804,765128087,0.4243,-0.3535,0.0967,167.20,49.63,-147.80
805,765133087,0.4175,-0.3384,0.1489,169.70,48.35,-148.11
806,765138087,0.4189,-0.3413,0.1870,170.73,47.26,-148.54
807,765143086,0.4282,-0.3486,0.1646,170.61,45.98,-148.66
808,765148087,0.4492,-0.3521,0.1562,168.96,44.63,-148.78
809,765153086,0.4653,-0.3398,0.1992,165.91,43.35,-148.90
810,765158085,0.4829,-0.3252,0.2129,162.13,42.32,-148.84
811,765163087,0.4961,-0.3066,0.1904,157.32,40.73,-148.78
812,765168101,0.5049,-0.2925,0.1948,151.83,39.33,-148.60
813,765173136,0.5146,-0.2886,0.2285,145.85,38.05,-148.35
814,765178087,0.5225,-0.2891,0.2427,139.70,37.07,-148.05
815,765183085,0.5264,-0.2915,0.2305,133.60,36.04,-147.56
816,765188088,0.5366,-0.2866,0.2485,127.80,35.00,-147.07
817,765193087,0.5420,-0.2749,0.2915,122.07,34.33,-146.40
818,765198087,0.5625,-0.2607,0.2925,117.07,33.78,-145.61
819,765203087,0.5884,-0.2456,0.2754,112.44,33.11,-144.82
820,765208088,0.6011,-0.2354,0.2856,108.23,32.62,-144.02
821,765213809,0.6289,-0.2212,0.2964,103.96,31.95,-142.87
822,765218198,0.6436,-0.2178,0.2979,101.22,31.59,-142.13
823,765223087,0.6709,-0.2124,0.2866,98.17,30.73,-141.22
824,765228087,0.6934,-0.2051,0.3018,95.24,30.00,-140.30
825,765233087,0.7163,-0.1963,0.3184,92.68,29.33,-139.27
826,765238087,0.7339,-0.1914,0.3145,90.43,28.66,-138.23
827,765243087,0.7490,-0.1841,0.3125,88.41,27.74,-137.26
828,765248086,0.7646,-0.1802,0.3384,86.95,27.07,-136.16
829,765253087,0.7778,-0.1743,0.3555,85.98,26.71,-135.00
830,765258086,0.7798,-0.1660,0.3521,85.67,26.16,-133.96
831,765263087,0.7803,-0.1523,0.3579,85.91,25.67,-132.93
832,765268086,0.7837,-0.1367,0.3735,86.52,25.43,-131.89
833,765273087,0.7905,-0.1216,0.3828,87.68,25.18,-130.98
834,765278103,0.8022,-0.1025,0.3770,89.15,25.00,-130.12
835,765283085,0.8257,-0.0889,0.3823,90.91,24.63,-129.27
836,765288087,0.8501,-0.0669,0.3940,92.99,24.27,-128.66
837,765293087,0.8745,-0.0542,0.3994,95.24,23.84,-127.93
838,765298087,0.8975,-0.0400,0.3901,97.38,23.29,-127.44
839,765303086,0.9165,-0.0293,0.3950,99.51,22.50,-126.77
840,765308089,0.9341,-0.0210,0.4043,101.34,21.89,-126.10
841,765313087,0.9507,-0.0215,0.4111,102.99,21.16,-125.43
842,765318089,0.9600,-0.0220,0.3950,104.39,20.18,-124.51
843,765323086,0.9727,-0.0239,0.4116,105.49,19.02,-123.54
844,765328087,0.9756,-0.0229,0.4233,106.46,18.05,-122.32
845,765333086,0.9897,-0.0156,0.4272,107.56,17.13,-120.85
846,765338087,0.9961,-0.0063,0.4355,108.60,16.10,-119.39
847,765343086,0.9980,0.0073,0.4512,109.88,15.12,-117.68
848,765348085,1.0073,0.0322,0.4634,111.52,14.27,-116.10
849,765353087,1.0127,0.0591,0.4780,113.66,13.41,-114.45
850,765358087,1.0181,0.0894,0.4673,116.16,12.50,-112.93
851,765363086,1.0239,0.1191,0.4849,118.96,11.52,-111.40
852,765368087,1.0317,0.1460,0.4888,121.59,10.49,-109.88
853,765373086,1.0430,0.1714,0.5015,124.33,9.45,-108.54
854,765378085,1.0503,0.1909,0.4912,126.34,8.23,-106.89
855,765383087,1.0474,0.2036,0.4946,128.84,6.89,-105.18
856,765388205,1.0532,0.2192,0.4966,130.00,5.49,-103.48
857,765393088,1.0542,0.2334,0.4961,130.06,3.72,-101.52
858,765398086,1.0635,0.2461,0.4990,129.45,2.07,-99.33
859,765403087,1.0649,0.2671,0.5093,128.90,0.37,-97.01
860,765408086,1.0581,0.2822,0.5132,127.07,-1.10,-94.76
861,765413085,1.0601,0.3003,0.5186,125.18,-2.80,-92.20
862,765418086,1.0493,0.3262,0.5229,122.68,-4.39,-89.63
863,765423087,1.0371,0.3447,0.5347,119.88,-5.61,-87.13
864,765428086,1.0322,0.3604,0.5293,116.95,-6.83,-84.57
865,765433087,1.0293,0.3760,0.5361,113.78,-8.11,-81.89
866,765438087,1.0269,0.3936,0.5435,110.55,-9.15,-79.33
867,765443087,1.0239,0.4072,0.5449,107.20,-10.18,-76.71
868,765448085,1.0195,0.4248,0.5430,103.90,-11.16,-73.96
869,765453087,1.0195,0.4390,0.5347,100.49,-12.13,-71.22
870,765458088,1.0254,0.4536,0.5396,97.13,-13.11,-68.66
871,765463087,1.0278,0.4595,0.5356,93.54,-13.90,-65.98
872,765468086,1.0322,0.4600,0.5352,89.82,-14.70,-63.23
873,765473088,1.0308,0.4658,0.5269,86.04,-15.49,-60.37
874,765478087,1.0283,0.4678,0.5244,82.13,-16.10,-57.50
875,765483087,1.0273,0.4688,0.5254,78.23,-16.83,-54.57
876,765488085,1.0273,0.4688,0.5239,74.45,-17.44,-51.59
877,765493087,1.0264,0.4697,0.5156,70.85,-17.99,-48.66
878,765498088,1.0215,0.4717,0.5132,67.68,-18.41,-45.55
879,765503087,1.0249,0.4756,0.5161,64.76,-18.66,-42.56
880,765508085,1.0259,0.4800,0.5122,62.38,-19.15,-39.70
881,765513085,1.0298,0.4868,0.5190,60.43,-19.33,-36.71
882,765518085,1.0312,0.4893,0.5054,58.96,-19.45,-33.78
883,765523087,1.0396,0.4912,0.5020,57.80,-19.57,-30.98
884,765528088,1.0391,0.4849,0.4951,56.89,-19.57,-28.29
885,765533087,1.0479,0.4800,0.4990,56.22,-19.39,-25.55
886,765538086,1.0552,0.4819,0.4971,55.61,-19.45,-22.87
887,765543087,1.0601,0.4707,0.4873,55.06,-19.02,-20.24
888,765548086,1.0630,0.4673,0.4819,54.33,-18.72,-17.87
889,765553087,1.0654,0.4609,0.4810,53.72,-18.48,-15.24
890,765558087,1.0640,0.4575,0.4790,53.11,-17.99,-12.87
891,765563087,1.0610,0.4502,0.4697,52.50,-17.68,-10.55
892,765568085,1.0674,0.4424,0.4634,51.77,-17.13,-8.17
893,765573085,1.0708,0.4385,0.4585,50.98,-16.71,-6.10
894,765578089,1.0786,0.4375,0.4556,50.12,-16.16,-3.90
895,765583089,1.0898,0.4326,0.4551,48.90,-15.55,-2.01
896,765588086,1.1016,0.4302,0.4399,47.74,-15.18,-0.12
897,765593567,1.1133,0.4238,0.4365,46.04,-14.63,1.95
898,765598089,1.1177,0.4219,0.4282,44.82,-14.39,3.35
899,765603086,1.1201,0.4126,0.4229,43.05,-14.02,4.94
900,765608087,1.1191,0.4106,0.4150,41.22,-13.41,6.52
901,765613087,1.1226,0.4043,0.4131,39.15,-13.23,7.87
902,765618085,1.1191,0.3975,0.4058,36.89,-12.80,9.27
903,765623087,1.1187,0.3970,0.4019,34.57,-12.44,10.55
904,765628086,1.1157,0.3926,0.4014,32.07,-11.95,11.83
905,765633087,1.1108,0.3896,0.3950,29.63,-11.59,12.93
906,765638087,1.1074,0.3940,0.3906,27.26,-11.16,13.96
907,765643087,1.1035,0.3901,0.3896,24.70,-10.67,14.82
908,765648087,1.0957,0.3906,0.3804,22.01,-10.12,15.67
909,765653087,1.0854,0.3882,0.3867,19.39,-9.70,16.40
910,765658087,1.0767,0.3853,0.3696,16.71,-9.39,17.13
911,765663088,1.0732,0.3799,0.3672,14.02,-8.78,17.80
912,765668087,1.0659,0.3828,0.3672,11.34,-8.54,18.41
913,765673087,1.0547,0.3799,0.3613,8.84,-8.05,18.96
914,765678087,1.0439,0.3770,0.3613,6.40,-7.87,19.57
915,765683087,1.0337,0.3765,0.3525,4.09,-7.50,20.12
916,765688087,1.0273,0.3750,0.3452,1.89,-7.20,20.55
917,765693087,1.0146,0.3691,0.3486,-0.18,-6.77,21.10
918,765698087,1.0034,0.3711,0.3496,-2.01,-6.46,21.65
919,765703088,0.9897,0.3652,0.3447,-3.66,-5.98,22.20
920,765708087,0.9814,0.3696,0.3462,-5.06,-5.49,22.68
921,765713087,0.9717,0.3662,0.3394,-6.22,-5.12,23.23
922,765718085,0.9551,0.3589,0.3394,-7.44,-4.76,23.78
923,765723085,0.9507,0.3550,0.3413,-8.35,-4.33,24.39
924,765728087,0.9409,0.3535,0.3369,-9.09,-3.90,25.00
925,765733087,0.9346,0.3472,0.3359,-9.63,-3.60,25.61
926,765738087,0.9292,0.3501,0.3359,-10.06,-3.23,26.16
927,765743086,0.9263,0.3477,0.3320,-10.49,-2.99,26.77
928,765748087,0.9194,0.3428,0.3276,-10.73,-2.38,27.26
929,765753086,0.9160,0.3374,0.3315,-10.85,-2.26,27.87
930,765758087,0.9160,0.3340,0.3237,-11.04,-2.07,28.54
931,765763086,0.9102,0.3281,0.3257,-10.98,-1.95,29.21
932,765768087,0.9082,0.3247,0.3237,-10.91,-1.89,29.82
933,765773086,0.9126,0.3247,0.3193,-10.79,-1.95,30.55
934,765778087,0.9126,0.3228,0.3159,-10.43,-1.89,31.04
935,765783087,0.9087,0.3164,0.3179,-9.88,-2.13,31.65
936,765788087,0.9082,0.3110,0.3174,-9.33,-2.07,32.32
937,765793086,0.9077,0.3057,0.3208,-8.66,-2.07,32.87
938,765798133,0.9097,0.3027,0.3193,-7.80,-2.07,33.35
939,765803087,0.9102,0.3008,0.3169,-6.83,-2.01,33.96
940,765808085,0.9072,0.2964,0.3223,-5.67,-2.01,34.51
941,765813087,0.9072,0.2915,0.3213,-4.27,-1.89,34.94
942,765818087,0.9058,0.2847,0.3193,-2.87,-2.01,35.43
943,765823085,0.9092,0.2827,0.3154,-1.34,-1.89,35.91
944,765828087,0.9111,0.2759,0.3169,0.49,-1.89,36.34
945,765833088,0.9165,0.2729,0.3242,1.77,-1.89,36.77
946,765838087,0.9180,0.2676,0.3140,3.35,-2.01,37.07
947,765843086,0.9204,0.2676,0.3091,4.94,-2.01,37.26
948,765848128,0.9258,0.2559,0.3149,6.40,-2.01,37.44
949,765853086,0.9282,0.2520,0.3096,7.80,-2.20,37.68
950,765858087,0.9341,0.2476,0.3062,9.39,-2.32,37.87
951,765863086,0.9409,0.2417,0.3052,10.73,-2.38,38.11
952,765868087,0.9463,0.2319,0.3066,12.07,-2.32,38.23
953,765873087,0.9443,0.2300,0.3003,13.48,-2.38,38.35
954,765878087,0.9409,0.2271,0.3008,14.70,-2.38,38.41
955,765883086,0.9414,0.2197,0.3057,15.98,-2.44,38.41
956,765888155,0.9443,0.2168,0.3057,17.13,-2.44,38.60
957,765893087,0.9482,0.2109,0.3052,18.17,-2.38,38.66
958,765898085,0.9468,0.2036,0.3081,19.02,-2.32,38.54
959,765903087,0.9521,0.2017,0.3071,19.82,-2.32,38.48
960,765908089,0.9585,0.1934,0.3174,20.30,-2.13,38.41
961,765913086,0.9634,0.1860,0.3071,20.73,-1.95,38.35
962,765918087,0.9658,0.1826,0.3066,20.85,-1.95,38.05
963,765923086,0.9683,0.1797,0.3066,20.91,-1.77,37.87
964,765928085,0.9683,0.1738,0.3105,20.79,-1.65,37.62
965,765933087,0.9771,0.1714,0.3013,20.61,-1.71,37.26
966,765938087,0.9771,0.1680,0.3066,20.30,-1.65,36.89
967,765943088,0.9839,0.1626,0.3071,20.00,-1.65,36.40
968,765948087,0.9858,0.1597,0.3091,19.51,-1.40,36.04
969,765953087,0.9854,0.1533,0.3071,18.84,-1.46,35.55
970,765958085,0.9863,0.1519,0.3032,18.23,-1.28,35.06
971,765963088,0.9883,0.1504,0.3115,17.56,-1.28,34.63
972,765968087,0.9897,0.1436,0.3091,16.71,-1.10,33.96
973,765973087,0.9873,0.1372,0.3120,15.91,-0.98,33.54
974,765978085,0.9912,0.1387,0.3125,15.00,-0.98,32.87
975,765983087,0.9868,0.1304,0.3159,14.02,-0.85,32.26
976,765988088,0.9897,0.1255,0.3145,12.93,-0.79,31.59
977,765993087,0.9946,0.1191,0.3169,11.89,-0.73,30.98
978,765998087,0.9922,0.1157,0.3188,10.30,-0.79,30.30
979,766003088,0.9897,0.1113,0.3203,9.33,-0.85,29.76
980,766008088,0.9932,0.1108,0.3145,8.29,-0.85,29.15
981,766013087,0.9902,0.1064,0.3096,6.83,-0.98,28.48
982,766018087,0.9976,0.1025,0.3135,5.61,-0.98,27.99
983,766023088,0.9937,0.0957,0.3066,4.45,-1.10,27.38
984,766028085,0.9873,0.0947,0.3140,3.23,-1.22,26.77
985,766033085,0.9902,0.0923,0.3130,2.07,-1.52,26.22
986,766038087,0.9902,0.0898,0.3149,1.10,-1.59,25.55
987,766043087,0.9863,0.0859,0.3115,0.06,-1.77,25.00
988,766048541,0.9849,0.0869,0.3198,-0.85,-2.07,24.33
989,766053159,0.9814,0.0820,0.3145,-1.28,-2.26,24.02
990,766058089,0.9795,0.0811,0.3208,-1.77,-2.44,23.48
991,766063086,0.9692,0.0742,0.3237,-2.20,-2.62,23.05
992,766068087,0.9707,0.0732,0.3296,-2.38,-2.74,22.62
993,766073086,0.9648,0.0718,0.3267,-2.50,-2.87,22.20
994,766078087,0.9644,0.0674,0.3252,-2.50,-3.05,21.89
995,766083086,0.9604,0.0649,0.3237,-2.44,-3.23,21.59
996,766088110,0.9624,0.0664,0.3213,-2.20,-3.29,21.16
997,766093087,0.9570,0.0645,0.3257,-1.89,-3.60,20.79
998,766098087,0.9531,0.0566,0.3213,-1.52,-3.72,20.61
999,766103087,0.9575,0.0542,0.3252,-1.16,-4.09,20.24
1000,766108087,0.9590,0.0571,0.3218,-0.73,-4.27,20.06
1001,766113087,0.9541,0.0527,0.3232,0.00,-4.63,19.63
1002,766118088,0.9546,0.0498,0.3188,0.67,-4.76,19.45
1003,766123087,0.9551,0.0508,0.3213,1.52,-5.12,19.21
1004,766128085,0.9502,0.0488,0.3257,2.50,-5.12,18.90
1005,766133085,0.9517,0.0503,0.3301,3.60,-5.43,18.72
1006,766138087,0.9526,0.0483,0.3345,4.88,-5.55,18.54
1007,766143087,0.9502,0.0479,0.3330,6.22,-5.67,18.17
1008,766148087,0.9497,0.0508,0.3311,7.62,-5.79,17.93
1009,766153086,0.9507,0.0479,0.3267,8.90,-5.85,17.68
1010,766158087,0.9546,0.0454,0.3340,10.37,-5.98,17.50
1011,766163086,0.9575,0.0435,0.3394,11.71,-6.04,17.20
1012,766168154,0.9595,0.0474,0.3359,13.23,-6.22,16.95
1013,766173086,0.9575,0.0444,0.3350,14.45,-6.10,16.59
1014,766178085,0.9565,0.0464,0.3315,15.79,-6.16,16.16
1015,766183088,0.9546,0.0439,0.3359,16.71,-6.16,15.85
1016,766188087,0.9570,0.0459,0.3296,17.56,-6.34,15.49
1017,766193087,0.9570,0.0405,0.3306,18.35,-6.40,15.12
1018,766198088,0.9565,0.0400,0.3286,18.90,-6.52,14.70
1019,766203087,0.9609,0.0347,0.3335,19.33,-6.71,14.39
1020,766208087,0.9590,0.0332,0.3296,19.51,-6.71,13.96
1021,766213088,0.9624,0.0347,0.3306,19.39,-6.65,13.60
1022,766218087,0.9614,0.0308,0.3291,19.33,-6.77,13.29
1023,766223087,0.9629,0.0278,0.3281,19.15,-6.71,12.99
1024,766228087,0.9614,0.0288,0.3276,18.66,-6.77,12.68
1025,766233088,0.9644,0.0249,0.3242,18.23,-6.83,12.38
1026,766238085,0.9634,0.0254,0.3286,17.74,-6.71,12.01
1027,766243089,0.9678,0.0269,0.3286,17.20,-6.77,11.65
1028,766248089,0.9590,0.0293,0.3271,16.52,-6.46,11.22
1029,766253086,0.9639,0.0293,0.3296,16.10,-6.34,10.85
1030,766258087,0.9678,0.0293,0.3311,15.61,-6.16,10.55
1031,766263086,0.9790,0.0210,0.3237,14.88,-5.98,10.06
1032,766268087,0.9727,0.0239,0.3257,14.27,-5.79,9.63
1033,766273086,0.9746,0.0220,0.3247,13.60,-5.55,9.27
1034,766278087,0.9780,0.0166,0.3188,12.93,-5.37,8.90
