# skilleye imu stream v1
# device=xiao_esp32c6 imu=mpu6050 addr=0x68
# rate_hz=200 accel_range_g=16 gyro_range_dps=2000 dlpf_hz=94
# units: accel in g, gyro in deg/s, t_us in microseconds since boot (monotonic)
# no shared clock with the camera -- tap the racket once before each take
# so both recordings share a spike to align on
seq,t_us,ax,ay,az,gx,gy,gz
0,290155442,-0.9600,0.2358,-0.0483,24.94,0.12,11.71
1,290160447,-0.9658,0.2368,-0.0469,26.89,0.55,12.01
2,290165441,-0.9785,0.2378,-0.0503,29.39,0.98,12.38
3,290170444,-0.9810,0.2417,-0.0459,32.20,1.46,12.80
4,290175440,-0.9878,0.2441,-0.0483,34.94,1.95,13.29
5,290180442,-0.9863,0.2432,-0.0449,37.56,2.50,13.72
6,290185441,-0.9854,0.2466,-0.0532,40.18,2.99,14.33
7,290190442,-0.9863,0.2456,-0.0493,42.74,3.54,14.70
8,290195443,-0.9824,0.2476,-0.0474,45.12,4.33,15.30
9,290200442,-0.9810,0.2480,-0.0503,47.26,4.88,15.67
10,290205441,-0.9814,0.2495,-0.0483,49.33,5.55,16.28
11,290210442,-0.9824,0.2529,-0.0532,51.10,6.40,16.89
12,290215440,-0.9834,0.2583,-0.0381,52.93,7.13,17.50
13,290220444,-0.9849,0.2681,-0.0449,54.45,7.87,18.11
14,290225441,-0.9873,0.2705,-0.0435,56.16,8.90,18.60
15,290230442,-0.9927,0.2705,-0.0454,57.62,9.94,19.33
16,290235440,-0.9990,0.2729,-0.0347,59.33,10.73,20.06
17,290240440,-1.0005,0.2759,-0.0474,60.85,11.59,20.98
18,290245442,-1.0024,0.2783,-0.0469,62.38,12.56,21.95
19,290250440,-1.0029,0.2808,-0.0498,63.78,13.48,23.05
20,290255442,-1.0039,0.2808,-0.0527,65.06,14.33,24.09
21,290260442,-1.0000,0.2842,-0.0503,66.16,15.37,25.18
22,290265442,-0.9961,0.2866,-0.0503,66.83,16.22,26.34
23,290270441,-0.9922,0.2881,-0.0547,67.32,17.07,27.50
24,290275442,-0.9907,0.2861,-0.0498,67.50,18.05,28.72
25,290280442,-0.9922,0.2900,-0.0566,67.38,18.78,29.94
26,290285442,-0.9888,0.2983,-0.0571,67.13,19.45,31.04
27,290290441,-0.9922,0.3022,-0.0610,66.77,20.18,32.13
28,290295442,-1.0015,0.3018,-0.0684,66.40,20.67,33.23
29,290300686,-0.9966,0.3081,-0.0698,66.10,21.22,34.51
30,290305442,-0.9927,0.3145,-0.0742,65.91,21.59,35.24
31,290310442,-0.9888,0.3193,-0.0781,65.37,22.07,36.22
32,290315442,-0.9897,0.3232,-0.0674,65.18,22.44,36.89
33,290320441,-0.9839,0.3320,-0.0723,64.76,22.93,37.87
34,290325442,-0.9839,0.3394,-0.0786,64.82,23.17,38.54
35,290330443,-0.9883,0.3447,-0.0825,65.00,23.66,39.15
36,290335442,-0.9912,0.3530,-0.0859,65.18,23.84,39.70
37,290340441,-0.9912,0.3599,-0.0942,65.73,24.15,40.24
38,290345443,-0.9932,0.3623,-0.0996,66.04,24.15,40.91
39,290350440,-0.9966,0.3672,-0.1055,66.22,24.51,41.28
40,290355442,-1.0005,0.3735,-0.1177,66.40,24.33,41.95
41,290360442,-1.0049,0.3755,-0.1270,66.40,24.21,42.56
42,290365440,-1.0107,0.3784,-0.1279,66.16,23.78,43.23
43,290370442,-1.0054,0.3867,-0.1313,65.73,23.54,43.96
44,290375441,-1.0024,0.3706,-0.1421,65.61,23.11,44.88
45,290380442,-1.0103,0.4072,-0.1426,65.79,22.62,45.79
46,290385440,-0.9980,0.3916,-0.1567,67.01,22.26,46.71
47,290390444,-0.9976,0.3755,-0.1392,68.05,21.71,47.01
48,290395441,-1.0278,0.4136,-0.1846,68.72,21.04,47.62
49,290400442,-1.0693,0.4351,-0.1802,68.90,20.55,48.29
50,290405442,-1.0815,0.4277,-0.1851,69.09,19.82,48.78
51,290410442,-1.0850,0.4116,-0.2056,69.27,18.84,49.63
52,290415441,-1.0801,0.4189,-0.2051,69.88,18.35,50.37
53,290420442,-1.0674,0.4355,-0.2026,70.85,17.93,51.34
54,290425440,-1.0283,0.4531,-0.2007,71.83,17.56,51.89
55,290430442,-1.0146,0.4580,-0.2090,72.99,17.56,52.93
56,290435443,-1.0264,0.4487,-0.2085,73.66,17.80,53.78
57,290440442,-1.0459,0.4443,-0.2183,74.39,18.17,55.00
58,290445442,-1.0386,0.4399,-0.2407,74.88,18.54,56.59
59,290450440,-1.0630,0.4556,-0.2417,75.12,18.96,58.29
60,290455469,-1.0728,0.4658,-0.2446,75.49,19.51,60.12
61,290460442,-1.0601,0.4683,-0.2720,75.43,20.24,62.07
62,290465442,-1.0576,0.4790,-0.2793,75.24,21.16,64.02
63,290470442,-1.0703,0.4893,-0.2881,74.45,22.26,66.04
64,290475442,-1.0938,0.4951,-0.2900,73.35,23.29,68.05
65,290480442,-1.1289,0.4844,-0.2964,72.38,24.88,70.24
66,290485442,-1.1182,0.4990,-0.3208,71.34,26.52,72.38
67,290490442,-1.1021,0.5166,-0.3262,70.00,28.54,74.70
68,290495440,-1.0830,0.5244,-0.3379,68.05,30.67,76.95
69,290500756,-1.0806,0.5234,-0.3711,65.91,32.93,79.02
70,290505442,-1.0918,0.5322,-0.3975,63.66,35.43,81.34
71,290510442,-1.1011,0.5361,-0.4087,61.65,37.99,83.72
72,290515443,-1.1016,0.5361,-0.4302,59.82,40.73,85.24
73,290520441,-1.1045,0.5425,-0.4526,58.17,43.84,87.44
74,290525442,-1.1235,0.5405,-0.4595,57.01,47.13,90.61
75,290530442,-1.1074,0.5591,-0.4897,56.28,50.55,93.17
76,290535442,-1.1089,0.5698,-0.5210,55.73,54.21,95.61
77,290540441,-1.1182,0.5762,-0.5293,55.24,57.93,97.80
78,290545442,-1.1216,0.5737,-0.5513,55.18,62.07,100.00
79,290550444,-1.1265,0.5835,-0.5801,55.37,66.22,102.07
80,290555442,-1.1304,0.5981,-0.5898,55.67,70.98,103.84
81,290560442,-1.1318,0.6045,-0.6230,56.10,75.67,105.37
82,290565441,-1.1465,0.6138,-0.6494,56.95,80.43,106.89
83,290570442,-1.1631,0.6172,-0.6768,58.29,86.04,108.29
84,290575440,-1.1865,0.6304,-0.7046,59.94,89.94,109.57
85,290581005,-1.2065,0.6289,-0.7300,62.99,96.22,111.40
86,290585444,-1.2109,0.6328,-0.7505,65.98,100.18,112.44
87,290590442,-1.2119,0.6216,-0.7578,70.24,105.12,113.90
88,290595442,-1.2246,0.6221,-0.7783,75.24,110.18,115.43
89,290600441,-1.2202,0.6187,-0.7876,80.98,115.24,116.83
90,290605442,-1.2197,0.6216,-0.7954,87.20,120.37,118.17
91,290610442,-1.2188,0.6143,-0.8071,93.54,125.61,119.39
92,290615442,-1.2168,0.6094,-0.8091,99.70,130.85,120.49
93,290620443,-1.2188,0.6064,-0.8179,105.49,136.28,121.40
94,290625442,-1.2114,0.5903,-0.8145,110.73,141.77,122.20
95,290630442,-1.2007,0.5742,-0.8198,115.55,147.01,122.87
96,290635442,-1.2217,0.5386,-0.7876,120.24,152.56,123.60
97,290640441,-1.2236,0.5371,-0.8320,123.96,158.05,123.78
98,290645443,-1.2271,0.5249,-0.7959,125.85,163.11,123.66
99,290650442,-1.2334,0.5103,-0.7842,127.13,167.99,123.05
100,290655442,-1.2427,0.4702,-0.8076,127.01,172.74,122.20
101,290660709,-1.2544,0.4170,-0.7656,126.77,177.32,121.52
102,290665442,-1.2319,0.4136,-0.8105,125.61,181.71,120.30
103,290670443,-1.2910,0.3892,-0.7363,124.27,185.67,118.66
104,290675442,-1.2495,0.3716,-0.7300,122.26,189.33,116.83
105,290680441,-1.2622,0.3120,-0.7246,119.70,192.44,114.94
106,290685442,-1.2695,0.3379,-0.6074,117.56,195.67,113.05
107,290690442,-1.2056,0.3008,-0.6343,115.24,198.54,110.30
108,290695442,-1.3325,0.1328,-0.6089,112.93,200.79,108.05
109,290700441,-1.3433,0.1558,-0.5762,111.22,202.01,105.18
110,290705442,-1.2534,0.2275,-0.5420,109.57,202.74,102.07
111,290710442,-1.1758,0.1763,-0.5015,107.80,203.29,98.72
112,290715443,-1.1157,0.1685,-0.4282,106.10,203.41,95.61
113,290720440,-1.0278,0.1636,-0.4189,104.09,203.11,91.89
114,290725441,-0.8828,0.1724,-0.3857,101.59,202.62,88.05
115,290730443,-0.7168,0.2075,-0.3779,98.23,201.52,82.56
116,290735442,-0.5737,0.2524,-0.3560,93.84,200.12,76.52
117,290740442,-0.5420,0.1992,-0.3804,88.54,197.99,70.67
118,290745440,-0.5752,0.1958,-0.3345,82.07,195.91,65.55
119,290750442,-0.6143,0.2061,-0.3125,75.43,194.09,60.49
120,290755442,-0.6450,0.1963,-0.3027,68.78,192.26,55.73
121,290760440,-0.6509,0.1621,-0.2739,61.89,190.79,51.22
122,290765846,-0.6558,0.1626,-0.2363,53.11,189.39,46.65
123,290770444,-0.6670,0.1377,-0.2153,46.65,188.78,43.84
124,290775442,-0.6724,0.1777,-0.2178,37.80,187.74,40.55
125,290780442,-0.6553,0.1938,-0.1738,28.11,186.95,36.89
126,290785442,-0.6553,0.1953,-0.1187,17.80,186.34,33.29
127,290790441,-0.6460,0.2114,-0.0947,7.38,186.28,29.70
128,290795443,-0.6221,0.2109,-0.0977,-3.35,186.46,26.28
129,290800442,-0.5996,0.2075,-0.0674,-14.09,186.59,23.11
130,290805443,-0.5684,0.2119,-0.0317,-24.88,187.01,20.00
131,290810440,-0.5205,0.2007,-0.0181,-35.49,187.68,17.13
132,290815441,-0.4570,0.1948,-0.0171,-45.85,188.23,14.76
133,290820442,-0.3896,0.1904,-0.0176,-56.04,188.72,12.32
134,290825441,-0.3242,0.1523,-0.1182,-66.16,188.35,10.37
135,290830442,-0.3003,0.0586,-0.4004,-76.89,184.27,9.63
136,290835441,-0.3247,0.1318,-0.4238,-89.70,176.89,9.27
137,290840444,-0.3691,0.1602,-0.1987,-104.76,169.57,7.74
138,290845441,-0.3936,0.1074,-0.2188,-121.95,163.11,6.16
139,290850442,-0.4067,0.1338,-0.2915,-140.85,155.49,4.76
140,290855441,-0.4224,0.2588,-0.2900,-160.49,146.46,2.20
141,290860440,-0.4170,0.2856,-0.2559,-179.39,136.71,-1.59
142,290865442,-0.3779,0.2778,-0.2197,-196.22,126.95,-5.79
143,290870442,-0.3301,0.2705,-0.1455,-209.70,117.74,-9.70
144,290875441,-0.3335,0.2773,-0.0913,-219.82,109.33,-13.66
145,290880442,-0.3623,0.2852,-0.0518,-226.52,101.77,-17.87
146,290885441,-0.3818,0.2891,-0.0103,-229.94,94.57,-22.26
147,290890442,-0.3779,0.2822,0.0254,-230.43,88.84,-26.65
148,290895441,-0.3774,0.2827,0.0278,-227.93,82.93,-31.16
149,290900470,-0.3652,0.2861,0.0547,-222.80,76.77,-35.85
150,290905441,-0.3438,0.2944,0.0566,-215.55,71.04,-40.73
151,290910442,-0.3262,0.3164,0.0444,-206.34,65.61,-46.22
152,290915441,-0.3198,0.3438,0.0430,-195.73,60.12,-52.26
153,290920442,-0.2983,0.3677,0.0244,-183.78,54.57,-58.90
154,290925484,-0.2827,0.3896,0.0112,-171.28,49.02,-65.91
155,290930442,-0.2549,0.4233,0.0176,-158.41,43.11,-73.48
156,290935441,-0.2207,0.5254,0.0483,-147.44,36.83,-80.91
157,290940444,-0.2578,0.5479,0.0195,-137.32,30.49,-88.78
158,290945441,-0.2969,0.5801,0.0146,-126.34,24.51,-97.44
159,290950442,-0.3057,0.5581,-0.0259,-116.04,18.05,-105.67
160,290955442,-0.3198,0.5869,-0.0518,-106.28,10.98,-113.90
161,290960441,-0.3354,0.6240,-0.0586,-96.95,3.84,-122.20
162,290965440,-0.3584,0.6372,-0.0894,-87.93,-3.60,-130.67
163,290970442,-0.3760,0.6499,-0.1274,-79.21,-11.34,-139.39
164,290975442,-0.3999,0.6421,-0.1777,-70.43,-19.57,-148.17
165,290980442,-0.4409,0.6201,-0.2026,-61.59,-27.93,-156.83
166,290985441,-0.4941,0.5742,-0.2563,-52.20,-36.46,-165.55
167,290990440,-0.5410,0.5767,-0.2622,-42.56,-45.06,-174.02
168,290995442,-0.5991,0.5723,-0.2749,-33.35,-53.66,-182.38
169,291000442,-0.6641,0.5688,-0.2876,-24.39,-62.32,-189.88
170,291005441,-0.7324,0.5796,-0.2925,-16.22,-71.10,-197.13
171,291010442,-0.8081,0.5586,-0.3335,-8.96,-80.00,-203.84
172,291015441,-0.8940,0.5405,-0.3589,-2.93,-89.45,-209.63
173,291020442,-0.9473,0.5464,-0.3511,1.65,-98.48,-215.00
174,291025441,-0.9888,0.5498,-0.3726,4.02,-107.44,-220.37
175,291030442,-1.0229,0.5708,-0.4009,3.96,-116.59,-225.37
176,291035441,-1.0479,0.5908,-0.4297,0.85,-126.16,-230.18
177,291040442,-1.0728,0.5913,-0.4692,-5.37,-135.73,-234.82
178,291045441,-1.1001,0.6328,-0.4829,-14.63,-145.18,-239.21
179,291050442,-1.1455,0.6313,-0.5029,-26.95,-154.57,-243.48
180,291055441,-1.2065,0.6021,-0.5342,-42.44,-163.54,-247.01
181,291060443,-1.2188,0.6094,-0.5493,-60.98,-172.20,-250.12
182,291065441,-1.2041,0.6206,-0.5425,-82.62,-180.00,-252.74
183,291070442,-1.1904,0.6367,-0.5522,-107.01,-187.38,-255.37
184,291075441,-1.1538,0.6675,-0.5688,-134.02,-194.02,-258.05
185,291080442,-1.1055,0.7158,-0.5356,-163.05,-199.70,-261.46
186,291085442,-1.0762,0.7744,-0.5210,-193.60,-204.33,-265.49
187,291090486,-1.0532,0.8091,-0.5181,-225.00,-207.93,-270.12
188,291095441,-1.0869,0.8579,-0.4878,-256.52,-210.30,-275.43
189,291100442,-1.1064,0.9175,-0.4707,-287.32,-211.52,-281.34
190,291105441,-1.1436,0.9692,-0.4561,-316.95,-211.34,-287.62
191,291110442,-1.1978,0.9927,-0.4180,-344.39,-210.18,-294.21
192,291115441,-1.2349,1.0347,-0.3926,-369.45,-207.80,-300.55
193,291120444,-1.2749,1.0835,-0.3589,-391.65,-204.70,-307.20
194,291125441,-1.3066,1.1167,-0.3413,-410.91,-200.67,-313.78
195,291130444,-1.3228,1.1685,-0.3101,-427.07,-196.22,-320.49
196,291135441,-1.3457,1.2124,-0.2803,-439.82,-191.59,-327.13
197,291140705,-1.3838,1.2295,-0.2632,-448.78,-186.40,-333.54
198,291145442,-1.4233,1.2739,-0.2231,-453.48,-181.34,-339.70
199,291150442,-1.4536,1.2949,-0.1895,-453.41,-176.10,-345.30
200,291155440,-1.5000,1.3164,-0.1313,-448.66,-170.55,-350.37
201,291160441,-1.5840,1.3384,-0.1050,-439.15,-165.24,-354.94
202,291165442,-1.5859,1.3853,-0.1885,-426.10,-160.37,-359.09
203,291170441,-1.6162,1.3867,0.0977,-408.35,-155.49,-362.07
204,291175442,-1.6416,1.3628,0.0522,-386.46,-150.61,-364.21
205,291180442,-1.6841,1.3511,0.0825,-360.85,-146.52,-365.55
206,291185442,-1.7134,1.3784,0.1831,-332.68,-143.29,-366.04
207,291190441,-1.7231,1.3921,0.2231,-303.05,-140.55,-365.49
208,291195444,-1.7124,1.3809,0.2515,-272.87,-139.39,-364.33
209,291200442,-1.7036,1.3613,0.2954,-243.35,-139.27,-362.32
210,291205442,-1.7095,1.3442,0.3750,-214.63,-140.00,-359.70
211,291210441,-1.7090,1.3418,0.4082,-187.50,-141.65,-356.34
212,291215442,-1.6987,1.3193,0.4497,-161.77,-144.51,-352.26
213,291220442,-1.6758,1.3042,0.4834,-137.68,-148.23,-347.38
214,291225442,-1.6660,1.2822,0.5571,-116.04,-152.56,-342.01
215,291230441,-1.6621,1.2583,0.5884,-96.83,-157.93,-336.22
216,291235442,-1.6484,1.2510,0.6426,-80.18,-163.66,-329.94
217,291240442,-1.6279,1.2344,0.6929,-66.10,-169.82,-323.48
218,291245442,-1.6138,1.2261,0.7305,-54.57,-176.28,-316.52
219,291250441,-1.5864,1.2183,0.7544,-45.37,-183.11,-309.57
220,291255442,-1.5674,1.2119,0.7881,-38.29,-190.06,-302.26
221,291260442,-1.5693,1.2061,0.7905,-33.17,-197.56,-294.76
222,291265442,-1.5791,1.1978,0.8057,-29.70,-203.48,-288.60
223,291270440,-1.5928,1.1899,0.8130,-26.16,-211.40,-280.43
224,291275442,-1.6201,1.1753,0.8164,-21.52,-220.91,-269.88
225,291280442,-1.6304,1.1714,0.8438,-16.71,-228.84,-260.55
226,291285441,-1.6348,1.1685,0.8433,-11.83,-235.18,-252.62
227,291290442,-1.6504,1.1606,0.8550,-4.39,-242.99,-242.50
228,291295442,-1.6636,1.1484,0.8564,4.15,-250.79,-231.95
229,291300442,-1.6587,1.1333,0.8550,13.78,-258.90,-220.85
230,291305441,-1.6606,1.1182,0.8506,24.33,-267.07,-209.45
231,291310442,-1.6631,1.0996,0.8511,35.12,-275.30,-197.56
232,291315441,-1.6445,1.0898,0.8408,46.40,-283.60,-185.43
233,291320442,-1.6206,1.0850,0.8496,57.62,-291.71,-173.05
234,291325441,-1.5928,1.0688,0.8452,68.29,-299.82,-160.55
235,291330442,-1.5742,1.0522,0.8306,78.11,-307.68,-147.93
236,291335441,-1.5669,1.0396,0.8281,86.65,-315.30,-135.18
237,291340442,-1.5454,1.0249,0.8242,93.72,-322.80,-122.38
238,291345442,-1.5107,1.0107,0.8296,98.96,-329.70,-109.70
239,291350442,-1.4790,1.0034,0.8237,102.68,-335.98,-97.20
240,291355441,-1.4399,0.9917,0.8174,104.39,-341.77,-84.82
241,291360442,-1.4131,0.9741,0.7954,104.15,-347.20,-72.74
242,291365442,-1.3794,0.9565,0.7852,101.10,-353.23,-58.54
243,291370985,-1.3711,0.9448,0.7632,97.01,-358.05,-47.07
244,291375442,-1.3638,0.9385,0.7593,93.29,-361.34,-38.11
245,291380442,-1.3711,0.9292,0.7441,88.54,-365.37,-27.20
246,291385441,-1.3735,0.9199,0.7402,83.35,-368.78,-16.65
247,291390442,-1.3779,0.9097,0.7124,78.54,-372.07,-6.28
248,291395441,-1.3784,0.9038,0.6943,73.66,-374.88,3.60
249,291400442,-1.3833,0.8965,0.6802,68.84,-377.38,13.17
250,291405441,-1.3696,0.8911,0.6831,64.39,-379.51,22.13
251,291410442,-1.3589,0.8906,0.6787,59.82,-381.34,30.67
252,291415441,-1.3550,0.8794,0.6753,54.76,-382.74,39.09
253,291420442,-1.3408,0.8745,0.6758,48.72,-383.96,47.01
254,291425441,-1.3203,0.8545,0.6621,42.01,-385.18,54.57
255,291430442,-1.2896,0.8413,0.6440,34.70,-386.16,61.95
256,291435441,-1.2710,0.8237,0.6392,27.20,-387.38,69.09
257,291440442,-1.2412,0.8096,0.6396,20.43,-388.17,75.91
258,291445441,-1.1621,0.8345,0.6733,13.66,-388.78,82.56
259,291450442,-1.1431,0.8130,0.6670,7.38,-388.90,88.35
260,291455441,-1.1387,0.7690,0.6572,2.26,-388.90,93.66
261,291460442,-1.0957,0.7485,0.6704,-1.83,-388.96,99.70
262,291465441,-1.0190,0.7368,0.6782,-5.55,-388.78,105.43
263,291470443,-0.9639,0.7300,0.6870,-9.57,-388.48,110.67
264,291475441,-0.9185,0.7231,0.6904,-14.02,-387.99,115.73
265,291480442,-0.8667,0.6968,0.6792,-19.27,-387.68,120.43
266,291485441,-0.8218,0.6675,0.6885,-25.30,-387.44,125.24
267,291490442,-0.7822,0.6514,0.6982,-31.52,-387.13,130.00
268,291495441,-0.7373,0.6333,0.7124,-38.11,-386.77,134.70
269,291500444,-0.7080,0.6152,0.7119,-45.12,-386.40,138.90
270,291505441,-0.6733,0.6001,0.7148,-52.80,-386.10,142.93
271,291510442,-0.6270,0.5723,0.7163,-60.61,-385.67,146.95
272,291515441,-0.6113,0.5474,0.6997,-69.02,-385.43,150.61
273,291520442,-0.5938,0.5186,0.6958,-77.80,-385.37,154.02
274,291525441,-0.5625,0.5015,0.7085,-86.34,-385.24,157.44
275,291530442,-0.5405,0.4834,0.7100,-94.51,-385.06,160.67
276,291535442,-0.5034,0.4390,0.7153,-102.32,-384.70,163.90
277,291540442,-0.4707,0.4053,0.7129,-109.51,-384.63,167.01
278,291545441,-0.4463,0.3687,0.6763,-116.46,-384.57,170.37
279,291550442,-0.4043,0.3398,0.6729,-122.74,-384.94,173.72
280,291555442,-0.3599,0.3169,0.6836,-128.54,-385.49,176.95
281,291560442,-0.3232,0.2891,0.6836,-134.27,-385.98,180.06
282,291565442,-0.3076,0.2529,0.6665,-140.12,-386.65,183.23
283,291570441,-0.3223,0.2173,0.6436,-146.46,-387.80,186.40
284,291575443,-0.3369,0.1943,0.6108,-153.78,-389.82,189.27
285,291580440,-0.3467,0.1675,0.5894,-161.89,-392.20,192.07
286,291585442,-0.3472,0.1382,0.5664,-170.49,-395.00,194.63
287,291590444,-0.3740,0.1177,0.5220,-179.39,-398.35,196.95
288,291595441,-0.4292,0.0957,0.4780,-188.41,-402.38,198.90
289,291600442,-0.4966,0.0825,0.4414,-197.07,-406.77,200.43
290,291605441,-0.5610,0.0596,0.3696,-204.02,-411.77,201.52
291,291610442,-0.6353,0.0210,0.3457,-208.72,-417.26,202.68
292,291615441,-0.6665,0.0078,0.3047,-210.49,-422.32,203.90
293,291620442,-0.7100,0.0117,0.2778,-209.02,-427.50,205.00
294,291625441,-0.7134,-0.0400,0.2656,-205.06,-432.32,206.22
295,291630442,-0.7676,-0.0635,0.2139,-198.78,-436.65,207.93
296,291635441,-0.8447,-0.0742,0.1963,-190.43,-441.16,210.12
297,291640442,-0.9106,-0.0781,0.1396,-180.43,-445.49,212.44
298,291645441,-1.0376,-0.0762,0.0977,-168.96,-449.82,215.24
299,291650442,-1.1401,-0.1025,-0.0039,-156.28,-454.94,218.48
300,291655441,-1.1826,-0.1309,0.0073,-141.89,-459.70,222.32
301,291660442,-1.1875,-0.1533,-0.0103,-125.55,-464.02,226.95
302,291665441,-1.1802,-0.1763,-0.0337,-107.62,-468.05,232.01
303,291670442,-1.2051,-0.1855,-0.0542,-88.05,-471.52,237.93
304,291675484,-1.3169,-0.1733,-0.0640,-67.20,-474.70,244.15
305,291680440,-1.3877,-0.2163,-0.1299,-45.18,-477.50,251.04
306,291685440,-1.3657,-0.2021,-0.0815,-22.74,-480.18,258.84
307,291690442,-1.4644,-0.2261,-0.1748,-0.06,-482.07,267.44
308,291695441,-1.5820,-0.2734,-0.1812,22.93,-484.09,277.13
309,291700442,-1.6895,-0.2656,-0.1895,45.98,-485.85,287.62
310,291705441,-1.7812,-0.2285,-0.2456,68.84,-487.13,298.41
311,291710442,-1.8452,-0.2476,-0.2393,91.65,-487.74,309.88
312,291715442,-1.9019,-0.2690,-0.2056,114.15,-487.44,322.26
313,291720442,-1.9819,-0.2866,-0.2500,135.43,-486.46,335.55
314,291725441,-2.0815,-0.2803,-0.2690,156.10,-485.18,349.15
315,291730442,-2.1616,-0.2876,-0.2734,175.37,-482.87,362.99
316,291735441,-2.2461,-0.2793,-0.2764,193.11,-479.88,377.26
317,291740442,-2.3164,-0.2729,-0.2925,209.15,-476.40,391.65
318,291745441,-2.3970,-0.2910,-0.2949,223.60,-472.13,406.22
319,291750442,-2.5122,-0.3057,-0.2979,235.79,-467.07,420.98
320,291755441,-2.6343,-0.3008,-0.3110,246.22,-461.40,435.49
321,291760442,-2.7764,-0.3008,-0.3281,254.57,-455.24,449.88
322,291765441,-2.8696,-0.3218,-0.3237,261.04,-448.60,463.90
323,291770442,-2.8740,-0.3647,-0.3037,266.52,-440.98,477.87
324,291775441,-2.9604,-0.3701,-0.2349,271.10,-432.44,491.77
325,291780441,-3.0664,-0.3589,-0.2246,273.72,-422.62,504.82
326,291785442,-3.0767,-0.3726,-0.2305,273.48,-412.38,516.77
327,291790442,-3.0596,-0.3569,-0.2075,269.39,-401.83,527.50
328,291795442,-3.0801,-0.3784,-0.1851,261.89,-391.40,536.83
329,291800441,-3.1392,-0.3848,-0.1499,251.04,-380.49,545.00
330,291805442,-3.3228,-0.3003,-0.1494,234.02,-368.05,552.56
331,291810445,-3.4043,-0.3970,-0.0757,221.22,-359.51,556.40
332,291815440,-3.3721,-0.3989,-0.1274,202.87,-349.45,560.91
333,291820442,-3.3618,-0.3774,-0.0962,181.10,-340.30,564.21
334,291825440,-3.4150,-0.4023,-0.0640,155.85,-332.13,566.04
335,291830444,-3.4897,-0.4121,-0.0513,128.17,-324.82,566.46
336,291835440,-3.5732,-0.4072,-0.0142,97.93,-318.29,565.37
337,291840442,-3.6323,-0.4058,0.0342,66.28,-312.56,562.68
338,291845440,-3.6768,-0.4204,0.0581,33.90,-307.93,558.90
339,291850444,-3.7222,-0.4092,0.0796,0.73,-304.33,553.72
340,291855440,-3.7617,-0.3975,0.0947,-32.80,-301.89,547.01
341,291860442,-3.7788,-0.3828,0.0981,-66.04,-300.67,538.84
342,291865440,-3.7856,-0.3657,0.1089,-97.93,-300.73,529.33
343,291870444,-3.7905,-0.3618,0.1099,-127.87,-301.71,518.78
344,291875440,-3.8013,-0.3491,0.1196,-155.12,-303.78,507.07
345,291880441,-3.8379,-0.3423,0.1377,-179.27,-306.40,494.45
346,291885440,-3.8809,-0.3423,0.1636,-199.63,-308.78,481.34
347,291890442,-3.9453,-0.3374,0.1978,-216.10,-310.91,467.74
348,291895440,-4.0239,-0.3267,0.2192,-228.72,-312.56,453.78
349,291900444,-4.1025,-0.3223,0.2432,-238.11,-313.60,439.21
350,291905440,-4.1670,-0.3311,0.2549,-244.88,-314.02,424.51
351,291910442,-4.1982,-0.3398,0.2529,-250.30,-314.02,409.63
352,291915442,-4.2134,-0.3633,0.2505,-255.12,-313.78,394.82
353,291920442,-4.2104,-0.3813,0.2539,-260.06,-313.35,379.57
354,291925442,-4.1870,-0.3940,0.2534,-265.55,-312.38,364.21
355,291930442,-4.1265,-0.4019,0.2515,-271.71,-311.22,348.05
356,291935442,-4.0513,-0.4014,0.2529,-279.09,-310.06,331.34
357,291940595,-3.9761,-0.4033,0.2632,-287.62,-308.66,313.72
358,291945441,-3.8975,-0.3896,0.2520,-297.44,-307.26,295.06
359,291950443,-3.8003,-0.3770,0.2466,-309.09,-305.85,275.24
360,291955441,-3.6973,-0.3560,0.2393,-322.07,-304.45,254.15
361,291960441,-3.5845,-0.3564,0.2236,-337.50,-303.11,231.83
362,291965441,-3.4644,-0.3657,0.2134,-354.76,-302.01,208.41
363,291970443,-3.3516,-0.3677,0.2124,-373.05,-300.67,184.02
364,291975441,-3.2441,-0.3599,0.1938,-391.95,-299.57,158.66
365,291980441,-3.1348,-0.3599,0.1812,-410.85,-297.07,132.74
366,291985471,-3.0269,-0.3569,0.1553,-429.57,-294.76,105.67
367,291990441,-2.9121,-0.3486,0.1392,-447.38,-292.07,78.17
368,291995442,-2.8052,-0.3262,0.1279,-463.35,-288.54,49.76
369,292000443,-2.6953,-0.3057,0.1235,-477.56,-284.02,20.85
370,292005442,-2.5884,-0.2773,0.1104,-489.51,-278.35,-8.60
371,292010441,-2.4868,-0.2402,0.0942,-499.15,-271.65,-38.54
372,292015442,-2.3940,-0.2041,0.0835,-506.34,-263.72,-68.66
373,292020442,-2.3164,-0.1689,0.0679,-511.59,-255.06,-98.90
374,292025442,-2.2769,-0.1362,0.0596,-514.88,-244.76,-129.02
375,292030443,-2.2563,-0.1016,0.0518,-516.89,-233.23,-158.90
376,292035442,-2.2500,-0.0645,0.0337,-517.80,-220.43,-188.23
377,292040942,-2.2529,-0.0332,0.0132,-518.54,-206.40,-216.89
378,292045443,-2.2607,0.0054,-0.0068,-519.63,-191.34,-244.70
379,292050442,-2.2642,0.0439,-0.0410,-521.28,-175.37,-272.07
380,292055442,-2.2573,0.0991,-0.0688,-524.09,-158.60,-298.41
381,292060442,-2.2437,0.1548,-0.1069,-527.38,-141.16,-324.21
382,292065442,-2.2256,0.2197,-0.1357,-531.34,-123.23,-349.39
383,292070443,-2.2139,0.2817,-0.1714,-535.55,-104.57,-374.15
384,292075442,-2.2178,0.3486,-0.2061,-539.51,-85.55,-398.48
385,292080441,-2.2227,0.4219,-0.2412,-543.29,-65.79,-422.38
386,292085443,-2.2207,0.4883,-0.2764,-546.95,-45.37,-445.43
387,292090441,-2.2412,0.5449,-0.2944,-550.00,-24.45,-467.87
388,292095441,-2.2783,0.5977,-0.3242,-551.83,-2.93,-489.09
389,292100442,-2.3271,0.6475,-0.3491,-552.68,19.39,-509.02
390,292105441,-2.3940,0.6909,-0.3599,-552.50,42.32,-528.11
391,292110442,-2.4731,0.7373,-0.3901,-551.22,65.67,-545.67
392,292115442,-2.5586,0.7827,-0.4087,-548.84,89.27,-562.07
393,292120444,-2.6631,0.8369,-0.4355,-545.79,113.78,-577.44
394,292125440,-2.7739,0.8931,-0.4668,-542.07,138.17,-591.95
395,292130442,-2.8936,0.9341,-0.4927,-537.50,162.74,-605.43
396,292135441,-3.0186,0.9829,-0.5205,-532.62,186.65,-617.93
397,292140442,-3.1426,1.0137,-0.5405,-527.20,211.04,-629.88
398,292145443,-3.2603,1.0361,-0.5601,-521.28,235.00,-640.79
399,292150799,-3.3867,1.0537,-0.5928,-515.12,258.66,-650.55
400,292155444,-3.5083,1.0620,-0.5957,-508.60,282.20,-659.51
401,292160441,-3.5962,1.0645,-0.6187,-501.65,305.12,-667.56
402,292165440,-3.6289,1.0493,-0.6318,-494.45,327.13,-674.70
403,292170442,-3.6152,1.0332,-0.6538,-486.89,348.41,-680.61
404,292175441,-3.6289,1.0693,-0.6699,-478.17,368.84,-685.73
405,292180442,-3.6768,1.1162,-0.6680,-467.44,388.66,-690.55
406,292185441,-3.7339,1.1558,-0.6484,-453.66,408.17,-695.18
407,292190440,-3.8076,1.1816,-0.6279,-435.79,427.01,-699.45
408,292195442,-3.9297,1.2153,-0.6138,-414.27,445.30,-703.23
409,292200440,-4.0894,1.2148,-0.6055,-389.70,462.44,-706.16
410,292205442,-4.2861,1.2114,-0.6123,-362.44,477.99,-708.54
411,292210440,-4.5088,1.1816,-0.6421,-332.26,491.52,-709.88
412,292215440,-4.7471,1.1304,-0.6572,-300.73,502.93,-710.00
413,292220442,-4.9517,1.0669,-0.6680,-268.90,512.13,-708.60
414,292225443,-5.1567,1.0044,-0.6504,-236.83,519.02,-706.16
415,292230442,-5.3760,0.9932,-0.6304,-202.50,523.72,-702.68
416,292235442,-5.5898,1.0107,-0.6074,-167.26,526.22,-699.57
417,292240440,-5.7783,1.0913,-0.5830,-132.62,526.95,-697.56
418,292245442,-5.9199,1.1963,-0.5156,-95.79,526.52,-697.01
419,292250442,-6.0220,1.2861,-0.4756,-57.68,523.48,-698.66
420,292255441,-6.0889,1.4170,-0.4590,-19.82,518.35,-702.87
421,292260440,-6.1416,1.5220,-0.4199,17.99,511.46,-709.33
422,292265442,-6.2339,1.5615,-0.4038,55.55,501.95,-717.74
423,292270441,-6.3457,1.6226,-0.4351,91.52,490.43,-727.68
424,292275442,-6.5220,1.6514,-0.3726,126.04,476.65,-738.54
425,292280440,-6.7080,1.6978,-0.4321,157.38,461.16,-750.06
426,292285442,-6.8384,1.7778,-0.4331,188.48,443.96,-761.83
427,292290441,-6.9165,1.8643,-0.3691,217.44,425.37,-774.63
428,292295440,-6.9648,1.9351,-0.3799,243.41,405.73,-788.35
429,292300440,-7.0049,1.9873,-0.3521,267.20,385.00,-801.40
430,292305442,-7.1523,2.0596,-0.3594,285.06,363.41,-814.15
431,292310441,-7.3682,2.1504,-0.4053,296.52,341.28,-825.79
432,292315442,-7.6421,2.1553,-0.4409,300.06,318.72,-835.30
433,292320440,-7.9390,2.2139,-0.5415,291.65,296.10,-841.89
434,292325442,-8.1606,2.2368,-0.6333,272.56,275.37,-845.61
435,292330441,-8.3701,2.2979,-0.6626,241.59,256.04,-846.04
436,292335442,-8.4531,2.2637,-0.7402,201.10,240.67,-843.41
437,292340440,-8.4019,2.1899,-0.7773,152.13,229.94,-836.52
438,292345442,-8.3105,2.1670,-0.7998,95.73,224.45,-826.22
439,292350444,-8.2075,2.1323,-0.8525,33.05,224.94,-813.11
440,292355446,-8.1011,2.0894,-0.8457,-31.89,231.77,-797.20
441,292360440,-7.9106,2.0620,-0.9224,-98.60,244.51,-779.94
442,292365444,-7.7485,2.1328,-0.8486,-168.05,263.11,-761.59
443,292370441,-7.5430,2.0942,-0.8184,-241.10,287.93,-742.50
444,292375442,-7.4102,2.0674,-0.8174,-318.23,317.68,-721.65
445,292380633,-7.3130,2.0547,-0.7871,-397.38,352.13,-698.60
446,292385442,-7.2021,1.9658,-0.7520,-479.82,389.51,-672.99
447,292390442,-7.1250,1.8833,-0.6792,-563.84,429.15,-644.21
448,292395442,-6.9932,1.7944,-0.6909,-645.73,470.00,-610.91
449,292400441,-6.8892,1.6865,-0.5771,-724.45,510.85,-573.29
450,292405444,-6.7139,1.5698,-0.5742,-801.22,550.49,-531.40
451,292410441,-6.6787,1.4985,-0.5220,-873.11,587.44,-485.18
452,292415442,-6.6904,1.4272,-0.5171,-937.87,620.79,-434.02
453,292420440,-6.6875,1.3247,-0.4971,-995.12,649.45,-378.41
454,292425444,-6.6587,1.2607,-0.4639,-1044.15,672.74,-319.02
455,292430442,-6.5737,1.1797,-0.3975,-1084.82,690.37,-256.83
456,292435442,-6.4917,1.1338,-0.3726,-1117.13,701.59,-192.56
457,292440440,-6.4990,1.0898,-0.3267,-1141.95,706.46,-127.13
458,292445442,-6.4883,1.0439,-0.3379,-1156.83,705.49,-74.82
459,292450441,-6.4229,0.9829,-0.3823,-1169.33,697.13,-9.94
460,292455442,-6.3413,0.9482,-0.4194,-1176.34,681.10,52.93
461,292460440,-6.2607,0.9189,-0.4663,-1178.66,657.26,113.05
462,292465442,-6.1987,0.8750,-0.5151,-1177.07,626.34,169.63
463,292470441,-6.1055,0.8340,-0.5669,-1171.16,589.09,222.13
464,292475442,-5.9414,0.8164,-0.5908,-1160.06,546.16,270.00
465,292480442,-5.8218,0.8540,-0.5718,-1141.65,498.66,312.62
466,292485442,-5.6924,0.8691,-0.5571,-1114.76,448.29,350.00
467,292490441,-5.5620,0.9082,-0.5171,-1079.33,396.59,381.40
468,292495443,-5.3486,0.9165,-0.4609,-1034.82,344.88,407.32
469,292500440,-5.2090,0.9810,-0.3428,-971.52,284.70,431.10
470,292505440,-5.1465,0.9927,-0.4585,-923.41,246.28,442.50
471,292510444,-5.0005,1.0654,-0.3228,-856.71,200.85,452.87
472,292515441,-4.8394,1.0449,-0.2480,-785.37,159.57,459.45
473,292520443,-4.6899,1.0332,-0.3369,-711.16,121.83,462.56
474,292525442,-4.5537,1.0562,-0.2671,-636.65,87.62,462.93
475,292530442,-4.4458,1.0576,-0.2681,-562.74,56.77,460.98
476,292535442,-4.3740,1.0610,-0.2910,-491.40,29.27,457.44
477,292540442,-4.2925,1.0400,-0.2744,-423.90,4.76,452.68
478,292545442,-4.2192,1.0151,-0.2720,-361.22,-16.77,447.13
479,292550442,-4.1924,0.9927,-0.2935,-303.41,-35.49,441.22
480,292555442,-4.1729,0.9668,-0.3022,-249.76,-51.71,435.06
481,292560440,-4.1089,0.9146,-0.2866,-199.57,-65.67,429.27
482,292565444,-3.9971,0.8579,-0.2617,-152.50,-77.26,423.78
483,292570989,-3.8467,0.8154,-0.1992,-98.84,-87.56,417.99
484,292575444,-3.7671,0.7954,-0.1543,-64.63,-92.38,414.27
485,292580441,-3.6851,0.7754,-0.1235,-24.15,-95.55,410.12
486,292585442,-3.6079,0.7466,-0.0874,13.35,-97.07,406.16
487,292590444,-3.5400,0.7197,-0.0796,46.89,-96.77,402.44
488,292595444,-3.4854,0.6924,-0.0757,75.91,-94.94,399.02
489,292600535,-3.4058,0.6719,-0.0684,104.88,-92.01,395.12
490,292605442,-3.3574,0.6509,-0.0684,121.22,-89.02,392.44
491,292610442,-3.2798,0.6255,-0.0547,137.50,-84.63,388.96
492,292615442,-3.1919,0.6006,-0.0322,150.85,-79.82,385.73
493,292620443,-3.1021,0.5771,-0.0229,160.85,-74.51,382.26
494,292625442,-3.0088,0.5547,-0.0244,167.74,-68.84,378.54
495,292630443,-2.9282,0.5327,-0.0117,171.52,-63.23,374.76
496,292635442,-2.8403,0.5132,-0.0044,172.74,-57.50,370.61
497,292640443,-2.7437,0.4897,-0.0039,171.71,-51.95,366.34
498,292645442,-2.6460,0.4585,0.0088,168.78,-46.34,361.83
499,292650442,-2.5454,0.4185,0.0278,164.82,-41.22,357.50
500,292655442,-2.4565,0.3711,0.0381,159.76,-36.04,353.23
501,292660442,-2.3789,0.3311,0.0605,153.84,-30.98,349.21
502,292665442,-2.3232,0.2847,0.0898,147.62,-25.79,345.18
503,292670443,-2.2808,0.2397,0.1284,141.04,-20.79,341.46
504,292675442,-2.2480,0.2002,0.1616,134.15,-15.79,337.87
505,292680923,-2.1895,0.1602,0.2031,127.80,-9.76,333.66
506,292685444,-2.1455,0.1313,0.2354,122.20,-5.79,330.73
507,292690441,-2.0918,0.1104,0.2725,115.98,-1.04,326.83
508,292695442,-2.0493,0.0947,0.2871,109.27,3.72,322.38
509,292700440,-1.9736,0.0493,0.3086,102.07,7.93,317.68
510,292705440,-1.8564,-0.0063,0.3330,94.15,11.65,313.11
511,292710444,-1.7134,-0.0439,0.3613,84.88,14.63,308.29
512,292715441,-1.6035,-0.0493,0.3862,74.45,17.01,302.99
513,292720442,-1.5342,-0.0376,0.4321,63.29,19.09,296.71
514,292725442,-1.4844,-0.0244,0.4849,51.65,20.85,289.39
515,292730442,-1.3809,-0.0112,0.5513,39.88,22.87,281.10
516,292735442,-1.2671,-0.0200,0.6118,27.50,24.88,272.01
517,292740442,-1.1523,-0.0400,0.6191,14.09,26.71,262.07
518,292745442,-1.0293,-0.0464,0.6299,-0.37,28.17,251.59
519,292750442,-0.8970,-0.1201,0.6436,-15.85,28.78,240.67
520,292755442,-0.7451,-0.0732,0.6201,-33.41,28.90,230.00
521,292760442,-0.6973,-0.0356,0.5713,-52.74,27.74,218.41
522,292765442,-0.6538,-0.0718,0.6006,-72.01,25.55,206.28
523,292770442,-0.5688,-0.0957,0.6157,-89.94,23.29,194.27
524,292775442,-0.4707,-0.1274,0.6333,-105.91,20.73,182.32
525,292780443,-0.4072,-0.1426,0.6372,-119.70,18.11,170.73
526,292785442,-0.3320,-0.1470,0.6499,-131.95,15.37,159.27
527,292790442,-0.2300,-0.1587,0.6807,-143.17,12.56,147.50
528,292795442,-0.2017,-0.2002,0.6523,-153.23,9.21,135.98
529,292800441,-0.2197,-0.1763,0.6006,-161.52,5.67,124.57
530,292805440,-0.1562,-0.0093,0.4766,-169.76,0.85,112.32
531,292810559,0.2607,-0.4404,0.8179,-177.20,-2.26,101.40
532,292815442,0.2295,-0.2930,0.6953,-182.50,-4.15,92.50
533,292820442,0.2119,-0.1343,0.5923,-185.00,-7.50,82.68
534,292825442,0.2583,-0.1138,0.5806,-186.40,-11.04,71.52
535,292830443,0.4478,-0.2539,0.7905,-186.89,-13.72,61.04
536,292835443,0.4492,-0.2368,0.5420,-184.57,-16.71,52.01
537,292840443,0.4585,-0.1714,0.5996,-180.30,-20.00,42.80
538,292845442,0.5200,-0.2212,0.5996,-174.63,-23.23,33.54
539,292850442,0.5757,-0.2358,0.5322,-166.95,-26.71,25.12
540,292855442,0.5815,-0.2266,0.5425,-156.40,-30.24,16.83
541,292860442,0.6011,-0.2305,0.5791,-143.05,-33.11,8.96
542,292865442,0.6265,-0.2407,0.5317,-127.50,-35.91,1.95
543,292870442,0.6411,-0.2598,0.5381,-110.00,-38.60,-4.57
544,292875442,0.6470,-0.2451,0.5229,-90.98,-41.04,-10.61
545,292880886,0.6768,-0.2246,0.5215,-66.59,-43.84,-17.62
546,292885442,0.6987,-0.2036,0.5117,-49.88,-45.55,-22.20
547,292890441,0.7236,-0.1948,0.5000,-29.15,-47.87,-27.62
548,292895442,0.7510,-0.1631,0.5010,-9.15,-50.18,-33.17
549,292900440,0.7627,-0.1367,0.5073,9.57,-52.32,-38.48
550,292905444,0.7744,-0.1152,0.4995,26.22,-54.45,-43.84
551,292910441,0.7700,-0.1035,0.4961,40.43,-56.52,-49.09
552,292915443,0.7578,-0.0864,0.4878,51.59,-58.60,-53.90
553,292920442,0.7319,-0.0781,0.4780,59.94,-60.55,-58.66
554,292925441,0.7080,-0.0615,0.4731,65.55,-62.56,-63.11
555,292930443,0.6802,-0.0493,0.4697,68.96,-64.63,-67.38
556,292935442,0.6592,-0.0361,0.4609,70.73,-66.71,-71.40
557,292940443,0.6353,-0.0127,0.4507,71.28,-68.66,-75.12
558,292945442,0.6260,0.0142,0.4355,71.04,-70.37,-78.96
559,292950442,0.6108,0.0376,0.4224,70.30,-72.07,-82.68
560,292955442,0.5972,0.0635,0.4116,69.88,-73.60,-86.34
561,292960442,0.5830,0.0898,0.4004,69.45,-75.18,-89.76
562,292965442,0.5708,0.1104,0.3911,69.76,-76.40,-93.05
563,292970443,0.5493,0.1328,0.3804,70.49,-77.50,-96.28
564,292975442,0.5410,0.1558,0.3706,71.83,-78.41,-99.51
565,292980442,0.5229,0.1738,0.3628,73.60,-79.33,-102.56
566,292985442,0.5044,0.1851,0.3584,75.73,-80.06,-105.43
567,292990443,0.4990,0.1914,0.3545,78.17,-80.67,-108.11
568,292995442,0.4829,0.2041,0.3438,80.79,-81.16,-110.55
569,293000442,0.4683,0.2119,0.3481,83.29,-81.52,-112.68
570,293005442,0.4600,0.2285,0.3359,85.67,-81.83,-114.82
571,293010440,0.4512,0.2373,0.3306,87.56,-82.13,-116.89
572,293015440,0.4419,0.2515,0.3208,88.72,-82.38,-119.02
573,293020558,0.4341,0.2637,0.3188,89.33,-82.74,-121.04
574,293025442,0.4307,0.2764,0.3008,88.90,-83.29,-123.11
575,293030441,0.4180,0.2920,0.2871,87.87,-83.84,-125.12
576,293035442,0.4121,0.3149,0.2778,86.40,-84.51,-127.38
577,293040441,0.3999,0.3330,0.2681,84.45,-85.37,-129.76
578,293045442,0.3882,0.3438,0.2568,82.26,-86.28,-132.13
579,293050441,0.3770,0.3545,0.2505,79.82,-87.26,-134.45
580,293055442,0.3677,0.3701,0.2407,77.26,-88.23,-136.77
581,293060441,0.3555,0.3862,0.2310,74.57,-89.33,-139.33
582,293065442,0.3472,0.3965,0.2314,71.83,-90.43,-141.65
583,293070441,0.3467,0.4087,0.2246,69.02,-91.59,-144.02
584,293075442,0.3403,0.4263,0.2153,66.10,-92.74,-146.46
585,293080444,0.3394,0.4404,0.2080,63.11,-93.90,-148.96
586,293085501,0.3286,0.4600,0.1904,59.63,-95.49,-151.34
587,293090443,0.3135,0.4766,0.1626,55.67,-97.20,-154.15
588,293095442,0.2930,0.4941,0.1440,51.46,-99.09,-156.71
589,293100442,0.2715,0.5215,0.1191,46.83,-101.28,-159.82
590,293105442,0.2573,0.5381,0.1016,42.13,-103.60,-162.68
591,293110442,0.2480,0.5542,0.0923,37.74,-106.10,-165.91
592,293115442,0.2324,0.5742,0.0791,33.41,-108.66,-168.96
593,293120445,0.2197,0.5811,0.0659,29.21,-110.98,-172.13
594,293125441,0.2026,0.5933,0.0498,25.67,-113.66,-174.94
595,293130442,0.1865,0.6050,0.0303,22.56,-116.28,-177.80
596,293135441,0.1577,0.6084,0.0264,20.43,-118.54,-180.43
597,293140442,0.1323,0.6182,0.0215,19.27,-120.91,-182.80
598,293145441,0.1006,0.6260,0.0200,19.15,-122.93,-184.94
599,293150440,0.0625,0.6377,0.0107,19.82,-124.88,-186.89
600,293155442,0.0293,0.6416,0.0005,21.65,-126.52,-188.54
601,293160442,-0.0156,0.6475,-0.0098,24.21,-128.23,-189.76
602,293165442,-0.0693,0.6519,-0.0288,27.44,-129.70,-190.73
603,293170443,-0.1152,0.6602,-0.0371,31.04,-131.16,-191.52
604,293175442,-0.1562,0.6772,-0.0542,34.88,-132.38,-192.01
605,293180440,-0.1919,0.6782,-0.0537,38.96,-133.48,-192.32
606,293185443,-0.2266,0.6836,-0.0649,42.80,-134.33,-192.20
607,293190442,-0.2529,0.7012,-0.0825,46.46,-134.88,-191.59
608,293195444,-0.2788,0.7222,-0.0981,49.76,-135.24,-190.98
609,293200442,-0.3110,0.7383,-0.1211,52.44,-135.49,-190.06
610,293205442,-0.3345,0.7524,-0.1494,54.63,-135.85,-189.09
611,293210443,-0.3623,0.7681,-0.1597,56.34,-135.98,-187.87
612,293215442,-0.3774,0.7949,-0.1821,57.44,-135.91,-186.59
613,293220852,-0.3955,0.8159,-0.1953,57.99,-135.67,-185.30
614,293225443,-0.4106,0.8281,-0.2065,58.41,-135.43,-184.21
615,293230444,-0.4248,0.8394,-0.2329,58.90,-134.88,-182.80
616,293235441,-0.4434,0.8521,-0.2534,59.33,-134.33,-181.34
617,293240442,-0.4565,0.8584,-0.2739,60.06,-133.84,-179.94
618,293245441,-0.4580,0.8711,-0.2910,60.67,-133.29,-178.29
619,293250442,-0.4629,0.8848,-0.3091,61.59,-132.62,-176.59
620,293255441,-0.4736,0.8999,-0.3369,62.62,-132.26,-175.06
621,293260440,-0.4932,0.9165,-0.3613,63.72,-132.20,-173.29
622,293265443,-0.5112,0.9390,-0.3784,65.12,-132.01,-171.59
623,293270442,-0.5278,0.9614,-0.3989,66.83,-132.01,-169.82
624,293275442,-0.5361,0.9722,-0.4180,68.72,-132.13,-168.11
625,293280440,-0.5474,0.9883,-0.4312,70.73,-132.50,-166.46
626,293285601,-0.5537,0.9922,-0.4458,73.05,-132.99,-164.82
627,293290669,-0.5562,1.0020,-0.4663,75.49,-133.48,-162.99
628,293295442,-0.5581,1.0088,-0.4800,78.11,-134.15,-161.10
629,293300442,-0.5605,1.0161,-0.4907,81.22,-135.00,-159.39
630,293305442,-0.5581,1.0244,-0.5078,84.57,-135.91,-157.56
631,293310442,-0.5630,1.0366,-0.5303,88.23,-136.89,-155.85
632,293315442,-0.5752,1.0459,-0.5347,92.20,-137.50,-153.90
633,293320440,-0.5938,1.0503,-0.5552,96.34,-138.23,-152.01
634,293325443,-0.6123,1.0684,-0.5562,100.55,-138.84,-149.82
635,293330442,-0.6382,1.0811,-0.5708,104.76,-139.09,-147.50
636,293335443,-0.6646,1.0854,-0.5771,108.78,-139.27,-144.88
637,293340442,-0.6777,1.0874,-0.5913,112.87,-139.33,-142.26
638,293345442,-0.6934,1.0830,-0.6216,116.77,-139.15,-139.70
639,293350442,-0.7285,1.1069,-0.6045,120.67,-139.09,-136.77
640,293355442,-0.7559,1.0884,-0.6514,124.63,-138.72,-133.72
641,293360442,-0.7568,1.1021,-0.6519,128.66,-138.60,-130.43
642,293365442,-0.7515,1.0947,-0.6533,129.88,-137.87,-127.38
643,293370442,-0.7539,1.0767,-0.6650,132.68,-137.32,-123.96
644,293375442,-0.7246,1.0894,-0.6763,135.00,-136.89,-120.73
645,293380442,-0.7314,1.0659,-0.6636,136.34,-136.10,-117.44
646,293385442,-0.7197,1.0664,-0.6860,137.44,-135.61,-114.02
647,293390442,-0.7173,1.0327,-0.6987,137.74,-134.88,-110.61
648,293395442,-0.7207,1.0293,-0.7041,137.74,-134.39,-107.01
649,293400442,-0.7207,1.0273,-0.7217,137.32,-133.72,-103.72
650,293405442,-0.7305,1.0288,-0.7163,136.52,-133.11,-100.24
651,293410442,-0.7256,1.0425,-0.7285,135.67,-132.26,-96.77
652,293415442,-0.7373,1.0298,-0.7349,134.27,-131.10,-93.60
653,293420440,-0.7378,1.0347,-0.7451,131.95,-130.12,-90.37
654,293425443,-0.7588,1.0264,-0.7520,128.78,-129.02,-87.26
655,293430442,-0.7612,1.0342,-0.7622,128.60,-127.80,-84.27
656,293435441,-0.7642,1.0186,-0.7700,125.79,-126.59,-81.34
657,293440442,-0.7666,1.0146,-0.7568,122.80,-125.06,-78.41
658,293445441,-0.7515,1.0117,-0.7622,120.00,-123.66,-75.73
659,293450442,-0.7461,0.9912,-0.7549,117.07,-122.38,-73.11
660,293455441,-0.7373,0.9839,-0.7573,114.27,-120.98,-70.43
661,293460442,-0.7393,0.9731,-0.7520,111.16,-119.39,-67.99
662,293465441,-0.7363,0.9609,-0.7563,107.93,-118.11,-65.49
663,293470442,-0.7319,0.9541,-0.7485,105.00,-116.77,-63.11
664,293475441,-0.7358,0.9443,-0.7427,102.80,-115.55,-61.22
665,293480442,-0.7334,0.9370,-0.7417,99.45,-113.84,-58.66
666,293485441,-0.7378,0.9370,-0.7368,97.20,-112.74,-56.46
667,293490444,-0.7319,0.9277,-0.7271,95.18,-111.34,-54.39
668,293495458,-0.7305,0.9189,-0.7207,93.23,-110.00,-52.44
669,293500444,-0.7236,0.9121,-0.7183,91.40,-108.78,-50.61
670,293505441,-0.7100,0.8999,-0.7158,90.12,-107.87,-49.15
671,293510442,-0.7061,0.8931,-0.7085,88.29,-106.59,-47.50
672,293515441,-0.6987,0.8843,-0.7085,86.40,-105.55,-45.79
673,293520440,-0.6992,0.8730,-0.6997,84.70,-104.76,-44.33
674,293525440,-0.6870,0.8618,-0.6953,83.11,-104.09,-42.80
675,293530444,-0.6797,0.8477,-0.6904,81.65,-103.54,-41.46
676,293535441,-0.6694,0.8398,-0.6865,80.73,-103.11,-40.12
677,293540442,-0.6548,0.8276,-0.6787,80.18,-102.62,-38.78
678,293545441,-0.6484,0.8164,-0.6714,79.94,-102.38,-37.62
679,293550442,-0.6382,0.8032,-0.6660,80.18,-101.89,-36.28
680,293555441,-0.6406,0.7944,-0.6606,80.79,-101.77,-35.00
681,293560442,-0.6431,0.7852,-0.6587,81.65,-101.40,-33.84
682,293565441,-0.6455,0.7759,-0.6445,82.87,-101.22,-32.68
683,293570442,-0.6523,0.7720,-0.6460,84.51,-100.79,-31.52
684,293575441,-0.6577,0.7681,-0.6313,86.22,-100.37,-30.49
685,293580442,-0.6597,0.7642,-0.6279,88.23,-99.88,-29.33
686,293585441,-0.6636,0.7583,-0.6167,90.12,-99.21,-28.35
687,293590442,-0.6719,0.7539,-0.6211,92.20,-98.29,-27.38
688,293595441,-0.6743,0.7485,-0.6143,94.09,-97.44,-26.34
689,293600442,-0.6812,0.7441,-0.6133,95.61,-96.83,-25.43
690,293605442,-0.6875,0.7393,-0.6099,97.26,-95.85,-24.63
691,293610444,-0.6836,0.7314,-0.5991,98.78,-95.12,-23.78
692,293615515,-0.6802,0.7246,-0.5928,100.12,-94.15,-22.87
693,293620445,-0.6802,0.7173,-0.5928,100.91,-93.05,-22.32
694,293625441,-0.6792,0.7095,-0.5845,101.52,-92.32,-21.52
695,293630444,-0.6772,0.7061,-0.5835,101.71,-91.16,-21.04
696,293635441,-0.6812,0.6992,-0.5786,101.65,-90.06,-20.37
697,293640442,-0.6753,0.6929,-0.5771,101.22,-89.02,-19.63
698,293645441,-0.6821,0.6875,-0.5674,100.37,-87.68,-19.02
699,293650442,-0.6797,0.6777,-0.5654,99.33,-86.46,-18.29
700,293655441,-0.6865,0.6758,-0.5664,97.99,-85.12,-17.62
701,293660442,-0.6836,0.6704,-0.5547,96.16,-83.78,-16.95
702,293665441,-0.6875,0.6646,-0.5527,94.33,-82.44,-16.34
703,293670442,-0.6890,0.6606,-0.5527,92.13,-81.10,-15.79
704,293675441,-0.6870,0.6548,-0.5498,89.76,-79.57,-15.18
705,293680442,-0.6816,0.6514,-0.5459,87.32,-78.05,-14.76
706,293685441,-0.6792,0.6426,-0.5400,84.76,-76.52,-14.27
707,293690444,-0.6758,0.6372,-0.5337,82.07,-74.88,-13.84
708,293695441,-0.6782,0.6348,-0.5327,79.39,-73.17,-13.35
709,293700986,-0.6816,0.6294,-0.5259,76.16,-71.40,-12.68
710,293705443,-0.6851,0.6230,-0.5269,73.66,-70.06,-12.32
711,293710442,-0.6973,0.6201,-0.5215,71.04,-68.54,-11.95
712,293715442,-0.7002,0.6191,-0.5166,68.23,-66.89,-11.46
713,293720441,-0.7119,0.6113,-0.5073,65.24,-65.18,-11.16
714,293725442,-0.7217,0.6138,-0.5029,62.80,-63.54,-10.73
715,293730441,-0.7285,0.6094,-0.4946,60.30,-62.13,-10.49
716,293735444,-0.7358,0.6084,-0.4888,58.11,-60.37,-10.00
717,293740442,-0.7451,0.6025,-0.4805,56.10,-59.02,-10.06
718,293745442,-0.7441,0.5981,-0.4692,54.33,-57.38,-9.76
719,293750441,-0.7397,0.5869,-0.4683,52.80,-56.10,-9.39
720,293755442,-0.7373,0.5825,-0.4697,51.46,-54.82,-9.33
721,293760442,-0.7285,0.5752,-0.4580,50.18,-53.60,-9.09
722,293765442,-0.7295,0.5669,-0.4463,48.90,-52.56,-9.02
723,293770441,-0.7300,0.5605,-0.4448,47.68,-51.77,-8.84
