# skilleye imu stream v1
# device=xiao_esp32c6 imu=mpu6050 addr=0x68
# rate_hz=200 accel_range_g=16 gyro_range_dps=2000 dlpf_hz=94
# units: accel in g, gyro in deg/s, t_us in microseconds since boot (monotonic)
# no shared clock with the camera -- tap the racket once before each take
# so both recordings share a spike to align on
seq,t_us,ax,ay,az,gx,gy,gz
0,262448294,-0.5107,-0.3149,-0.6812,-0.49,-2.87,1.04
1,262453295,-0.5029,-0.3081,-0.6812,-0.37,-2.80,1.10
2,262458294,-0.5010,-0.3062,-0.6846,0.00,-2.80,0.98
3,262463294,-0.5005,-0.3071,-0.6831,0.55,-2.62,1.10
4,262468294,-0.5024,-0.3105,-0.6846,1.04,-2.80,1.04
5,262473294,-0.5020,-0.3125,-0.6792,1.52,-2.74,1.04
6,262478294,-0.4971,-0.3086,-0.6826,2.20,-2.87,0.98
7,262483294,-0.5010,-0.3115,-0.6841,2.74,-2.74,1.04
8,262488294,-0.5029,-0.3130,-0.6807,3.23,-2.74,0.91
9,262493294,-0.5020,-0.3096,-0.6836,3.84,-2.80,0.98
10,262498296,-0.5059,-0.3110,-0.6802,4.33,-2.74,0.91
11,262503294,-0.4976,-0.3062,-0.6797,4.63,-2.93,0.73
12,262508294,-0.5000,-0.3081,-0.6787,4.94,-2.87,0.67
13,262513294,-0.4980,-0.3076,-0.6792,5.12,-2.87,0.85
14,262518294,-0.4980,-0.3071,-0.6802,5.18,-2.93,0.61
15,262523296,-0.4927,-0.3120,-0.6787,5.24,-2.87,0.61
16,262528298,-0.4951,-0.3101,-0.6777,4.94,-2.93,0.55
17,262533296,-0.4912,-0.3091,-0.6768,4.76,-3.05,0.49
18,262538295,-0.4849,-0.3071,-0.6743,4.21,-3.05,0.49
19,262543296,-0.4873,-0.3052,-0.6660,3.72,-3.11,0.37
20,262548294,-0.4771,-0.3057,-0.6797,3.17,-3.17,0.24
21,262553296,-0.4766,-0.3042,-0.6792,2.56,-3.17,0.30
22,262558296,-0.4824,-0.3096,-0.6753,1.89,-3.29,0.06
23,262563294,-0.4902,-0.3115,-0.6719,1.22,-3.48,-0.06
24,262568294,-0.4790,-0.3037,-0.6719,0.73,-3.35,-0.18
25,262573294,-0.4707,-0.3042,-0.6699,0.06,-3.60,-0.30
26,262578294,-0.4741,-0.3018,-0.6655,-0.43,-3.72,-0.37
27,262583294,-0.4678,-0.3022,-0.6733,-0.79,-3.72,-0.55
28,262588298,-0.4751,-0.3091,-0.6675,-1.04,-3.90,-0.61
29,262593294,-0.4756,-0.3076,-0.6738,-1.28,-4.02,-0.79
30,262598300,-0.4746,-0.3076,-0.6743,-1.34,-4.33,-0.85
31,262603296,-0.4800,-0.3130,-0.6694,-1.34,-4.39,-0.98
32,262608680,-0.4829,-0.3096,-0.6709,-1.28,-4.63,-1.04
33,262613296,-0.4712,-0.3076,-0.6665,-1.10,-4.76,-1.04
34,262618402,-0.4780,-0.3062,-0.6675,-1.10,-4.88,-1.16
35,262623296,-0.4814,-0.3110,-0.6650,-0.98,-4.82,-1.34
36,262628328,-0.4966,-0.3101,-0.6709,-0.85,-5.12,-1.34
37,262633402,-0.4878,-0.3105,-0.6719,-0.67,-5.12,-1.22
38,262638352,-0.4902,-0.3140,-0.6763,-0.73,-5.43,-1.16
39,262643348,-0.4883,-0.3125,-0.6729,-0.73,-5.55,-1.04
40,262648296,-0.4985,-0.3145,-0.6782,-0.67,-5.55,-1.04
41,262653296,-0.5034,-0.3159,-0.6763,-0.73,-5.79,-0.98
42,262658296,-0.5068,-0.3193,-0.6841,-0.79,-5.85,-0.73
43,262663296,-0.5029,-0.3164,-0.6816,-0.85,-6.04,-0.67
44,262668296,-0.5059,-0.3159,-0.6855,-0.79,-6.10,-0.61
45,262673296,-0.5161,-0.3184,-0.6846,-0.73,-6.22,-0.43
46,262678295,-0.5176,-0.3218,-0.6860,-0.67,-6.28,-0.30
47,262683296,-0.5171,-0.3223,-0.6826,-0.43,-6.34,-0.18
48,262688294,-0.5264,-0.3247,-0.6816,-0.18,-6.65,-0.06
49,262693294,-0.5229,-0.3301,-0.6919,0.00,-6.77,-0.06
50,262698295,-0.5239,-0.3213,-0.6953,0.61,-6.77,0.12
51,262703294,-0.5278,-0.3208,-0.6904,1.10,-6.89,0.30
52,262708294,-0.5322,-0.3198,-0.6924,1.83,-7.01,0.49
53,262713294,-0.5273,-0.3228,-0.6919,2.38,-7.20,0.49
54,262718294,-0.5283,-0.3228,-0.6909,3.17,-7.44,0.55
55,262723439,-0.5337,-0.3232,-0.6958,3.96,-7.44,0.61
56,262728297,-0.5288,-0.3267,-0.6890,4.51,-7.50,0.79
57,262733296,-0.5366,-0.3291,-0.6943,5.30,-7.62,0.98
58,262738296,-0.5410,-0.3330,-0.7007,5.73,-7.80,0.98
59,262743296,-0.5381,-0.3315,-0.6929,6.28,-7.87,1.22
60,262748296,-0.5381,-0.3315,-0.7026,6.83,-7.87,1.28
61,262753298,-0.5459,-0.3335,-0.7002,7.32,-7.93,1.46
62,262758296,-0.5435,-0.3335,-0.6904,7.93,-7.93,1.59
63,262763296,-0.5410,-0.3291,-0.6943,8.66,-7.93,1.65
64,262768296,-0.5483,-0.3291,-0.6929,9.27,-7.93,1.77
65,262773295,-0.5479,-0.3311,-0.6914,9.88,-7.93,1.89
66,262778296,-0.5449,-0.3311,-0.6929,10.43,-7.93,2.01
67,262783403,-0.5371,-0.3301,-0.6860,10.85,-7.56,2.13
68,262788296,-0.5425,-0.3252,-0.6875,11.46,-7.44,2.01
69,262793296,-0.5415,-0.3267,-0.6797,12.07,-7.32,2.07
70,262798296,-0.5337,-0.3242,-0.6875,12.74,-7.13,2.01
71,262803295,-0.5190,-0.3203,-0.6807,13.35,-6.71,1.95
72,262808295,-0.5083,-0.3208,-0.6743,14.21,-6.46,1.83
73,262813294,-0.5063,-0.3179,-0.6689,14.63,-6.22,1.52
74,262818294,-0.4966,-0.3125,-0.6709,15.18,-5.98,1.28
75,262823294,-0.4961,-0.3091,-0.6636,15.55,-5.85,1.22
76,262828579,-0.4878,-0.3101,-0.6646,15.73,-5.73,0.73
77,262833296,-0.4814,-0.3047,-0.6606,15.61,-5.37,0.43
78,262838296,-0.4741,-0.3052,-0.6602,15.43,-5.24,0.12
79,262843296,-0.4668,-0.3062,-0.6567,14.94,-5.06,-0.30
80,262848296,-0.4648,-0.3042,-0.6494,14.21,-5.06,-0.73
81,262853296,-0.4761,-0.3052,-0.6499,12.99,-4.82,-1.16
82,262858296,-0.4697,-0.3047,-0.6519,11.83,-4.70,-1.46
83,262863297,-0.4756,-0.3037,-0.6392,10.37,-4.63,-1.83
84,262868295,-0.4736,-0.3042,-0.6445,8.72,-4.33,-2.32
85,262873296,-0.4785,-0.2983,-0.6387,7.01,-4.27,-2.87
86,262878296,-0.4775,-0.3027,-0.6396,5.00,-4.02,-3.17
87,262883296,-0.4766,-0.2969,-0.6362,3.05,-3.78,-3.54
88,262888297,-0.4844,-0.3003,-0.6401,0.98,-3.72,-3.90
89,262893295,-0.4883,-0.3022,-0.6333,-1.10,-3.48,-4.27
90,262898296,-0.4971,-0.3008,-0.6270,-3.60,-3.05,-4.70
91,262903296,-0.5010,-0.3037,-0.6304,-5.18,-2.62,-4.94
92,262908295,-0.5010,-0.2983,-0.6318,-7.26,-2.50,-5.18
93,262913294,-0.5049,-0.3008,-0.6357,-9.21,-2.07,-5.37
94,262918294,-0.5098,-0.2988,-0.6289,-11.16,-1.59,-5.61
95,262923294,-0.5151,-0.3018,-0.6318,-12.93,-1.28,-5.73
96,262928485,-0.5220,-0.2988,-0.6367,-14.88,-0.91,-5.98
97,262933508,-0.5347,-0.3066,-0.6348,-16.34,-0.61,-6.04
98,262938296,-0.5420,-0.3042,-0.6343,-17.56,-0.30,-6.10
99,262943296,-0.5410,-0.3081,-0.6309,-18.60,-0.06,-6.04
100,262948296,-0.5435,-0.3013,-0.6362,-19.33,0.18,-5.98
101,262953299,-0.5566,-0.3076,-0.6333,-19.51,0.43,-5.79
102,262958296,-0.5610,-0.3071,-0.6343,-19.63,0.61,-5.73
103,262963296,-0.5762,-0.3081,-0.6426,-19.45,0.67,-5.67
104,262968296,-0.5737,-0.3125,-0.6372,-18.78,0.67,-5.49
105,262973295,-0.5791,-0.3120,-0.6411,-17.87,0.79,-5.30
106,262978763,-0.5693,-0.3076,-0.6318,-16.52,0.73,-4.88
107,262983296,-0.5835,-0.3125,-0.6343,-15.12,0.73,-4.70
108,262988295,-0.5845,-0.3140,-0.6392,-13.41,0.43,-4.33
109,262993296,-0.5879,-0.3120,-0.6387,-11.46,0.37,-4.15
110,262998294,-0.5942,-0.3159,-0.6377,-9.21,-0.06,-3.72
111,263003294,-0.5928,-0.3159,-0.6318,-7.01,-0.43,-3.35
112,263008295,-0.5908,-0.3125,-0.6362,-4.82,-0.73,-3.05
113,263013296,-0.5933,-0.3135,-0.6318,-2.44,-1.16,-2.62
114,263018296,-0.5815,-0.3135,-0.6377,0.06,-1.59,-2.13
115,263023296,-0.5903,-0.3125,-0.6357,2.44,-2.26,-1.83
116,263028299,-0.5898,-0.3135,-0.6382,4.76,-2.68,-1.34
117,263033295,-0.5879,-0.3149,-0.6382,7.07,-3.23,-0.91
118,263038294,-0.5815,-0.3140,-0.6406,9.27,-4.02,-0.49
119,263043294,-0.5688,-0.3071,-0.6343,11.34,-4.88,-0.06
120,263048294,-0.5762,-0.3096,-0.6387,13.23,-5.79,0.24
121,263053640,-0.5752,-0.3135,-0.6392,15.00,-6.46,0.61
122,263058532,-0.5659,-0.3125,-0.6387,16.59,-7.50,0.98
123,263063295,-0.5664,-0.3057,-0.6353,17.99,-8.35,1.28
124,263068296,-0.5659,-0.3062,-0.6333,18.96,-9.27,1.77
125,263073296,-0.5635,-0.3096,-0.6362,19.88,-10.30,2.13
126,263078296,-0.5625,-0.3066,-0.6387,20.67,-11.10,2.38
127,263083295,-0.5547,-0.3081,-0.6294,21.04,-12.01,2.74
128,263088296,-0.5391,-0.3042,-0.6343,21.40,-12.80,2.99
129,263093296,-0.5356,-0.3062,-0.6304,21.40,-13.78,3.23
130,263098296,-0.5420,-0.3105,-0.6230,21.28,-14.63,3.60
131,263103656,-0.5391,-0.3096,-0.6353,21.04,-15.49,3.78
132,263108296,-0.5327,-0.3105,-0.6348,20.61,-16.16,4.02
133,263113331,-0.5332,-0.3130,-0.6396,20.12,-17.01,4.27
134,263118298,-0.5234,-0.3149,-0.6362,19.45,-17.68,4.45
135,263123380,-0.5249,-0.3154,-0.6436,18.72,-18.29,4.70
136,263128539,-0.5205,-0.3179,-0.6372,17.87,-19.02,4.76
137,263133334,-0.5234,-0.3169,-0.6421,16.95,-19.57,5.00
138,263138556,-0.5181,-0.3149,-0.6519,16.04,-20.06,5.12
139,263143564,-0.5215,-0.3174,-0.6514,15.00,-20.43,5.18
140,263148498,-0.5293,-0.3198,-0.6489,14.15,-20.55,5.18
141,263153296,-0.5332,-0.3252,-0.6470,13.17,-20.79,5.24
142,263158401,-0.5215,-0.3247,-0.6558,12.20,-20.79,5.43
143,263163538,-0.5215,-0.3247,-0.6553,11.46,-20.73,5.49
144,263168296,-0.5254,-0.3281,-0.6558,10.43,-20.55,5.49
145,263173296,-0.5264,-0.3271,-0.6646,9.76,-20.24,5.55
146,263178299,-0.5283,-0.3296,-0.6597,8.90,-19.82,5.61
147,263183296,-0.5337,-0.3335,-0.6616,8.48,-19.39,5.67
148,263188297,-0.5366,-0.3354,-0.6650,8.17,-18.84,5.55
149,263193294,-0.5454,-0.3398,-0.6738,7.87,-18.17,5.61
150,263198298,-0.5430,-0.3374,-0.6675,7.87,-17.20,5.55
151,263203296,-0.5454,-0.3374,-0.6709,7.87,-16.65,5.37
152,263208296,-0.5474,-0.3408,-0.6719,8.05,-16.10,5.30
153,263213296,-0.5298,-0.3350,-0.6748,8.41,-15.00,5.18
154,263218296,-0.5303,-0.3354,-0.6763,8.60,-14.45,5.18
155,263223768,-0.5347,-0.3403,-0.6826,9.09,-13.60,5.06
156,263228296,-0.5327,-0.3364,-0.6816,9.39,-13.05,5.00
157,263233298,-0.5391,-0.3418,-0.6787,9.76,-12.26,4.82
158,263238296,-0.5391,-0.3418,-0.6802,10.18,-11.59,4.70
159,263243295,-0.5312,-0.3447,-0.6870,10.61,-10.61,4.63
160,263248296,-0.5269,-0.3384,-0.6777,11.04,-9.94,4.39
161,263253296,-0.5312,-0.3389,-0.6758,11.34,-9.39,4.39
162,263258296,-0.5361,-0.3408,-0.6753,11.34,-8.54,4.39
163,263263296,-0.5332,-0.3374,-0.6777,11.71,-7.74,4.15
164,263268296,-0.5405,-0.3389,-0.6763,11.89,-7.44,3.96
165,263273650,-0.5342,-0.3398,-0.6758,11.83,-6.46,3.72
166,263278296,-0.5361,-0.3408,-0.6792,11.89,-6.04,3.72
167,263283296,-0.5396,-0.3398,-0.6689,11.65,-5.37,3.48
168,263288296,-0.5415,-0.3403,-0.6758,11.52,-4.70,3.23
169,263293340,-0.5415,-0.3384,-0.6738,11.04,-4.02,3.11
170,263298298,-0.5444,-0.3394,-0.6675,10.49,-3.29,2.99
171,263303294,-0.5493,-0.3423,-0.6694,9.76,-2.80,2.93
172,263308294,-0.5474,-0.3447,-0.6689,8.96,-2.44,2.74
173,263313299,-0.5439,-0.3384,-0.6699,8.29,-2.01,2.80
174,263318296,-0.5469,-0.3403,-0.6689,7.32,-1.52,2.56
175,263323294,-0.5503,-0.3428,-0.6650,6.34,-1.28,2.56
176,263328294,-0.5552,-0.3433,-0.6689,5.24,-0.98,2.44
177,263333294,-0.5566,-0.3486,-0.6685,4.21,-0.73,2.50
178,263338371,-0.5542,-0.3467,-0.6626,3.23,-0.37,2.50
179,263343298,-0.5557,-0.3472,-0.6655,2.26,-0.18,2.62
180,263348295,-0.5620,-0.3457,-0.6641,1.40,-0.12,2.56
181,263353294,-0.5635,-0.3438,-0.6714,0.67,0.12,2.62
182,263358294,-0.5664,-0.3521,-0.6665,0.24,0.12,2.74
183,263363294,-0.5591,-0.3452,-0.6650,-0.18,0.18,2.74
184,263368294,-0.5640,-0.3438,-0.6597,-0.12,0.24,2.87
185,263373296,-0.5630,-0.3486,-0.6587,0.00,0.30,2.80
186,263378296,-0.5630,-0.3462,-0.6660,0.24,0.24,2.87
187,263383296,-0.5610,-0.3481,-0.6631,1.04,0.30,2.80
188,263388708,-0.5562,-0.3467,-0.6631,1.59,0.18,2.74
189,263393296,-0.5542,-0.3438,-0.6660,2.26,0.18,2.80
190,263398296,-0.5527,-0.3438,-0.6670,3.23,0.00,2.87
191,263403296,-0.5615,-0.3428,-0.6670,4.02,-0.18,2.93
192,263408746,-0.5718,-0.3462,-0.6655,5.00,-0.12,2.87
193,263413296,-0.5586,-0.3403,-0.6670,5.67,-0.12,2.80
194,263418297,-0.5591,-0.3413,-0.6626,6.52,-0.49,2.87
195,263423296,-0.5513,-0.3403,-0.6597,7.13,-0.24,2.93
196,263428298,-0.5581,-0.3438,-0.6562,7.74,-0.55,2.80
197,263433296,-0.5576,-0.3398,-0.6577,8.11,-0.67,2.80
198,263438296,-0.5645,-0.3433,-0.6567,8.48,-0.85,2.93
199,263443296,-0.5630,-0.3486,-0.6592,8.35,-0.67,2.74
200,263448296,-0.5659,-0.3511,-0.6646,8.35,-0.67,2.68
201,263453296,-0.5679,-0.3491,-0.6616,8.29,-0.67,2.80
202,263458383,-0.5625,-0.3472,-0.6611,7.87,-0.43,2.74
203,263463294,-0.5698,-0.3433,-0.6636,7.56,-0.37,2.74
204,263468294,-0.5762,-0.3438,-0.6533,6.95,-0.24,2.56
205,263473294,-0.5547,-0.3428,-0.6592,6.46,-0.24,2.50
206,263478294,-0.5645,-0.3452,-0.6587,5.85,0.00,2.56
207,263483294,-0.5610,-0.3477,-0.6533,5.24,0.18,2.44
208,263488294,-0.5601,-0.3452,-0.6567,4.70,0.43,2.38
209,263493294,-0.5586,-0.3408,-0.6504,4.02,0.61,2.26
210,263498294,-0.5493,-0.3394,-0.6509,3.54,1.04,2.20
211,263503294,-0.5483,-0.3428,-0.6533,2.80,1.28,2.13
212,263508294,-0.5518,-0.3452,-0.6523,2.13,1.40,1.95
213,263513294,-0.5469,-0.3423,-0.6494,1.40,1.83,1.83
214,263518294,-0.5488,-0.3408,-0.6475,0.85,2.01,1.77
215,263523294,-0.5566,-0.3457,-0.6494,0.12,2.32,1.77
216,263528294,-0.5352,-0.3408,-0.6538,-0.43,2.56,1.65
217,263533294,-0.5576,-0.3428,-0.6533,-0.98,2.93,1.65
218,263538294,-0.5386,-0.3408,-0.6455,-1.52,3.23,1.65
219,263543294,-0.5420,-0.3481,-0.6450,-1.89,3.35,1.65
220,263548294,-0.5459,-0.3433,-0.6484,-2.26,3.60,1.65
221,263553294,-0.5425,-0.3403,-0.6470,-2.62,4.09,1.71
222,263558294,-0.5420,-0.3442,-0.6470,-2.80,4.39,1.71
223,263563294,-0.5474,-0.3516,-0.6406,-2.99,4.63,1.59
224,263568294,-0.5454,-0.3467,-0.6338,-3.05,5.12,1.71
225,263573294,-0.5498,-0.3423,-0.6401,-3.05,5.43,1.83
226,263578367,-0.5503,-0.3481,-0.6323,-3.05,5.73,1.83
227,263583619,-0.5518,-0.3501,-0.6396,-2.93,5.91,1.95
228,263588428,-0.5439,-0.3467,-0.6338,-2.87,6.16,1.95
229,263593294,-0.5435,-0.3452,-0.6372,-2.62,6.28,2.07
230,263598296,-0.5513,-0.3472,-0.6323,-2.38,6.40,2.20
231,263603296,-0.5479,-0.3462,-0.6377,-2.13,6.59,2.20
232,263608296,-0.5449,-0.3418,-0.6304,-1.89,6.65,2.26
233,263613297,-0.5425,-0.3452,-0.6357,-1.52,6.89,2.32
234,263618296,-0.5405,-0.3452,-0.6328,-1.22,6.71,2.56
235,263623297,-0.5508,-0.3477,-0.6323,-0.98,6.77,2.68
236,263628296,-0.5312,-0.3418,-0.6240,-0.67,6.65,2.80
237,263633296,-0.5488,-0.3496,-0.6245,-0.24,6.65,2.99
238,263638316,-0.5366,-0.3447,-0.6265,0.06,6.40,3.11
239,263643311,-0.5469,-0.3477,-0.6211,0.43,6.16,3.29
240,263648295,-0.5513,-0.3525,-0.6245,0.79,6.28,3.35
241,263653294,-0.5552,-0.3535,-0.6157,1.04,6.28,3.54
242,263658294,-0.5620,-0.3501,-0.6255,1.34,5.98,3.60
243,263663294,-0.5435,-0.3398,-0.6274,1.59,5.91,3.72
244,263668294,-0.5435,-0.3496,-0.6133,1.89,5.79,3.84
245,263673294,-0.5518,-0.3486,-0.6201,2.13,5.55,3.96
246,263678294,-0.5479,-0.3442,-0.6182,2.32,5.61,3.90
247,263683297,-0.5376,-0.3428,-0.6147,2.44,5.49,3.96
248,263688296,-0.5386,-0.3521,-0.6221,2.62,5.24,4.09
249,263693296,-0.5571,-0.3516,-0.6221,2.87,5.24,4.15
250,263698297,-0.5391,-0.3418,-0.6182,2.93,5.18,4.21
251,263703296,-0.5557,-0.3506,-0.6201,2.99,5.00,4.21
252,263708736,-0.5513,-0.3472,-0.6177,3.05,4.88,4.21
253,263713296,-0.5566,-0.3530,-0.6138,3.23,4.70,4.15
254,263718296,-0.5591,-0.3530,-0.6235,3.17,4.57,4.21
255,263723296,-0.5557,-0.3511,-0.6182,3.35,4.45,4.09
256,263728295,-0.5498,-0.3486,-0.6187,3.23,4.39,4.09
257,263733294,-0.5576,-0.3525,-0.6196,3.29,4.21,4.15
258,263738294,-0.5605,-0.3545,-0.6265,3.23,4.09,3.96
259,263743294,-0.5474,-0.3467,-0.6201,3.11,3.90,3.90
260,263748582,-0.5527,-0.3574,-0.6230,3.05,3.78,3.90
261,263753418,-0.5576,-0.3516,-0.6196,3.05,3.78,3.72
262,263758791,-0.5610,-0.3555,-0.6123,2.93,3.54,3.72
263,263763296,-0.5552,-0.3545,-0.6162,2.93,3.35,3.66
264,263768295,-0.5625,-0.3516,-0.6147,2.80,3.29,3.54
265,263773296,-0.5591,-0.3550,-0.6123,2.87,3.05,3.48
266,263778296,-0.5581,-0.3486,-0.6123,2.93,2.93,3.35
267,263783295,-0.5562,-0.3521,-0.6113,2.87,2.74,3.35
268,263788296,-0.5488,-0.3516,-0.6089,2.87,2.62,3.11
269,263793295,-0.5469,-0.3516,-0.6089,2.99,2.50,2.87
270,263798296,-0.5425,-0.3486,-0.6167,2.99,2.26,2.62
271,263803296,-0.5430,-0.3491,-0.6069,2.93,2.07,2.50
272,263808296,-0.5410,-0.3511,-0.6113,2.80,1.77,2.32
273,263813495,-0.5337,-0.3477,-0.6074,2.62,1.40,2.01
274,263818299,-0.5293,-0.3457,-0.6060,2.44,1.28,1.89
275,263823296,-0.5220,-0.3481,-0.6045,2.26,1.28,1.71
276,263828296,-0.5205,-0.3486,-0.6069,2.01,0.98,1.40
277,263833297,-0.5366,-0.3506,-0.6118,1.71,0.79,1.10
278,263838296,-0.5391,-0.3521,-0.6079,1.46,0.43,0.91
279,263843296,-0.5425,-0.3462,-0.6021,1.16,0.37,0.67
280,263848296,-0.5405,-0.3428,-0.6060,0.85,0.06,0.37
281,263853296,-0.5430,-0.3418,-0.6084,0.49,-0.18,0.06
282,263858296,-0.5435,-0.3491,-0.6099,0.24,-0.37,-0.18
283,263863296,-0.5591,-0.3555,-0.6069,-0.12,-0.73,-0.37
284,263868296,-0.5640,-0.3506,-0.6064,-0.43,-0.91,-0.67
285,263873765,-0.5591,-0.3467,-0.6089,-0.67,-1.16,-0.73
286,263878296,-0.5557,-0.3467,-0.6050,-1.10,-1.34,-1.04
287,263883296,-0.5596,-0.3477,-0.6064,-1.40,-1.52,-1.22
288,263888296,-0.5591,-0.3442,-0.5986,-1.83,-1.71,-1.34
289,263893296,-0.5454,-0.3413,-0.6084,-2.13,-1.83,-1.52
290,263898307,-0.5508,-0.3428,-0.6050,-2.50,-1.83,-1.65
291,263903294,-0.5537,-0.3447,-0.6016,-2.87,-1.89,-1.83
292,263908296,-0.5347,-0.3359,-0.6016,-3.11,-2.01,-2.13
293,263913296,-0.5386,-0.3398,-0.6055,-3.35,-2.20,-2.26
294,263918296,-0.5420,-0.3433,-0.6045,-3.66,-2.32,-2.50
295,263923296,-0.5298,-0.3428,-0.6016,-4.09,-2.50,-2.62
296,263928296,-0.5371,-0.3467,-0.6064,-4.51,-2.74,-2.62
297,263933295,-0.5312,-0.3462,-0.6040,-5.06,-2.74,-2.74
298,263938294,-0.5371,-0.3481,-0.6084,-5.43,-3.05,-2.99
299,263943294,-0.5337,-0.3491,-0.6113,-5.73,-3.11,-2.93
300,263948294,-0.5410,-0.3481,-0.6094,-6.04,-3.29,-2.99
301,263953294,-0.5420,-0.3501,-0.6094,-6.34,-3.41,-2.99
302,263958294,-0.5371,-0.3521,-0.6104,-6.59,-3.60,-3.05
303,263963294,-0.5381,-0.3501,-0.6162,-6.95,-3.78,-3.17
304,263968294,-0.5405,-0.3462,-0.6230,-7.13,-4.02,-3.17
305,263973294,-0.5464,-0.3477,-0.6196,-7.20,-4.09,-3.23
306,263978294,-0.5527,-0.3491,-0.6172,-7.07,-4.09,-3.29
307,263983299,-0.5488,-0.3472,-0.6265,-6.89,-4.21,-3.48
308,263988294,-0.5483,-0.3467,-0.6191,-6.77,-4.33,-3.54
309,263993298,-0.5479,-0.3491,-0.6255,-6.28,-4.45,-3.72
310,263998298,-0.5454,-0.3477,-0.6230,-5.85,-4.45,-3.84
311,264003296,-0.5522,-0.3457,-0.6323,-5.12,-4.51,-3.96
312,264008296,-0.5532,-0.3501,-0.6338,-4.57,-4.70,-4.15
313,264013296,-0.5532,-0.3530,-0.6377,-3.78,-4.70,-4.27
314,264018614,-0.5596,-0.3545,-0.6372,-3.23,-4.94,-4.33
315,264023296,-0.5586,-0.3511,-0.6372,-2.50,-5.06,-4.39
316,264028295,-0.5605,-0.3550,-0.6460,-2.07,-5.24,-4.70
317,264033298,-0.5527,-0.3506,-0.6445,-1.46,-5.37,-4.76
318,264038296,-0.5522,-0.3540,-0.6484,-1.28,-5.55,-4.82
319,264043546,-0.5581,-0.3555,-0.6543,-1.04,-5.61,-5.00
320,264048708,-0.5615,-0.3584,-0.6548,-0.98,-5.73,-5.24
321,264053296,-0.5493,-0.3545,-0.6519,-0.91,-6.10,-5.43
322,264058295,-0.5469,-0.3589,-0.6597,-0.85,-6.10,-5.61
323,264063634,-0.5430,-0.3569,-0.6611,-1.10,-6.34,-5.85
324,264068296,-0.5420,-0.3569,-0.6694,-1.40,-6.52,-6.10
325,264073296,-0.5342,-0.3584,-0.6704,-1.71,-6.65,-6.28
326,264078296,-0.5303,-0.3569,-0.6689,-2.07,-6.95,-6.59
327,264083295,-0.5386,-0.3618,-0.6777,-2.38,-7.13,-6.77
328,264088296,-0.5356,-0.3643,-0.6787,-2.38,-7.13,-7.01
329,264093294,-0.5391,-0.3618,-0.6802,-2.50,-7.38,-7.32
330,264098773,-0.5420,-0.3672,-0.6870,-2.38,-7.50,-7.74
331,264103296,-0.5415,-0.3613,-0.6875,-2.32,-7.38,-7.87
332,264108602,-0.5391,-0.3633,-0.6909,-2.32,-7.38,-8.23
333,264113329,-0.5278,-0.3599,-0.6909,-1.95,-7.38,-8.54
334,264118297,-0.5356,-0.3643,-0.6924,-1.89,-7.32,-8.84
335,264123296,-0.5361,-0.3647,-0.6880,-1.65,-7.07,-9.02
336,264128296,-0.5273,-0.3618,-0.6909,-1.40,-6.65,-9.45
337,264133296,-0.5269,-0.3608,-0.6885,-1.46,-6.34,-9.82
338,264138295,-0.5283,-0.3633,-0.6948,-1.40,-6.04,-10.18
339,264143294,-0.5088,-0.3608,-0.6948,-1.22,-5.91,-10.37
340,264148294,-0.5034,-0.3589,-0.6934,-1.16,-5.67,-10.85
341,264153294,-0.5029,-0.3569,-0.6997,-1.10,-5.61,-11.16
342,264158650,-0.5142,-0.3579,-0.7007,-1.04,-5.37,-11.59
343,264163428,-0.5044,-0.3584,-0.7021,-0.91,-5.43,-11.83
344,264168295,-0.4980,-0.3623,-0.7065,-0.98,-5.18,-12.13
345,264173665,-0.5059,-0.3633,-0.7104,-1.16,-5.24,-12.38
346,264178296,-0.5220,-0.3721,-0.7065,-1.52,-5.06,-12.56
347,264183585,-0.5127,-0.3662,-0.7026,-1.83,-4.88,-12.80
348,264188467,-0.5181,-0.3662,-0.7109,-2.07,-4.45,-12.93
349,264193295,-0.5146,-0.3667,-0.7075,-2.20,-4.02,-13.17
350,264198301,-0.5176,-0.3662,-0.7129,-2.50,-3.96,-13.41
351,264203296,-0.5220,-0.3657,-0.7100,-2.68,-3.48,-13.60
352,264208296,-0.5205,-0.3652,-0.7104,-2.99,-3.11,-13.84
353,264213294,-0.5269,-0.3652,-0.7090,-2.93,-2.74,-14.09
354,264218384,-0.5264,-0.3579,-0.7119,-2.93,-2.32,-14.33
355,264223760,-0.5220,-0.3564,-0.7168,-2.93,-1.83,-14.76
356,264228296,-0.5259,-0.3584,-0.7095,-2.62,-1.46,-14.94
357,264233296,-0.5273,-0.3560,-0.7139,-2.50,-0.98,-15.37
358,264238296,-0.5273,-0.3555,-0.7153,-2.13,-0.49,-15.73
359,264243297,-0.5332,-0.3516,-0.7163,-2.01,0.00,-16.04
360,264248296,-0.5293,-0.3511,-0.7168,-1.71,0.43,-16.34
361,264253294,-0.5249,-0.3496,-0.7104,-1.46,0.73,-16.77
362,264258294,-0.5195,-0.3496,-0.7144,-1.28,1.28,-17.13
363,264263294,-0.5234,-0.3442,-0.7202,-1.22,1.59,-17.62
364,264268294,-0.5259,-0.3521,-0.7124,-1.04,2.26,-17.99
365,264273294,-0.5259,-0.3506,-0.7095,-1.04,2.74,-18.29
366,264278295,-0.5205,-0.3428,-0.7085,-1.28,3.23,-18.72
367,264283778,-0.5239,-0.3418,-0.7104,-1.16,3.78,-18.90
368,264288296,-0.5142,-0.3428,-0.7061,-1.22,4.09,-19.33
369,264293336,-0.5112,-0.3428,-0.7012,-1.46,4.76,-19.63
370,264298297,-0.5093,-0.3389,-0.7002,-1.65,5.30,-19.94
371,264303296,-0.5024,-0.3403,-0.6973,-1.95,5.79,-20.30
372,264308296,-0.5010,-0.3354,-0.6895,-2.44,6.28,-20.55
373,264313296,-0.5078,-0.3364,-0.6943,-3.05,6.89,-20.79
374,264318296,-0.5020,-0.3374,-0.6909,-3.84,7.38,-20.91
375,264323777,-0.5010,-0.3442,-0.6904,-4.57,7.87,-21.10
376,264328296,-0.5107,-0.3413,-0.6870,-5.49,8.41,-21.22
377,264333296,-0.5176,-0.3457,-0.6855,-6.46,9.02,-21.16
378,264338296,-0.5083,-0.3433,-0.6875,-7.26,9.45,-21.28
379,264343296,-0.4897,-0.3364,-0.6860,-8.17,9.82,-21.40
380,264348296,-0.4858,-0.3423,-0.6909,-8.90,10.24,-21.34
381,264353297,-0.4873,-0.3325,-0.6870,-9.70,10.67,-21.28
382,264358299,-0.4893,-0.3379,-0.6870,-10.18,10.85,-21.40
383,264363598,-0.4917,-0.3394,-0.6841,-10.73,11.28,-21.46
384,264368296,-0.4849,-0.3408,-0.6855,-11.04,11.40,-21.46
385,264373296,-0.4888,-0.3403,-0.6841,-11.10,11.71,-21.46
386,264378296,-0.4927,-0.3403,-0.6841,-11.22,11.95,-21.46
387,264383296,-0.4829,-0.3394,-0.6846,-11.04,12.13,-21.52
388,264388779,-0.4810,-0.3418,-0.6812,-10.79,12.32,-21.46
389,264393297,-0.4819,-0.3428,-0.6836,-10.30,12.50,-21.46
390,264398295,-0.4697,-0.3350,-0.6841,-9.70,12.68,-21.46
391,264403297,-0.4761,-0.3442,-0.6870,-8.90,12.80,-21.59
392,264408296,-0.4873,-0.3447,-0.6851,-8.11,12.93,-21.34
393,264413296,-0.4790,-0.3428,-0.6865,-7.44,13.11,-21.34
394,264418296,-0.4722,-0.3413,-0.6807,-6.34,13.23,-21.34
395,264423296,-0.4683,-0.3438,-0.6812,-5.61,13.23,-21.22
396,264428296,-0.4849,-0.3525,-0.6846,-4.76,13.54,-21.10
397,264433295,-0.4824,-0.3511,-0.6768,-4.02,13.72,-20.91
398,264438296,-0.4712,-0.3525,-0.6870,-3.35,13.78,-20.73
399,264443294,-0.4688,-0.3550,-0.6802,-2.74,13.96,-20.67
400,264448294,-0.4731,-0.3589,-0.6865,-2.07,13.90,-20.55
401,264453294,-0.4731,-0.3613,-0.6841,-1.59,13.96,-20.37
402,264458294,-0.4736,-0.3574,-0.6831,-1.16,14.27,-20.30
403,264463294,-0.4707,-0.3613,-0.6914,-0.73,14.33,-20.30
404,264468294,-0.4697,-0.3643,-0.6929,-0.24,14.45,-20.30
405,264473297,-0.4707,-0.3662,-0.6978,0.12,14.57,-20.30
406,264478296,-0.4805,-0.3691,-0.6929,0.55,14.70,-20.30
407,264483296,-0.4702,-0.3721,-0.6904,0.79,14.88,-20.37
408,264488296,-0.4614,-0.3701,-0.7012,0.79,15.00,-20.49
409,264493296,-0.4595,-0.3774,-0.7017,0.73,15.30,-20.55
410,264498296,-0.4707,-0.3794,-0.6948,0.49,15.24,-20.61
411,264503298,-0.4702,-0.3818,-0.6978,0.12,15.43,-20.85
412,264508295,-0.4629,-0.3877,-0.7051,-0.55,15.61,-20.91
413,264513296,-0.4668,-0.3945,-0.7021,-1.16,15.98,-21.16
414,264518296,-0.4780,-0.3965,-0.7012,-2.13,16.40,-21.34
415,264523296,-0.4839,-0.4033,-0.7002,-3.17,16.59,-21.46
416,264528296,-0.4868,-0.4102,-0.7056,-4.39,17.13,-21.59
417,264533296,-0.4761,-0.4141,-0.7012,-5.30,17.26,-21.71
418,264538294,-0.4775,-0.4189,-0.7041,-6.34,17.80,-21.83
419,264543294,-0.4775,-0.4258,-0.7100,-7.38,18.29,-21.89
420,264548294,-0.4775,-0.4312,-0.7095,-8.05,18.72,-22.01
421,264553294,-0.4907,-0.4360,-0.7148,-8.41,19.09,-22.01
422,264558294,-0.4917,-0.4395,-0.7148,-7.99,19.39,-22.13
423,264563294,-0.4878,-0.4443,-0.7139,-7.56,19.88,-22.26
424,264568294,-0.4849,-0.4502,-0.7217,-6.65,20.12,-22.56
425,264573294,-0.4751,-0.4541,-0.7134,-5.18,20.49,-22.87
426,264578294,-0.4712,-0.4561,-0.7212,-3.84,20.67,-23.23
427,264583294,-0.4590,-0.4541,-0.7168,-2.26,20.98,-23.72
428,264588294,-0.4565,-0.4570,-0.7197,-0.67,21.16,-24.39
429,264593294,-0.4517,-0.4619,-0.7222,1.10,21.46,-25.18
430,264598294,-0.4399,-0.4624,-0.7202,2.68,21.71,-26.04
431,264603294,-0.4336,-0.4668,-0.7261,4.15,21.95,-27.07
432,264608294,-0.4385,-0.4746,-0.7202,5.55,22.26,-28.17
433,264613294,-0.4336,-0.4844,-0.7212,6.28,22.32,-29.27
434,264618294,-0.4263,-0.4810,-0.7256,6.89,22.74,-30.30
435,264623299,-0.4131,-0.4858,-0.7339,6.89,23.05,-31.40
436,264628296,-0.4165,-0.4951,-0.7280,6.83,23.23,-32.50
437,264633554,-0.4150,-0.5020,-0.7354,6.04,23.41,-33.78
438,264638761,-0.4180,-0.5054,-0.7329,5.49,23.48,-34.70
439,264643296,-0.4116,-0.5083,-0.7373,4.70,23.54,-35.49
440,264648435,-0.4067,-0.5063,-0.7354,3.84,23.78,-36.77
441,264653297,-0.4072,-0.5073,-0.7324,2.93,23.72,-37.80
442,264658296,-0.3901,-0.4976,-0.7349,2.13,23.96,-38.90
443,264663296,-0.3799,-0.4946,-0.7324,1.28,23.90,-40.12
444,264668296,-0.3643,-0.4985,-0.7344,0.55,24.02,-41.34
445,264673296,-0.3545,-0.4980,-0.7373,-0.61,23.90,-42.93
446,264678296,-0.3652,-0.5078,-0.7388,-1.28,23.90,-43.90
447,264683566,-0.3472,-0.5015,-0.7407,-2.68,23.96,-45.49
448,264688469,-0.3296,-0.5044,-0.7397,-3.72,23.96,-46.89
449,264693456,-0.3276,-0.5049,-0.7402,-4.88,24.02,-48.29
450,264698296,-0.3325,-0.5063,-0.7476,-5.85,23.90,-49.39
451,264703298,-0.3350,-0.5083,-0.7466,-6.89,24.02,-50.61
452,264708296,-0.3193,-0.5063,-0.7495,-8.05,24.09,-52.01
453,264713378,-0.3154,-0.5166,-0.7515,-9.39,24.27,-53.54
454,264718294,-0.3315,-0.5249,-0.7490,-10.12,24.39,-54.51
455,264723300,-0.3281,-0.5312,-0.7515,-11.40,24.45,-55.98
456,264728296,-0.3223,-0.5254,-0.7573,-12.20,24.63,-56.83
457,264733297,-0.3291,-0.5366,-0.7676,-13.05,24.94,-57.80
458,264738418,-0.3252,-0.5361,-0.7583,-13.54,25.24,-59.09
459,264743381,-0.3193,-0.5371,-0.7632,-14.02,25.55,-59.94
460,264748694,-0.3267,-0.5454,-0.7710,-14.15,25.85,-60.79
461,264753296,-0.3267,-0.5459,-0.7681,-13.90,25.98,-61.59
462,264758380,-0.3267,-0.5522,-0.7627,-13.41,26.34,-62.32
463,264763296,-0.3145,-0.5498,-0.7715,-12.68,26.59,-62.99
464,264768296,-0.3164,-0.5591,-0.7783,-11.65,26.83,-63.66
465,264773296,-0.3169,-0.5586,-0.7700,-10.24,27.13,-64.33
466,264778295,-0.3120,-0.5610,-0.7729,-8.35,27.07,-64.88
467,264783295,-0.2993,-0.5605,-0.7710,-6.10,27.20,-65.37
468,264788296,-0.2974,-0.5596,-0.7744,-3.35,27.07,-65.98
469,264793296,-0.2949,-0.5635,-0.7783,-0.37,27.07,-66.59
470,264798296,-0.2944,-0.5635,-0.7769,2.80,27.01,-67.32
471,264803296,-0.2905,-0.5669,-0.7798,6.22,27.07,-67.87
472,264808296,-0.2798,-0.5649,-0.7754,9.57,26.83,-68.41
473,264813296,-0.2803,-0.5674,-0.7676,12.99,26.65,-69.02
474,264818721,-0.2769,-0.5703,-0.7681,15.98,26.40,-69.57
475,264823296,-0.2827,-0.5747,-0.7759,18.48,26.28,-70.00
476,264828296,-0.2832,-0.5718,-0.7729,20.79,25.98,-70.49
477,264833296,-0.2808,-0.5771,-0.7754,22.62,25.73,-70.91
478,264838299,-0.2705,-0.5845,-0.7769,24.15,25.37,-71.22
479,264843296,-0.2622,-0.5791,-0.7803,25.24,24.88,-71.65
480,264848296,-0.2563,-0.5815,-0.7808,26.10,24.39,-71.95
481,264853295,-0.2539,-0.5781,-0.7798,26.83,24.02,-72.32
482,264858294,-0.2319,-0.5747,-0.7759,27.32,23.48,-72.74
483,264863294,-0.2402,-0.5796,-0.7803,27.87,22.99,-73.17
484,264868341,-0.2266,-0.5728,-0.7773,28.23,22.44,-73.60
485,264873294,-0.2397,-0.5801,-0.7793,28.48,21.95,-73.96
486,264878294,-0.2305,-0.5767,-0.7729,28.90,21.46,-74.33
487,264883519,-0.2148,-0.5703,-0.7705,29.70,21.16,-74.63
488,264888296,-0.2266,-0.5791,-0.7783,30.43,20.67,-74.94
489,264893296,-0.2109,-0.5718,-0.7759,31.34,20.24,-75.24
490,264898296,-0.1953,-0.5732,-0.7788,32.44,19.63,-75.37
491,264903296,-0.1982,-0.5776,-0.7734,33.78,19.21,-75.67
492,264908296,-0.1904,-0.5767,-0.7739,35.30,18.66,-75.85
493,264913297,-0.1987,-0.5796,-0.7715,36.89,18.23,-76.16
494,264918296,-0.1934,-0.5762,-0.7773,38.48,17.56,-76.28
495,264923294,-0.1914,-0.5786,-0.7695,40.30,17.26,-76.34
496,264928296,-0.1865,-0.5752,-0.7690,42.26,16.65,-76.52
497,264933296,-0.1924,-0.5791,-0.7676,43.90,16.22,-76.52
498,264938774,-0.1958,-0.5806,-0.7656,45.79,15.67,-76.65
499,264943296,-0.1885,-0.5771,-0.7603,47.50,15.00,-76.52
500,264948296,-0.1870,-0.5806,-0.7642,49.21,14.39,-76.65
501,264953296,-0.1865,-0.5776,-0.7554,50.85,14.09,-76.83
502,264958296,-0.1733,-0.5713,-0.7524,52.74,13.48,-76.89
503,264963301,-0.1729,-0.5747,-0.7563,54.70,12.93,-76.95
504,264968296,-0.1650,-0.5688,-0.7432,56.10,12.44,-77.01
505,264973297,-0.1587,-0.5684,-0.7437,57.74,11.83,-77.20
506,264978296,-0.1538,-0.5635,-0.7314,59.51,11.10,-77.32
507,264983707,-0.1514,-0.5674,-0.7397,61.10,10.49,-77.50
508,264988296,-0.1602,-0.5684,-0.7397,62.44,9.88,-77.74
509,264993296,-0.1611,-0.5698,-0.7368,63.84,9.27,-78.11
510,264998296,-0.1533,-0.5596,-0.7251,65.18,8.84,-78.29
511,265003296,-0.1543,-0.5610,-0.7271,66.28,8.17,-78.66
512,265008296,-0.1616,-0.5645,-0.7231,67.26,7.74,-78.96
513,265013294,-0.1631,-0.5557,-0.7188,68.11,7.32,-79.57
514,265018296,-0.1528,-0.5601,-0.7153,68.78,7.07,-79.94
515,265023629,-0.1543,-0.5537,-0.7148,69.51,6.65,-80.37
516,265028296,-0.1621,-0.5518,-0.7129,69.82,6.28,-80.85
517,265033296,-0.1528,-0.5498,-0.7036,70.12,5.91,-81.28
518,265038743,-0.1587,-0.5547,-0.7021,69.82,5.43,-81.83
519,265043296,-0.1699,-0.5601,-0.7026,69.45,4.94,-82.26
520,265048296,-0.1650,-0.5586,-0.6958,68.72,4.51,-82.74
521,265053296,-0.1631,-0.5566,-0.6924,67.93,3.78,-83.23
522,265058296,-0.1509,-0.5532,-0.6865,67.07,3.05,-83.78
523,265063298,-0.1313,-0.5469,-0.6831,65.91,2.01,-84.39
524,265068296,-0.1333,-0.5479,-0.6802,65.00,1.16,-84.94
525,265073296,-0.1392,-0.5522,-0.6851,63.84,0.12,-85.55
526,265078296,-0.1338,-0.5537,-0.6792,62.20,-1.22,-86.28
527,265083296,-0.1147,-0.5508,-0.6738,61.04,-2.01,-86.71
528,265088296,-0.1230,-0.5571,-0.6714,59.09,-3.48,-87.20
529,265093296,-0.1074,-0.5601,-0.6709,57.56,-4.45,-87.68
530,265098296,-0.1133,-0.5669,-0.6743,55.73,-5.73,-87.93
531,265103296,-0.1167,-0.5605,-0.6641,54.33,-6.95,-88.29
532,265108296,-0.1118,-0.5615,-0.6670,52.93,-8.17,-88.66
533,265113329,-0.1040,-0.5571,-0.6626,52.07,-9.57,-88.96
534,265118299,-0.0898,-0.5513,-0.6655,51.40,-10.67,-89.39
535,265123294,-0.1016,-0.5557,-0.6655,50.98,-11.83,-89.63
536,265128295,-0.1045,-0.5605,-0.6616,50.43,-12.80,-89.94
537,265133295,-0.1060,-0.5605,-0.6567,50.00,-13.54,-90.30
538,265138294,-0.0981,-0.5576,-0.6650,49.70,-14.33,-90.49
539,265143294,-0.0967,-0.5581,-0.6709,49.27,-15.12,-91.04
540,265148294,-0.0903,-0.5581,-0.6646,49.15,-15.98,-91.28
541,265153294,-0.0815,-0.5605,-0.6748,48.84,-16.83,-91.52
542,265158294,-0.0801,-0.5562,-0.6743,48.72,-17.74,-91.83
543,265163294,-0.0850,-0.5586,-0.6753,48.60,-18.60,-92.20
544,265168295,-0.0737,-0.5542,-0.6792,48.41,-19.51,-92.62
545,265173294,-0.0664,-0.5527,-0.6807,48.29,-20.49,-92.80
546,265178299,-0.0586,-0.5522,-0.6836,48.29,-21.46,-93.17
547,265183355,-0.0430,-0.5493,-0.6855,48.60,-22.68,-93.48
548,265188296,-0.0405,-0.5586,-0.6885,48.90,-23.54,-93.84
549,265193296,-0.0312,-0.5513,-0.6880,48.96,-24.94,-93.90
550,265198299,-0.0371,-0.5591,-0.6904,49.09,-25.73,-93.96
551,265203295,-0.0308,-0.5610,-0.6870,49.02,-26.83,-94.21
552,265208447,-0.0195,-0.5581,-0.6860,48.66,-27.68,-94.39
553,265213296,-0.0098,-0.5635,-0.6831,48.29,-28.48,-94.39
554,265218296,-0.0063,-0.5630,-0.6807,47.74,-29.39,-94.45
555,265223296,-0.0020,-0.5679,-0.6768,47.32,-30.18,-94.45
556,265228488,-0.0029,-0.5718,-0.6797,46.65,-30.98,-94.21
557,265233667,0.0059,-0.5762,-0.6919,45.85,-31.77,-93.96
558,265238296,0.0156,-0.5771,-0.6909,45.06,-32.62,-93.78
559,265243766,0.0288,-0.5776,-0.6934,44.02,-33.35,-93.66
560,265248296,0.0454,-0.5703,-0.6938,43.17,-33.90,-93.60
561,265253656,0.0498,-0.5669,-0.6973,42.50,-34.33,-93.54
562,265258296,0.0537,-0.5669,-0.6934,42.01,-34.82,-93.66
563,265263295,0.0737,-0.5640,-0.6904,41.71,-35.24,-93.78
564,265268294,0.0640,-0.5767,-0.6924,41.40,-35.67,-93.90
565,265273294,0.0732,-0.5708,-0.6958,41.10,-35.98,-94.02
566,265278294,0.0811,-0.5669,-0.7012,40.73,-36.10,-94.39
567,265283618,0.0728,-0.5732,-0.6963,40.30,-36.10,-94.57
568,265288298,0.0771,-0.5767,-0.6885,40.00,-35.85,-94.63
569,265293480,0.0747,-0.5801,-0.6802,39.45,-35.43,-94.63
570,265298300,0.0728,-0.5830,-0.6807,38.96,-34.88,-94.70
571,265303296,0.0669,-0.5933,-0.6685,38.48,-34.09,-94.82
572,265308296,0.0791,-0.5967,-0.6670,37.87,-33.35,-94.63
573,265313296,0.0884,-0.5967,-0.6699,37.38,-32.50,-94.63
574,265318389,0.1006,-0.5972,-0.6802,37.07,-31.77,-94.51
575,265323296,0.1226,-0.5972,-0.6772,36.95,-31.16,-94.45
576,265328472,0.1362,-0.6025,-0.6895,36.77,-30.73,-94.51
577,265333296,0.1714,-0.5933,-0.6948,36.77,-30.49,-94.63
578,265338296,0.1934,-0.5933,-0.6963,36.95,-30.37,-94.94
579,265343296,0.1792,-0.6011,-0.6982,37.07,-30.24,-95.24
580,265348296,0.1807,-0.5986,-0.6992,37.44,-30.37,-95.55
581,265353296,0.1860,-0.6040,-0.7056,37.44,-30.30,-95.91
582,265358675,0.1973,-0.6001,-0.7031,37.50,-30.43,-96.22
583,265363296,0.2090,-0.6050,-0.6953,37.32,-30.18,-96.46
584,265368352,0.2139,-0.5991,-0.6953,37.32,-29.94,-96.83
585,265373768,0.2070,-0.6064,-0.6875,37.13,-29.70,-97.13
586,265378296,0.1992,-0.6187,-0.6777,36.83,-29.09,-97.32
587,265383296,0.1914,-0.6274,-0.6807,36.22,-28.60,-97.32
588,265388296,0.1978,-0.6377,-0.6851,35.30,-27.99,-97.13
589,265393771,0.1982,-0.6509,-0.6797,34.15,-27.20,-96.95
590,265398296,0.1968,-0.6592,-0.6792,32.87,-26.34,-96.59
591,265403296,0.2002,-0.6577,-0.6899,31.71,-25.37,-96.04
592,265408296,0.2041,-0.6597,-0.6958,30.55,-24.57,-95.61
593,265413296,0.2285,-0.6650,-0.7114,29.57,-23.90,-95.12
594,265418296,0.2563,-0.6641,-0.7163,28.41,-23.29,-94.82
595,265423296,0.2822,-0.6626,-0.7231,27.38,-22.93,-94.57
596,265428296,0.2798,-0.6641,-0.7246,26.40,-22.68,-94.51
597,265433296,0.2798,-0.6582,-0.7222,25.61,-22.50,-94.45
598,265438663,0.2891,-0.6562,-0.7271,24.63,-22.44,-94.45
599,265443296,0.2988,-0.6509,-0.7202,23.78,-22.32,-94.51
600,265448296,0.3037,-0.6553,-0.7261,22.99,-22.01,-94.45
601,265453295,0.3110,-0.6533,-0.7261,21.89,-21.95,-94.39
602,265458294,0.3052,-0.6577,-0.7212,20.67,-21.71,-94.39
603,265463297,0.3042,-0.6621,-0.7183,19.02,-21.34,-94.15
604,265468294,0.3076,-0.6621,-0.7114,17.38,-20.67,-93.96
605,265473294,0.3105,-0.6685,-0.7119,14.94,-20.00,-93.48
606,265478294,0.3188,-0.6650,-0.7158,12.62,-19.02,-93.11
607,265483298,0.3281,-0.6602,-0.7173,10.24,-18.17,-92.80
608,265488296,0.3447,-0.6489,-0.7207,7.87,-17.44,-92.50
609,265493295,0.3608,-0.6450,-0.7305,5.37,-16.59,-92.32
610,265498296,0.3687,-0.6367,-0.7412,3.05,-15.79,-92.38
611,265503296,0.3882,-0.6318,-0.7520,0.24,-15.06,-92.50
612,265508770,0.4116,-0.6221,-0.7520,-3.23,-14.15,-92.80
613,265513296,0.4204,-0.6201,-0.7632,-5.85,-13.54,-93.11
614,265518296,0.4370,-0.6191,-0.7632,-9.57,-12.62,-93.41
615,265523296,0.4541,-0.6201,-0.7554,-14.02,-11.83,-93.78
616,265528296,0.4736,-0.6152,-0.7695,-19.09,-10.85,-94.27
617,265533295,0.4917,-0.6211,-0.7568,-24.82,-9.88,-94.51
618,265538296,0.4966,-0.6274,-0.7710,-31.04,-8.66,-94.57
619,265543296,0.5005,-0.6353,-0.7700,-39.09,-6.89,-94.51
620,265548296,0.5034,-0.6406,-0.7734,-44.88,-5.85,-94.15
621,265553295,0.4976,-0.6509,-0.7793,-53.84,-3.66,-93.66
622,265558296,0.5010,-0.6523,-0.7842,-59.88,-2.07,-92.93
623,265563296,0.5005,-0.6567,-0.7891,-67.56,0.06,-92.20
624,265568295,0.5059,-0.6592,-0.7886,-75.24,2.56,-91.10
625,265573295,0.5068,-0.6636,-0.7852,-82.50,4.82,-89.88
626,265578294,0.5044,-0.6567,-0.7881,-89.21,7.56,-88.72
627,265583294,0.4971,-0.6567,-0.7886,-95.37,10.49,-87.20
628,265588294,0.5044,-0.6309,-0.8691,-100.91,13.23,-85.61
629,265593294,0.5742,-0.5703,-1.0527,-105.67,16.40,-84.21
630,265598294,0.6079,-0.5776,-1.0640,-109.02,20.30,-82.50
631,265603294,0.5645,-0.5439,-1.0430,-111.83,24.94,-80.55
632,265608295,0.5532,-0.4985,-1.0166,-114.45,29.88,-78.66
633,265613294,0.5791,-0.4385,-1.0381,-116.52,35.00,-76.89
634,265618294,0.6333,-0.3442,-1.0308,-119.27,40.06,-75.37
635,265623294,0.6416,-0.2788,-0.9863,-122.68,45.49,-73.96
636,265628294,0.6338,-0.2261,-0.9917,-126.95,50.85,-72.20
637,265633294,0.6348,-0.1689,-1.0225,-132.13,56.04,-70.37
638,265638294,0.6392,-0.1372,-1.0347,-137.99,61.10,-67.99
639,265643294,0.6484,-0.1235,-1.0308,-143.84,66.22,-65.30
640,265648294,0.6362,-0.1250,-1.0366,-149.45,71.59,-62.07
641,265653294,0.6382,-0.1421,-1.0244,-154.51,76.89,-58.48
642,265658294,0.6196,-0.1504,-0.9849,-158.66,81.83,-54.45
643,265663294,0.6045,-0.1572,-0.9297,-161.46,86.40,-50.06
644,265668295,0.6074,-0.1631,-0.8892,-162.74,91.95,-45.43
645,265673298,0.5635,-0.1709,-0.8560,-162.56,98.05,-39.63
646,265678295,0.5361,-0.1963,-0.8462,-160.79,102.74,-34.45
647,265683296,0.5122,-0.2310,-0.8286,-157.38,107.26,-28.90
648,265688465,0.5229,-0.2495,-0.8325,-152.26,111.46,-23.17
649,265693379,0.5381,-0.2563,-0.8110,-145.37,115.85,-17.26
650,265698410,0.5420,-0.2524,-0.7715,-137.13,120.24,-11.52
651,265703441,0.5293,-0.2339,-0.7261,-128.05,124.45,-5.98
652,265708296,0.5103,-0.2144,-0.6987,-117.99,128.23,-0.55
653,265713297,0.4946,-0.2085,-0.6724,-107.80,132.38,4.82
654,265718296,0.4888,-0.1978,-0.6523,-97.74,136.28,10.18
655,265723296,0.4922,-0.2002,-0.6333,-88.23,139.94,15.43
656,265728296,0.4946,-0.2090,-0.6211,-78.84,143.60,20.73
657,265733296,0.4883,-0.2178,-0.6035,-69.94,147.26,26.10
658,265738296,0.4839,-0.2202,-0.5879,-61.40,150.91,31.22
659,265743755,0.4697,-0.2183,-0.5596,-53.41,154.39,36.16
660,265748296,0.4585,-0.2173,-0.5396,-45.98,157.74,41.10
661,265753294,0.4653,-0.2349,-0.5249,-39.45,161.10,45.79
662,265758327,0.4429,-0.2329,-0.4888,-33.48,164.21,50.49
663,265763294,0.4424,-0.2324,-0.4551,-28.35,167.20,55.12
664,265768294,0.4268,-0.2441,-0.4351,-23.66,170.24,59.51
665,265773295,0.4160,-0.2466,-0.4087,-19.51,173.11,63.96
666,265778683,0.4053,-0.2490,-0.3765,-15.61,176.04,68.17
667,265783295,0.3882,-0.2559,-0.3457,-12.07,178.90,72.62
668,265788294,0.3735,-0.2598,-0.3198,-8.60,181.71,76.71
669,265793296,0.3579,-0.2637,-0.2920,-5.24,184.51,80.91
670,265798295,0.3398,-0.2671,-0.2568,-1.89,187.26,85.91
671,265803296,0.3228,-0.2612,-0.2295,1.34,189.94,88.41
672,265808296,0.3076,-0.2598,-0.2085,4.70,192.56,92.68
673,265813296,0.2910,-0.2583,-0.1846,7.87,195.12,96.34
674,265818296,0.2646,-0.2583,-0.1484,10.98,197.62,100.06
675,265823296,0.2529,-0.2554,-0.1299,14.02,199.94,103.54
676,265828295,0.2480,-0.2461,-0.1108,16.89,201.89,107.01
677,265833296,0.2427,-0.2368,-0.0884,19.51,204.09,110.12
678,265838296,0.2256,-0.2417,-0.0571,21.89,205.73,113.05
679,265843538,0.2002,-0.2471,-0.0352,23.84,207.44,116.22
680,265848296,0.1890,-0.2427,-0.0132,25.30,208.78,119.02
681,265853303,0.1802,-0.2549,0.0112,26.46,210.00,121.95
682,265858383,0.1685,-0.2690,0.0405,26.95,211.22,124.88
683,265863295,0.1479,-0.2847,0.0664,27.13,212.07,127.68
684,265868296,0.1328,-0.2969,0.1001,27.20,212.93,130.73
685,265873459,0.1270,-0.3096,0.1328,26.71,213.60,133.84
686,265878296,0.1201,-0.3276,0.1709,26.28,214.39,136.83
687,265883297,0.1060,-0.3486,0.1978,25.73,215.06,140.24
688,265888296,0.1104,-0.3706,0.2310,25.24,215.73,143.48
689,265893296,0.1064,-0.3921,0.2607,24.70,216.16,146.83
690,265898619,0.1147,-0.4023,0.2935,24.15,216.77,150.06
691,265903368,0.1172,-0.4175,0.3022,23.96,217.07,153.29
692,265908295,0.1118,-0.4238,0.3218,23.96,217.38,156.59
693,265913296,0.0972,-0.4321,0.3442,24.39,217.56,159.57
694,265918294,0.0850,-0.4414,0.3770,25.18,217.68,163.11
695,265923296,0.0688,-0.4487,0.4087,26.52,217.62,165.43
696,265928296,0.0518,-0.4492,0.4673,28.78,217.68,168.17
697,265933295,0.0459,-0.4907,0.4741,32.13,218.11,170.43
698,265938296,0.0132,-0.5063,0.4966,36.46,218.23,172.80
699,265943295,-0.0337,-0.5044,0.5059,41.52,217.99,175.18
700,265948720,-0.0698,-0.5293,0.5283,48.66,217.38,177.74
701,265953296,-0.0762,-0.5293,0.5518,53.96,216.65,179.39
702,265958296,-0.0771,-0.5488,0.5894,60.61,216.10,181.16
703,265963296,-0.0620,-0.5679,0.6177,67.32,215.24,182.93
704,265968296,-0.0757,-0.5806,0.6284,74.15,214.33,184.27
705,265973296,-0.1079,-0.5645,0.6587,82.13,213.17,185.49
706,265978295,-0.1553,-0.5601,0.7100,87.56,212.56,185.91
707,265983295,-0.1641,-0.5557,0.7173,94.15,211.34,185.91
708,265988294,-0.1528,-0.5425,0.7676,100.85,210.18,185.73
709,265993294,-0.1694,-0.5488,0.8271,107.26,209.15,185.37
710,265998294,-0.1997,-0.5679,0.8652,113.54,208.05,184.57
711,266003432,-0.1919,-0.5874,0.8560,119.70,206.40,183.78
712,266008749,-0.2681,-0.5649,0.8853,127.01,204.21,182.87
713,266013296,-0.2930,-0.5654,0.9609,130.49,202.62,181.71
714,266018296,-0.3257,-0.6025,1.0039,135.67,200.43,180.61
715,266023296,-0.3682,-0.5972,1.0093,140.55,197.62,179.21
716,266028296,-0.4028,-0.6372,1.0737,144.94,193.78,177.38
717,266033296,-0.4546,-0.6475,1.0908,147.56,190.85,175.98
718,266038438,-0.3726,-0.7100,1.1226,150.18,186.10,174.15
719,266043295,-0.3369,-0.7588,1.2183,151.28,181.28,172.44
720,266048294,-0.3384,-0.7485,1.2627,150.49,175.98,170.61
721,266053294,-0.3682,-0.7549,1.3325,147.74,170.37,168.72
722,266058294,-0.3896,-0.7754,1.3848,143.23,164.21,166.71
723,266063294,-0.4248,-0.7778,1.4248,136.52,156.95,164.76
724,266068294,-0.4468,-0.8262,1.5269,128.23,149.27,162.87
725,266073294,-0.4873,-0.8594,1.5625,117.99,140.73,160.91
726,266078297,-0.4927,-0.8647,1.5898,106.22,130.91,158.78
727,266083294,-0.4634,-0.7925,1.7246,93.78,119.88,155.73
728,266088294,-0.4834,-0.9102,1.8018,81.52,107.93,151.65
729,266093294,-0.4790,-0.9023,1.7891,69.51,94.88,148.78
730,266098294,-0.4932,-0.9487,1.9893,57.68,82.87,146.16
731,266103298,-0.5117,-1.0215,2.0366,46.77,69.33,144.02
732,266108296,-0.5547,-1.0918,2.0200,36.83,54.70,142.80
733,266113320,-0.6104,-1.1113,2.1255,26.10,36.59,141.65
734,266118297,-0.6616,-1.1216,2.2627,20.00,24.21,140.73
735,266123296,-0.7266,-1.1079,2.2920,14.09,7.99,139.27
736,266128296,-0.7642,-1.1494,2.3486,10.49,-9.21,137.62
737,266133299,-0.8706,-1.2051,2.4448,9.27,-30.24,135.91
738,266138296,-0.9331,-1.2427,2.5234,11.28,-44.57,135.18
739,266143296,-1.0244,-1.3037,2.6025,18.54,-66.40,134.33
740,266148296,-1.1250,-1.3555,2.6494,28.90,-85.12,134.15
741,266153296,-1.2417,-1.3892,2.6909,42.99,-104.63,134.39
742,266158295,-1.3315,-1.4058,2.7754,60.67,-124.45,134.94
743,266163296,-1.4092,-1.4438,2.8887,80.67,-144.63,136.16
744,266168296,-1.5522,-1.4697,2.9453,102.68,-165.00,137.99
745,266173439,-1.6650,-1.4727,2.9468,125.30,-186.16,140.18
746,266178296,-1.7495,-1.5088,3.0273,147.99,-208.11,143.29
747,266183295,-1.8418,-1.5566,3.1060,169.27,-230.49,147.68
748,266188295,-1.9590,-1.5928,3.1484,188.11,-253.48,153.17
749,266193294,-2.0713,-1.6313,3.1929,202.93,-277.20,159.76
750,266198294,-2.1943,-1.6743,3.2275,213.96,-301.77,167.13
751,266203294,-2.2935,-1.6963,3.2329,221.95,-327.26,175.37
752,266208297,-2.3618,-1.7212,3.2510,227.99,-353.17,184.21
753,266213298,-2.4912,-1.7539,3.2124,233.54,-379.51,193.60
754,266218295,-2.6152,-1.7471,3.1685,238.60,-406.71,203.41
755,266223296,-2.6680,-1.7573,3.1616,243.66,-433.54,213.60
756,266228294,-2.7588,-1.7881,3.0244,248.72,-460.79,224.21
757,266233296,-2.8667,-1.8262,2.8984,253.54,-487.87,235.43
758,266238296,-2.9214,-1.8599,2.7734,257.87,-515.24,247.01
759,266243296,-2.9521,-1.9048,2.6445,261.28,-541.77,258.96
760,266248296,-3.0552,-1.9863,2.4536,262.13,-567.93,270.98
761,266253296,-3.1108,-2.0713,2.2368,259.33,-593.78,282.93
762,266258296,-3.0532,-2.1538,2.0015,254.09,-619.02,294.88
763,266263298,-2.9761,-2.2817,1.7300,247.44,-643.60,307.01
764,266268295,-2.8999,-2.3862,1.4248,241.59,-667.07,319.88
765,266273329,-2.8384,-2.4585,1.1553,236.65,-688.23,333.66
766,266278479,-2.8320,-2.4736,0.8916,232.38,-706.59,347.38
767,266283469,-2.8872,-2.4019,0.7090,227.26,-720.67,359.45
768,266288296,-3.0742,-2.3716,0.6226,221.46,-728.48,369.33
769,266293298,-3.2231,-2.0889,0.6475,217.38,-726.46,375.00
770,266298296,-3.1035,-1.8940,0.3281,213.72,-714.09,372.26
771,266303450,-3.0229,-2.4019,-0.3711,205.91,-698.29,365.18
772,266308458,-3.0649,-2.8604,-0.7759,192.01,-683.23,359.09
773,266313367,-2.9365,-2.8584,-1.0449,176.04,-665.98,350.79
774,266318295,-2.7505,-2.8071,-1.3887,158.96,-644.27,336.34
775,266323787,-2.5918,-2.8633,-1.6431,138.35,-621.04,317.20
776,266328296,-2.4561,-2.8501,-1.7812,113.90,-596.89,295.43
777,266333296,-2.1699,-2.7705,-1.9688,88.23,-572.44,272.38
778,266338296,-2.1021,-2.7163,-2.1387,61.28,-548.60,247.38
779,266343296,-2.0269,-2.6182,-2.1699,31.04,-524.09,220.55
780,266348296,-1.9224,-2.6426,-2.2041,-5.37,-498.29,190.91
781,266353294,-1.6816,-2.6416,-2.2207,-45.43,-470.37,159.27
782,266358294,-1.5518,-2.5894,-2.3770,-86.10,-440.79,126.04
783,266363294,-1.4805,-2.5020,-2.4702,-122.44,-410.85,92.56
784,266368294,-1.3481,-2.4507,-2.4614,-150.73,-380.18,58.84
785,266373294,-1.0371,-2.3740,-2.4033,-167.68,-349.27,26.89
786,266378297,-0.8467,-2.2632,-2.3896,-173.66,-318.96,-2.44
787,266383847,-0.7529,-2.1162,-2.3188,-167.01,-283.78,-33.48
788,266388295,-0.6523,-1.9873,-2.2544,-155.55,-261.46,-51.22
789,266393295,-0.5391,-1.8735,-2.1558,-135.06,-235.24,-70.24
790,266398294,-0.4570,-1.7725,-2.0479,-109.27,-210.85,-85.43
791,266403294,-0.3745,-1.6787,-1.9219,-80.43,-188.90,-96.89
792,266408329,-0.2749,-1.5762,-1.8091,-49.82,-169.09,-105.12
793,266413298,-0.2139,-1.4785,-1.6895,-18.84,-151.59,-110.30
794,266418294,-0.1299,-1.3872,-1.5513,17.26,-133.29,-113.54
795,266423296,-0.0688,-1.3281,-1.4639,39.88,-122.68,-113.96
796,266428296,0.0103,-1.2744,-1.3677,65.85,-111.22,-112.93
797,266433296,0.0591,-1.2056,-1.2778,88.35,-101.40,-110.61
798,266438296,0.1406,-1.1445,-1.1650,110.06,-90.91,-106.52
799,266443296,0.1743,-1.0942,-1.0957,121.22,-85.00,-103.05
800,266448296,0.1934,-1.0542,-1.0093,131.04,-78.41,-98.35
801,266453295,0.2778,-0.9902,-0.9468,136.71,-72.44,-93.48
802,266458770,0.3291,-0.9375,-0.8647,137.32,-66.04,-87.62
803,266463296,0.2822,-0.9268,-0.7715,134.94,-61.95,-83.84
804,266468296,0.3535,-0.8657,-0.7344,128.54,-57.32,-79.21
805,266473296,0.4263,-0.8125,-0.6934,120.67,-52.99,-75.00
806,266478296,0.3965,-0.7827,-0.6357,109.21,-48.60,-71.04
807,266483787,0.3901,-0.7446,-0.5703,93.41,-43.54,-66.77
808,266488296,0.3379,-0.7363,-0.5645,82.87,-40.43,-63.96
809,266493296,0.4907,-0.6968,-0.4971,70.00,-36.77,-60.55
810,266498297,0.5098,-0.6821,-0.4512,57.44,-32.87,-57.07
811,266503296,0.4551,-0.6909,-0.4185,43.05,-28.17,-52.62
812,266508296,0.4561,-0.6777,-0.4253,34.70,-25.55,-49.45
813,266513296,0.4839,-0.6748,-0.3862,25.18,-22.07,-45.18
814,266518296,0.5098,-0.6724,-0.3779,17.44,-18.78,-40.79
815,266523297,0.5234,-0.6787,-0.3740,10.49,-15.06,-35.43
816,266528296,0.5371,-0.6753,-0.3569,7.32,-12.74,-31.83
817,266533296,0.5112,-0.6621,-0.3379,4.27,-10.06,-27.32
818,266538296,0.5615,-0.6675,-0.3477,2.13,-7.62,-23.11
819,266543296,0.5732,-0.6748,-0.3369,1.22,-5.06,-18.11
820,266548296,0.5542,-0.6758,-0.3511,1.59,-3.72,-14.82
821,266553296,0.5581,-0.6592,-0.3198,2.62,-2.13,-10.98
822,266558564,0.5742,-0.6426,-0.3101,3.84,-0.37,-6.83
823,266563296,0.5669,-0.6411,-0.3130,4.39,0.49,-4.45
824,266568296,0.5645,-0.6445,-0.2983,4.94,1.28,-1.52
825,266573295,0.5767,-0.6514,-0.2734,4.76,2.32,1.16
826,266578295,0.5659,-0.6548,-0.2710,3.78,2.87,4.09
827,266583296,0.5581,-0.6650,-0.2720,2.13,3.41,6.34
828,266588296,0.5483,-0.6694,-0.2505,0.24,3.78,8.05
829,266593297,0.5464,-0.6768,-0.2324,-3.05,4.33,10.30
830,266598297,0.5391,-0.6802,-0.2246,-5.91,4.82,11.59
831,266603296,0.5444,-0.6865,-0.2139,-9.76,5.18,12.99
832,266608296,0.5381,-0.6919,-0.1992,-14.94,5.98,14.51
833,266613775,0.5293,-0.7002,-0.1870,-19.27,6.65,15.61
834,266618296,0.5156,-0.7095,-0.1758,-23.90,7.56,16.52
835,266623296,0.5005,-0.7139,-0.1646,-28.35,8.17,17.44
836,266628294,0.5078,-0.7100,-0.1562,-31.59,8.78,18.11
837,266633294,0.4990,-0.7202,-0.1416,-36.10,9.94,19.21
838,266638294,0.4854,-0.7271,-0.1309,-39.27,10.79,19.88
839,266643294,0.4805,-0.7324,-0.1226,-41.71,11.59,20.55
840,266648294,0.4785,-0.7373,-0.1113,-43.29,12.44,21.46
841,266653294,0.4697,-0.7476,-0.1064,-44.39,13.05,22.38
842,266658294,0.4678,-0.7588,-0.0952,-44.76,13.66,23.29
843,266663294,0.4692,-0.7646,-0.0952,-44.57,14.15,24.33
844,266668294,0.4702,-0.7715,-0.0840,-44.21,14.63,25.12
845,266673294,0.4717,-0.7793,-0.0771,-43.23,15.00,26.28
846,266678294,0.4766,-0.7793,-0.0703,-42.13,15.37,27.38
847,266683294,0.4824,-0.7842,-0.0767,-41.10,15.49,28.41
848,266688294,0.4731,-0.7939,-0.0571,-40.00,15.43,29.45
849,266693294,0.4761,-0.8037,-0.0562,-39.15,15.30,30.43
850,266698358,0.4863,-0.8091,-0.0474,-38.54,14.94,31.59
851,266703294,0.5054,-0.8154,-0.0361,-38.54,14.82,32.68
852,266708294,0.5063,-0.8345,-0.0234,-38.72,14.39,33.84
853,266713294,0.5059,-0.8296,-0.0195,-39.27,14.09,35.06
854,266718294,0.5161,-0.8237,-0.0186,-39.70,13.78,36.22
855,266723294,0.5122,-0.8198,-0.0171,-39.88,13.35,37.20
856,266728299,0.5083,-0.8188,-0.0156,-39.88,12.93,38.05
857,266733296,0.5068,-0.8228,-0.0205,-39.63,12.44,38.84
858,266738296,0.4946,-0.8340,-0.0332,-39.39,11.71,39.88
859,266743296,0.4800,-0.8921,-0.0874,-40.43,10.24,41.46
860,266748296,0.4883,-0.7959,0.0156,-41.77,8.78,42.50
861,266753296,0.5146,-0.7627,0.0688,-42.07,8.35,42.50
862,266758296,0.5366,-0.7778,0.0073,-41.77,8.23,42.32
863,266763296,0.5098,-0.7920,-0.0391,-41.10,7.50,42.20
864,266768296,0.4834,-0.7993,-0.0337,-40.00,6.28,42.20
865,266773296,0.4741,-0.8071,-0.0278,-38.66,5.24,42.44
866,266778296,0.4785,-0.8120,-0.0488,-37.32,4.09,42.56
867,266783296,0.4854,-0.8115,-0.0337,-36.04,3.17,42.62
868,266788433,0.4878,-0.8091,-0.0249,-35.24,2.44,42.68
869,266793367,0.4819,-0.8027,-0.0386,-35.00,1.89,42.62
870,266798712,0.4814,-0.8091,-0.0513,-35.12,1.22,42.74
871,266803296,0.4448,-0.8174,-0.0483,-36.10,0.73,42.68
872,266808298,0.4385,-0.8252,-0.0381,-36.59,0.49,42.62
873,266813414,0.4443,-0.8228,-0.0283,-37.38,0.43,42.68
874,266818574,0.4448,-0.8403,-0.0405,-38.54,0.61,42.50
875,266823360,0.4561,-0.8931,-0.0068,-40.85,0.61,42.50
876,266828482,0.4272,-0.8843,-0.0015,-43.96,1.10,42.56
877,266833416,0.4004,-0.8745,-0.0542,-47.38,1.22,42.26
878,266838312,0.3696,-0.8481,-0.0649,-51.59,1.65,41.83
879,266843295,0.3760,-0.8477,-0.0381,-55.73,2.44,41.16
880,266848296,0.3687,-0.8994,-0.0498,-61.52,3.41,40.67
881,266853296,0.3574,-0.8931,-0.0684,-65.67,4.02,40.18
882,266858296,0.3418,-0.8838,-0.0449,-70.61,5.00,39.21
883,266863296,0.3271,-0.8887,-0.0625,-75.37,6.04,38.35
884,266868294,0.3179,-0.8896,-0.0894,-79.94,7.01,37.50
885,266873296,0.3286,-0.8755,-0.0898,-84.02,8.23,36.34
886,266878296,0.3418,-0.8740,-0.0923,-88.84,9.63,34.88
887,266883296,0.3379,-0.8735,-0.0967,-92.20,10.55,34.02
888,266888296,0.3374,-0.8735,-0.1172,-96.16,11.65,33.11
889,266893296,0.3433,-0.8765,-0.1304,-100.06,12.80,32.13
890,266898296,0.3276,-0.8896,-0.1304,-103.84,14.02,31.16
891,266903295,0.3228,-0.8936,-0.1362,-107.13,15.37,30.37
892,266908294,0.3320,-0.8921,-0.1514,-110.30,16.71,29.33
893,266913294,0.3311,-0.8975,-0.1655,-112.93,17.99,28.90
894,266918294,0.3354,-0.8950,-0.1704,-115.18,19.33,27.99
895,266923297,0.3345,-0.8975,-0.1914,-117.13,20.37,27.50
896,266928296,0.3364,-0.8999,-0.2031,-118.78,21.77,26.77
897,266933296,0.3364,-0.8955,-0.2085,-120.06,23.05,26.28
898,266938297,0.3325,-0.8901,-0.2095,-121.46,24.57,25.67
899,266943296,0.3325,-0.8813,-0.2231,-122.07,25.73,25.61
900,266948296,0.3208,-0.8760,-0.2275,-122.93,26.89,25.30
901,266953295,0.3257,-0.8755,-0.2271,-123.60,27.93,25.18
902,266958294,0.3325,-0.8701,-0.2280,-123.96,29.27,25.43
903,266963294,0.3311,-0.8687,-0.2388,-124.33,30.30,25.73
904,266968294,0.3257,-0.8696,-0.2485,-124.57,31.28,26.16
905,266973295,0.3306,-0.8628,-0.2515,-124.76,32.07,26.71
906,266978294,0.3340,-0.8628,-0.2534,-125.12,32.87,27.38
907,266983297,0.3320,-0.8584,-0.2622,-125.49,33.78,28.11
908,266988294,0.3340,-0.8555,-0.2627,-126.10,34.33,28.96
909,266993294,0.3403,-0.8506,-0.2651,-126.83,35.12,29.82
910,266998295,0.3433,-0.8413,-0.2637,-127.74,35.73,30.85
911,267003777,0.3462,-0.8384,-0.2754,-129.09,36.40,31.95
912,267008298,0.3506,-0.8257,-0.2690,-130.06,36.89,32.87
913,267013296,0.3364,-0.8247,-0.2646,-131.65,37.50,33.78
914,267018296,0.3389,-0.8193,-0.2734,-133.29,38.29,34.94
915,267023296,0.3315,-0.8115,-0.2754,-135.00,38.78,36.04
916,267028296,0.3242,-0.8086,-0.2715,-137.20,39.57,37.68
917,267033296,0.3237,-0.8013,-0.2764,-138.54,40.06,38.78
918,267038296,0.3203,-0.7998,-0.2754,-140.43,40.67,40.12
919,267043296,0.3208,-0.7954,-0.2803,-142.26,41.04,41.65
920,267048741,0.3198,-0.7900,-0.2812,-144.39,41.83,43.78
921,267053296,0.3232,-0.7871,-0.2817,-145.98,42.20,45.18
922,267058294,0.3315,-0.7900,-0.2803,-147.99,42.62,47.13
923,267063476,0.3257,-0.7842,-0.2822,-150.37,43.23,49.57
924,267068295,0.3228,-0.7856,-0.2798,-152.26,43.54,51.77
925,267073296,0.3218,-0.7803,-0.2788,-154.15,43.96,53.84
926,267078296,0.3198,-0.7710,-0.2788,-155.91,44.39,56.28
927,267083295,0.3145,-0.7646,-0.2837,-157.32,44.70,58.60
928,267088546,0.3184,-0.7534,-0.2861,-158.54,45.18,61.22
929,267093459,0.3120,-0.7466,-0.2939,-159.57,45.30,63.66
930,267098584,0.3027,-0.7407,-0.2974,-160.37,45.49,66.16
931,267103296,0.2930,-0.7334,-0.3018,-160.73,45.67,68.84
932,267108295,0.2847,-0.7285,-0.3027,-160.91,45.85,71.46
933,267113322,0.2754,-0.7192,-0.3047,-160.91,45.91,74.09
934,267118295,0.2690,-0.7153,-0.3101,-160.49,45.91,76.83
935,267123294,0.2598,-0.7104,-0.3105,-160.12,45.85,79.63
936,267128298,0.2520,-0.7046,-0.3135,-159.45,45.55,82.44
937,267133296,0.2505,-0.7163,-0.3091,-158.96,45.55,85.49
938,267138299,0.2471,-0.7095,-0.3135,-158.66,45.43,87.68
939,267143296,0.2505,-0.6924,-0.3213,-158.54,45.00,91.04
940,267148296,0.2534,-0.7031,-0.3174,-158.05,44.63,94.15
941,267153296,0.2485,-0.7070,-0.3301,-157.32,44.27,97.50
942,267158296,0.2363,-0.7065,-0.3345,-156.59,43.60,101.04
943,267163297,0.2329,-0.7168,-0.3364,-156.04,42.93,104.76
944,267168296,0.2300,-0.7158,-0.3330,-155.73,42.20,108.23
945,267173674,0.2290,-0.7168,-0.3447,-155.30,41.59,111.95
946,267178296,0.2266,-0.7144,-0.3452,-154.88,40.73,115.49
947,267183296,0.2280,-0.7119,-0.3438,-154.57,40.12,119.27
948,267188296,0.2183,-0.7085,-0.3525,-154.15,39.21,122.93
949,267193295,0.1997,-0.7075,-0.3540,-153.54,38.17,126.59
950,267198298,0.1973,-0.6973,-0.3550,-153.11,37.07,130.30
951,267203296,0.1860,-0.6963,-0.3652,-152.44,36.10,133.72
952,267208296,0.1758,-0.6919,-0.3755,-151.59,35.00,137.20
953,267213297,0.1602,-0.6836,-0.3828,-150.73,33.90,140.24
954,267218748,0.1445,-0.6753,-0.3784,-149.82,32.74,143.29
955,267223296,0.1201,-0.6782,-0.3892,-148.54,31.71,146.04
956,267228296,0.1035,-0.6709,-0.3911,-147.07,30.79,148.72
957,267233296,0.0869,-0.6655,-0.4004,-145.37,29.76,151.10
958,267238776,0.0669,-0.6670,-0.4082,-143.23,28.72,153.29
959,267243296,0.0542,-0.6680,-0.4219,-140.85,27.87,155.37
960,267248296,0.0386,-0.6797,-0.4414,-138.35,26.83,157.44
961,267253296,0.0308,-0.6914,-0.4512,-135.85,25.85,159.45
962,267258294,0.0278,-0.6982,-0.4600,-133.41,24.94,161.59
963,267263294,0.0181,-0.7070,-0.4663,-131.10,24.33,163.60
964,267268294,0.0034,-0.7124,-0.4697,-128.72,23.78,165.37
965,267273296,-0.0122,-0.7114,-0.4766,-126.34,23.23,167.32
966,267278297,-0.0195,-0.7139,-0.4937,-123.66,22.87,169.02
967,267283296,-0.0361,-0.7192,-0.5015,-120.91,22.38,170.67
968,267288296,-0.0454,-0.7124,-0.5107,-118.11,22.01,172.01
969,267293296,-0.0566,-0.7119,-0.5200,-114.88,21.83,173.35
970,267298296,-0.0679,-0.7124,-0.5273,-111.52,21.59,174.57
971,267303296,-0.0703,-0.7119,-0.5278,-108.35,21.28,175.85
972,267308296,-0.0801,-0.7227,-0.5405,-105.00,21.10,177.13
973,267313295,-0.0898,-0.7407,-0.5483,-101.71,20.98,178.35
974,267318294,-0.0898,-0.7471,-0.5591,-98.72,20.85,179.94
975,267323294,-0.0908,-0.7544,-0.5684,-95.79,20.55,181.46
976,267328294,-0.1060,-0.7603,-0.5708,-93.17,20.43,183.29
977,267333294,-0.1045,-0.7598,-0.5752,-90.55,20.24,184.94
978,267338294,-0.1118,-0.7568,-0.5850,-88.05,20.24,186.71
979,267343298,-0.1230,-0.7534,-0.5845,-85.61,20.24,188.29
980,267348294,-0.1362,-0.7490,-0.5850,-83.05,20.24,189.82
981,267353296,-0.1396,-0.7427,-0.5928,-80.67,20.18,191.22
982,267358297,-0.1562,-0.7354,-0.6011,-78.29,20.18,192.62
983,267363295,-0.1626,-0.7231,-0.6001,-75.98,20.06,193.78
984,267368515,-0.1704,-0.7192,-0.6040,-74.02,20.00,195.00
985,267373294,-0.1851,-0.7148,-0.6025,-72.26,19.76,196.28
986,267378298,-0.1963,-0.7109,-0.6069,-70.85,19.70,197.38
987,267383444,-0.2046,-0.7119,-0.6128,-69.70,19.33,198.23
988,267388296,-0.2148,-0.7085,-0.6172,-68.84,19.33,199.33
989,267393295,-0.2314,-0.7041,-0.6211,-67.99,19.09,200.06
990,267398296,-0.2354,-0.6978,-0.6309,-67.07,19.09,200.85
991,267403296,-0.2378,-0.6948,-0.6260,-66.28,18.78,201.46
992,267408297,-0.2568,-0.6899,-0.6367,-64.82,18.60,202.01
993,267413296,-0.2661,-0.6890,-0.6382,-62.93,18.41,202.50
994,267418297,-0.2788,-0.6826,-0.6357,-60.73,18.17,203.11
995,267423296,-0.2842,-0.6807,-0.6440,-57.38,17.62,203.66
996,267428296,-0.2896,-0.6816,-0.6465,-54.76,17.26,204.09
997,267433296,-0.2915,-0.6841,-0.6533,-51.34,16.89,204.70
998,267438296,-0.3071,-0.6899,-0.6523,-46.89,16.16,205.49
999,267443296,-0.3101,-0.6899,-0.6592,-43.60,15.73,206.04
1000,267448296,-0.3252,-0.6982,-0.6572,-39.63,15.18,206.95
1001,267453296,-0.3452,-0.7065,-0.6709,-35.67,14.88,207.87
1002,267458296,-0.3560,-0.7192,-0.6729,-31.10,14.27,208.84
1003,267463296,-0.3696,-0.7280,-0.6797,-27.99,14.09,209.63
1004,267468296,-0.3809,-0.7324,-0.6885,-24.15,13.84,210.67
1005,267473295,-0.3857,-0.7378,-0.6934,-20.30,14.02,211.52
1006,267478296,-0.4004,-0.7393,-0.6948,-15.49,14.02,212.62
1007,267483296,-0.4058,-0.7422,-0.7061,-12.07,14.15,213.41
1008,267488346,-0.4229,-0.7437,-0.7124,-8.11,14.51,214.21
1009,267493296,-0.4331,-0.7417,-0.7134,-4.33,15.06,214.94
1010,267498299,-0.4395,-0.7358,-0.7173,0.30,15.61,215.79
1011,267503296,-0.4487,-0.7344,-0.7227,3.17,16.28,216.22
1012,267508296,-0.4531,-0.7280,-0.7227,6.59,16.83,216.89
1013,267513296,-0.4668,-0.7285,-0.7241,9.76,17.50,217.32
1014,267518295,-0.4819,-0.7222,-0.7222,12.99,17.99,217.99
1015,267523294,-0.4878,-0.7251,-0.7173,15.85,18.54,218.66
1016,267528294,-0.4873,-0.7339,-0.7246,18.60,18.96,219.27
1017,267533294,-0.4946,-0.7373,-0.7417,20.91,19.45,219.94
1018,267538294,-0.5132,-0.7388,-0.7402,23.41,20.06,220.61
1019,267543297,-0.5225,-0.7441,-0.7451,25.61,20.79,221.04
1020,267548295,-0.5322,-0.7383,-0.7402,27.93,21.83,221.46
1021,267553296,-0.5449,-0.7402,-0.7539,30.37,23.05,221.59
1022,267558295,-0.5508,-0.7373,-0.7568,32.80,24.27,221.65
1023,267563296,-0.5591,-0.7285,-0.7656,36.16,25.85,221.59
1024,267568294,-0.5596,-0.7280,-0.7603,39.02,27.32,221.52
1025,267573294,-0.5679,-0.7319,-0.7637,42.13,28.72,221.34
1026,267578297,-0.5640,-0.7319,-0.7671,45.49,30.06,221.16
1027,267583455,-0.5630,-0.7300,-0.7700,48.96,31.52,220.79
1028,267588295,-0.5723,-0.7285,-0.7661,52.74,32.93,220.67
1029,267593297,-0.5625,-0.7246,-0.7695,56.83,34.15,220.43
1030,267598296,-0.5654,-0.7290,-0.7686,61.16,35.43,220.12
1031,267603296,-0.5679,-0.7334,-0.7700,65.37,36.71,219.76
1032,267608296,-0.5693,-0.7314,-0.7651,69.82,38.11,219.45
1033,267613296,-0.5771,-0.7295,-0.7637,74.15,39.76,219.09
1034,267618756,-0.5752,-0.7305,-0.7632,78.48,41.40,218.48
1035,267623297,-0.5859,-0.7339,-0.7573,82.80,43.11,218.05
1036,267628296,-0.6006,-0.7344,-0.7583,86.95,44.94,217.44
1037,267633296,-0.6143,-0.7344,-0.7544,90.55,47.07,216.59
1038,267638296,-0.6279,-0.7417,-0.7329,93.35,49.09,215.98
1039,267643296,-0.6304,-0.7471,-0.7310,95.98,51.28,215.06
1040,267648296,-0.6182,-0.7480,-0.7192,97.68,53.23,213.96
1041,267653296,-0.6235,-0.7529,-0.7090,99.21,55.49,213.17
1042,267658779,-0.6289,-0.7578,-0.7002,100.30,57.62,212.01
1043,267663296,-0.6353,-0.7568,-0.6899,101.22,59.70,210.67
1044,267668296,-0.6357,-0.7529,-0.6777,101.83,61.65,209.39
1045,267673296,-0.6426,-0.7510,-0.6655,102.50,63.54,208.05
1046,267678296,-0.6436,-0.7559,-0.6558,103.05,65.24,206.59
1047,267683295,-0.6416,-0.7568,-0.6421,103.78,67.01,205.06
1048,267688294,-0.6401,-0.7539,-0.6338,104.76,68.66,203.48
1049,267693294,-0.6523,-0.7563,-0.6309,106.10,70.30,201.71
1050,267698294,-0.6484,-0.7603,-0.6196,107.68,71.77,200.06
1051,267703294,-0.6553,-0.7607,-0.6074,109.63,73.41,198.17
1052,267708294,-0.6621,-0.7637,-0.6016,111.83,74.88,196.28
1053,267713294,-0.6665,-0.7661,-0.5933,114.27,76.16,194.39
1054,267718294,-0.6592,-0.7534,-0.5908,116.95,77.44,192.32
1055,267723294,-0.6465,-0.7471,-0.5786,120.06,78.48,190.30
1056,267728294,-0.6543,-0.7505,-0.5723,123.35,79.82,188.17
1057,267733294,-0.6592,-0.7642,-0.5684,127.13,80.73,186.28
1058,267738294,-0.6514,-0.7510,-0.5601,128.48,81.22,184.51
1059,267743294,-0.6514,-0.7329,-0.5166,131.71,82.38,182.38
1060,267748294,-0.6489,-0.7539,-0.5171,135.73,83.60,180.12
1061,267753294,-0.6455,-0.7788,-0.5435,138.66,84.33,178.29
1062,267758294,-0.6479,-0.7070,-0.4756,140.79,84.27,176.77
1063,267763294,-0.6343,-0.6880,-0.4829,143.41,84.63,174.57
1064,267768299,-0.6289,-0.7114,-0.4834,145.85,84.94,172.68
1065,267773296,-0.6235,-0.7251,-0.4683,147.93,85.49,170.67
1066,267778297,-0.6250,-0.7246,-0.4482,149.57,85.67,168.96
1067,267783296,-0.6167,-0.7212,-0.4424,151.22,85.61,167.20
1068,267788296,-0.6182,-0.7212,-0.4233,152.50,85.49,165.55
1069,267793296,-0.6157,-0.7168,-0.4111,153.41,85.24,164.02
1070,267798298,-0.6138,-0.7124,-0.4043,153.96,83.35,162.38
1071,267803296,-0.6050,-0.7017,-0.4019,154.39,82.80,160.98
1072,267808296,-0.5972,-0.7148,-0.3818,154.15,82.44,159.63
1073,267813296,-0.5967,-0.7104,-0.3682,153.78,81.34,158.35
1074,267818296,-0.5879,-0.7129,-0.3726,153.17,80.12,157.13
1075,267823296,-0.5811,-0.7041,-0.3638,152.07,78.66,156.10
1076,267828298,-0.5728,-0.6938,-0.3486,150.91,77.44,155.00
1077,267833296,-0.5723,-0.6743,-0.3369,149.33,75.79,153.90
1078,267838296,-0.5664,-0.6660,-0.3369,147.80,74.09,152.68
1079,267843525,-0.5581,-0.6538,-0.3223,145.98,72.32,151.71
1080,267848296,-0.5669,-0.6509,-0.3047,144.27,70.55,150.43
1081,267853295,-0.5659,-0.6401,-0.3052,142.26,68.72,149.15
1082,267858294,-0.5640,-0.6309,-0.2876,140.37,66.59,147.80
