# skilleye imu stream v1
# device=xiao_esp32c6 imu=mpu6050 addr=0x68
# rate_hz=200 accel_range_g=16 gyro_range_dps=2000 dlpf_hz=94
# units: accel in g, gyro in deg/s, t_us in microseconds since boot (monotonic)
# no shared clock with the camera -- tap the racket once before each take
# so both recordings share a spike to align on
seq,t_us,ax,ay,az,gx,gy,gz
0,578288640,-0.7778,-0.4087,-0.2480,12.87,2.50,0.06
1,578293299,-0.7793,-0.4126,-0.2524,12.20,1.71,0.00
2,578298294,-0.7812,-0.4160,-0.2563,11.34,0.91,-0.12
3,578303294,-0.7925,-0.4224,-0.2495,10.55,0.00,-0.24
4,578308294,-0.8027,-0.4248,-0.2656,9.45,-0.98,-0.24
5,578313294,-0.7920,-0.4277,-0.2573,8.60,-1.77,-0.30
6,578318294,-0.7949,-0.4272,-0.2607,7.68,-2.62,-0.43
7,578323294,-0.7974,-0.4312,-0.2617,6.59,-3.48,-0.61
8,578328294,-0.7998,-0.4302,-0.2676,5.73,-4.57,-0.61
9,578333294,-0.8003,-0.4194,-0.2578,4.94,-5.24,-0.61
10,578338294,-0.7939,-0.4214,-0.2632,4.02,-6.22,-0.73
11,578343294,-0.7793,-0.4170,-0.2671,3.35,-7.13,-0.98
12,578349136,-0.7842,-0.4209,-0.2710,2.56,-8.17,-1.10
13,578353298,-0.7773,-0.4141,-0.2656,2.07,-8.78,-1.10
14,578358335,-0.7861,-0.4160,-0.2725,1.52,-9.70,-1.34
15,578363297,-0.7969,-0.4194,-0.2739,1.04,-10.55,-1.46
16,578368296,-0.7964,-0.4277,-0.2739,0.73,-11.40,-1.71
17,578373296,-0.7910,-0.4253,-0.2744,0.49,-12.44,-1.89
18,578378294,-0.7886,-0.4199,-0.2764,0.12,-13.05,-2.07
19,578383294,-0.7866,-0.4238,-0.2793,-0.12,-14.15,-2.20
20,578388296,-0.7896,-0.4263,-0.2783,-0.30,-15.00,-2.56
21,578393297,-0.7896,-0.4268,-0.2803,-0.37,-15.91,-2.74
22,578398295,-0.7910,-0.4272,-0.2827,-0.37,-16.77,-2.87
23,578403365,-0.7905,-0.4258,-0.2822,-0.37,-17.62,-3.17
24,578408294,-0.8032,-0.4302,-0.2817,-0.18,-18.66,-3.41
25,578413294,-0.8071,-0.4355,-0.2847,-0.12,-19.45,-3.54
26,578418294,-0.8042,-0.4316,-0.2900,0.18,-20.49,-3.78
27,578423294,-0.8013,-0.4331,-0.2891,0.30,-21.28,-4.21
28,578428294,-0.7915,-0.4263,-0.2886,0.73,-22.13,-4.45
29,578433295,-0.7808,-0.4199,-0.2852,1.10,-23.05,-4.82
30,578438297,-0.7739,-0.4189,-0.2808,1.52,-23.60,-5.12
31,578443296,-0.7988,-0.4180,-0.2837,2.13,-24.51,-5.67
32,578448296,-0.7964,-0.4165,-0.2832,2.62,-25.30,-5.98
33,578453296,-0.7939,-0.4106,-0.2832,3.29,-25.98,-6.40
34,578458296,-0.7871,-0.4097,-0.2832,3.72,-26.59,-6.83
35,578463296,-0.7920,-0.4146,-0.2822,4.33,-27.32,-7.32
36,578468296,-0.8008,-0.4160,-0.2891,4.70,-27.80,-7.80
37,578473295,-0.8032,-0.4116,-0.2847,4.82,-28.54,-8.41
38,578478296,-0.8052,-0.4126,-0.2876,5.18,-29.09,-8.72
39,578483296,-0.8184,-0.4199,-0.2915,5.43,-29.51,-9.15
40,578488296,-0.8120,-0.4238,-0.2925,5.37,-30.12,-9.57
41,578493777,-0.8101,-0.4189,-0.2896,5.43,-30.49,-10.12
42,578498296,-0.7944,-0.4092,-0.2881,5.24,-30.79,-10.49
43,578503297,-0.7974,-0.4067,-0.2871,5.12,-31.22,-10.98
44,578508296,-0.8022,-0.4043,-0.2896,4.82,-31.46,-11.46
45,578513296,-0.8003,-0.4038,-0.2949,4.45,-31.77,-11.89
46,578518294,-0.8237,-0.4077,-0.2910,4.09,-32.01,-12.44
47,578523294,-0.8232,-0.4111,-0.2920,3.54,-32.13,-12.99
48,578528294,-0.8164,-0.4043,-0.2998,2.87,-32.32,-13.35
49,578533294,-0.8394,-0.4106,-0.2925,2.26,-32.50,-13.84
50,578538330,-0.8433,-0.4131,-0.2910,1.34,-32.56,-14.45
51,578543296,-0.8467,-0.4126,-0.2910,0.49,-32.68,-15.00
52,578548295,-0.8345,-0.4067,-0.2959,-0.43,-32.74,-15.55
53,578553296,-0.8184,-0.4004,-0.2915,-1.52,-32.93,-16.04
54,578558296,-0.8428,-0.4023,-0.2852,-2.50,-32.87,-16.40
55,578563296,-0.8472,-0.4062,-0.2896,-3.66,-32.80,-16.95
56,578568296,-0.8218,-0.4033,-0.2930,-4.76,-32.68,-17.44
57,578573296,-0.8179,-0.3960,-0.2935,-5.91,-32.74,-17.87
58,578578296,-0.8394,-0.4087,-0.2891,-7.20,-32.62,-18.23
59,578583296,-0.8223,-0.4067,-0.2905,-8.66,-32.44,-18.60
60,578588296,-0.7983,-0.4028,-0.2866,-10.06,-32.38,-18.90
61,578593296,-0.7998,-0.4023,-0.2842,-11.46,-32.26,-19.27
62,578598296,-0.7920,-0.4038,-0.2817,-12.87,-32.07,-19.63
63,578603296,-0.7915,-0.4028,-0.2803,-14.27,-31.95,-19.94
64,578608360,-0.7842,-0.3965,-0.2749,-15.85,-31.71,-20.12
65,578613296,-0.7817,-0.3960,-0.2778,-16.95,-31.52,-20.37
66,578618297,-0.7944,-0.4043,-0.2769,-18.41,-31.28,-20.61
67,578623295,-0.8008,-0.4067,-0.2798,-19.51,-31.16,-20.79
68,578628294,-0.7734,-0.4019,-0.2812,-20.73,-31.10,-20.98
69,578633294,-0.7715,-0.3940,-0.2759,-21.77,-30.91,-21.16
70,578638296,-0.7720,-0.3979,-0.2837,-22.80,-30.79,-21.40
71,578643294,-0.7808,-0.4004,-0.2876,-23.60,-30.55,-21.52
72,578649062,-0.7793,-0.4058,-0.2920,-24.45,-30.43,-21.59
73,578653296,-0.7798,-0.4014,-0.2891,-25.00,-30.37,-21.59
74,578658295,-0.7773,-0.4043,-0.2896,-25.49,-30.12,-21.65
75,578663294,-0.7866,-0.4023,-0.2900,-26.16,-30.00,-21.71
76,578668294,-0.7949,-0.4048,-0.2905,-26.59,-29.82,-21.71
77,578673294,-0.7998,-0.4121,-0.2876,-26.95,-29.76,-21.65
78,578678294,-0.8022,-0.4097,-0.2866,-27.20,-29.51,-21.52
79,578683294,-0.8228,-0.4165,-0.2876,-27.56,-29.21,-21.40
80,578688296,-0.8291,-0.4238,-0.2896,-27.50,-28.78,-21.28
81,578693798,-0.8174,-0.4185,-0.2734,-27.62,-28.35,-21.28
82,578698296,-0.8120,-0.4160,-0.2686,-27.56,-27.62,-20.98
83,578703296,-0.8237,-0.4229,-0.2681,-27.44,-27.01,-20.98
84,578708296,-0.8345,-0.4282,-0.2661,-27.20,-26.40,-20.73
85,578713296,-0.8462,-0.4297,-0.2681,-26.65,-25.61,-20.61
86,578718297,-0.8428,-0.4253,-0.2764,-25.85,-25.00,-20.49
87,578723296,-0.8501,-0.4336,-0.2852,-25.12,-24.33,-20.37
88,578728296,-0.8271,-0.4272,-0.2856,-24.09,-23.66,-20.12
89,578733296,-0.8335,-0.4302,-0.2876,-23.05,-23.11,-19.94
90,578738296,-0.8398,-0.4336,-0.2896,-21.77,-22.38,-19.70
91,578743472,-0.8618,-0.4478,-0.2881,-20.37,-22.01,-19.45
92,578748453,-0.8696,-0.4512,-0.2930,-19.27,-21.34,-19.15
93,578753374,-0.8672,-0.4604,-0.2930,-17.87,-20.85,-18.84
94,578758295,-0.8662,-0.4624,-0.2896,-16.65,-20.37,-18.29
95,578763296,-0.8506,-0.4614,-0.2876,-15.12,-19.57,-17.99
96,578768301,-0.8296,-0.4585,-0.2852,-14.15,-19.27,-17.68
97,578773294,-0.8359,-0.4678,-0.2827,-12.99,-18.66,-17.50
98,578778294,-0.8413,-0.4697,-0.2778,-11.77,-17.93,-17.07
99,578783619,-0.8271,-0.4609,-0.2744,-10.43,-17.32,-16.89
100,578788809,-0.8105,-0.4541,-0.2729,-8.90,-16.59,-16.65
101,578793296,-0.8008,-0.4556,-0.2676,-8.05,-16.22,-16.46
102,578798296,-0.8047,-0.4604,-0.2690,-6.83,-15.67,-16.34
103,578803299,-0.8164,-0.4639,-0.2637,-5.55,-15.06,-16.52
104,578808674,-0.8057,-0.4600,-0.2705,-4.57,-14.45,-16.59
105,578813339,-0.8057,-0.4600,-0.2686,-3.78,-14.27,-16.65
106,578818296,-0.7861,-0.4551,-0.2690,-2.99,-13.84,-16.65
107,578823296,-0.7920,-0.4585,-0.2729,-2.32,-13.41,-17.07
108,578828296,-0.7852,-0.4697,-0.2759,-1.52,-13.29,-17.20
109,578833301,-0.7798,-0.4707,-0.2793,-1.16,-12.99,-17.26
110,578838296,-0.7812,-0.4697,-0.2764,-0.79,-12.93,-17.38
111,578843299,-0.8042,-0.4858,-0.2769,-0.61,-12.80,-17.62
112,578848296,-0.8076,-0.4961,-0.2822,-0.79,-12.74,-17.68
113,578853296,-0.7808,-0.4922,-0.2686,-0.98,-12.50,-17.74
114,578858296,-0.7827,-0.4995,-0.2637,-1.28,-12.26,-17.80
115,578863296,-0.7974,-0.5059,-0.2563,-1.59,-12.13,-17.80
116,578868296,-0.8125,-0.5132,-0.2554,-2.01,-11.89,-17.99
117,578873296,-0.8188,-0.5205,-0.2563,-2.56,-11.52,-18.17
118,578878296,-0.7979,-0.5215,-0.2544,-3.05,-11.28,-18.41
119,578883295,-0.7974,-0.5171,-0.2515,-3.72,-10.91,-18.72
120,578888296,-0.8149,-0.5293,-0.2480,-4.02,-10.61,-18.96
121,578893296,-0.8018,-0.5308,-0.2524,-4.57,-10.06,-19.33
122,578898296,-0.7993,-0.5322,-0.2515,-4.63,-9.70,-19.70
123,578903296,-0.7964,-0.5327,-0.2573,-4.76,-9.57,-20.24
124,578908379,-0.8110,-0.5396,-0.2568,-4.76,-9.15,-20.91
125,578913295,-0.8262,-0.5439,-0.2603,-4.70,-8.78,-21.46
126,578918295,-0.8228,-0.5449,-0.2559,-4.51,-8.54,-22.07
127,578923294,-0.8315,-0.5474,-0.2583,-4.21,-8.41,-22.80
128,578928294,-0.8345,-0.5596,-0.2603,-3.78,-8.23,-23.60
129,578933294,-0.8345,-0.5649,-0.2676,-3.35,-8.11,-24.33
130,578938294,-0.8301,-0.5679,-0.2720,-2.80,-7.80,-25.37
131,578943294,-0.8271,-0.5776,-0.2642,-2.07,-7.62,-26.28
132,578948294,-0.8379,-0.5879,-0.2686,-1.40,-7.50,-27.26
133,578953294,-0.8315,-0.5962,-0.2720,-0.79,-7.50,-28.05
134,578958298,-0.8486,-0.6099,-0.2617,0.24,-7.26,-29.02
135,578963297,-0.8423,-0.6182,-0.2642,1.16,-7.13,-30.18
136,578968299,-0.8481,-0.6235,-0.2622,2.01,-6.95,-31.10
137,578973296,-0.8608,-0.6279,-0.2676,2.87,-6.71,-32.13
138,578978296,-0.8633,-0.6333,-0.2744,3.84,-6.59,-33.29
139,578983296,-0.8652,-0.6396,-0.2764,4.88,-6.22,-34.57
140,578988296,-0.8618,-0.6382,-0.2695,6.04,-6.10,-35.91
141,578993296,-0.8506,-0.6406,-0.2676,7.26,-6.04,-37.26
142,578998299,-0.8394,-0.6416,-0.2710,8.66,-5.55,-38.72
143,579003296,-0.8433,-0.6484,-0.2646,10.12,-5.37,-40.12
144,579008296,-0.8535,-0.6606,-0.2710,11.65,-5.00,-41.65
145,579013296,-0.8584,-0.6680,-0.2637,13.41,-5.00,-43.17
146,579018296,-0.8516,-0.6738,-0.2559,15.12,-4.94,-44.70
147,579023296,-0.8364,-0.6665,-0.2559,17.01,-4.63,-46.10
148,579028296,-0.8428,-0.6768,-0.2510,19.02,-4.57,-47.74
149,579033296,-0.8423,-0.6816,-0.2612,21.04,-4.45,-49.27
150,579038296,-0.8423,-0.6772,-0.2563,23.17,-4.33,-50.85
151,579043784,-0.8369,-0.6890,-0.2539,25.18,-4.45,-52.62
152,579048296,-0.8262,-0.6816,-0.2446,27.26,-4.45,-54.21
153,579053296,-0.8193,-0.6885,-0.2437,29.27,-4.70,-55.91
154,579058296,-0.7998,-0.7026,-0.2480,31.04,-4.70,-57.44
155,579063296,-0.7764,-0.7158,-0.2441,32.62,-5.12,-58.96
156,579068296,-0.7744,-0.7373,-0.2456,33.78,-5.55,-60.30
157,579073295,-0.7607,-0.7524,-0.2441,34.51,-6.16,-61.40
158,579078296,-0.7310,-0.8286,-0.2798,34.45,-7.13,-62.32
159,579083294,-0.7134,-0.8120,-0.2549,32.87,-8.41,-62.56
160,579088296,-0.7334,-0.7397,-0.2334,31.04,-9.63,-63.23
161,579093294,-0.8081,-0.6772,-0.2324,29.39,-10.73,-64.76
162,579098294,-0.8672,-0.6445,-0.2261,28.35,-11.59,-66.89
163,579103294,-0.9004,-0.6748,-0.2310,27.62,-12.44,-69.45
164,579108294,-0.8662,-0.7104,-0.2178,27.07,-13.05,-71.71
165,579113319,-0.8218,-0.7324,-0.2095,26.83,-13.66,-73.90
166,579119117,-0.7671,-0.7378,-0.2085,26.83,-14.21,-76.28
167,579123295,-0.7437,-0.7441,-0.2139,26.89,-14.51,-77.80
168,579128294,-0.7607,-0.7676,-0.2300,27.01,-15.55,-79.63
169,579133294,-0.7705,-0.7739,-0.2231,27.26,-16.22,-81.46
170,579138295,-0.7734,-0.7729,-0.2109,27.68,-16.95,-83.17
171,579143294,-0.7637,-0.7671,-0.1963,28.11,-17.38,-85.00
172,579148294,-0.7471,-0.7690,-0.2031,28.96,-17.68,-86.83
173,579153294,-0.7500,-0.7744,-0.1987,29.82,-18.23,-88.66
174,579158294,-0.7471,-0.7729,-0.1934,30.91,-18.60,-90.24
175,579163294,-0.7441,-0.7788,-0.1924,31.89,-19.02,-91.83
176,579168294,-0.7456,-0.7759,-0.1997,33.11,-19.33,-93.23
177,579173294,-0.7476,-0.7812,-0.1963,34.27,-19.63,-94.76
178,579178294,-0.7695,-0.7900,-0.1963,35.18,-20.37,-96.28
179,579183294,-0.7729,-0.7983,-0.1987,35.91,-20.73,-97.62
180,579188294,-0.7666,-0.7988,-0.2026,36.28,-21.10,-98.90
181,579193294,-0.7676,-0.8013,-0.1982,36.28,-21.77,-100.18
182,579198296,-0.7637,-0.8057,-0.1978,36.10,-22.38,-101.34
183,579203296,-0.7554,-0.8052,-0.1934,35.37,-23.05,-102.44
184,579208509,-0.7334,-0.8096,-0.1958,34.09,-23.72,-103.54
185,579214156,-0.7310,-0.8145,-0.1934,32.56,-24.39,-104.51
186,579218297,-0.7178,-0.8057,-0.1919,31.16,-24.88,-105.18
187,579223295,-0.6885,-0.8037,-0.1841,29.51,-25.24,-105.79
188,579228296,-0.6924,-0.8125,-0.1865,27.44,-25.91,-106.34
189,579233296,-0.6987,-0.8169,-0.1758,25.00,-26.34,-106.95
190,579238296,-0.6870,-0.8105,-0.1729,23.35,-26.77,-107.44
191,579243297,-0.6782,-0.8145,-0.1694,20.79,-27.07,-108.11
192,579248472,-0.6636,-0.8062,-0.1675,18.72,-27.38,-108.60
193,579253536,-0.6548,-0.8062,-0.1694,16.71,-27.50,-109.02
194,579258296,-0.6504,-0.8154,-0.1626,15.00,-27.68,-109.45
195,579263612,-0.6265,-0.8188,-0.1699,12.68,-27.87,-109.88
196,579268441,-0.5947,-0.8179,-0.1582,10.85,-27.87,-110.18
197,579273577,-0.5942,-0.8164,-0.1519,9.39,-27.68,-110.49
198,579278296,-0.6074,-0.8159,-0.1489,8.29,-27.68,-110.67
199,579283409,-0.5962,-0.8228,-0.1504,7.01,-27.20,-110.85
200,579288296,-0.5742,-0.8169,-0.1440,6.52,-26.89,-111.04
201,579293294,-0.5674,-0.8188,-0.1470,5.98,-26.46,-111.22
202,579298299,-0.5679,-0.8262,-0.1509,5.91,-26.28,-111.22
203,579303296,-0.5610,-0.8218,-0.1431,5.98,-25.79,-111.16
204,579308299,-0.5542,-0.8276,-0.1367,6.16,-25.30,-111.04
205,579313296,-0.5527,-0.8306,-0.1377,6.52,-25.00,-110.98
206,579318296,-0.5298,-0.8306,-0.1333,6.89,-24.39,-110.79
207,579323294,-0.5063,-0.8330,-0.1372,7.26,-23.84,-110.55
208,579328294,-0.4956,-0.8423,-0.1309,7.74,-23.60,-110.18
209,579333294,-0.4849,-0.8555,-0.1313,8.11,-22.87,-109.76
210,579338294,-0.4746,-0.8579,-0.1294,8.60,-22.44,-109.21
211,579343294,-0.4658,-0.8628,-0.1235,9.57,-22.01,-108.72
212,579348295,-0.4595,-0.8667,-0.1172,10.85,-21.28,-108.17
213,579353296,-0.4614,-0.8745,-0.1196,12.62,-20.67,-107.74
214,579358781,-0.4570,-0.8755,-0.1260,15.00,-20.18,-107.26
215,579363296,-0.4375,-0.8726,-0.1274,17.68,-19.76,-106.83
216,579368296,-0.4165,-0.8677,-0.1255,20.98,-19.15,-106.46
217,579373296,-0.3931,-0.8618,-0.1235,24.45,-18.90,-106.04
218,579378295,-0.3901,-0.8638,-0.1162,27.87,-18.41,-105.61
219,579383294,-0.3965,-0.8726,-0.1147,31.46,-18.17,-104.94
220,579388294,-0.3843,-0.8765,-0.1191,34.88,-18.11,-104.45
221,579393296,-0.3647,-0.8838,-0.1182,38.05,-17.99,-103.72
222,579398294,-0.3535,-0.8926,-0.1230,40.67,-17.93,-102.93
223,579403295,-0.3652,-0.8989,-0.1216,42.99,-17.87,-102.20
224,579408296,-0.3101,-0.9468,-0.1479,44.45,-18.23,-101.10
225,579413296,-0.2930,-0.9014,-0.1313,45.00,-18.72,-99.70
226,579418296,-0.3423,-0.8384,-0.0894,45.49,-19.02,-98.78
227,579423296,-0.4170,-0.8159,-0.0718,46.04,-19.15,-98.35
228,579428296,-0.4316,-0.8516,-0.0811,46.77,-18.96,-97.87
229,579433296,-0.3823,-0.8784,-0.0825,46.89,-19.09,-97.07
230,579438296,-0.3105,-0.8906,-0.0679,47.07,-18.96,-95.98
231,579443296,-0.2778,-0.8813,-0.0591,47.32,-18.78,-95.06
232,579448296,-0.2979,-0.8838,-0.0742,47.56,-18.90,-93.90
233,579453296,-0.3027,-0.8848,-0.0835,47.99,-18.90,-92.99
234,579458296,-0.2910,-0.8794,-0.0815,48.78,-19.33,-92.07
235,579463297,-0.2671,-0.8667,-0.0752,49.63,-19.57,-91.16
236,579468296,-0.2505,-0.8608,-0.0708,50.61,-19.82,-90.49
237,579473296,-0.2397,-0.8574,-0.0767,51.59,-20.43,-89.63
238,579478296,-0.2402,-0.8628,-0.0786,52.32,-20.85,-88.66
239,579483296,-0.2451,-0.8657,-0.0742,52.62,-21.22,-88.11
240,579488296,-0.2310,-0.8701,-0.0659,52.74,-21.71,-87.26
241,579493296,-0.1943,-0.8994,-0.0610,52.38,-21.83,-86.40
242,579498296,-0.1748,-0.9131,-0.0679,50.91,-22.26,-85.06
243,579503296,-0.2246,-0.8633,-0.0454,49.45,-22.68,-84.02
244,579508294,-0.2812,-0.8374,-0.0410,48.11,-23.05,-83.29
245,579513296,-0.3110,-0.8369,-0.0420,46.22,-23.05,-82.80
246,579518296,-0.2886,-0.8608,-0.0464,44.51,-23.23,-82.38
247,579523296,-0.2515,-0.8828,-0.0352,42.26,-23.23,-81.77
248,579528424,-0.2119,-0.8887,-0.0156,39.63,-23.11,-80.91
249,579533295,-0.2148,-0.8823,-0.0127,37.20,-22.87,-80.12
250,579538296,-0.2080,-0.8696,-0.0127,34.45,-22.68,-79.45
251,579543295,-0.2046,-0.8633,-0.0078,32.80,-22.62,-78.96
252,579548294,-0.1855,-0.8564,0.0044,31.04,-22.38,-78.41
253,579553294,-0.1807,-0.8638,0.0020,29.33,-22.26,-77.80
254,579558294,-0.1519,-0.8394,0.0049,27.74,-22.32,-77.26
255,579563294,-0.0171,-0.5552,-0.4233,26.52,-25.30,-78.23
256,579568298,-0.0361,-0.8398,0.2227,25.30,-27.68,-79.33
257,579573294,-0.0469,-0.9326,0.0840,23.23,-28.60,-79.21
258,579578755,-0.0557,-0.9028,-0.1035,20.49,-30.91,-79.27
259,579583296,-0.0703,-0.8687,-0.0679,18.72,-33.78,-78.90
260,579588300,-0.0923,-0.7700,0.2217,15.98,-33.35,-78.84
261,579593405,-0.0649,-0.7231,-0.0093,13.41,-34.02,-78.96
262,579598296,-0.0532,-0.7544,-0.2207,10.85,-36.52,-78.84
263,579603296,-0.0698,-0.8101,0.0205,8.11,-37.80,-78.78
264,579608296,-0.0537,-0.8442,0.1655,5.06,-37.56,-78.48
265,579613296,-0.0449,-0.8491,0.0889,1.40,-38.23,-78.23
266,579618296,-0.0391,-0.8574,-0.1494,-1.22,-40.30,-77.80
267,579623296,-0.0547,-0.8320,0.0688,-4.57,-40.91,-77.26
268,579628296,-0.0547,-0.8232,0.1172,-8.23,-40.43,-76.59
269,579633295,-0.0532,-0.8379,-0.0752,-11.71,-41.16,-75.61
270,579638783,-0.0576,-0.8413,-0.0972,-15.67,-41.65,-74.45
271,579643296,-0.0425,-0.8672,0.1362,-18.29,-41.28,-73.54
272,579648296,-0.0366,-0.8687,0.1006,-21.65,-40.37,-72.44
273,579653296,-0.0298,-0.8765,-0.0728,-24.63,-40.79,-71.34
274,579658296,0.0117,-0.8491,-0.0688,-28.48,-40.85,-69.76
275,579663296,0.0239,-0.8164,0.1357,-31.10,-40.49,-69.09
276,579668296,0.0073,-0.8174,0.1221,-34.94,-39.57,-68.17
277,579673295,0.0151,-0.8057,0.0205,-38.17,-39.15,-67.38
278,579678296,-0.0195,-0.8252,0.0317,-42.01,-38.11,-66.71
279,579683294,-0.0298,-0.8354,0.1060,-45.85,-36.46,-65.91
280,579688294,-0.0103,-0.8354,0.0791,-49.45,-35.06,-65.18
281,579693296,0.0376,-0.8311,-0.0342,-52.87,-34.57,-64.33
282,579698295,0.0249,-0.8257,-0.0103,-55.91,-33.96,-63.66
283,579703534,0.0376,-0.8242,0.0757,-58.66,-32.87,-62.87
284,579708295,0.0278,-0.8379,0.0190,-61.10,-32.13,-61.89
285,579713296,0.0410,-0.8345,-0.0703,-63.23,-32.20,-60.91
286,579718296,0.0537,-0.8403,-0.0200,-65.12,-31.95,-59.94
287,579723296,0.0708,-0.8462,0.0449,-66.52,-31.83,-58.90
288,579728296,0.0947,-0.8535,-0.0015,-67.50,-32.07,-57.87
289,579733296,0.0903,-0.8760,-0.0093,-68.41,-32.13,-56.65
290,579738296,0.0396,-0.8916,0.0630,-69.45,-31.46,-55.18
291,579743296,0.0308,-0.8896,0.0845,-70.06,-30.24,-53.72
292,579748296,0.0342,-0.8794,0.0034,-70.18,-29.57,-52.20
293,579753296,0.0381,-0.8740,-0.0186,-69.45,-29.21,-50.85
294,579758296,0.0464,-0.8691,0.0391,-68.11,-28.54,-49.39
295,579763735,0.0635,-0.8730,0.0342,-66.10,-27.99,-48.17
296,579768296,0.0713,-0.8779,-0.0352,-63.60,-28.05,-46.83
297,579773296,0.0952,-0.8647,-0.0317,-60.67,-28.35,-45.37
298,579778296,0.0938,-0.8613,0.0190,-57.32,-28.29,-44.15
299,579783296,0.0757,-0.8594,0.0146,-53.60,-28.05,-42.80
300,579788674,0.0947,-0.8384,-0.0337,-49.27,-28.35,-41.65
301,579793296,0.1060,-0.8330,0.0020,-44.82,-28.41,-40.55
302,579798296,0.0884,-0.8281,0.0479,-40.06,-27.87,-39.27
303,579803296,0.0894,-0.8296,0.0181,-35.18,-27.50,-38.35
304,579808296,0.1016,-0.8228,-0.0156,-30.37,-27.56,-37.26
305,579813296,0.1030,-0.8271,0.0117,-25.91,-27.56,-36.46
306,579818416,0.0894,-0.8223,0.0283,-21.71,-27.13,-35.49
307,579823349,0.1230,-0.8105,0.0186,-17.87,-27.01,-34.57
308,579828333,0.1099,-0.8135,-0.0010,-14.51,-26.89,-33.84
309,579833295,0.1011,-0.8071,0.0361,-11.71,-26.83,-33.23
310,579838294,0.0845,-0.8179,0.0356,-9.27,-26.34,-32.68
311,579843294,0.1011,-0.8193,0.0107,-7.50,-26.04,-32.07
312,579848294,0.1157,-0.8354,0.0088,-5.98,-25.67,-31.40
313,579853294,0.1016,-0.8394,0.0283,-4.88,-25.24,-30.55
314,579858296,0.1040,-0.8408,0.0269,-4.09,-24.63,-29.82
315,579863294,0.1172,-0.8379,-0.0083,-3.35,-24.02,-29.21
316,579868296,0.0952,-0.8628,-0.0234,-2.80,-23.48,-28.05
317,579873296,0.0996,-0.8696,-0.0205,-2.56,-23.17,-27.26
318,579878296,0.1191,-0.8721,-0.0259,-2.44,-22.80,-26.04
319,579883296,0.1118,-0.8809,-0.0439,-2.32,-22.01,-24.94
320,579888296,0.1113,-0.8774,-0.0200,-2.32,-21.77,-23.90
321,579893296,0.1270,-0.8809,-0.0229,-2.38,-20.98,-22.56
322,579898296,0.1182,-0.8979,-0.0474,-2.50,-20.37,-21.34
323,579903296,0.0986,-0.9058,-0.0659,-2.80,-19.88,-19.82
324,579908354,0.0957,-0.9160,-0.0562,-2.93,-19.45,-18.41
325,579913296,0.1265,-0.9263,-0.0493,-3.35,-18.84,-16.59
326,579918296,0.1606,-0.9399,-0.0625,-3.78,-18.48,-15.12
327,579923296,0.1509,-0.9624,-0.0630,-4.21,-17.99,-12.80
328,579928296,0.1597,-0.9316,-0.0669,-4.63,-17.56,-10.49
329,579933296,0.1450,-0.9497,-0.0767,-4.45,-17.01,-8.29
330,579938296,0.1816,-0.9614,-0.0913,-4.45,-16.83,-5.91
331,579943296,0.1914,-0.9756,-0.0947,-4.33,-16.65,-3.23
332,579948296,0.2041,-0.9702,-0.0864,-3.66,-16.46,-0.55
333,579953296,0.2510,-0.9551,-0.0874,-2.62,-16.40,1.95
334,579958296,0.2661,-0.9458,-0.0874,-0.85,-16.46,5.06
335,579963296,0.2534,-0.9370,-0.0781,0.67,-16.28,7.07
336,579968296,0.2832,-0.9238,-0.0649,3.23,-16.40,9.39
337,579973296,0.3018,-0.9194,-0.0693,6.16,-16.16,11.77
338,579978295,0.3140,-0.9072,-0.0723,9.76,-16.04,13.90
339,579983294,0.3525,-0.8896,-0.0605,13.96,-15.91,15.73
340,579988294,0.3501,-0.8813,-0.0347,18.60,-15.30,17.50
341,579993294,0.3560,-0.8555,-0.0610,23.54,-14.51,18.96
342,579998295,0.3521,-0.8550,-0.0630,28.66,-13.96,20.12
343,580003465,0.3696,-0.8438,-0.0635,34.88,-12.93,21.28
344,580008296,0.3711,-0.8433,-0.0674,39.94,-12.26,22.13
345,580013296,0.3784,-0.8320,-0.0854,43.60,-11.71,22.68
346,580018295,0.3848,-0.8291,-0.0776,48.66,-10.85,23.41
347,580023693,0.3657,-0.8311,-0.0742,52.44,-9.94,23.78
348,580028296,0.3901,-0.8188,-0.0806,55.67,-9.09,23.90
349,580033296,0.3853,-0.8232,-0.0918,57.99,-8.11,24.15
350,580038295,0.3804,-0.8296,-0.0962,59.57,-7.07,24.15
351,580043295,0.3662,-0.8242,-0.0918,60.43,-6.40,24.09
352,580048294,0.3770,-0.8169,-0.0923,60.55,-5.30,23.60
353,580053294,0.3789,-0.8159,-0.0923,59.94,-4.39,23.17
354,580058294,0.3535,-0.8271,-0.0811,58.41,-3.41,22.80
355,580063294,0.3247,-0.8428,-0.0713,56.71,-2.44,22.44
356,580068296,0.3027,-0.8481,-0.0532,54.33,-1.34,22.32
357,580073294,0.2817,-0.8447,-0.0508,51.34,-0.06,22.01
358,580078765,0.2681,-0.8398,-0.0400,48.23,0.79,21.77
359,580083296,0.2612,-0.8408,-0.0410,44.70,1.89,21.52
360,580088296,0.2510,-0.8374,-0.0410,41.10,2.56,21.16
361,580093296,0.2466,-0.8433,-0.0469,37.62,2.99,20.61
362,580098297,0.2637,-0.8418,-0.0439,34.27,3.48,20.49
363,580103296,0.2358,-0.8530,-0.0361,31.10,3.60,19.94
364,580108296,0.2285,-0.8667,-0.0210,27.93,4.02,19.70
365,580113301,0.2261,-0.8848,-0.0122,24.76,4.76,19.45
366,580118296,0.2275,-0.8970,-0.0151,21.89,5.18,19.27
367,580123296,0.2183,-0.8916,-0.0210,18.78,5.37,18.96
368,580128296,0.2173,-0.8926,-0.0249,15.85,5.49,18.35
369,580133296,0.2158,-0.8989,-0.0132,12.87,5.37,17.50
370,580138296,0.1885,-0.9204,-0.0103,10.00,5.18,16.65
371,580143296,0.1807,-0.9150,-0.0146,7.13,5.00,15.79
372,580148296,0.1685,-0.9189,-0.0098,3.96,4.76,14.76
373,580153295,0.1484,-0.9189,0.0015,0.91,4.51,13.72
374,580158295,0.1250,-0.9131,0.0127,-2.20,4.15,12.80
375,580163294,0.1270,-0.8911,0.0093,-5.12,3.96,11.89
376,580168294,0.1597,-0.8740,0.0083,-7.68,3.48,10.98
377,580173294,0.1270,-0.8779,0.0215,-10.30,3.72,10.12
378,580178294,0.1084,-0.8628,0.0190,-12.62,3.66,9.39
379,580183294,0.1040,-0.8457,0.0127,-14.70,3.60,8.78
380,580188294,0.1089,-0.8296,0.0166,-16.59,3.41,8.29
381,580193294,0.0830,-0.8389,0.0210,-18.78,3.60,7.93
382,580198295,0.0923,-0.8042,0.0225,-21.16,3.66,7.44
383,580203294,0.1118,-0.8013,0.0103,-23.60,3.78,7.01
384,580208294,0.1094,-0.7988,0.0132,-25.73,3.78,6.59
385,580213294,0.1230,-0.7837,0.0059,-27.74,3.90,6.28
386,580218294,0.1304,-0.7822,0.0107,-29.51,3.96,6.22
387,580223294,0.1187,-0.7876,0.0010,-30.98,4.02,6.40
388,580228294,0.1006,-0.7891,0.0063,-32.07,4.09,6.34
389,580233294,0.1069,-0.7896,-0.0024,-32.99,4.02,6.52
390,580238294,0.1128,-0.7871,-0.0024,-33.60,4.09,6.59
391,580243294,0.1172,-0.8037,-0.0234,-33.96,3.78,6.65
392,580248296,0.1216,-0.8071,-0.0200,-34.27,3.66,6.65
393,580253299,0.0928,-0.8286,-0.0376,-34.45,3.41,6.65
394,580258437,0.0869,-0.8252,-0.0459,-34.51,2.99,6.65
395,580263382,0.0938,-0.8184,-0.0488,-34.45,2.62,6.65
396,580268296,0.0928,-0.8179,-0.0552,-34.15,2.20,6.83
397,580273296,0.0889,-0.8237,-0.0693,-33.66,1.83,6.95
398,580278294,0.1030,-0.8213,-0.0488,-32.68,1.59,7.26
399,580283294,0.0991,-0.8140,-0.0444,-31.04,1.34,7.44
400,580288294,0.1138,-0.8076,-0.0547,-28.96,0.98,7.93
401,580293811,0.1172,-0.7983,-0.0435,-25.85,0.67,8.48
402,580298296,0.1128,-0.7939,-0.0425,-23.29,0.49,8.84
403,580303295,0.1089,-0.7920,-0.0376,-19.94,0.18,9.33
404,580308298,0.0962,-0.7910,-0.0352,-16.28,0.06,10.00
405,580313295,0.1035,-0.7852,-0.0278,-12.74,-0.18,10.55
406,580318665,0.1201,-0.7871,-0.0264,-8.66,-0.49,11.34
407,580323296,0.1255,-0.8027,-0.0381,-5.91,-0.49,11.89
408,580328514,0.0913,-0.8237,-0.0454,-1.95,-0.73,13.17
409,580333296,0.0679,-0.8335,-0.0410,0.43,-0.73,14.09
410,580338296,0.0781,-0.8501,-0.0464,3.66,-0.67,15.30
411,580343397,0.0942,-0.8691,-0.0483,7.32,-0.67,16.89
412,580348295,0.1055,-0.8755,-0.0503,9.70,-0.73,17.93
413,580353296,0.0952,-0.9106,-0.0625,13.17,-0.67,20.00
414,580358296,0.0781,-0.9282,-0.0708,15.30,-0.67,21.34
415,580363632,0.0840,-0.9492,-0.0815,18.05,-0.55,23.60
416,580368296,0.0669,-0.9678,-0.0767,19.39,-0.37,25.06
417,580373369,0.0737,-0.9751,-0.0713,20.85,-0.24,27.26
418,580378295,0.0967,-0.9629,-0.0615,21.59,0.12,29.09
419,580383296,0.1079,-0.9658,-0.0498,21.83,0.30,30.73
420,580388296,0.0947,-0.9712,-0.0537,21.65,0.67,32.50
421,580393296,0.0947,-0.9824,-0.0503,20.98,1.22,34.15
422,580398296,0.0669,-0.9946,-0.0513,19.70,1.46,35.79
423,580403296,0.0625,-1.0049,-0.0552,17.99,1.77,37.38
424,580408297,0.0757,-1.0103,-0.0503,15.61,2.07,38.84
425,580413296,0.0801,-1.0234,-0.0542,12.93,2.38,40.06
426,580418295,0.0718,-1.0454,-0.0498,9.82,2.62,41.40
427,580423296,0.0552,-1.0679,-0.0469,6.46,2.93,42.50
428,580428295,0.0654,-1.0767,-0.0454,2.74,3.29,43.54
429,580433296,0.0845,-1.0942,-0.0459,-0.79,3.48,44.76
430,580438295,0.0796,-1.1143,-0.0474,-4.21,3.66,45.85
431,580443296,0.0581,-1.1284,-0.0444,-7.50,3.72,46.77
432,580448295,0.0713,-1.1309,-0.0459,-10.30,3.84,47.68
433,580453295,0.0879,-1.1338,-0.0464,-12.87,3.96,48.66
434,580458294,0.0620,-1.1445,-0.0410,-14.82,4.02,49.45
435,580463294,0.0566,-1.1445,-0.0405,-16.28,4.02,50.00
436,580468294,0.0557,-1.1475,-0.0527,-17.56,4.02,50.43
437,580473296,0.0605,-1.1479,-0.0547,-18.48,4.02,50.79
438,580478294,0.0669,-1.1475,-0.0508,-19.09,4.02,50.79
439,580483296,0.0635,-1.1587,-0.0542,-19.33,4.27,50.79
440,580488296,0.0527,-1.1582,-0.0498,-19.27,4.63,50.61
441,580493296,0.0410,-1.1592,-0.0557,-19.27,4.88,50.18
442,580498296,0.0601,-1.1533,-0.0493,-18.84,5.18,49.82
443,580503296,0.0645,-1.1533,-0.0479,-18.41,5.85,49.15
444,580508296,0.0566,-1.1597,-0.0527,-17.93,6.28,48.48
445,580513650,0.0415,-1.1763,-0.0610,-17.56,7.01,47.68
446,580518296,0.0498,-1.1880,-0.0693,-16.95,7.68,46.83
447,580523295,0.0532,-1.2031,-0.0698,-16.59,8.41,45.85
448,580528703,0.0586,-1.2178,-0.0776,-16.22,9.15,44.70
449,580533296,0.0557,-1.2310,-0.0840,-15.67,9.94,43.54
450,580538296,0.0718,-1.2373,-0.0981,-14.82,10.91,42.32
451,580543296,0.0820,-1.2422,-0.1099,-13.96,11.77,41.16
452,580548296,0.0786,-1.2446,-0.1157,-12.93,13.05,40.00
453,580553296,0.0952,-1.2500,-0.1230,-11.83,14.09,38.54
454,580558295,0.0825,-1.2632,-0.1372,-10.55,15.49,37.32
455,580563296,0.0757,-1.2715,-0.1499,-9.02,16.77,35.85
456,580568296,0.0874,-1.2705,-0.1558,-7.50,18.11,34.63
457,580573296,0.1035,-1.2764,-0.1597,-5.37,20.00,32.99
458,580578296,0.0889,-1.2964,-0.1602,-3.72,21.22,32.07
459,580583296,0.0791,-1.2759,-0.1836,-1.59,22.80,30.73
460,580588295,0.0947,-1.2783,-0.1870,0.49,24.33,29.15
461,580593294,0.1113,-1.2847,-0.1802,2.44,25.85,27.50
462,580598294,0.1025,-1.2925,-0.1855,3.96,27.32,25.85
463,580603294,0.0806,-1.3018,-0.1914,5.30,28.84,24.21
464,580608296,0.1045,-1.2993,-0.1919,6.59,30.49,22.62
465,580613296,0.0913,-1.3125,-0.1899,7.56,31.52,20.91
466,580618738,0.1050,-1.3086,-0.1890,8.96,33.11,18.72
467,580623296,0.1108,-1.3101,-0.1870,9.82,33.90,17.20
468,580628296,0.1089,-1.3062,-0.1797,10.85,34.94,15.30
469,580633296,0.1069,-1.3081,-0.1787,12.07,35.79,13.35
470,580638296,0.0908,-1.3096,-0.1797,13.41,36.83,11.28
471,580643297,0.0854,-1.3008,-0.1758,14.70,37.50,9.21
472,580648296,0.1040,-1.2876,-0.1714,15.98,38.17,6.83
473,580653295,0.0908,-1.2856,-0.1724,17.20,38.96,4.70
474,580658296,0.0771,-1.2793,-0.1670,18.48,39.39,2.38
475,580663296,0.0942,-1.2637,-0.1543,19.63,40.06,0.06
476,580668296,0.0903,-1.2622,-0.1587,20.55,40.49,-2.20
477,580673294,0.0713,-1.2559,-0.1538,21.34,40.85,-4.76
478,580678294,0.0796,-1.2378,-0.1523,22.01,41.28,-7.01
479,580683294,0.0757,-1.2266,-0.1479,22.62,41.34,-9.21
480,580688294,0.0801,-1.2144,-0.1377,23.17,41.46,-11.46
481,580693294,0.0771,-1.2051,-0.1377,23.35,41.52,-13.54
482,580698294,0.0986,-1.1836,-0.1323,23.78,41.46,-15.67
483,580703295,0.1172,-1.1680,-0.1235,23.90,41.28,-17.74
484,580708296,0.1211,-1.1582,-0.1255,23.78,40.91,-19.70
485,580713295,0.1182,-1.1440,-0.1201,24.02,40.67,-21.71
486,580718296,0.1069,-1.1348,-0.1123,23.84,40.06,-23.96
487,580723296,0.1016,-1.1270,-0.1123,23.90,39.88,-25.37
488,580728296,0.0918,-1.1123,-0.1143,23.54,39.27,-27.62
489,580733296,0.0894,-1.1040,-0.1172,23.35,38.54,-29.39
490,580738760,0.0898,-1.0908,-0.1196,23.23,37.80,-30.91
491,580743296,0.0972,-1.0801,-0.1138,23.17,37.01,-32.50
492,580748296,0.1108,-1.0698,-0.1182,23.05,36.28,-33.90
493,580753295,0.1182,-1.0576,-0.1206,22.80,35.73,-35.24
494,580758296,0.1104,-1.0503,-0.1221,22.74,34.82,-36.40
495,580763296,0.1123,-1.0459,-0.1318,22.13,34.02,-37.62
496,580768296,0.1001,-1.0469,-0.1357,21.40,33.23,-38.72
497,580773432,0.0923,-1.0430,-0.1416,20.43,32.56,-39.76
498,580778296,0.1074,-1.0386,-0.1338,19.15,31.77,-40.67
499,580783295,0.1016,-1.0361,-0.1362,17.74,31.04,-41.59
500,580788296,0.0942,-1.0420,-0.1440,16.40,30.30,-42.20
501,580793296,0.1045,-1.0337,-0.1489,14.88,29.70,-42.99
502,580798298,0.1099,-1.0273,-0.1421,13.54,28.90,-43.66
503,580803295,0.1387,-1.0190,-0.1509,12.20,28.17,-44.15
504,580808298,0.1436,-1.0215,-0.1460,10.98,27.44,-44.63
505,580813675,0.1348,-1.0278,-0.1567,9.82,26.46,-44.88
506,580818296,0.1455,-1.0239,-0.1650,8.72,25.61,-45.18
507,580823296,0.1533,-1.0249,-0.1680,7.62,24.82,-45.30
508,580828295,0.1484,-1.0239,-0.1611,6.40,23.96,-45.55
509,580833296,0.1377,-1.0205,-0.1611,5.18,22.99,-45.67
510,580838295,0.1216,-1.0171,-0.1636,3.90,22.32,-45.85
511,580843297,0.1484,-1.0078,-0.1719,2.62,21.46,-45.98
512,580848296,0.1328,-1.0068,-0.1675,1.40,20.73,-46.22
513,580853296,0.1562,-0.9956,-0.1812,0.24,20.00,-46.40
514,580858296,0.1387,-0.9912,-0.1792,-1.16,19.27,-46.52
515,580863296,0.1553,-0.9917,-0.1841,-2.07,18.78,-46.77
516,580868295,0.1553,-0.9971,-0.1836,-3.23,18.17,-46.71
517,580873296,0.1416,-0.9980,-0.1904,-4.39,17.56,-46.83
518,580878295,0.1660,-0.9888,-0.1929,-5.24,17.07,-46.83
519,580883294,0.1846,-0.9858,-0.1865,-6.22,16.77,-46.83
520,580888294,0.1567,-0.9922,-0.1865,-6.89,16.34,-46.83
521,580893294,0.1626,-0.9863,-0.1919,-7.01,15.85,-46.95
522,580898294,0.1753,-0.9810,-0.1836,-7.20,15.61,-47.13
523,580903294,0.1865,-0.9814,-0.1870,-7.13,15.12,-47.26
524,580908295,0.1792,-0.9873,-0.1885,-6.83,14.76,-47.38
525,580913296,0.1636,-0.9902,-0.1938,-6.65,14.39,-47.44
526,580918297,0.1675,-0.9868,-0.1919,-6.71,14.02,-47.68
527,580923296,0.1689,-0.9907,-0.1909,-6.71,13.60,-47.87
528,580928295,0.1797,-0.9805,-0.1948,-6.65,13.35,-48.11
529,580933296,0.1934,-0.9678,-0.1880,-6.71,13.23,-48.35
530,580938296,0.1729,-0.9780,-0.1899,-6.65,12.93,-48.66
531,580943295,0.1768,-0.9722,-0.1880,-6.28,12.80,-48.84
532,580948294,0.1748,-0.9648,-0.1919,-5.67,12.80,-49.15
533,580953296,0.1865,-0.9619,-0.1987,-5.00,12.56,-49.21
534,580958331,0.1919,-0.9556,-0.1934,-3.90,12.44,-49.27
535,580963296,0.1963,-0.9478,-0.1919,-2.80,12.50,-49.27
536,580968294,0.2012,-0.9448,-0.1987,-1.65,12.38,-49.27
537,580973294,0.1943,-0.9453,-0.2046,-0.67,12.38,-49.09
538,580978294,0.1895,-0.9419,-0.1899,0.30,12.38,-48.96
539,580983299,0.2104,-0.9268,-0.1934,1.28,12.50,-48.72
540,580988296,0.2012,-0.9199,-0.1948,1.65,12.50,-48.41
541,580993295,0.1860,-0.9224,-0.1987,1.95,12.62,-48.11
542,580998296,0.2080,-0.9160,-0.1934,1.89,12.68,-47.87
543,581003295,0.2212,-0.9077,-0.1895,1.77,12.74,-47.50
544,581008296,0.2026,-0.9165,-0.1860,1.22,12.99,-46.95
545,581013296,0.1963,-0.9165,-0.1855,0.49,12.99,-46.65
546,581018296,0.2139,-0.9106,-0.1865,-0.18,13.05,-46.28
547,581023296,0.2231,-0.8999,-0.1904,-0.85,13.23,-45.91
548,581028296,0.2202,-0.8926,-0.1841,-1.16,13.05,-45.55
549,581033294,0.2163,-0.8882,-0.1919,-1.22,13.05,-45.12
550,581038296,0.2134,-0.8823,-0.1836,-1.16,13.11,-44.82
551,581043296,0.2095,-0.8750,-0.1816,-0.61,12.87,-44.27
552,581048296,0.2266,-0.8613,-0.1821,-0.06,12.62,-43.90
553,581053296,0.2227,-0.8594,-0.1797,0.67,12.44,-43.54
554,581058296,0.2100,-0.8545,-0.1865,1.77,12.07,-43.05
555,581063296,0.2144,-0.8481,-0.1860,2.56,11.89,-42.74
556,581068298,0.2241,-0.8413,-0.1831,3.29,11.59,-42.13
557,581073518,0.2319,-0.8218,-0.1797,4.21,11.16,-41.65
558,581078295,0.2222,-0.8247,-0.1860,4.70,10.91,-41.28
559,581083296,0.2246,-0.8218,-0.1836,5.18,10.37,-40.85
560,581088296,0.2520,-0.8135,-0.1846,5.24,10.00,-40.43
561,581093295,0.2681,-0.7998,-0.1797,5.30,9.63,-40.12
562,581098296,0.2676,-0.7915,-0.1875,4.82,9.09,-39.76
563,581103295,0.2651,-0.7896,-0.1846,4.15,8.60,-39.39
564,581108296,0.2661,-0.7803,-0.1855,3.17,8.11,-39.02
565,581113792,0.2476,-0.7744,-0.1812,1.95,7.68,-38.84
566,581118296,0.2495,-0.7700,-0.1812,0.55,7.32,-38.60
567,581123297,0.2549,-0.7607,-0.1758,-1.04,6.89,-38.29
568,581128296,0.2632,-0.7593,-0.1836,-2.87,6.22,-38.29
569,581133294,0.2646,-0.7534,-0.1860,-5.00,5.98,-37.93
570,581138298,0.2822,-0.7500,-0.1792,-7.13,5.30,-37.50
571,581143296,0.2822,-0.7578,-0.1895,-9.45,5.06,-37.20
572,581148779,0.2832,-0.7515,-0.1924,-12.07,4.63,-36.83
573,581153296,0.2803,-0.7568,-0.1997,-14.57,4.15,-36.28
574,581158296,0.2793,-0.7583,-0.2070,-17.07,3.78,-35.67
575,581163296,0.3013,-0.7617,-0.2114,-19.63,3.05,-35.06
576,581168295,0.3086,-0.7788,-0.2129,-22.07,2.56,-34.33
577,581173294,0.3057,-0.7720,-0.2109,-24.27,2.01,-33.48
578,581178294,0.3115,-0.7573,-0.2168,-26.40,1.83,-32.93
579,581183294,0.3232,-0.7393,-0.2075,-28.35,1.34,-32.32
580,581188294,0.2983,-0.7451,-0.2163,-30.06,1.04,-32.01
581,581193294,0.3110,-0.7500,-0.2197,-31.71,0.61,-31.65
582,581198294,0.3135,-0.7593,-0.2222,-33.29,0.24,-31.16
583,581203294,0.3091,-0.7656,-0.2275,-34.70,-0.06,-30.79
584,581208294,0.3105,-0.7695,-0.2329,-36.04,-0.30,-30.49
585,581213294,0.3208,-0.7632,-0.2319,-37.01,-0.61,-30.12
586,581218294,0.3511,-0.7495,-0.2319,-37.87,-1.04,-29.88
587,581223294,0.3257,-0.7637,-0.2339,-38.11,-1.34,-29.76
588,581228294,0.3066,-0.7715,-0.2524,-38.48,-1.40,-29.57
589,581233294,0.3076,-0.7812,-0.2568,-38.72,-1.83,-29.21
590,581238294,0.3301,-0.7739,-0.2534,-39.27,-2.26,-28.66
591,581243294,0.3394,-0.7642,-0.2446,-40.06,-2.20,-28.11
592,581248294,0.3599,-0.7583,-0.2480,-40.91,-2.32,-27.80
593,581253294,0.3730,-0.7681,-0.2593,-42.26,-2.38,-27.44
594,581258294,0.3716,-0.7822,-0.2588,-43.72,-2.13,-26.89
595,581263294,0.3716,-0.8076,-0.2622,-45.18,-1.95,-26.28
596,581268294,0.3857,-0.8179,-0.2695,-46.77,-1.46,-25.61
597,581273296,0.3833,-0.8369,-0.2808,-48.23,-1.22,-24.63
598,581278294,0.3853,-0.8462,-0.2812,-49.82,-0.85,-23.48
599,581283294,0.3970,-0.8481,-0.2788,-51.16,-0.61,-22.50
600,581288294,0.4062,-0.8530,-0.2769,-52.32,-0.18,-21.34
601,581293294,0.4058,-0.8579,-0.2729,-53.48,0.30,-20.18
602,581298299,0.3965,-0.8589,-0.2676,-54.39,0.67,-19.15
603,581303294,0.4043,-0.8594,-0.2661,-55.12,0.98,-18.17
604,581308298,0.4282,-0.8506,-0.2524,-55.61,1.59,-17.32
605,581313294,0.4165,-0.8438,-0.2476,-55.98,2.26,-16.46
606,581318296,0.4028,-0.8496,-0.2417,-56.16,2.80,-16.04
607,581323296,0.4229,-0.8369,-0.2412,-55.91,3.60,-15.55
608,581328296,0.4268,-0.8306,-0.2393,-55.61,4.51,-15.12
609,581333295,0.4053,-0.8394,-0.2461,-55.06,5.49,-14.76
610,581338295,0.4355,-0.8311,-0.2476,-54.39,6.71,-14.39
611,581343294,0.4307,-0.8257,-0.2505,-53.66,7.99,-14.09
612,581348294,0.4351,-0.8286,-0.2622,-52.93,9.39,-13.78
613,581353294,0.4487,-0.8188,-0.2656,-52.32,11.16,-13.60
614,581358294,0.4321,-0.8193,-0.2705,-51.95,12.99,-13.29
615,581363294,0.4287,-0.8223,-0.2876,-51.83,14.94,-13.05
616,581368296,0.4507,-0.8198,-0.2925,-52.13,17.01,-12.80
617,581373296,0.4492,-0.8252,-0.2954,-52.56,19.09,-12.50
618,581378296,0.4614,-0.8218,-0.3149,-53.48,21.28,-12.20
619,581383510,0.4844,-0.8291,-0.3159,-54.88,23.78,-11.95
620,581388296,0.5127,-0.8223,-0.3198,-56.52,26.28,-11.71
621,581393295,0.5049,-0.8203,-0.3184,-58.48,28.78,-11.28
622,581398686,0.4873,-0.8247,-0.3237,-61.04,32.13,-10.79
623,581403296,0.4790,-0.8345,-0.3330,-62.74,34.15,-10.49
624,581408295,0.5151,-0.8281,-0.3257,-64.33,37.01,-9.82
625,581413314,0.5679,-0.8130,-0.3252,-65.61,39.88,-9.02
626,581418367,0.5669,-0.8125,-0.3281,-66.59,42.74,-8.54
627,581423296,0.5635,-0.8145,-0.3364,-67.26,45.67,-7.87
628,581428296,0.5703,-0.8008,-0.3320,-67.56,48.66,-7.26
629,581433296,0.5713,-0.8003,-0.3398,-67.50,51.71,-6.65
630,581438296,0.5747,-0.7949,-0.3369,-66.95,54.63,-5.79
631,581443296,0.5742,-0.7920,-0.3423,-65.79,57.74,-4.94
632,581448295,0.5645,-0.7876,-0.3340,-64.09,60.61,-3.96
633,581453296,0.5605,-0.7769,-0.3320,-61.95,63.72,-3.11
634,581458297,0.5552,-0.7769,-0.3252,-58.96,66.59,-2.13
635,581463493,0.5469,-0.7622,-0.3105,-54.94,70.06,-0.79
636,581468295,0.5376,-0.7568,-0.2930,-51.10,73.11,0.37
637,581473297,0.5469,-0.7505,-0.2900,-47.62,75.18,1.28
638,581478295,0.5464,-0.7466,-0.2725,-43.29,77.87,2.56
639,581483294,0.5444,-0.7461,-0.2495,-38.41,80.73,3.72
640,581488294,0.5518,-0.7285,-0.2251,-32.50,83.11,5.37
641,581493296,0.5405,-0.7290,-0.2017,-27.38,85.73,6.65
642,581498294,0.5293,-0.7285,-0.1851,-22.07,86.65,7.93
643,581503294,0.5068,-0.7227,-0.1655,-16.83,89.76,9.39
644,581508465,0.4990,-0.7119,-0.1450,-11.65,92.32,10.67
645,581513296,0.4995,-0.7046,-0.1226,-6.77,94.27,12.01
646,581518296,0.5005,-0.6963,-0.0991,-1.83,96.34,13.35
647,581523296,0.5000,-0.6934,-0.0864,2.50,98.23,14.63
648,581528296,0.5073,-0.6812,-0.0640,6.77,100.24,15.98
649,581533296,0.4946,-0.6729,-0.0430,10.67,101.95,17.38
650,581538295,0.4712,-0.6743,-0.0273,14.33,103.66,18.72
651,581543296,0.4517,-0.6724,-0.0073,17.50,105.43,20.00
652,581548297,0.4453,-0.6714,-0.0010,20.49,107.13,21.22
653,581553296,0.4482,-0.6646,0.0190,23.17,108.78,22.38
654,581558295,0.4546,-0.6523,0.0391,25.55,110.37,23.54
655,581563296,0.4419,-0.6523,0.0547,27.56,111.83,24.76
656,581568296,0.4160,-0.6572,0.0669,29.76,113.29,25.98
657,581573297,0.3999,-0.6567,0.0874,31.89,114.63,26.95
658,581578295,0.4102,-0.6460,0.1006,33.78,115.98,28.05
659,581583294,0.3979,-0.6431,0.1177,35.91,117.13,29.02
660,581588294,0.3916,-0.6406,0.1333,38.05,118.54,30.06
661,581593294,0.3794,-0.6362,0.1489,40.49,119.70,31.10
662,581598294,0.3750,-0.6274,0.1670,42.99,120.91,32.20
663,581603296,0.3540,-0.6230,0.1821,45.85,122.01,33.35
664,581608703,0.3267,-0.6230,0.2007,48.78,123.23,34.63
665,581613296,0.3125,-0.6182,0.2148,51.77,124.21,35.98
666,581618296,0.3076,-0.6108,0.2285,54.70,125.24,37.44
667,581623296,0.2949,-0.6069,0.2520,57.80,126.40,38.90
668,581628619,0.2847,-0.6006,0.2646,60.91,127.56,40.43
669,581633296,0.2891,-0.5967,0.2783,63.84,128.66,42.20
670,581638295,0.2837,-0.5918,0.3096,66.59,129.82,43.96
671,581643296,0.2744,-0.5913,0.3325,68.84,131.04,45.67
672,581648294,0.2563,-0.5933,0.3369,70.79,132.07,47.56
673,581653296,0.2314,-0.5918,0.3623,72.80,133.23,49.45
674,581658296,0.2085,-0.5854,0.3940,74.27,134.27,51.40
675,581663296,0.1973,-0.5864,0.4116,75.73,135.43,53.29
676,581668296,0.1997,-0.5879,0.4243,77.01,136.46,55.30
677,581673296,0.2031,-0.5942,0.4399,78.17,137.38,57.56
678,581678297,0.1865,-0.5825,0.4634,79.27,138.35,59.82
679,581683376,0.1650,-0.5884,0.4844,80.49,138.96,62.07
680,581688296,0.1416,-0.5967,0.5083,81.95,139.57,64.70
681,581693296,0.1196,-0.5977,0.5244,82.99,139.94,66.40
682,581698296,0.1001,-0.6089,0.5620,83.84,140.00,68.54
683,581703296,0.0938,-0.6143,0.6025,84.94,140.18,71.04
684,581708296,0.0933,-0.5991,0.6333,85.43,140.06,72.44
685,581713296,0.0698,-0.6113,0.6572,86.10,139.94,74.33
686,581718296,0.0371,-0.6211,0.7017,86.40,139.45,76.04
687,581723452,0.0278,-0.6265,0.7324,86.59,138.84,77.93
688,581728296,0.0142,-0.6426,0.7764,86.34,138.05,79.45
689,581733296,0.0068,-0.6440,0.8257,85.98,136.95,81.16
690,581738296,-0.0083,-0.6709,0.8604,85.61,135.43,82.74
691,581743472,-0.0459,-0.6904,0.9053,85.24,133.84,84.02
692,581748329,-0.0718,-0.7026,0.9355,84.88,131.46,86.10
693,581753296,-0.0835,-0.7183,0.9756,84.63,128.72,85.61
694,581758295,-0.0928,-0.7393,1.0352,84.33,125.55,87.07
695,581763296,-0.1289,-0.7734,1.0884,84.15,121.89,87.38
696,581768296,-0.1318,-0.8145,1.1382,84.39,117.87,89.27
697,581773296,-0.1494,-0.8252,1.1880,85.00,112.93,89.88
698,581778297,-0.1670,-0.8486,1.2451,85.85,107.50,89.94
699,581783295,-0.1621,-0.8662,1.2900,86.59,101.46,90.55
700,581788294,-0.1626,-0.8965,1.3340,87.32,94.82,90.43
701,581793294,-0.1865,-0.9268,1.3867,87.80,86.83,90.79
702,581798294,-0.2075,-0.9517,1.4326,88.17,80.61,90.91
703,581803294,-0.2012,-0.9697,1.4722,88.72,72.20,90.61
704,581808507,-0.1899,-0.9995,1.5142,88.60,61.89,90.37
705,581813295,-0.1646,-1.0264,1.5405,87.99,54.39,90.18
706,581818294,-0.1611,-1.0513,1.5649,86.71,44.94,90.12
707,581823294,-0.1538,-1.0815,1.5981,84.82,35.06,89.76
708,581828505,-0.1621,-1.1172,1.6328,81.77,22.80,89.15
709,581833296,-0.1675,-1.1548,1.6587,78.72,12.32,87.87
710,581838296,-0.1611,-1.1665,1.6768,76.16,3.84,88.48
711,581843296,-0.1582,-1.1865,1.6899,72.87,-6.89,87.07
712,581848297,-0.1890,-1.2104,1.7002,69.39,-17.74,86.95
713,581853443,-0.1899,-1.2373,1.7212,65.67,-30.67,87.01
714,581858296,-0.1851,-1.2534,1.7129,63.17,-39.15,87.01
715,581863296,-0.1577,-1.2686,1.7183,59.88,-52.07,87.13
716,581868295,-0.1611,-1.2886,1.7222,57.74,-62.74,88.60
717,581873297,-0.1738,-1.3057,1.7178,55.91,-73.41,88.48
718,581878296,-0.1963,-1.3223,1.7095,54.63,-83.66,89.57
719,581883627,-0.2061,-1.3467,1.7075,53.96,-94.15,90.24
720,581888296,-0.2246,-1.3711,1.7075,53.66,-104.33,90.24
721,581893300,-0.2344,-1.3867,1.7090,54.21,-114.57,90.55
722,581898296,-0.2549,-1.4082,1.7036,55.18,-124.57,90.55
723,581903672,-0.3003,-1.4404,1.7041,57.01,-134.57,90.55
724,581908296,-0.3047,-1.4658,1.6929,59.57,-144.21,90.55
725,581913295,-0.3135,-1.4785,1.6938,62.74,-153.60,90.24
726,581918430,-0.3701,-1.5039,1.6860,66.59,-162.93,89.51
727,581923479,-0.4087,-1.5210,1.6699,70.43,-171.71,88.60
728,581928297,-0.4355,-1.5298,1.6572,74.33,-180.37,87.99
729,581933296,-0.4761,-1.5439,1.6421,78.11,-188.72,86.77
730,581938296,-0.5068,-1.5640,1.6230,81.77,-196.77,86.40
731,581943296,-0.5562,-1.5811,1.6064,85.06,-204.82,84.09
732,581948296,-0.6001,-1.5981,1.5840,88.29,-212.74,82.38
733,581953298,-0.6250,-1.6099,1.5615,91.34,-220.67,80.49
734,581958295,-0.6685,-1.6230,1.5293,94.09,-228.84,78.41
735,581963296,-0.7148,-1.6357,1.5078,96.28,-236.83,76.28
736,581968296,-0.7520,-1.6528,1.4839,97.80,-245.06,74.21
737,581973296,-0.8130,-1.6807,1.4546,98.54,-252.93,72.20
738,581978296,-0.8311,-1.6870,1.4097,98.96,-260.98,70.06
739,581983297,-0.8525,-1.7007,1.3779,98.84,-269.15,67.99
740,581988296,-0.9062,-1.7339,1.3286,98.05,-277.13,65.98
741,581993296,-0.9404,-1.7520,1.2749,96.46,-285.12,64.02
742,581998296,-0.9634,-1.7642,1.2290,94.02,-293.05,62.01
743,582003296,-0.9883,-1.7871,1.1870,90.24,-300.49,59.94
744,582008296,-0.9932,-1.7900,1.1396,85.37,-307.80,57.74
745,582013300,-1.0112,-1.7935,1.0942,79.21,-314.82,55.49
746,582018296,-1.0298,-1.7871,1.0464,72.13,-321.59,53.05
747,582023296,-1.0537,-1.7842,1.0024,64.33,-328.17,50.24
748,582028298,-1.0635,-1.7676,0.9355,55.98,-333.90,47.20
749,582033295,-1.0757,-1.7622,0.8750,47.68,-339.63,44.02
750,582038296,-1.0972,-1.7515,0.8042,39.70,-344.82,40.61
751,582043296,-1.1201,-1.7427,0.7295,32.68,-349.51,36.77
752,582048296,-1.1289,-1.7358,0.6484,26.77,-353.54,32.99
753,582053297,-1.1138,-1.7114,0.5664,22.26,-357.32,29.09
754,582058295,-1.1123,-1.6924,0.4819,19.39,-360.18,25.12
755,582063296,-1.1079,-1.6699,0.3926,17.68,-362.68,21.28
756,582068296,-1.1108,-1.6431,0.3022,16.89,-364.76,17.32
757,582073296,-1.1055,-1.6172,0.1987,17.01,-366.04,13.54
758,582078295,-1.1055,-1.5688,0.0913,17.80,-366.89,9.45
759,582083295,-1.0903,-1.5239,-0.0103,19.45,-367.38,5.18
760,582088427,-1.0864,-1.4819,-0.1226,21.28,-367.07,0.79
761,582093294,-1.0566,-1.4263,-0.2354,23.48,-366.04,-3.60
762,582098294,-1.0171,-1.3838,-0.3286,25.85,-364.33,-8.11
763,582103294,-0.9429,-1.3232,-0.4312,28.23,-361.77,-12.74
764,582108294,-0.9014,-1.2944,-0.5361,30.61,-358.23,-17.38
765,582113569,-0.8716,-1.2534,-0.6484,32.50,-353.96,-22.01
766,582118297,-0.8462,-1.2295,-0.7588,34.21,-348.66,-26.77
767,582123294,-0.8472,-1.1973,-0.8540,35.55,-342.44,-31.46
768,582128294,-0.8438,-1.1660,-0.9429,36.65,-335.30,-36.22
769,582133296,-0.8159,-1.1240,-1.0205,37.68,-327.07,-40.73
770,582138295,-0.7661,-1.0879,-1.1060,39.09,-316.22,-46.16
771,582143296,-0.7358,-1.0356,-1.1660,40.18,-308.05,-49.70
772,582148296,-0.6973,-0.9941,-1.2305,41.46,-297.32,-53.84
773,582153296,-0.6646,-0.9546,-1.2798,42.62,-286.10,-57.93
774,582158296,-0.6235,-0.9077,-1.3325,43.29,-271.71,-62.74
775,582163296,-0.5898,-0.8813,-1.3682,43.84,-261.65,-65.37
776,582168296,-0.5430,-0.8516,-1.3906,44.39,-249.02,-68.48
777,582173296,-0.4932,-0.7993,-1.4097,45.49,-233.78,-71.59
778,582178296,-0.4536,-0.7812,-1.4126,46.22,-223.54,-73.35
779,582183296,-0.4038,-0.7490,-1.4116,47.44,-208.54,-75.12
780,582188296,-0.3599,-0.7280,-1.3940,48.72,-196.40,-75.98
781,582193295,-0.3145,-0.7021,-1.3711,50.00,-186.83,-76.34
782,582198298,-0.2783,-0.6738,-1.3477,51.59,-175.24,-76.16
783,582203296,-0.2505,-0.6460,-1.3066,53.96,-162.13,-75.49
784,582208295,-0.2134,-0.6235,-1.2734,55.73,-153.96,-74.63
785,582213296,-0.1841,-0.6035,-1.2280,57.99,-143.96,-73.05
786,582218296,-0.1299,-0.5825,-1.1860,60.24,-134.57,-71.04
787,582223296,-0.0806,-0.5547,-1.1421,62.38,-125.73,-68.54
788,582228295,-0.0391,-0.5337,-1.0938,64.02,-117.44,-65.73
789,582233343,-0.0029,-0.5239,-1.0410,64.94,-108.11,-61.77
790,582238296,0.0361,-0.5229,-0.9917,64.94,-100.98,-57.87
791,582243296,0.0566,-0.5239,-0.9468,64.33,-94.63,-53.84
792,582248295,0.0859,-0.5205,-0.9248,63.35,-89.57,-50.49
793,582253294,0.1240,-0.5205,-0.8901,61.40,-84.09,-45.91
794,582258294,0.1489,-0.5181,-0.8433,58.17,-78.11,-40.55
795,582263294,0.1646,-0.5156,-0.8013,55.06,-73.60,-36.04
796,582268294,0.2144,-0.5103,-0.7778,51.77,-69.51,-31.71
797,582273294,0.2075,-0.5151,-0.7520,49.02,-66.65,-28.41
798,582278294,0.2324,-0.5186,-0.7231,45.98,-63.23,-24.33
799,582283294,0.2759,-0.5151,-0.6860,42.62,-59.70,-19.76
800,582288294,0.2769,-0.5254,-0.6611,40.18,-57.07,-16.10
801,582293547,0.3203,-0.5264,-0.6299,37.87,-54.63,-12.56
802,582298294,0.3237,-0.5396,-0.6001,35.79,-52.44,-9.27
803,582303294,0.3340,-0.5537,-0.5776,33.72,-50.18,-6.28
804,582308294,0.3657,-0.5605,-0.5542,31.46,-48.35,-3.35
805,582313294,0.3706,-0.5698,-0.5386,28.84,-46.40,-0.61
806,582318294,0.3696,-0.5918,-0.5181,25.79,-44.39,1.89
807,582323294,0.3823,-0.6089,-0.4956,22.62,-42.38,4.27
808,582328294,0.4150,-0.6191,-0.4878,19.33,-40.49,6.40
809,582333294,0.3979,-0.6470,-0.4775,15.98,-38.54,8.54
810,582338294,0.4194,-0.6577,-0.4565,12.99,-36.65,10.61
811,582343294,0.4258,-0.6758,-0.4409,10.12,-34.76,12.50
812,582348294,0.4209,-0.6948,-0.4355,7.62,-32.87,14.21
813,582353294,0.4302,-0.7163,-0.4272,5.43,-31.04,15.85
814,582358411,0.4639,-0.7246,-0.4038,3.60,-29.21,17.32
815,582363295,0.4897,-0.7412,-0.3857,2.26,-27.44,18.78
816,582368296,0.4956,-0.7617,-0.3740,1.28,-25.67,20.37
817,582373294,0.4927,-0.7788,-0.3472,0.73,-23.96,21.77
818,582378294,0.5068,-0.7949,-0.3354,0.43,-22.62,22.99
819,582383296,0.5093,-0.8032,-0.3169,0.24,-21.40,24.15
820,582388294,0.5254,-0.8145,-0.3003,0.37,-20.06,25.12
821,582393295,0.5498,-0.8208,-0.2783,0.55,-19.02,26.10
822,582398296,0.5757,-0.8252,-0.2729,0.91,-18.11,26.83
823,582403296,0.5815,-0.8335,-0.2544,1.40,-17.20,27.62
824,582408426,0.5757,-0.8481,-0.2388,1.89,-16.34,28.35
825,582413382,0.5791,-0.8628,-0.2368,2.20,-15.73,29.09
826,582418406,0.6152,-0.8647,-0.2188,2.26,-14.70,29.76
827,582423296,0.6030,-0.8711,-0.1997,2.01,-13.66,30.37
828,582428296,0.6118,-0.8887,-0.1895,1.71,-12.68,31.04
829,582433297,0.6387,-0.8945,-0.1758,0.85,-11.52,31.52
830,582438296,0.6562,-0.9019,-0.1699,-0.12,-10.43,32.13
831,582443296,0.6597,-0.9121,-0.1572,-1.59,-8.84,32.87
832,582448296,0.6523,-0.9248,-0.1514,-2.87,-7.80,33.23
833,582453296,0.6816,-0.9219,-0.1387,-4.45,-6.65,33.66
834,582458296,0.6699,-0.9443,-0.1255,-6.40,-5.37,33.96
835,582463296,0.6831,-0.9556,-0.1226,-7.80,-4.63,34.21
836,582468296,0.6870,-0.9658,-0.1099,-9.33,-3.78,34.33
837,582473504,0.7007,-0.9775,-0.1040,-10.91,-3.05,34.33
838,582478296,0.7163,-0.9805,-0.0928,-12.32,-2.32,34.39
839,582483296,0.7080,-0.9941,-0.0879,-13.60,-1.95,34.09
840,582488296,0.7144,-1.0049,-0.0825,-15.24,-1.52,33.66
841,582493296,0.7148,-1.0117,-0.0771,-16.28,-1.22,33.29
842,582498295,0.7207,-1.0205,-0.0757,-17.62,-1.16,32.74
843,582503294,0.7026,-1.0439,-0.0811,-18.90,-0.85,32.07
844,582508294,0.6841,-1.0547,-0.0845,-20.12,-0.67,31.40
845,582513294,0.6924,-1.0645,-0.0830,-21.10,-0.55,30.55
846,582518449,0.6831,-1.0723,-0.0923,-21.89,-0.37,29.63
847,582523296,0.6758,-1.0835,-0.0991,-22.62,-0.24,28.48
848,582528506,0.6958,-1.0815,-0.1035,-22.93,0.06,27.68
849,582533297,0.6948,-1.0874,-0.1064,-23.17,0.18,26.46
850,582538296,0.6807,-1.0991,-0.1226,-23.35,0.37,25.37
851,582543296,0.6724,-1.1147,-0.1274,-23.60,0.55,23.60
852,582548296,0.6807,-1.1113,-0.1353,-23.54,0.85,22.62
853,582553296,0.6567,-1.1226,-0.1450,-23.60,1.04,21.16
854,582558296,0.6626,-1.1182,-0.1509,-23.66,1.40,19.88
855,582563296,0.6328,-1.1294,-0.1587,-23.78,1.77,18.29
856,582568298,0.6377,-1.1226,-0.1650,-24.15,2.26,16.95
857,582573295,0.6055,-1.1260,-0.1743,-24.63,2.50,15.37
858,582578296,0.6050,-1.1240,-0.1802,-25.24,3.05,13.96
859,582583677,0.6001,-1.1118,-0.1963,-26.16,3.84,12.32
860,582588296,0.6016,-1.0996,-0.2051,-26.83,4.33,11.16
861,582593296,0.5928,-1.0874,-0.1987,-27.87,5.06,9.70
862,582598296,0.5669,-1.0820,-0.2041,-28.66,5.91,8.35
863,582603796,0.5396,-1.0747,-0.2192,-29.70,6.95,6.95
864,582608296,0.5337,-1.0591,-0.2261,-30.37,7.74,5.98
865,582613296,0.5088,-1.0459,-0.2314,-30.98,8.66,4.82
866,582618296,0.5142,-1.0356,-0.2334,-31.52,9.70,3.84
867,582623296,0.4888,-1.0098,-0.2417,-31.89,10.85,3.05
868,582628296,0.4561,-1.0107,-0.2476,-31.83,11.77,2.32
869,582633296,0.4756,-0.9697,-0.2275,-31.46,12.93,1.65
870,582638296,0.4458,-0.9595,-0.2290,-31.04,13.96,1.22
871,582643299,0.4404,-0.9507,-0.2344,-30.73,14.88,0.73
872,582648296,0.4380,-0.9346,-0.2339,-30.43,15.85,0.55
873,582653302,0.4248,-0.9102,-0.2383,-30.24,16.77,0.67
874,582658295,0.3970,-0.9082,-0.2329,-30.37,17.44,0.67
875,582663299,0.4004,-0.8979,-0.2275,-31.16,18.48,0.85
876,582668296,0.3857,-0.8833,-0.2236,-32.20,19.45,0.98
877,582673294,0.3760,-0.8730,-0.2173,-33.66,20.30,1.22
878,582678294,0.3740,-0.8589,-0.2217,-35.43,21.10,1.65
879,582683294,0.3633,-0.8315,-0.1919,-37.32,22.38,2.38
880,582688294,0.3579,-0.8281,-0.2202,-39.45,23.54,2.87
881,582693294,0.3477,-0.8213,-0.2173,-41.71,24.51,3.29
882,582698295,0.3315,-0.8110,-0.2007,-43.78,25.55,3.72
883,582703424,0.3320,-0.8135,-0.2158,-45.67,26.52,4.33
884,582708294,0.3433,-0.8013,-0.2212,-47.13,27.32,5.12
885,582713294,0.3467,-0.7812,-0.2188,-47.87,28.17,6.22
886,582718294,0.3315,-0.7676,-0.1914,-48.35,28.96,7.26
887,582723296,0.2939,-0.7725,-0.1929,-48.66,30.06,8.41
888,582728525,0.2876,-0.7695,-0.1982,-49.02,30.98,9.51
889,582733295,0.3174,-0.7583,-0.1821,-49.33,32.01,10.49
890,582738296,0.3071,-0.7583,-0.1870,-49.63,32.99,11.59
891,582743296,0.2632,-0.7754,-0.2261,-50.24,33.66,12.93
892,582748296,0.2393,-0.7837,-0.1436,-50.43,34.09,14.39
893,582753296,0.2192,-0.7778,-0.1348,-49.45,35.37,15.98
894,582758296,0.2832,-0.7495,-0.1597,-47.68,36.52,17.50
895,582763296,0.3110,-0.7725,-0.1616,-46.34,37.32,19.27
896,582768296,0.3145,-0.7412,-0.1816,-47.07,37.56,21.59
897,582773295,0.2896,-0.7402,-0.1982,-48.29,37.20,23.41
898,582778296,0.2749,-0.7520,-0.1831,-49.51,36.71,25.18
899,582783300,0.2832,-0.7437,-0.1475,-50.30,36.28,26.71
900,582788777,0.2783,-0.7085,-0.1040,-51.10,36.40,28.17
901,582793296,0.2578,-0.7012,-0.1484,-51.28,36.46,29.57
902,582798324,0.2285,-0.6929,-0.1372,-51.40,36.71,30.85
903,582803296,0.2437,-0.6958,-0.1167,-51.40,36.95,32.13
904,582808296,0.2266,-0.6743,-0.1260,-52.20,37.01,33.48
905,582813298,0.2178,-0.6865,-0.1279,-53.54,36.95,34.39
906,582818296,0.2231,-0.6802,-0.0596,-54.82,37.80,35.55
907,582823768,0.2075,-0.6655,-0.0444,-56.22,38.78,36.34
908,582828296,0.2065,-0.6724,-0.1138,-57.93,39.63,37.26
909,582833296,0.2310,-0.6719,-0.1528,-59.63,40.00,37.99
910,582838296,0.2173,-0.6719,-0.1465,-61.28,40.49,38.90
911,582843296,0.2036,-0.6899,-0.1309,-62.26,40.55,39.82
912,582848296,0.2207,-0.6816,-0.1309,-63.23,40.43,40.91
913,582853296,0.2241,-0.6929,-0.1621,-63.78,40.61,41.77
914,582858296,0.1978,-0.7031,-0.1216,-64.63,40.73,42.68
915,582863296,0.1738,-0.7075,-0.1079,-65.37,41.52,43.72
916,582868755,0.1826,-0.7021,-0.1147,-66.34,42.38,45.06
917,582873296,0.1816,-0.6934,-0.1235,-67.01,42.93,45.85
918,582878296,0.1768,-0.6904,-0.0840,-68.11,44.02,46.89
919,582883623,0.1343,-0.7080,-0.0864,-69.70,45.85,48.17
920,582888296,0.1328,-0.7212,-0.1245,-71.10,46.83,49.09
921,582893296,0.1323,-0.7212,-0.1128,-72.93,48.48,50.24
922,582898296,0.1177,-0.7202,-0.0835,-75.00,50.12,51.46
923,582903296,0.0923,-0.7231,-0.1094,-76.95,51.77,52.56
924,582908296,0.0947,-0.7183,-0.1343,-79.02,53.29,53.78
925,582913298,0.0874,-0.7178,-0.1196,-81.40,54.94,54.82
926,582918349,0.0747,-0.7124,-0.0977,-83.78,56.59,55.85
927,582923294,0.0571,-0.7100,-0.1108,-86.22,58.23,56.95
928,582928294,0.0527,-0.7124,-0.1221,-88.78,59.63,57.87
929,582933294,0.0669,-0.7021,-0.1035,-91.40,61.34,58.78
930,582938294,0.0776,-0.6870,-0.0967,-94.02,62.68,59.82
931,582943295,0.0479,-0.6938,-0.1147,-96.65,64.09,60.79
932,582948297,0.0552,-0.6919,-0.1167,-99.39,65.37,61.77
933,582953462,0.0522,-0.6904,-0.1064,-103.05,66.77,63.17
934,582958296,0.0249,-0.7031,-0.1021,-105.61,67.80,64.09
935,582963296,0.0396,-0.7021,-0.1162,-108.78,68.96,65.49
936,582968296,0.0425,-0.6997,-0.1167,-112.38,70.12,66.95
937,582973296,0.0356,-0.7065,-0.1016,-116.16,71.28,68.60
938,582978295,0.0171,-0.7207,-0.1079,-120.06,72.50,70.49
939,582983294,0.0103,-0.7393,-0.1260,-124.15,73.17,72.56
940,582988294,0.0332,-0.7383,-0.1113,-128.48,73.90,74.88
941,582993294,0.0405,-0.7485,-0.1011,-132.80,74.76,77.44
942,582998295,0.0146,-0.7559,-0.1099,-137.32,75.24,79.88
943,583003294,0.0381,-0.7593,-0.1201,-141.83,75.61,82.80
944,583008298,0.0215,-0.7710,-0.1206,-147.26,75.98,87.07
945,583013297,0.0405,-0.7646,-0.1235,-151.46,75.91,88.23
946,583018296,0.0244,-0.7739,-0.1230,-155.30,75.67,91.83
947,583023296,0.0303,-0.7700,-0.1411,-158.90,75.18,95.00
948,583028296,0.0454,-0.7593,-0.1392,-162.32,74.51,97.80
949,583033296,0.0249,-0.7539,-0.1353,-165.12,73.90,100.79
950,583038296,0.0137,-0.7588,-0.1489,-167.56,72.93,103.78
951,583043713,0.0293,-0.7485,-0.1631,-169.51,71.83,106.65
952,583048296,0.0020,-0.7573,-0.1665,-171.22,70.73,109.57
953,583053296,0.0190,-0.7578,-0.1665,-172.56,69.63,112.20
954,583058296,-0.0024,-0.7637,-0.1797,-173.84,68.17,114.94
955,583063296,-0.0161,-0.7861,-0.1948,-174.88,66.77,117.93
956,583068296,-0.0171,-0.7998,-0.2007,-175.61,65.06,121.04
957,583073296,-0.0303,-0.8267,-0.2119,-176.28,63.54,124.39
958,583078296,-0.0381,-0.8506,-0.2373,-176.77,61.65,128.17
959,583083296,-0.0317,-0.8721,-0.2437,-177.13,59.76,132.13
960,583088296,-0.0522,-0.8999,-0.2515,-177.26,57.56,136.34
961,583093296,-0.0312,-0.9150,-0.2607,-177.26,55.55,140.85
962,583098296,-0.0576,-0.9414,-0.2769,-176.71,53.78,145.67
963,583103296,-0.0562,-0.9482,-0.2729,-175.85,51.71,150.49
964,583108296,-0.0723,-0.9600,-0.2769,-174.45,50.00,155.43
965,583113330,-0.0615,-0.9531,-0.2886,-172.50,48.17,160.43
966,583118299,-0.0591,-0.9531,-0.3042,-169.94,46.46,165.37
967,583123296,-0.0903,-0.9473,-0.2993,-166.59,44.82,170.24
968,583128296,-0.0864,-0.9336,-0.3066,-162.32,43.29,174.88
969,583133295,-0.0996,-0.9121,-0.3037,-157.62,41.83,179.21
970,583138445,-0.0854,-0.8838,-0.3208,-152.07,40.61,183.35
971,583143296,-0.1177,-0.8652,-0.3188,-145.98,39.57,187.32
972,583148419,-0.1001,-0.8438,-0.3232,-139.15,38.54,190.79
973,583153399,-0.1318,-0.8311,-0.3379,-131.89,37.68,194.21
974,583158394,-0.1133,-0.8198,-0.3462,-124.27,36.89,197.38
975,583163471,-0.1226,-0.8076,-0.3496,-116.46,36.40,200.06
976,583168296,-0.1279,-0.8052,-0.3652,-108.66,35.91,202.56
977,583173642,-0.1533,-0.7905,-0.3784,-100.73,35.91,204.94
978,583178296,-0.1646,-0.7808,-0.3877,-92.87,35.85,207.07
979,583183666,-0.1831,-0.7944,-0.4014,-85.49,35.91,208.96
980,583188296,-0.2070,-0.8081,-0.4185,-78.48,36.28,211.04
981,583193296,-0.2153,-0.8262,-0.4375,-72.20,36.10,212.99
982,583198538,-0.2368,-0.8530,-0.4443,-66.65,36.22,215.37
983,583203358,-0.2524,-0.8652,-0.4487,-62.20,36.46,217.62
984,583208345,-0.2358,-0.8750,-0.4478,-58.54,36.59,220.18
985,583213294,-0.2539,-0.8887,-0.4517,-55.61,36.59,222.93
986,583218294,-0.2412,-0.8735,-0.4351,-53.23,36.71,225.55
987,583223294,-0.2632,-0.8755,-0.4355,-51.28,36.65,228.17
988,583228294,-0.2363,-0.8555,-0.4341,-49.51,36.71,230.67
989,583233294,-0.2583,-0.8398,-0.4302,-47.68,36.28,233.11
990,583238294,-0.2617,-0.8330,-0.4258,-45.79,35.67,235.61
991,583243298,-0.2432,-0.8252,-0.4375,-43.78,34.94,237.87
992,583248424,-0.2676,-0.8369,-0.4453,-41.40,34.09,240.12
993,583253339,-0.2539,-0.8301,-0.4521,-39.02,32.99,242.26
994,583258361,-0.2852,-0.8359,-0.4482,-36.16,31.95,244.45
995,583263442,-0.3145,-0.8364,-0.4595,-32.68,31.52,246.28
996,583268387,-0.3218,-0.8281,-0.4639,-28.41,31.16,248.17
997,583273295,-0.3574,-0.8350,-0.4800,-23.29,30.85,249.88
998,583278294,-0.3545,-0.8291,-0.4932,-17.32,30.85,251.28
999,583283298,-0.4102,-0.8428,-0.5078,-10.49,31.40,252.74
1000,583288294,-0.4575,-0.8643,-0.5225,-3.17,31.71,254.27
1001,583293294,-0.4736,-0.8696,-0.5381,4.45,32.38,255.91
1002,583298295,-0.5229,-0.8857,-0.5444,12.38,33.35,257.68
1003,583303294,-0.5161,-0.8804,-0.5410,21.95,34.76,259.82
1004,583308296,-0.5435,-0.8828,-0.5386,28.35,35.91,261.04
1005,583313294,-0.5439,-0.8818,-0.5469,36.16,37.50,262.68
1006,583318294,-0.5679,-0.8843,-0.5425,43.90,39.21,264.09
1007,583323294,-0.5610,-0.8696,-0.5366,51.34,40.98,265.43
1008,583328294,-0.5845,-0.8760,-0.5371,58.35,42.74,266.59
1009,583333294,-0.5684,-0.8706,-0.5312,64.94,44.51,267.68
1010,583338294,-0.5923,-0.8662,-0.5234,71.34,46.28,268.54
1011,583343294,-0.5874,-0.8594,-0.5186,77.32,47.93,269.33
1012,583348294,-0.6118,-0.8550,-0.5146,83.23,50.06,269.88
1013,583353294,-0.6060,-0.8369,-0.5107,88.96,52.13,270.06
1014,583358294,-0.6377,-0.8379,-0.5161,94.94,54.15,270.00
1015,583363294,-0.6489,-0.8364,-0.5239,100.98,56.28,269.70
1016,583368294,-0.6694,-0.8364,-0.5332,107.01,58.48,269.39
1017,583373294,-0.6929,-0.8350,-0.5361,113.11,60.73,268.72
1018,583378294,-0.7183,-0.8379,-0.5400,119.15,63.11,267.93
1019,583383294,-0.7490,-0.8496,-0.5381,124.63,65.91,266.71
1020,583388294,-0.7793,-0.8525,-0.5312,130.49,68.90,265.49
1021,583393294,-0.7725,-0.8486,-0.5283,134.09,71.95,263.84
1022,583398580,-0.7959,-0.8457,-0.5225,139.09,75.73,261.52
1023,583403296,-0.7827,-0.8433,-0.5220,141.89,78.17,259.88
1024,583408295,-0.8057,-0.8491,-0.5137,145.12,81.28,257.74
1025,583413296,-0.8125,-0.8433,-0.5156,147.87,85.06,254.70
1026,583418296,-0.8096,-0.8467,-0.5239,149.09,86.04,252.44
1027,583423297,-0.8691,-0.8647,-0.5225,149.94,88.90,249.09
1028,583428296,-0.8828,-0.8706,-0.5161,149.76,91.59,245.98
1029,583433296,-0.9126,-0.8867,-0.5137,148.66,93.66,242.93
1030,583438296,-0.9287,-0.8960,-0.5073,146.89,95.67,239.76
1031,583443296,-0.9497,-0.9136,-0.4966,144.63,97.74,236.59
1032,583448296,-0.9370,-0.9082,-0.4766,142.01,99.51,233.41
1033,583453296,-0.9487,-0.9165,-0.4707,139.21,101.22,230.37
1034,583458458,-0.9346,-0.9033,-0.4497,136.77,102.80,227.32
1035,583463467,-0.9209,-0.8838,-0.4380,134.82,104.21,224.02
1036,583468296,-0.9272,-0.8711,-0.4287,132.87,105.55,220.67
1037,583473297,-0.9204,-0.8633,-0.4277,131.28,106.65,217.32
1038,583478295,-0.9019,-0.8491,-0.4141,130.67,107.44,214.02
1039,583483412,-0.9062,-0.8442,-0.3975,129.45,107.93,210.61
1040,583488296,-0.8745,-0.8232,-0.3848,129.51,108.60,207.13
1041,583493296,-0.8867,-0.8218,-0.3770,129.51,108.72,203.54
1042,583498390,-0.8770,-0.8242,-0.3745,129.39,108.90,199.70
1043,583503295,-0.8486,-0.8140,-0.3560,128.96,108.84,196.10
1044,583508294,-0.8516,-0.8164,-0.3477,127.26,108.48,192.38
1045,583513294,-0.8149,-0.7949,-0.3408,126.22,108.11,188.90
1046,583519105,-0.8247,-0.7827,-0.3311,125.18,107.32,184.45
1047,583523296,-0.8179,-0.7847,-0.3267,124.70,106.59,181.40
1048,583528296,-0.8086,-0.7725,-0.3291,124.27,105.67,177.68
1049,583533296,-0.7886,-0.7637,-0.3252,124.02,104.63,173.84
1050,583538698,-0.7759,-0.7490,-0.3242,124.15,103.35,170.12
1051,583543296,-0.7656,-0.7393,-0.3115,124.27,101.89,166.46
1052,583548296,-0.7661,-0.7314,-0.3008,124.51,100.37,162.68
1053,583553296,-0.7612,-0.7222,-0.2959,124.94,98.84,158.84
1054,583558296,-0.7788,-0.7256,-0.2871,125.55,97.13,155.00
1055,583563296,-0.7607,-0.7183,-0.2939,126.16,95.61,151.28
1056,583568296,-0.7607,-0.7231,-0.2837,126.46,93.84,147.68
1057,583573296,-0.7534,-0.7065,-0.2861,126.28,91.83,143.96
1058,583578296,-0.7754,-0.7139,-0.2739,126.40,89.88,140.24
1059,583583296,-0.7578,-0.7109,-0.2739,125.73,87.68,136.83
1060,583588294,-0.7725,-0.7124,-0.2690,125.00,85.79,133.05
1061,583593294,-0.7817,-0.7119,-0.2666,123.84,85.18,129.57
1062,583598297,-0.7681,-0.7085,-0.2656,122.20,82.50,126.10
1063,583603294,-0.7476,-0.6919,-0.2642,120.55,80.30,122.62
1064,583608294,-0.7656,-0.6924,-0.2637,118.54,77.87,119.27
1065,583613295,-0.7705,-0.7036,-0.2666,116.34,75.55,115.73
1066,583618297,-0.7549,-0.6929,-0.2588,113.96,73.17,112.44
1067,583623295,-0.7510,-0.6909,-0.2612,111.16,70.67,109.09
1068,583628295,-0.7603,-0.6895,-0.2510,108.23,68.17,105.91
1069,583633294,-0.7603,-0.6816,-0.2461,105.12,65.91,102.74
1070,583638294,-0.7607,-0.6807,-0.2476,101.77,63.48,99.57
1071,583643294,-0.7632,-0.6772,-0.2466,98.29,60.98,96.52
1072,583648294,-0.7632,-0.6714,-0.2441,95.00,58.72,93.48
1073,583653298,-0.7915,-0.6704,-0.2407,91.28,56.59,90.55
1074,583658434,-0.7866,-0.6689,-0.2334,87.56,54.39,86.95
1075,583663299,-0.8096,-0.6660,-0.2266,83.11,52.07,84.15
1076,583668296,-0.8125,-0.6694,-0.2231,79.82,50.49,81.65
1077,583673296,-0.7876,-0.6621,-0.2212,75.91,48.66,78.60
1078,583678296,-0.8086,-0.6655,-0.2139,72.07,46.83,75.61
1079,583683296,-0.7959,-0.6641,-0.2227,68.11,44.94,72.74
1080,583688298,-0.7856,-0.6523,-0.2217,64.27,43.29,69.88
1081,583693295,-0.8013,-0.6587,-0.2192,60.43,41.46,67.20
1082,583698296,-0.8032,-0.6626,-0.2192,56.10,39.33,63.84
1083,583703296,-0.7817,-0.6572,-0.2158,53.35,38.11,61.71
1084,583708296,-0.7896,-0.6562,-0.2163,50.00,36.40,59.02
1085,583713296,-0.7827,-0.6504,-0.2104,46.34,34.21,56.04
1086,583718296,-0.8022,-0.6562,-0.2070,43.84,32.80,54.09
1087,583723297,-0.7871,-0.6543,-0.2095,40.98,31.22,51.65
1088,583728733,-0.7793,-0.6494,-0.2085,37.62,29.02,48.96
1089,583733297,-0.7886,-0.6543,-0.2046,35.67,27.87,47.13
1090,583738296,-0.7778,-0.6514,-0.2080,33.29,26.16,44.94
1091,583743296,-0.7793,-0.6504,-0.2104,31.16,24.33,42.80
1092,583748296,-0.7676,-0.6528,-0.2119,28.96,22.26,40.37
1093,583753296,-0.7632,-0.6401,-0.2109,27.68,20.85,38.90
1094,583758296,-0.7822,-0.6489,-0.2095,26.28,19.02,36.95
1095,583763296,-0.7729,-0.6440,-0.2090,24.88,17.50,35.12
1096,583768296,-0.7715,-0.6445,-0.2080,23.72,15.18,32.99
