# skilleye imu stream v1
# device=xiao_esp32c6 imu=mpu6050 addr=0x68
# rate_hz=200 accel_range_g=16 gyro_range_dps=2000 dlpf_hz=94
# units: accel in g, gyro in deg/s, t_us in microseconds since boot (monotonic)
# no shared clock with the camera -- tap the racket once before each take
# so both recordings share a spike to align on
seq,t_us,ax,ay,az,gx,gy,gz
0,381244514,0.6270,0.7534,-0.1704,26.59,10.73,2.93
1,381249520,0.6299,0.7554,-0.1655,27.38,10.55,2.93
2,381255012,0.6270,0.7490,-0.1694,27.87,10.37,2.87
3,381259516,0.6299,0.7510,-0.1680,28.23,10.12,2.87
4,381264518,0.6270,0.7466,-0.1743,28.48,10.00,2.93
5,381269516,0.6294,0.7476,-0.1699,28.72,9.76,2.87
6,381274516,0.6226,0.7461,-0.1777,28.96,9.51,2.87
7,381279516,0.6230,0.7480,-0.1729,29.15,9.45,2.80
8,381284516,0.6177,0.7466,-0.1660,29.51,9.27,2.80
9,381289516,0.6206,0.7515,-0.1719,29.63,9.33,2.56
10,381294516,0.6157,0.7500,-0.1670,29.82,9.33,2.44
11,381299516,0.6177,0.7529,-0.1680,29.94,9.39,2.26
12,381304514,0.6172,0.7505,-0.1670,29.94,9.39,1.95
13,381309518,0.6138,0.7490,-0.1699,29.76,9.51,1.77
14,381314515,0.6138,0.7524,-0.1689,29.51,9.70,1.59
15,381319516,0.6133,0.7510,-0.1646,29.09,9.70,1.40
16,381324516,0.6113,0.7490,-0.1709,28.29,10.12,1.22
17,381329514,0.6128,0.7505,-0.1768,27.44,10.30,1.10
18,381334516,0.6113,0.7446,-0.1680,26.40,10.37,0.73
19,381339517,0.6128,0.7490,-0.1699,25.18,10.43,0.67
20,381344516,0.6143,0.7461,-0.1650,23.72,10.55,0.49
21,381349514,0.6147,0.7466,-0.1689,22.20,10.73,0.30
22,381354515,0.6167,0.7446,-0.1665,20.67,10.79,0.12
23,381359516,0.6162,0.7437,-0.1626,19.02,11.04,0.06
24,381364514,0.6147,0.7397,-0.1636,17.62,11.10,-0.12
25,381369516,0.6172,0.7422,-0.1592,16.10,11.04,-0.12
26,381374516,0.6182,0.7441,-0.1646,14.88,11.10,-0.12
27,381379516,0.6152,0.7471,-0.1646,13.72,11.10,-0.12
28,381384514,0.6162,0.7495,-0.1577,12.99,11.10,-0.12
29,381389516,0.6191,0.7471,-0.1528,12.20,11.16,-0.06
30,381394515,0.6206,0.7534,-0.1562,11.65,11.10,0.00
31,381399518,0.6206,0.7490,-0.1562,11.40,10.98,0.06
32,381404514,0.6230,0.7568,-0.1519,11.16,10.73,0.06
33,381409516,0.6211,0.7563,-0.1509,11.10,10.61,0.06
34,381414515,0.6284,0.7573,-0.1509,11.04,10.43,0.18
35,381419516,0.6226,0.7549,-0.1514,10.85,10.24,0.18
36,381424514,0.6196,0.7563,-0.1465,10.73,9.88,0.24
37,381429516,0.6211,0.7588,-0.1445,10.55,9.63,0.30
38,381434564,0.6182,0.7612,-0.1436,10.18,9.21,0.43
39,381439514,0.6196,0.7637,-0.1411,9.94,8.90,0.61
40,381444516,0.6201,0.7612,-0.1426,9.45,8.66,0.73
41,381449516,0.6201,0.7661,-0.1460,8.78,7.99,0.85
42,381454516,0.6177,0.7588,-0.1387,7.99,7.74,0.98
43,381459516,0.6157,0.7559,-0.1387,7.13,7.07,1.16
44,381464515,0.6074,0.7563,-0.1406,6.28,6.65,1.34
45,381469516,0.6064,0.7603,-0.1514,5.30,6.04,1.65
46,381474516,0.6011,0.7622,-0.1440,4.15,5.30,1.83
47,381479516,0.6011,0.7646,-0.1470,3.29,4.94,1.89
48,381484551,0.5928,0.7686,-0.1484,2.38,4.33,1.95
49,381489516,0.5923,0.7764,-0.1455,1.77,3.66,1.95
50,381494514,0.5884,0.7827,-0.1504,1.16,3.35,1.95
51,381499516,0.5688,0.8252,-0.1826,0.91,2.20,1.52
52,381504515,0.6016,0.7847,-0.1289,0.91,1.59,0.98
53,381509516,0.6172,0.7622,-0.1094,0.61,1.16,1.16
54,381514514,0.6006,0.7520,-0.1377,0.24,0.85,1.16
55,381519516,0.5752,0.7612,-0.1660,-0.30,0.12,1.28
56,381524516,0.5742,0.7720,-0.1494,-1.34,-0.67,1.04
57,381529516,0.5854,0.7842,-0.1421,-2.56,-1.40,0.67
58,381534514,0.5918,0.7939,-0.1660,-3.96,-2.32,0.30
59,381539516,0.5903,0.7915,-0.1680,-5.61,-3.05,-0.06
60,381544515,0.5728,0.7910,-0.1582,-7.44,-3.78,-0.37
61,381549516,0.5659,0.7856,-0.1533,-9.15,-4.51,-0.91
62,381554516,0.5684,0.7866,-0.1670,-11.40,-5.18,-1.52
63,381559516,0.5713,0.7896,-0.1558,-13.78,-5.91,-2.20
64,381564515,0.5684,0.8013,-0.1382,-16.40,-6.46,-2.87
65,381569516,0.5649,0.8047,-0.1367,-19.33,-6.77,-3.78
66,381574514,0.5557,0.8145,-0.1392,-22.50,-7.13,-4.63
67,381579516,0.5522,0.8135,-0.1357,-26.22,-7.50,-5.49
68,381584515,0.5464,0.8086,-0.1328,-30.12,-7.68,-6.40
69,381589516,0.5444,0.7983,-0.1382,-34.39,-8.05,-7.32
70,381594514,0.5420,0.7944,-0.1509,-39.02,-8.78,-8.11
71,381599516,0.5508,0.7954,-0.1392,-44.21,-9.45,-9.09
72,381604515,0.5200,0.8521,-0.1318,-50.00,-10.12,-10.43
73,381609516,0.5337,0.8359,-0.1123,-56.46,-10.55,-12.01
74,381614516,0.5200,0.8721,-0.1470,-63.54,-11.46,-13.60
75,381619516,0.5103,0.8403,-0.0718,-72.50,-12.13,-15.61
76,381624515,0.3062,0.8677,0.0562,-82.80,-11.46,-17.87
77,381629516,0.3525,0.7773,-0.1147,-94.45,-11.28,-20.24
78,381634514,0.3857,0.7588,-0.2290,-105.43,-12.32,-22.07
79,381639516,0.5293,0.7837,-0.1572,-116.10,-13.72,-23.54
80,381644515,0.5386,0.7798,-0.1309,-126.52,-14.94,-24.94
81,381649514,0.6577,0.7705,-0.0640,-136.71,-15.37,-26.16
82,381654516,0.6694,0.7817,-0.0601,-146.77,-15.43,-27.01
83,381659973,0.5542,0.8003,-0.0552,-156.16,-15.37,-28.05
84,381664516,0.4385,0.8354,-0.0898,-164.45,-15.49,-29.21
85,381669516,0.4258,0.8208,-0.1006,-171.71,-16.10,-30.91
86,381674516,0.4434,0.8281,-0.0791,-178.17,-16.46,-32.38
87,381679517,0.4521,0.8374,-0.0029,-183.84,-16.22,-33.84
88,381684516,0.4624,0.8516,-0.0151,-188.48,-15.91,-35.06
89,381689593,0.4688,0.8662,-0.0586,-192.38,-15.98,-36.34
90,381694515,0.4634,0.8750,-0.0527,-195.37,-16.16,-37.50
91,381699516,0.4536,0.8789,-0.0093,-197.56,-16.04,-38.54
92,381704514,0.4468,0.8618,0.0024,-199.45,-15.85,-39.70
93,381709516,0.4351,0.8340,-0.0098,-200.85,-15.49,-40.37
94,381714516,0.4097,0.8677,-0.0015,-201.77,-15.18,-41.04
95,381719514,0.3892,0.8667,0.0347,-201.65,-14.57,-41.71
96,381724516,0.3984,0.8823,0.0288,-200.85,-13.90,-42.38
97,381729514,0.3926,0.8857,0.0352,-199.57,-13.29,-42.80
98,381734705,0.3770,0.8872,0.0684,-198.05,-12.32,-43.29
99,381739516,0.3887,0.8735,0.0688,-196.10,-11.34,-43.54
100,381744514,0.3999,0.8740,0.0562,-193.66,-10.67,-43.90
101,381749514,0.4219,0.8682,0.0498,-190.98,-10.24,-44.02
102,381754787,0.4116,0.8525,0.0776,-187.80,-9.63,-44.09
103,381759517,0.4053,0.8550,0.0938,-184.39,-8.96,-43.84
104,381764516,0.4170,0.8540,0.0703,-180.30,-8.48,-43.54
105,381769516,0.4199,0.8579,0.0542,-175.91,-8.29,-43.11
106,381774516,0.4028,0.8608,0.0747,-170.91,-7.99,-42.62
107,381779514,0.4072,0.8618,0.0977,-165.61,-7.99,-41.89
108,381784516,0.4263,0.8535,0.1079,-159.88,-7.68,-41.22
109,381789515,0.4292,0.8530,0.1167,-153.96,-7.44,-40.43
110,381794516,0.4111,0.8584,0.1362,-147.74,-7.13,-39.45
111,381799518,0.3921,0.8633,0.1372,-141.22,-6.77,-38.35
112,381804515,0.3931,0.8701,0.1367,-134.51,-6.65,-37.44
113,381809516,0.4053,0.8784,0.1567,-127.87,-6.59,-36.52
114,381814514,0.4014,0.8823,0.1904,-121.10,-6.52,-35.67
115,381819516,0.3872,0.8833,0.1807,-114.33,-6.28,-34.76
116,381824515,0.3696,0.8833,0.1655,-107.80,-6.28,-33.96
117,381829516,0.3628,0.8770,0.1807,-101.77,-6.52,-32.99
118,381834516,0.3735,0.8726,0.2280,-96.22,-6.46,-32.20
119,381839514,0.3799,0.8667,0.2261,-91.22,-6.34,-31.28
120,381844514,0.3521,0.8662,0.1787,-86.77,-6.89,-30.30
121,381849514,0.3721,0.8735,0.1914,-82.80,-7.50,-29.76
122,381854517,0.4170,0.8604,0.2266,-79.51,-7.99,-28.78
123,381859518,0.4106,0.8672,0.1846,-77.07,-9.02,-27.80
124,381864516,0.4385,0.8608,0.1919,-74.82,-10.30,-27.13
125,381869516,0.4619,0.8521,0.2241,-73.11,-11.65,-26.34
126,381874515,0.4336,0.8472,0.2114,-71.77,-12.68,-25.55
127,381879516,0.4424,0.8452,0.2183,-70.67,-14.09,-24.94
128,381884514,0.4546,0.8428,0.2388,-69.63,-15.55,-24.21
129,381889517,0.4609,0.8408,0.2515,-68.60,-16.65,-23.29
130,381894515,0.4438,0.8447,0.2363,-67.56,-17.99,-22.56
131,381899516,0.4531,0.8433,0.2451,-66.65,-19.27,-21.71
132,381904516,0.4624,0.8364,0.2642,-65.73,-20.67,-20.91
133,381909514,0.4453,0.8354,0.2837,-65.06,-21.83,-20.06
134,381914516,0.4316,0.8389,0.2783,-64.21,-23.05,-19.15
135,381919516,0.4204,0.8369,0.2812,-63.35,-24.21,-17.99
136,381924517,0.4219,0.8403,0.2964,-62.44,-25.61,-17.26
137,381929515,0.4819,0.8950,0.2144,-61.16,-27.44,-16.46
138,381934516,0.6411,0.8945,0.1660,-58.17,-31.28,-16.52
139,381939516,0.5850,0.7808,0.4204,-55.49,-33.96,-15.55
140,381944516,0.4824,0.8203,0.3169,-53.11,-35.30,-13.90
141,381949517,0.4648,0.8877,0.2402,-49.21,-37.80,-12.93
142,381954516,0.5352,0.8936,0.2632,-45.06,-40.85,-12.50
143,381959516,0.6021,0.9150,0.2207,-40.43,-44.33,-12.26
144,381964517,0.5767,0.8789,0.3564,-36.10,-48.11,-12.32
145,381969515,0.5044,0.8086,0.4258,-31.46,-51.04,-11.34
146,381974517,0.3945,0.8076,0.3853,-26.22,-53.23,-9.70
147,381979514,0.3076,0.8433,0.3804,-20.85,-54.63,-7.87
148,381984516,0.2827,0.8765,0.4272,-15.61,-55.24,-6.65
149,381989516,0.2988,0.8926,0.4087,-10.85,-55.37,-5.55
150,381994516,0.3032,0.9102,0.3501,-6.65,-55.91,-4.63
151,381999515,0.3179,0.9263,0.3403,-3.23,-56.65,-3.90
152,382004516,0.3232,0.9453,0.3696,-0.24,-56.89,-3.29
153,382009516,0.3188,0.9575,0.3423,2.20,-57.32,-2.87
154,382014516,0.3403,0.9492,0.3037,4.21,-57.93,-2.50
155,382019517,0.3325,0.9507,0.3374,5.61,-58.35,-2.32
156,382024516,0.3311,0.9326,0.3667,6.59,-58.35,-1.89
157,382029516,0.3184,0.9023,0.3525,7.20,-58.11,-1.28
158,382034516,0.3198,0.9419,0.2974,7.44,-57.99,-0.37
159,382039516,0.3271,0.9883,0.3267,7.38,-57.99,0.12
160,382044515,0.3574,0.9707,0.3545,7.07,-57.74,0.24
161,382049516,0.3833,0.9443,0.3154,6.22,-57.38,0.73
162,382054515,0.3970,0.9351,0.2871,5.18,-57.56,1.34
163,382059516,0.4023,0.9346,0.3120,3.66,-57.50,2.13
164,382064514,0.4116,0.9404,0.3301,2.07,-57.38,2.93
165,382069589,0.4160,0.9521,0.3022,0.49,-57.38,3.66
166,382074515,0.4160,0.9556,0.3052,-0.98,-57.44,4.45
167,382079516,0.4282,0.9517,0.3335,-2.20,-57.32,5.18
168,382084514,0.4487,0.9375,0.3271,-3.35,-57.07,5.85
169,382089516,0.4668,0.9272,0.3057,-3.84,-57.13,6.52
170,382094516,0.4829,0.9136,0.3159,-4.21,-57.26,7.26
171,382099518,0.5039,0.9077,0.3315,-4.15,-57.20,8.05
172,382104516,0.5396,0.8994,0.3267,-3.54,-57.32,8.78
173,382109516,0.5659,0.8936,0.3076,-2.26,-57.56,9.76
174,382114516,0.5771,0.8877,0.3218,-0.30,-57.62,10.73
175,382119840,0.5781,0.8955,0.3413,2.62,-57.50,11.65
176,382124517,0.5796,0.8950,0.3379,6.10,-57.20,12.32
177,382129578,0.5947,0.8823,0.3345,9.94,-56.77,13.05
178,382134516,0.6050,0.8799,0.3394,14.02,-56.10,14.02
179,382139545,0.6108,0.8882,0.3506,18.23,-55.30,14.82
180,382144516,0.6177,0.9004,0.3247,22.32,-54.57,15.55
181,382149514,0.6133,0.9111,0.3169,26.16,-53.90,15.91
182,382154515,0.5986,0.9072,0.3521,29.70,-52.74,16.28
183,382159516,0.5933,0.9097,0.3589,32.74,-51.40,16.22
184,382164517,0.5894,0.9116,0.3364,35.49,-50.12,15.73
185,382169514,0.5991,0.9028,0.3301,37.62,-49.02,15.18
186,382174516,0.6006,0.8867,0.3418,39.15,-47.99,14.57
187,382179521,0.6099,0.8740,0.3413,40.49,-46.83,13.78
188,382184518,0.6074,0.8804,0.3296,41.28,-45.79,13.11
189,382189515,0.5938,0.8848,0.3403,41.89,-44.76,12.01
190,382194519,0.6021,0.8667,0.3462,42.44,-43.60,11.22
191,382199517,0.6187,0.8545,0.3228,42.13,-42.56,10.30
192,382204691,0.6567,0.8530,0.3140,41.40,-41.46,9.33
193,382209516,0.6860,0.8901,0.3125,40.37,-40.49,8.05
194,382214515,0.7134,0.8779,0.3096,39.27,-39.76,6.52
195,382219516,0.7197,0.8643,0.2935,37.74,-38.90,4.94
196,382224516,0.7441,0.8086,0.2749,35.91,-38.48,3.48
197,382229516,0.7729,0.8003,0.2681,34.21,-38.11,2.44
198,382234516,0.7944,0.7935,0.2646,32.26,-37.80,1.40
199,382239514,0.7930,0.8105,0.2656,30.61,-37.38,0.43
200,382244514,0.7910,0.7959,0.2559,29.09,-37.01,-0.61
201,382249518,0.7778,0.7812,0.2603,27.62,-36.59,-1.59
202,382254515,0.7666,0.7637,0.2681,26.40,-36.10,-2.56
203,382259516,0.7681,0.7510,0.2554,25.12,-35.67,-3.48
204,382264515,0.7563,0.7451,0.2632,23.90,-35.06,-4.27
205,382269516,0.7461,0.7388,0.2593,22.87,-34.21,-5.24
206,382274518,0.7295,0.7275,0.2607,21.89,-33.23,-6.04
207,382279516,0.7139,0.7183,0.2524,21.16,-32.20,-6.77
208,382284516,0.6978,0.7227,0.2603,20.85,-30.85,-7.44
209,382289516,0.6812,0.7236,0.2529,20.79,-29.33,-8.11
210,382294518,0.6743,0.7329,0.2568,20.98,-27.87,-8.90
211,382299516,0.6680,0.7363,0.2529,21.34,-26.10,-9.57
212,382304516,0.6606,0.7397,0.2456,22.01,-24.51,-10.12
213,382309610,0.6548,0.7520,0.2388,22.68,-22.74,-10.85
214,382314516,0.6416,0.7378,0.2285,23.23,-21.10,-11.16
215,382319519,0.6416,0.7402,0.2178,23.90,-19.51,-11.34
216,382324516,0.6387,0.7378,0.2241,24.57,-18.29,-11.22
217,382329516,0.6387,0.7339,0.2139,25.18,-16.95,-10.73
218,382334516,0.6245,0.7427,0.2183,25.79,-15.67,-10.00
219,382339516,0.6191,0.7476,0.2139,26.28,-14.27,-9.33
220,382344515,0.6016,0.7568,0.2139,26.52,-12.99,-8.35
221,382349516,0.5898,0.7563,0.2148,26.59,-11.77,-7.44
222,382354515,0.5693,0.7681,0.2119,26.46,-10.43,-6.46
223,382359516,0.5522,0.7749,0.2139,25.98,-9.09,-5.61
224,382364515,0.5366,0.7808,0.2183,25.18,-7.99,-4.82
225,382369518,0.5337,0.7856,0.2056,24.09,-6.71,-4.15
226,382374515,0.5483,0.8003,0.2012,22.68,-5.55,-3.48
227,382379516,0.5498,0.8174,0.1846,21.34,-4.45,-3.11
228,382384516,0.5566,0.8330,0.1904,19.88,-3.54,-2.93
229,382389516,0.5542,0.8467,0.1904,18.90,-2.44,-2.87
230,382394516,0.5425,0.8623,0.1963,17.93,-1.52,-2.68
231,382399517,0.5503,0.8716,0.1768,17.38,-0.49,-2.50
232,382404515,0.5527,0.8882,0.1763,17.01,0.61,-2.32
233,382409516,0.5493,0.8994,0.1685,16.65,1.52,-2.01
234,382414516,0.5435,0.9067,0.1567,16.04,2.32,-1.52
235,382419516,0.5415,0.9136,0.1499,15.30,2.93,-1.22
236,382424515,0.5273,0.9136,0.1558,14.33,3.41,-0.73
237,382429514,0.5146,0.9194,0.1841,13.17,4.33,-0.24
238,382434516,0.5195,0.9189,0.1719,11.83,5.43,0.30
239,382439660,0.5181,0.9204,0.1587,10.49,5.98,0.91
240,382444516,0.5127,0.9229,0.1602,9.27,6.52,1.40
241,382449516,0.5083,0.9248,0.1763,7.99,7.26,1.89
242,382454516,0.5059,0.9199,0.1797,6.65,7.99,2.26
243,382459516,0.5005,0.9238,0.1694,5.61,8.72,2.87
244,382464516,0.4995,0.9214,0.1733,4.45,9.33,3.11
245,382469516,0.5010,0.9189,0.1709,3.54,10.12,3.66
246,382474517,0.5063,0.9194,0.1748,2.62,10.79,3.96
247,382479516,0.5107,0.9233,0.1802,1.83,11.40,4.27
248,382484515,0.5137,0.9248,0.1807,1.16,11.83,4.39
249,382489516,0.5127,0.9224,0.1831,0.79,12.80,4.70
250,382494515,0.5078,0.9253,0.1846,0.37,13.54,4.88
251,382499516,0.4995,0.9229,0.1851,0.30,14.15,5.18
252,382504516,0.5000,0.9209,0.1831,0.30,14.88,5.55
253,382509515,0.4966,0.9185,0.1831,0.18,15.67,5.79
254,382514516,0.4922,0.9175,0.1846,0.43,16.34,6.16
255,382519516,0.4912,0.9175,0.1875,0.55,16.95,6.52
256,382524516,0.4893,0.9165,0.1855,0.55,17.56,6.83
257,382529516,0.4873,0.9136,0.1875,0.55,18.23,7.26
258,382534515,0.4844,0.9102,0.1924,0.55,18.84,7.68
259,382539516,0.4780,0.9062,0.1904,0.49,19.33,7.93
260,382544515,0.4761,0.9014,0.1855,0.12,19.70,8.35
261,382549516,0.4761,0.8916,0.1938,-0.61,20.24,8.78
262,382554515,0.4766,0.8867,0.1938,-1.28,20.79,9.02
263,382559514,0.4683,0.8833,0.2002,-2.20,21.10,9.33
264,382564516,0.4653,0.8755,0.2036,-3.11,21.34,9.51
265,382569516,0.4673,0.8711,0.2002,-4.33,21.59,9.57
266,382574515,0.4663,0.8716,0.1953,-5.67,21.59,9.57
267,382579516,0.4678,0.8647,0.1992,-6.95,21.71,9.57
268,382584515,0.4678,0.8579,0.2075,-8.17,21.71,9.57
269,382589516,0.4668,0.8555,0.2153,-9.33,21.59,9.45
270,382594515,0.4624,0.8638,0.2046,-10.37,21.46,9.21
271,382599516,0.4624,0.8604,0.2197,-11.22,21.40,8.84
272,382604515,0.4595,0.8535,0.2300,-11.89,21.28,8.72
273,382609659,0.4502,0.8496,0.2256,-12.62,21.16,8.35
274,382614515,0.4429,0.8481,0.2402,-12.80,20.98,8.17
275,382619516,0.4473,0.8486,0.2373,-12.99,20.73,7.80
276,382624515,0.4473,0.8379,0.2407,-12.99,20.37,7.56
277,382629516,0.4414,0.8350,0.2456,-12.62,20.24,7.44
278,382634515,0.4458,0.8384,0.2529,-12.13,20.06,7.01
279,382639516,0.4463,0.8276,0.2612,-11.52,19.88,6.65
280,382644519,0.4434,0.8291,0.2622,-10.91,19.39,6.34
281,382649518,0.4419,0.8271,0.2666,-10.00,19.09,5.85
282,382654515,0.4424,0.8320,0.2666,-9.21,19.09,5.49
283,382659516,0.4561,0.8364,0.2656,-8.48,18.60,4.94
284,382664515,0.4409,0.8438,0.3086,-7.50,18.41,4.39
285,382669516,0.4355,0.8398,0.2793,-6.10,17.93,4.02
286,382674515,0.4336,0.8408,0.2661,-5.06,17.50,3.48
287,382679514,0.4375,0.8428,0.2739,-4.33,17.07,2.87
288,382684516,0.4409,0.8477,0.2725,-3.78,16.46,2.44
289,382689515,0.4258,0.8506,0.2686,-3.17,15.91,2.01
290,382694514,0.4170,0.8496,0.2715,-2.50,15.12,1.59
291,382699516,0.4131,0.8516,0.2734,-2.13,14.57,1.28
292,382704514,0.4058,0.8521,0.2705,-1.77,13.96,1.04
293,382709564,0.4097,0.8569,0.2671,-1.40,13.23,0.79
294,382714523,0.4146,0.8604,0.2764,-1.10,12.56,0.55
295,382719516,0.4160,0.8628,0.2759,-0.67,11.95,0.30
296,382724516,0.4131,0.8628,0.2764,-0.37,11.46,0.12
297,382729516,0.4155,0.8618,0.2773,0.00,10.67,0.00
298,382734517,0.4131,0.8579,0.2842,0.12,10.06,0.00
299,382739901,0.4087,0.8550,0.2803,0.61,9.45,0.00
300,382744516,0.4092,0.8545,0.2783,0.85,9.09,-0.06
301,382749517,0.4092,0.8535,0.2764,1.22,8.54,0.06
302,382754516,0.4106,0.8545,0.2744,1.77,8.11,0.18
303,382759516,0.4092,0.8491,0.2690,2.20,7.68,0.37
304,382764516,0.4146,0.8457,0.2695,2.74,7.26,0.55
305,382769516,0.4160,0.8501,0.2734,3.23,6.83,1.10
306,382774516,0.4150,0.8486,0.2695,3.96,6.52,1.34
307,382779516,0.4214,0.8550,0.2690,4.57,6.22,1.83
308,382784514,0.4253,0.8540,0.2729,5.18,5.98,2.20
309,382789516,0.4243,0.8604,0.2739,5.98,5.67,2.80
310,382794516,0.4321,0.8569,0.2773,6.83,5.43,3.35
311,382799516,0.4521,0.8628,0.2852,7.74,5.12,3.90
312,382804516,0.4673,0.8594,0.2822,8.90,4.94,4.51
313,382809516,0.4653,0.8691,0.2705,9.94,4.57,5.00
314,382814516,0.4727,0.8682,0.2783,10.98,4.27,5.43
315,382819516,0.4751,0.8647,0.2710,12.07,3.78,5.79
316,382824516,0.4902,0.8633,0.2720,12.87,3.41,6.10
317,382829516,0.4966,0.8608,0.2700,13.66,2.99,6.22
318,382834549,0.5044,0.8633,0.2817,14.21,2.56,6.22
319,382839516,0.5103,0.8560,0.3027,14.33,2.26,6.34
320,382844516,0.5166,0.8545,0.2812,13.90,2.01,6.16
321,382849516,0.5127,0.8623,0.2646,13.35,1.52,5.91
322,382854517,0.5308,0.8618,0.2598,12.74,1.10,5.73
323,382859516,0.5352,0.8594,0.2627,12.32,0.55,5.49
324,382864516,0.5410,0.8618,0.2603,12.26,0.24,5.12
325,382869516,0.5503,0.8672,0.2627,12.38,-0.12,4.82
326,382874516,0.5498,0.8721,0.2681,12.50,-0.49,4.57
327,382879516,0.5508,0.8638,0.2715,12.87,-0.85,4.39
328,382884517,0.5571,0.8623,0.2671,13.29,-0.98,4.27
329,382889514,0.5601,0.8574,0.2671,13.66,-1.16,4.09
330,382894516,0.5688,0.8555,0.2681,14.15,-1.28,3.84
331,382899516,0.5732,0.8579,0.2700,14.39,-1.52,3.48
332,382904515,0.5776,0.8564,0.2744,14.70,-1.65,3.41
333,382909516,0.5815,0.8511,0.2803,14.94,-1.77,3.05
334,382914515,0.5864,0.8467,0.2832,15.24,-2.13,2.87
335,382919516,0.5840,0.8374,0.2886,15.30,-2.20,2.68
336,382924515,0.5830,0.8369,0.2837,15.30,-2.26,2.62
337,382929516,0.5850,0.8267,0.2930,15.18,-2.68,2.56
338,382934515,0.5845,0.8198,0.2925,14.94,-2.93,2.62
339,382939516,0.5908,0.8140,0.2896,14.57,-3.35,2.50
340,382944515,0.5913,0.8101,0.2930,14.02,-3.54,2.68
341,382949516,0.5928,0.8091,0.2900,13.60,-3.72,2.80
342,382954515,0.5957,0.8008,0.2905,13.05,-4.09,2.99
343,382959516,0.5938,0.7949,0.2969,12.62,-4.27,3.35
344,382964515,0.5981,0.7886,0.2969,12.44,-4.51,3.54
345,382969514,0.6055,0.7886,0.2964,12.13,-4.76,3.96
346,382974514,0.6094,0.7871,0.3018,12.13,-4.70,4.39
347,382979516,0.6104,0.7866,0.3047,12.20,-4.82,4.76
348,382984515,0.6152,0.7876,0.2988,12.26,-5.00,5.06
349,382989528,0.6187,0.7852,0.2969,12.32,-5.37,5.37
350,382994516,0.6255,0.7866,0.2979,12.50,-5.49,5.73
351,382999516,0.6279,0.7866,0.2959,12.50,-5.55,5.98
352,383004516,0.6289,0.7881,0.3003,12.68,-5.55,6.10
353,383009516,0.6343,0.7905,0.2959,12.74,-5.98,6.28
354,383014515,0.6396,0.7861,0.3037,12.62,-6.04,6.40
355,383019516,0.6455,0.7939,0.2891,12.44,-6.10,6.46
356,383024515,0.6562,0.7891,0.2881,12.07,-6.40,6.34
357,383029516,0.6631,0.7896,0.2837,11.59,-6.59,6.10
358,383034515,0.6729,0.7915,0.2793,10.91,-6.89,5.49
359,383039516,0.6777,0.7969,0.2808,9.94,-7.20,5.06
360,383044515,0.6816,0.7949,0.2778,9.27,-7.50,4.39
361,383049516,0.6929,0.8062,0.2852,8.60,-7.74,3.60
362,383054515,0.7075,0.8110,0.2817,8.11,-8.05,2.62
363,383059516,0.7158,0.8188,0.2832,7.68,-8.35,1.83
364,383064515,0.7207,0.8315,0.2754,7.56,-8.72,0.85
365,383069516,0.7144,0.8369,0.2773,7.74,-9.02,-0.06
366,383074515,0.7129,0.8438,0.2690,8.17,-9.39,-0.79
367,383079518,0.7153,0.8516,0.2812,9.02,-9.51,-1.52
368,383084516,0.7129,0.8560,0.2705,10.30,-9.76,-2.13
369,383089514,0.7134,0.8643,0.2705,11.95,-10.00,-2.50
370,383094516,0.7085,0.8691,0.2700,13.78,-10.30,-2.87
371,383099516,0.7090,0.8726,0.2661,15.85,-10.43,-2.99
372,383104515,0.6982,0.8755,0.2720,18.17,-10.43,-3.17
373,383109518,0.7002,0.8770,0.2690,20.67,-10.55,-3.05
374,383114516,0.7017,0.8823,0.2681,23.11,-10.61,-2.93
375,383119516,0.6914,0.8848,0.2593,25.79,-10.55,-2.50
376,383124515,0.6870,0.8843,0.2490,28.48,-10.61,-2.13
377,383129516,0.6748,0.8882,0.2461,31.34,-10.55,-1.65
378,383134515,0.6572,0.8911,0.2314,34.63,-10.43,-0.85
379,383139516,0.6597,0.9014,0.2134,38.72,-10.49,0.12
380,383144515,0.6489,0.8906,0.1904,43.72,-10.18,1.22
381,383149516,0.6382,0.8940,0.1948,49.45,-10.12,2.74
382,383154515,0.6260,0.8877,0.1865,55.67,-9.82,4.51
383,383159516,0.5864,0.8857,0.1763,61.83,-9.45,6.52
384,383164515,0.5674,0.8887,0.1572,67.32,-9.02,8.66
385,383169516,0.5742,0.9028,0.1504,72.56,-8.48,10.37
386,383174515,0.6104,0.9062,0.1606,77.62,-7.99,12.13
387,383179572,0.6616,0.9033,0.1660,81.95,-7.38,13.84
388,383184515,0.6870,0.9028,0.1738,85.67,-6.65,15.43
389,383189517,0.6909,0.8945,0.1641,88.41,-5.73,17.01
390,383194519,0.6870,0.9019,0.1421,89.70,-5.12,18.54
391,383199516,0.6719,0.8960,0.1187,89.63,-4.94,20.12
392,383204515,0.6543,0.8950,0.1123,88.11,-4.76,21.59
393,383209516,0.6484,0.8887,0.0991,85.55,-4.76,23.05
394,383214515,0.6533,0.8809,0.0859,82.38,-4.70,24.33
395,383219517,0.6616,0.8838,0.0845,78.66,-4.51,25.67
396,383224515,0.6689,0.8809,0.0776,74.63,-4.57,26.77
397,383229516,0.6821,0.8706,0.0786,70.55,-4.33,27.80
398,383234515,0.6890,0.8657,0.0762,66.71,-4.09,28.78
399,383239516,0.7017,0.8574,0.0742,62.93,-3.72,29.33
400,383244515,0.6943,0.8550,0.0708,59.51,-3.35,30.24
401,383249516,0.6938,0.8486,0.0566,56.46,-2.99,31.04
402,383254516,0.6997,0.8442,0.0547,53.66,-2.56,31.71
403,383259903,0.7100,0.8320,0.0454,50.98,-1.71,32.62
404,383264516,0.7075,0.8301,0.0522,49.33,-1.16,32.99
405,383269516,0.7188,0.8247,0.0474,47.68,-0.43,33.78
406,383274516,0.7222,0.8208,0.0342,46.22,0.30,34.45
407,383279517,0.7275,0.8154,0.0303,45.00,1.04,34.76
408,383284516,0.7236,0.8057,0.0205,43.78,1.83,35.30
409,383289516,0.7222,0.8003,0.0156,42.80,2.74,35.79
410,383294516,0.7217,0.7954,0.0093,41.89,3.54,36.22
411,383299515,0.7241,0.7817,0.0020,41.04,4.21,36.52
412,383304516,0.7246,0.7720,-0.0049,40.55,5.18,36.83
413,383309516,0.7290,0.7695,-0.0151,40.06,5.79,37.20
414,383314516,0.7344,0.7607,-0.0112,39.82,6.83,37.38
415,383319515,0.7397,0.7554,-0.0112,39.88,7.50,37.38
416,383324516,0.7476,0.7446,-0.0078,40.30,8.48,37.32
417,383329516,0.7383,0.7393,-0.0107,40.91,9.33,37.38
418,383334516,0.7310,0.7324,-0.0034,41.89,10.24,37.26
419,383339515,0.7036,0.7412,0.0063,42.74,11.10,37.07
420,383344516,0.6948,0.7505,0.0220,43.78,11.89,37.01
421,383349516,0.6982,0.7759,0.0410,45.00,12.68,36.95
422,383354516,0.7139,0.7837,0.0361,46.40,13.48,37.13
423,383359515,0.7222,0.7715,0.0298,48.05,14.15,37.68
424,383364516,0.7241,0.7485,0.0005,49.76,14.57,38.23
425,383369516,0.7163,0.7163,-0.0254,51.83,14.94,38.84
426,383374516,0.7129,0.6919,-0.0566,54.21,15.12,39.57
427,383379515,0.7114,0.6709,-0.0610,56.89,15.24,39.88
428,383384516,0.7046,0.6621,-0.0728,59.94,15.61,40.49
429,383389516,0.7031,0.6592,-0.0835,63.35,15.91,40.79
430,383394516,0.7070,0.6660,-0.1016,67.26,16.04,41.34
431,383399514,0.7207,0.6489,-0.1182,71.40,16.40,41.71
432,383404516,0.7300,0.6475,-0.1367,75.73,16.40,42.13
433,383409516,0.7407,0.6484,-0.1504,79.94,16.65,42.68
434,383414516,0.7520,0.6475,-0.1821,84.57,16.71,43.17
435,383419673,0.7563,0.6455,-0.2031,90.06,17.07,43.84
436,383424516,0.7471,0.6479,-0.2114,93.78,17.44,44.39
437,383429516,0.7212,0.6377,-0.1978,98.41,17.80,45.12
438,383434516,0.7109,0.6240,-0.2373,102.68,18.66,46.16
439,383439515,0.7212,0.6504,-0.2515,106.10,19.27,47.01
440,383444517,0.7329,0.6372,-0.2319,109.09,19.88,47.87
441,383449516,0.7188,0.6167,-0.2300,112.26,20.79,48.96
442,383454515,0.7031,0.6177,-0.2266,113.96,21.28,49.76
443,383459681,0.7041,0.6240,-0.2461,115.73,22.38,50.79
444,383464516,0.7144,0.6226,-0.2524,116.46,22.87,51.59
445,383469516,0.7139,0.6211,-0.2529,116.83,23.78,52.44
446,383474516,0.7173,0.6309,-0.2534,116.52,24.33,52.99
447,383479514,0.7197,0.6396,-0.2710,115.61,25.37,53.66
448,383484514,0.7324,0.6553,-0.2832,113.78,26.40,54.21
449,383489515,0.7305,0.6470,-0.2886,110.73,27.62,55.00
450,383494516,0.7119,0.6445,-0.2891,107.56,28.90,55.67
451,383499515,0.6924,0.6357,-0.3208,103.54,30.37,56.52
452,383504515,0.7051,0.6377,-0.3428,98.78,31.95,57.44
453,383509516,0.7456,0.6738,-0.3735,93.96,33.17,58.35
454,383514515,0.7871,0.6948,-0.3809,89.21,34.09,58.84
455,383519516,0.8257,0.6797,-0.3525,86.16,34.94,59.45
456,383524515,0.8403,0.6479,-0.3491,85.49,36.10,60.61
457,383529517,0.7593,0.7104,-0.3906,85.85,37.44,62.01
458,383534515,0.7036,0.6597,-0.3784,86.52,38.78,62.99
459,383539516,0.6899,0.6416,-0.4341,87.62,39.94,64.09
460,383544515,0.7241,0.6675,-0.4575,89.39,40.73,65.12
461,383549516,0.7578,0.6694,-0.4082,92.01,41.95,65.98
462,383554515,0.7812,0.6616,-0.4150,95.06,43.48,67.13
463,383559516,0.7935,0.6626,-0.4717,98.78,44.88,68.29
464,383564515,0.8027,0.6660,-0.4692,102.93,45.91,69.51
465,383569516,0.8057,0.6709,-0.4697,107.32,47.26,70.55
466,383574515,0.8164,0.6768,-0.4829,112.32,48.66,71.65
467,383579830,0.8130,0.6733,-0.5000,117.38,50.06,72.74
468,383584516,0.8315,0.6802,-0.5000,122.80,51.46,73.66
469,383589514,0.8438,0.6445,-0.4771,128.72,52.99,74.88
470,383594518,0.8369,0.6436,-0.4888,133.48,54.82,76.16
471,383599516,0.8262,0.6562,-0.5127,138.78,56.40,77.01
472,383604516,0.8188,0.6582,-0.5024,143.41,58.05,77.74
473,383609515,0.8203,0.6533,-0.5010,147.50,60.06,78.29
474,383614516,0.8237,0.6401,-0.5176,150.98,61.71,78.78
475,383619516,0.8291,0.6338,-0.5293,154.15,63.48,79.33
476,383624516,0.8330,0.6104,-0.5337,156.89,65.24,79.63
477,383629515,0.8213,0.5996,-0.5464,159.27,66.89,79.94
478,383634516,0.8257,0.5845,-0.5405,161.65,68.23,80.30
479,383639516,0.8276,0.5630,-0.5610,164.27,69.51,80.85
480,383644516,0.8159,0.5591,-0.5400,167.26,70.55,81.34
481,383649515,0.8066,0.5923,-0.4746,170.85,71.95,81.71
482,383654516,0.7588,0.5947,-0.4800,174.57,73.84,82.01
483,383659516,0.7876,0.6572,-0.5190,179.33,75.73,82.80
484,383664516,0.8105,0.6313,-0.4800,183.90,78.11,82.93
485,383669516,0.8306,0.5801,-0.5146,187.93,80.37,82.74
486,383674516,0.8403,0.5410,-0.5576,192.01,82.26,82.50
487,383679515,0.8423,0.5122,-0.5562,195.73,84.88,82.07
488,383684516,0.8525,0.4912,-0.5405,199.39,86.16,81.77
489,383689516,0.8457,0.5068,-0.5132,202.44,85.98,81.28
490,383694516,0.8281,0.5259,-0.5049,205.00,88.48,80.43
491,383699516,0.8223,0.5371,-0.5073,206.59,90.24,79.45
492,383704517,0.8184,0.5312,-0.5059,207.26,92.13,77.99
493,383709514,0.8130,0.5078,-0.4971,206.59,93.84,76.46
494,383714515,0.8325,0.4761,-0.4946,204.63,95.24,74.51
495,383719516,0.8643,0.4482,-0.5015,201.40,96.71,72.38
496,383724515,0.8862,0.4355,-0.5015,197.01,97.62,70.18
497,383729516,0.8965,0.4346,-0.4907,191.34,98.48,67.87
498,383734516,0.8926,0.4287,-0.4771,184.94,99.15,65.18
499,383739519,0.8843,0.4253,-0.4736,177.93,99.70,62.56
500,383744516,0.8765,0.4053,-0.4653,170.37,100.06,59.70
501,383749516,0.8745,0.3921,-0.4341,162.93,100.43,56.95
502,383754516,0.8696,0.3916,-0.4150,155.37,100.79,54.09
503,383759517,0.8701,0.3530,-0.4165,148.11,100.91,51.16
504,383764516,0.8823,0.3496,-0.3765,141.71,100.98,48.54
505,383769515,0.9048,0.3320,-0.3564,136.65,101.28,46.10
506,383774516,0.8789,0.3301,-0.3633,132.87,101.46,43.78
507,383779516,0.8501,0.3301,-0.3608,131.46,101.59,41.59
508,383784516,0.8457,0.3203,-0.3521,130.00,101.71,39.57
509,383789514,0.8384,0.3149,-0.3379,132.68,102.01,37.56
510,383794514,0.8340,0.3096,-0.3306,135.91,102.26,35.43
511,383799516,0.8242,0.3174,-0.3252,140.06,102.56,33.35
512,383804515,0.8325,0.2881,-0.3037,144.88,102.87,31.40
513,383809516,0.8330,0.2876,-0.2935,150.30,103.29,29.45
514,383814518,0.8262,0.2861,-0.2969,156.34,103.60,27.87
515,383819516,0.8223,0.2817,-0.3018,162.44,103.72,26.04
516,383824515,0.8174,0.2935,-0.2842,168.60,103.96,24.33
517,383829516,0.8149,0.2939,-0.2769,174.63,103.72,22.20
518,383834515,0.8062,0.3110,-0.2705,180.49,103.66,20.18
519,383839514,0.7896,0.3257,-0.2686,186.59,103.41,17.62
520,383844516,0.7812,0.3179,-0.2705,192.80,103.35,15.18
521,383849516,0.7886,0.3101,-0.2500,199.02,103.05,12.74
522,383854516,0.7871,0.3003,-0.2573,204.82,102.80,10.73
523,383859516,0.7798,0.3018,-0.2524,210.37,102.68,8.78
524,383864517,0.7695,0.3047,-0.2515,215.06,102.44,6.83
525,383869514,0.7642,0.3232,-0.2695,219.09,102.26,4.63
526,383874514,0.7803,0.3247,-0.2500,222.13,101.95,2.50
527,383879516,0.7773,0.3130,-0.2510,224.27,101.77,0.30
528,383884515,0.7686,0.3262,-0.2456,225.61,101.65,-1.77
529,383889514,0.7686,0.3252,-0.2559,225.37,101.04,-4.15
530,383894514,0.7500,0.3145,-0.2241,224.39,100.73,-6.16
531,383899516,0.7578,0.3281,-0.2422,221.89,100.55,-8.48
532,383904515,0.7471,0.3257,-0.2349,218.29,100.18,-10.67
533,383909516,0.7388,0.3125,-0.2163,213.66,99.76,-12.99
534,383914515,0.7402,0.3086,-0.2246,208.90,99.45,-15.06
535,383919516,0.7451,0.3389,-0.2012,204.15,99.21,-17.26
536,383924516,0.7280,0.3330,-0.1768,198.78,98.96,-19.63
537,383929514,0.6987,0.3267,-0.1704,192.87,99.09,-21.89
538,383934516,0.6948,0.3350,-0.1792,187.20,98.96,-24.09
539,383939516,0.7036,0.3306,-0.1611,182.13,98.78,-26.22
540,383944516,0.7065,0.3291,-0.1372,177.13,98.78,-28.41
541,383949515,0.7031,0.3291,-0.1377,172.93,98.90,-30.24
542,383954516,0.6997,0.3306,-0.1338,169.39,98.72,-32.07
543,383959516,0.6978,0.3320,-0.1353,166.46,98.66,-33.90
544,383964516,0.6826,0.3330,-0.1294,163.90,98.72,-35.79
545,383969516,0.6729,0.3408,-0.1318,162.13,98.78,-37.56
546,383974516,0.6660,0.3535,-0.1226,160.98,98.84,-39.27
547,383979516,0.6631,0.3628,-0.1035,160.55,98.84,-40.98
548,383984517,0.6479,0.3804,-0.0967,160.67,99.09,-42.50
549,383989516,0.6411,0.3950,-0.0918,161.65,98.84,-44.09
550,383994516,0.6362,0.4033,-0.0825,162.74,98.90,-45.55
551,383999514,0.6353,0.4141,-0.0840,164.27,99.09,-46.83
552,384004518,0.6392,0.4185,-0.0806,166.46,98.72,-47.87
553,384009516,0.6406,0.4214,-0.0796,169.09,98.60,-48.96
554,384014517,0.6382,0.4263,-0.0835,171.95,98.60,-49.70
555,384019516,0.6309,0.4238,-0.0850,175.24,98.29,-50.30
556,384024516,0.6289,0.4575,-0.0762,178.96,98.17,-50.85
557,384029517,0.6411,0.4502,-0.0576,182.26,98.11,-51.59
558,384034516,0.6108,0.4551,-0.0532,184.70,98.11,-52.13
559,384039516,0.6021,0.4775,-0.0317,186.59,98.11,-52.74
560,384044516,0.6060,0.4819,-0.0181,187.44,98.17,-53.60
561,384049516,0.5942,0.4883,-0.0176,187.20,97.99,-54.33
562,384054516,0.5854,0.4854,-0.0020,185.91,97.99,-55.06
563,384059516,0.5786,0.4941,0.0161,183.48,97.93,-55.79
564,384064516,0.5723,0.4966,0.0200,180.24,97.80,-56.52
565,384069516,0.5620,0.5024,0.0156,175.98,97.56,-57.44
566,384074517,0.5581,0.5132,0.0122,171.52,97.26,-58.11
567,384079514,0.5630,0.5132,0.0127,166.83,96.95,-58.90
568,384084516,0.5649,0.5181,0.0049,162.62,96.46,-59.51
569,384089516,0.5620,0.5283,-0.0010,158.84,96.28,-60.18
570,384094516,0.5571,0.5386,-0.0020,155.67,95.67,-60.79
571,384099519,0.5508,0.5488,-0.0063,153.48,95.37,-61.46
572,384104515,0.5479,0.5488,-0.0142,151.89,95.00,-61.95
573,384109516,0.5386,0.5527,-0.0073,151.16,94.51,-62.44
574,384114517,0.5220,0.5566,-0.0068,151.04,94.21,-62.74
575,384119532,0.5117,0.5557,0.0024,151.46,93.84,-63.17
576,384124530,0.4956,0.5674,0.0098,152.32,93.48,-63.54
577,384129637,0.4839,0.5713,0.0303,153.54,93.11,-64.09
578,384134516,0.4741,0.5767,0.0415,154.51,92.80,-64.63
579,384139516,0.4648,0.5923,0.0615,155.30,92.38,-65.37
580,384144516,0.4531,0.5952,0.0757,155.37,91.95,-66.40
581,384149515,0.4399,0.6055,0.0850,155.18,91.65,-67.38
582,384154516,0.4214,0.6133,0.0874,154.45,90.91,-68.60
583,384159516,0.4214,0.6221,0.0933,152.99,90.49,-69.94
584,384164516,0.4326,0.6377,0.1045,151.22,89.70,-71.46
585,384169515,0.3477,0.6353,0.0781,149.02,89.21,-73.17
586,384174516,0.3730,0.6436,0.1035,146.52,88.72,-74.76
587,384179516,0.4116,0.6460,0.1211,144.15,88.66,-76.46
588,384184517,0.4087,0.6553,0.0796,142.44,88.35,-77.99
589,384189516,0.4351,0.6724,0.1426,141.59,87.74,-79.82
590,384194518,0.4453,0.6973,0.1816,140.37,86.04,-81.52
591,384199516,0.4297,0.7310,0.1787,138.84,85.73,-83.29
592,384204516,0.4019,0.7427,0.1777,136.89,85.43,-85.18
593,384209515,0.3652,0.7393,0.1836,134.82,85.30,-86.89
594,384214517,0.3457,0.7334,0.1963,131.89,85.49,-88.35
595,384220072,0.3384,0.7266,0.1758,130.91,85.49,-89.70
596,384224516,0.3350,0.7324,0.1948,128.90,85.49,-90.85
597,384229544,0.3521,0.7275,0.1899,125.85,85.43,-91.89
598,384234516,0.3594,0.7407,0.2021,123.48,85.30,-92.74
599,384239515,0.3755,0.7485,0.1831,121.65,83.35,-93.84
600,384244517,0.3823,0.7656,0.1953,120.24,82.56,-94.76
601,384249515,0.3901,0.7822,0.2021,119.15,82.44,-95.55
602,384254516,0.4058,0.7886,0.2373,118.35,81.77,-96.59
603,384259516,0.4062,0.7983,0.2417,117.32,81.34,-97.50
604,384264517,0.4287,0.8262,0.2231,116.89,80.91,-98.48
605,384269515,0.4321,0.8379,0.2266,117.01,80.43,-99.51
606,384274516,0.4248,0.8398,0.2417,117.56,79.76,-100.55
607,384279517,0.4033,0.8374,0.2471,118.54,79.27,-101.34
608,384284516,0.3750,0.8325,0.2485,119.51,78.78,-102.01
609,384289515,0.3892,0.8257,0.2437,120.37,78.54,-102.87
610,384294517,0.4146,0.8198,0.2363,120.98,77.93,-103.60
611,384299517,0.4131,0.8232,0.2417,121.34,77.38,-104.27
612,384304515,0.4038,0.8296,0.2480,121.59,76.52,-105.06
613,384309516,0.4189,0.8291,0.2642,121.77,75.61,-106.04
614,384314515,0.4321,0.8354,0.2861,121.89,74.57,-106.83
615,384319607,0.4360,0.8511,0.3027,122.38,73.41,-107.87
616,384324516,0.4351,0.8672,0.3022,123.41,72.13,-108.66
617,384329933,0.4155,0.8882,0.3110,125.18,70.73,-109.63
618,384334516,0.3784,0.9160,0.3257,126.71,69.02,-110.55
619,384339516,0.3037,0.9414,0.3975,128.78,67.99,-111.95
620,384344516,0.3188,0.8975,0.3076,127.80,66.59,-112.93
621,384349515,0.3853,0.9004,0.2881,129.51,65.00,-113.48
622,384354516,0.4160,0.9199,0.3003,130.06,63.60,-114.15
623,384359516,0.4155,0.9541,0.2886,130.79,62.13,-114.82
624,384364516,0.4004,0.9771,0.2944,133.96,60.49,-115.37
625,384369515,0.3701,0.9771,0.3086,136.22,58.84,-115.79
626,384374516,0.3472,0.9624,0.3159,138.41,57.32,-115.91
627,384379515,0.3457,0.9551,0.2949,140.00,55.30,-115.91
628,384384516,0.3398,0.9741,0.2778,141.10,53.23,-115.85
629,384389516,0.3394,0.9893,0.2529,141.71,50.79,-115.73
630,384394516,0.3506,1.0073,0.2441,141.83,48.17,-115.43
631,384399515,0.3452,1.0283,0.2529,142.07,45.24,-115.06
632,384404516,0.3315,1.0342,0.2646,142.44,41.89,-114.45
633,384409515,0.3062,1.0493,0.2886,142.87,38.48,-113.48
634,384414516,0.2773,1.0654,0.3232,143.60,34.82,-112.87
635,384419518,0.2690,1.0703,0.3223,144.27,31.28,-112.07
636,384424515,0.2588,1.0825,0.3389,145.12,27.32,-111.22
637,384429514,0.2915,1.1040,0.3853,145.73,23.17,-110.61
638,384434518,0.2056,1.0757,0.3765,145.12,19.09,-109.82
639,384439516,0.1616,1.0967,0.3701,144.09,14.63,-109.21
640,384444517,0.1743,1.1245,0.3740,142.87,10.12,-108.72
641,384449515,0.1680,1.1484,0.3818,142.01,5.43,-108.11
642,384454516,0.1660,1.1704,0.3892,140.43,0.67,-107.38
643,384459516,0.1602,1.1846,0.4072,138.23,-4.09,-106.34
644,384464516,0.1367,1.2051,0.4155,135.61,-8.96,-105.00
645,384469515,0.1152,1.2202,0.3818,131.83,-14.09,-103.66
646,384474516,0.1016,1.2466,0.4023,130.00,-19.39,-102.01
647,384479516,0.0718,1.2593,0.4141,126.04,-24.82,-100.24
648,384484516,0.0444,1.2529,0.4189,121.34,-30.55,-98.54
649,384489515,0.0103,1.2490,0.4077,115.91,-36.59,-96.34
650,384494517,-0.0054,1.2427,0.4170,110.30,-42.93,-93.96
651,384499515,-0.0210,1.2246,0.4326,104.76,-49.63,-91.59
652,384504514,-0.0215,1.2173,0.4409,99.39,-56.46,-89.27
653,384509515,-0.0635,1.1821,0.4365,94.51,-63.54,-86.65
654,384515064,-0.0381,1.1992,0.3789,89.39,-72.20,-83.54
655,384519516,-0.0161,1.2212,0.3691,87.38,-78.29,-81.40
656,384524515,0.0083,1.2549,0.3438,86.10,-85.79,-78.54
657,384529518,0.0098,1.2622,0.3423,86.22,-93.35,-75.55
658,384534515,-0.0005,1.2676,0.3013,87.32,-100.85,-72.20
659,384539516,-0.0078,1.2944,0.2749,89.21,-107.80,-68.66
660,384544515,-0.0249,1.3037,0.2632,92.13,-115.00,-65.18
661,384549517,-0.0386,1.3022,0.2480,95.24,-121.65,-61.46
662,384554556,-0.0483,1.2988,0.2354,98.41,-128.05,-57.62
663,384559516,-0.0728,1.2905,0.2109,101.10,-134.33,-53.84
664,384564515,-0.0972,1.2837,0.1875,102.68,-140.49,-50.18
665,384569514,-0.1006,1.2764,0.1558,103.11,-146.40,-46.65
666,384574514,-0.1011,1.2729,0.1235,102.50,-152.32,-43.23
667,384579514,-0.1074,1.2676,0.0786,100.79,-158.05,-39.88
668,384584514,-0.1182,1.2637,0.0586,98.17,-163.48,-36.65
669,384589516,-0.1099,1.2627,0.0532,95.06,-168.54,-33.66
670,384594516,-0.1221,1.2451,0.0161,91.71,-173.29,-30.67
671,384599515,-0.1260,1.2324,-0.0122,87.74,-178.05,-27.62
672,384604514,-0.1270,1.2178,-0.0317,83.29,-182.20,-24.70
673,384609514,-0.1328,1.2012,-0.0640,78.96,-185.91,-21.89
674,384614514,-0.1548,1.1875,-0.1030,74.15,-189.57,-18.96
675,384619656,-0.1655,1.1616,-0.1416,69.15,-193.05,-16.16
676,384624516,-0.1670,1.1431,-0.1636,64.09,-196.40,-13.41
677,384629683,-0.1636,1.1250,-0.1929,59.15,-199.33,-10.79
678,384634516,-0.1592,1.1079,-0.2236,54.39,-202.13,-8.23
679,384639515,-0.1660,1.0923,-0.2524,50.24,-204.45,-5.79
680,384644516,-0.1694,1.0786,-0.2749,46.65,-206.71,-3.41
681,384649516,-0.1670,1.0713,-0.3052,43.54,-208.60,-1.22
682,384654516,-0.1665,1.0698,-0.3223,41.52,-210.18,0.79
683,384659514,-0.1704,1.0718,-0.3521,40.30,-211.59,2.68
684,384664516,-0.1772,1.0732,-0.3745,40.30,-212.62,4.57
685,384669516,-0.1724,1.0806,-0.3818,41.28,-213.48,6.46
686,384674516,-0.1719,1.0908,-0.4365,43.17,-213.90,8.17
687,384679515,-0.1733,1.0957,-0.4561,45.73,-214.21,9.88
688,384684516,-0.1851,1.1011,-0.4761,48.60,-213.96,11.65
689,384689516,-0.2061,1.1050,-0.5088,51.59,-213.96,13.35
690,384694516,-0.2168,1.1074,-0.5356,54.45,-213.48,15.06
691,384699516,-0.2188,1.1035,-0.5488,56.83,-212.74,16.83
692,384704516,-0.2178,1.0972,-0.5654,58.29,-211.46,18.35
693,384709515,-0.2202,1.0903,-0.5879,58.78,-209.88,20.18
694,384714514,-0.2241,1.0835,-0.6187,57.99,-208.29,21.65
695,384719515,-0.2285,1.0674,-0.6323,55.98,-206.16,23.17
696,384724517,-0.2339,1.0581,-0.6523,52.80,-203.78,24.45
697,384729516,-0.2300,1.0464,-0.6719,48.78,-201.40,25.85
698,384734516,-0.2295,1.0347,-0.7031,44.02,-198.72,27.01
699,384739515,-0.2173,1.0317,-0.7241,39.02,-195.85,28.23
700,384744516,-0.2041,1.0322,-0.7544,34.21,-193.11,29.21
701,384749516,-0.1948,1.0283,-0.7871,29.82,-190.06,30.43
702,384754516,-0.1733,1.0405,-0.8174,26.10,-187.01,31.52
703,384759515,-0.1641,1.0435,-0.8345,23.54,-183.78,32.56
704,384764516,-0.1616,1.0435,-0.8525,22.01,-180.43,33.66
705,384769516,-0.1602,1.0493,-0.8521,21.04,-176.89,34.94
706,384774516,-0.1465,1.0439,-0.8521,20.67,-173.29,36.16
707,384779515,-0.1475,1.0415,-0.8511,20.49,-169.45,37.44
708,384784516,-0.1470,1.0303,-0.8442,20.55,-165.61,38.60
709,384789516,-0.1367,1.0176,-0.8232,20.12,-161.46,39.88
710,384794516,-0.1284,1.0059,-0.8228,19.15,-157.44,41.10
711,384799515,-0.1123,0.9937,-0.8115,17.87,-153.23,42.20
712,384804516,-0.0894,0.9805,-0.8071,16.04,-149.21,43.48
713,384809516,-0.0674,0.9727,-0.8145,13.96,-145.24,44.70
714,384814516,-0.0522,0.9658,-0.8066,12.07,-141.59,45.91
715,384819515,-0.0405,0.9551,-0.8076,10.49,-137.74,47.01
716,384824516,-0.0254,0.9541,-0.8071,9.09,-134.27,48.23
717,384829516,-0.0122,0.9507,-0.8076,8.35,-130.79,49.57
718,384834514,-0.0024,0.9507,-0.8037,8.35,-127.56,51.10
719,384839515,0.0088,0.9512,-0.7949,9.15,-124.27,52.56
720,384844517,0.0181,0.9512,-0.7930,10.98,-121.28,54.15
721,384849516,0.0308,0.9565,-0.7856,13.05,-118.41,55.85
722,384854516,0.0371,0.9546,-0.7842,16.04,-115.67,57.62
723,384859515,0.0415,0.9541,-0.7759,19.15,-112.93,59.39
724,384864516,0.0513,0.9517,-0.7666,22.50,-110.30,61.22
725,384869516,0.0679,0.9468,-0.7588,25.55,-107.99,63.23
726,384874516,0.0776,0.9448,-0.7432,28.35,-105.49,64.94
727,384879515,0.0923,0.9370,-0.7300,30.49,-103.17,66.59
728,384884516,0.1040,0.9282,-0.7285,31.95,-101.10,68.35
729,384889516,0.1255,0.9233,-0.7324,32.62,-99.21,69.94
730,384894516,0.1431,0.9165,-0.7212,32.68,-97.38,71.40
731,384899515,0.1582,0.9087,-0.7178,32.13,-95.79,72.80
732,384904516,0.1694,0.8979,-0.7217,31.10,-93.84,74.21
733,384909516,0.1826,0.9009,-0.7148,29.70,-92.38,75.37
734,384914516,0.1924,0.8882,-0.7153,28.17,-91.28,76.71
735,384919514,0.2002,0.8887,-0.7168,26.52,-89.88,77.74
736,384924515,0.2109,0.8853,-0.7090,24.70,-88.60,78.78
737,384929516,0.2188,0.8774,-0.7026,22.99,-87.44,79.76
738,384934515,0.2275,0.8735,-0.6914,21.22,-86.04,80.73
739,384939516,0.2383,0.8643,-0.6953,19.45,-84.57,81.59
740,384944515,0.2559,0.8594,-0.6895,17.56,-83.66,82.56
741,384949516,0.2646,0.8540,-0.6885,15.55,-82.26,83.17
742,384954515,0.2769,0.8491,-0.6875,13.72,-80.91,84.09
743,384959517,0.2808,0.8384,-0.6826,11.40,-79.76,85.06
744,384964515,0.2837,0.8320,-0.6807,9.51,-78.29,85.79
745,384969516,0.2861,0.8252,-0.6797,7.44,-76.95,85.18
746,384974515,0.2861,0.8140,-0.6763,5.37,-75.61,86.83
747,384979519,0.2935,0.8101,-0.6748,3.54,-74.15,87.13
748,384984515,0.2944,0.7983,-0.6655,1.52,-72.68,87.07
749,384989516,0.2939,0.7959,-0.6636,-0.18,-71.22,87.13
750,384994515,0.2959,0.7871,-0.6528,-1.71,-69.39,87.07
751,384999516,0.2935,0.7773,-0.6484,-2.99,-67.80,87.44
752,385004515,0.2930,0.7759,-0.6475,-4.21,-65.91,88.84
753,385009516,0.2935,0.7690,-0.6475,-5.30,-64.21,89.15
754,385014515,0.2983,0.7632,-0.6460,-5.98,-62.32,89.09
755,385019514,0.2959,0.7563,-0.6426,-6.52,-60.30,89.27
756,385025085,0.2993,0.7471,-0.6499,-6.95,-58.05,89.82
757,385029529,0.2998,0.7456,-0.6514,-6.95,-56.34,89.88
758,385034515,0.2988,0.7417,-0.6553,-6.83,-54.21,89.76
759,385039514,0.2988,0.7383,-0.6567,-6.65,-51.95,89.51
760,385044514,0.2959,0.7314,-0.6504,-6.04,-49.63,89.45
761,385049514,0.2915,0.7295,-0.6602,-5.49,-47.38,89.82
762,385054514,0.2871,0.7275,-0.6602,-4.51,-44.63,89.63
763,385059518,0.2886,0.7227,-0.6558,-3.90,-42.56,89.76
764,385064516,0.2847,0.7197,-0.6558,-2.87,-40.24,89.63
765,385069516,0.2817,0.7217,-0.6562,-2.13,-37.80,89.45
766,385074516,0.2808,0.7168,-0.6470,-1.52,-35.24,88.23
767,385079515,0.2803,0.7202,-0.6450,-1.28,-32.87,87.74
768,385084516,0.2749,0.7134,-0.6431,-1.22,-30.24,86.95
769,385089517,0.2788,0.7090,-0.6348,-1.65,-27.80,86.83
770,385094516,0.2729,0.7080,-0.6353,-2.44,-25.43,86.83
771,385099515,0.2715,0.7114,-0.6328,-3.29,-23.23,86.65
772,385104516,0.2646,0.7080,-0.6333,-4.33,-20.85,85.30
773,385109516,0.2573,0.7046,-0.6284,-5.55,-18.66,84.27
774,385114518,0.2539,0.7017,-0.6289,-6.83,-16.52,83.35
775,385119514,0.2480,0.6968,-0.6226,-8.17,-14.33,82.26
776,385124514,0.2485,0.6948,-0.6255,-9.45,-12.38,81.22
777,385129516,0.2495,0.6943,-0.6162,-10.55,-10.49,80.24
778,385134515,0.2505,0.6924,-0.6177,-11.65,-8.66,79.21
779,385139594,0.2490,0.6885,-0.6035,-12.68,-6.71,77.93
780,385144516,0.2476,0.6914,-0.6055,-13.35,-5.43,76.89
781,385149516,0.2480,0.6885,-0.6069,-14.02,-4.02,75.79
782,385154515,0.2446,0.6821,-0.6050,-14.70,-2.56,74.63
783,385159516,0.2471,0.6777,-0.6016,-15.24,-1.22,73.41
784,385164515,0.2441,0.6768,-0.5986,-15.61,-0.24,72.32
785,385169516,0.2456,0.6777,-0.6045,-15.85,0.85,71.04
786,385174515,0.2451,0.6826,-0.5957,-15.98,1.65,69.82
787,385179516,0.2417,0.6777,-0.5864,-15.85,2.50,68.66
788,385184515,0.2314,0.6792,-0.5791,-15.67,3.41,67.50
789,385189517,0.2266,0.6807,-0.5615,-15.43,4.09,66.16
790,385194517,0.2100,0.6807,-0.5503,-15.06,4.94,64.88
791,385199516,0.2109,0.6792,-0.5415,-14.76,5.55,63.72
792,385204515,0.2041,0.6821,-0.5171,-14.76,6.22,62.38
793,385209516,0.1948,0.6816,-0.4937,-14.94,6.71,61.10
794,385214514,0.1919,0.6807,-0.4775,-15.18,7.32,59.94
795,385219514,0.1851,0.6787,-0.4653,-15.61,7.74,58.78
796,385224515,0.1802,0.6768,-0.4565,-16.46,8.11,57.56
797,385229514,0.1733,0.6748,-0.4443,-17.44,8.54,56.34
798,385235067,0.1807,0.6631,-0.4351,-19.09,8.72,54.76
799,385239516,0.1748,0.6602,-0.4297,-20.18,8.72,53.90
800,385244515,0.1797,0.6602,-0.4277,-21.95,8.84,52.56
801,385249516,0.1846,0.6558,-0.4297,-24.09,8.96,50.91
802,385254515,0.1899,0.6553,-0.4360,-25.43,8.84,49.94
803,385259516,0.1958,0.6558,-0.4390,-27.07,8.78,48.48
804,385264515,0.2188,0.6602,-0.4502,-27.68,8.72,47.50
805,385270011,0.2349,0.6743,-0.4624,-27.87,8.66,46.22
806,385274516,0.2427,0.6743,-0.4653,-27.50,8.41,45.12
807,385279516,0.2549,0.6875,-0.4614,-26.65,8.29,44.27
808,385284520,0.2651,0.6895,-0.4678,-25.37,7.87,43.29
809,385289515,0.2759,0.6953,-0.4683,-23.66,7.68,42.38
810,385294516,0.2842,0.7026,-0.4609,-21.95,7.20,41.59
811,385299516,0.2954,0.7056,-0.4546,-20.30,6.83,40.79
812,385304516,0.3086,0.7090,-0.4561,-18.72,6.52,40.12
813,385309515,0.3154,0.7134,-0.4551,-17.38,6.16,39.39
814,385314516,0.3223,0.7178,-0.4492,-16.59,5.55,38.72
815,385319517,0.3379,0.7217,-0.4473,-15.98,4.82,37.87
816,385324572,0.3452,0.7275,-0.4458,-15.79,4.33,37.13
817,385329516,0.3521,0.7275,-0.4448,-16.10,3.78,36.59
818,385334515,0.3633,0.7319,-0.4521,-16.71,3.17,35.79
819,385339516,0.3770,0.7344,-0.4561,-17.68,2.50,35.18
820,385344586,0.3921,0.7412,-0.4658,-18.72,1.83,34.70
821,385349519,0.4028,0.7451,-0.4761,-19.76,1.16,34.27
822,385354515,0.4180,0.7563,-0.4849,-20.43,0.43,34.09
823,385359516,0.4287,0.7603,-0.5010,-20.61,-0.30,33.96
824,385364515,0.4395,0.7729,-0.5176,-20.18,-1.10,34.15
825,385369517,0.4634,0.7812,-0.5220,-19.02,-1.89,34.45
826,385374515,0.5532,0.8154,-0.4409,-16.22,-2.68,35.00
827,385379516,0.5396,0.8135,-0.5381,-11.04,-3.11,35.73
828,385384515,0.5103,0.8164,-0.6182,-5.24,-4.57,36.71
829,385389516,0.4956,0.8101,-0.6562,0.73,-6.10,37.87
830,385394515,0.5337,0.8267,-0.6826,7.32,-7.32,39.27
831,385399516,0.6064,0.8086,-0.7148,14.70,-8.54,40.91
832,385404515,0.6230,0.8149,-0.7339,22.93,-9.70,42.80
833,385409516,0.6455,0.8042,-0.7344,31.34,-10.43,44.70
834,385414515,0.6626,0.8018,-0.7480,39.57,-10.91,46.65
835,385419516,0.6777,0.7910,-0.7822,47.38,-11.10,48.60
836,385424515,0.6724,0.7954,-0.7612,54.63,-11.10,50.61
837,385429518,0.6685,0.7852,-0.7627,60.91,-10.67,52.50
838,385434515,0.6821,0.7847,-0.7705,66.10,-10.00,54.39
839,385439516,0.6592,0.7861,-0.7686,70.00,-9.39,55.98
840,385444516,0.6641,0.7744,-0.7681,72.50,-8.41,57.87
841,385449516,0.6538,0.7783,-0.7681,73.66,-7.26,59.27
842,385454515,0.6567,0.7725,-0.7690,73.23,-6.22,60.79
843,385459516,0.6567,0.7627,-0.7788,71.89,-5.00,62.07
844,385464515,0.6567,0.7656,-0.7935,69.02,-3.84,63.41
845,385469516,0.6582,0.7593,-0.7905,65.79,-2.62,64.70
846,385474515,0.6558,0.7593,-0.7930,61.46,-1.16,65.85
847,385479514,0.6597,0.7495,-0.8047,56.89,0.30,67.01
848,385484516,0.6572,0.7427,-0.8169,52.07,1.77,68.17
849,385489516,0.6548,0.7246,-0.8306,47.38,3.48,69.33
850,385494516,0.6558,0.7012,-0.8267,42.62,5.37,70.61
851,385499515,0.6572,0.6860,-0.8398,38.41,7.32,71.89
852,385504516,0.6616,0.6787,-0.8481,34.33,9.45,73.23
853,385509516,0.6646,0.6611,-0.8525,30.98,11.59,74.63
854,385514516,0.6562,0.6504,-0.8462,28.41,14.09,76.04
855,385519515,0.6323,0.6367,-0.8481,26.16,16.46,77.50
856,385524517,0.6084,0.6299,-0.8481,24.27,19.02,78.90
857,385529515,0.5947,0.6216,-0.8320,22.50,21.46,80.37
858,385534514,0.5752,0.6279,-0.8320,20.98,23.90,81.83
859,385539515,0.5659,0.6133,-0.7915,19.51,26.40,83.23
860,385544516,0.5586,0.6016,-0.7905,18.48,28.96,85.00
861,385549516,0.5479,0.5913,-0.7803,17.62,31.65,85.49
862,385554516,0.5361,0.6123,-0.7686,17.20,33.90,86.95
863,385559516,0.5166,0.6206,-0.7524,17.38,36.28,87.38
864,385564516,0.5020,0.6284,-0.7241,18.05,38.60,89.57
865,385569516,0.4888,0.6309,-0.7085,19.33,40.98,90.73
866,385574516,0.4814,0.6235,-0.6938,20.98,43.35,91.89
867,385579515,0.4658,0.6196,-0.6963,22.80,45.55,92.80
868,385584514,0.4409,0.5815,-0.7217,24.76,47.62,93.84
869,385589514,0.4741,0.6099,-0.6904,27.32,49.33,94.51
870,385594514,0.5020,0.6021,-0.6650,29.82,51.22,95.18
871,385599589,0.5200,0.5952,-0.6562,31.83,53.05,95.55
872,385604516,0.5278,0.6084,-0.6519,32.93,54.63,95.67
873,385609516,0.5166,0.6050,-0.6475,33.48,56.22,95.61
874,385614516,0.5063,0.5938,-0.6406,33.41,57.68,95.55
875,385619516,0.5063,0.5933,-0.6250,32.44,59.15,95.24
876,385624516,0.5137,0.5952,-0.5986,30.98,60.49,94.94
877,385629515,0.5151,0.5908,-0.5820,28.90,62.01,94.45
878,385634516,0.5122,0.5835,-0.5601,26.34,63.35,93.84
879,385639517,0.5083,0.5786,-0.5537,23.66,64.45,93.05
880,385644516,0.5122,0.5835,-0.5391,20.61,65.61,92.20
881,385649514,0.5117,0.5762,-0.5361,17.68,66.52,91.16
882,385654515,0.5156,0.5649,-0.5376,14.70,67.26,89.76
883,385659516,0.5200,0.5562,-0.5342,11.89,67.93,88.90
884,385664515,0.5273,0.5522,-0.5337,9.45,68.48,86.83
885,385669516,0.5366,0.5542,-0.5225,7.44,68.78,86.59
886,385674515,0.5498,0.5547,-0.5098,5.73,69.21,86.04
887,385679517,0.5518,0.5532,-0.5005,4.45,69.39,84.21
888,385684515,0.5562,0.5503,-0.4995,3.66,69.76,82.44
889,385689516,0.5649,0.5547,-0.4854,3.17,69.94,80.91
890,385694515,0.5762,0.5498,-0.4800,2.87,70.18,79.21
891,385699516,0.5942,0.5498,-0.4619,2.80,70.37,77.50
892,385704515,0.6011,0.5483,-0.4365,2.87,70.61,75.73
893,385709516,0.6260,0.5483,-0.4287,3.35,71.04,74.21
894,385714515,0.6675,0.5220,-0.4331,4.09,71.22,72.50
895,385719516,0.6924,0.5020,-0.4199,4.57,71.40,71.16
896,385724515,0.7085,0.5068,-0.4131,4.57,71.28,69.57
897,385729516,0.7158,0.5122,-0.4282,3.90,70.79,67.74
898,385734514,0.7158,0.4995,-0.4097,2.99,70.18,66.04
899,385739514,0.7119,0.4902,-0.3833,1.52,69.70,64.33
900,385744516,0.7031,0.4844,-0.3804,0.00,69.21,62.93
901,385749516,0.7031,0.4858,-0.3818,-1.65,68.78,61.52
902,385754516,0.7051,0.4824,-0.3745,-3.23,68.29,60.00
903,385759516,0.7144,0.4771,-0.3711,-5.00,67.93,58.60
904,385764516,0.7188,0.4756,-0.3633,-6.52,67.62,57.32
905,385769516,0.7251,0.4712,-0.3691,-7.99,67.56,55.85
906,385774515,0.7305,0.4629,-0.3608,-9.09,67.20,54.76
907,385779517,0.7339,0.4512,-0.3472,-10.12,67.13,53.60
908,385784515,0.7290,0.4399,-0.3433,-10.79,67.20,52.50
909,385789516,0.7290,0.4272,-0.3350,-11.46,67.38,51.65
910,385794515,0.7192,0.4180,-0.3198,-11.77,67.74,50.85
911,385799516,0.7178,0.4058,-0.3237,-11.89,68.35,49.94
912,385804515,0.7163,0.3994,-0.3203,-11.59,68.90,49.27
913,385809516,0.7148,0.3931,-0.3140,-11.04,69.51,48.41
914,385814515,0.7114,0.3887,-0.3027,-10.12,70.37,47.56
915,385819516,0.7041,0.3809,-0.3071,-8.66,71.10,46.71
916,385824515,0.7080,0.3730,-0.2998,-6.89,72.01,45.85
917,385829516,0.7080,0.3682,-0.2959,-4.45,73.05,44.70
918,385834514,0.7095,0.3628,-0.3027,-1.89,73.90,43.84
919,385839516,0.7051,0.3584,-0.3022,0.61,74.94,42.87
920,385844515,0.7080,0.3521,-0.3037,3.17,76.10,41.77
921,385849516,0.7119,0.3433,-0.3076,5.73,76.95,40.49
922,385854516,0.7134,0.3315,-0.3037,8.11,78.05,39.15
923,385859516,0.7153,0.3271,-0.2964,10.18,79.15,37.80
924,385864515,0.7114,0.3203,-0.2896,11.65,80.43,36.40
925,385869516,0.7217,0.3086,-0.2827,12.87,81.77,34.82
926,385874515,0.7285,0.2964,-0.2783,13.41,83.11,33.23
927,385879516,0.7393,0.2832,-0.2744,13.48,84.88,31.77
928,385884515,0.7427,0.2715,-0.2637,12.80,86.04,30.18
929,385889516,0.7510,0.2593,-0.2593,11.77,85.91,28.66
930,385894515,0.7578,0.2544,-0.2500,10.00,85.79,27.07
931,385899516,0.7588,0.2485,-0.2451,8.29,85.91,25.61
932,385904515,0.7554,0.2407,-0.2437,6.77,88.23,24.09
933,385909516,0.7607,0.2368,-0.2373,5.43,88.66,22.62
934,385914515,0.7627,0.2388,-0.2319,4.63,89.57,21.40
935,385919516,0.7695,0.2354,-0.2358,4.39,90.24,20.24
936,385924515,0.7725,0.2354,-0.2354,5.00,90.73,19.15
937,385929607,0.7769,0.2349,-0.2368,6.28,91.52,18.35
938,385934516,0.7705,0.2310,-0.2290,8.17,92.20,17.38
939,385939514,0.7671,0.2285,-0.2222,10.37,92.93,16.46
940,385944514,0.7690,0.2207,-0.2178,12.99,93.60,15.67
941,385949514,0.7695,0.2153,-0.2075,15.37,94.21,14.88
942,385954514,0.7764,0.2080,-0.2046,17.99,94.82,14.27
943,385959514,0.7847,0.2046,-0.2056,20.49,95.37,13.54
944,385964516,0.7852,0.1987,-0.1953,22.62,95.91,12.74
945,385969516,0.7793,0.1880,-0.1909,24.63,96.40,12.13
946,385974516,0.7759,0.1826,-0.1802,26.40,96.89,11.46
947,385979516,0.7734,0.1748,-0.1602,27.93,97.32,10.79
948,385984519,0.7798,0.1714,-0.1553,29.45,97.87,10.12
949,385989516,0.7896,0.1826,-0.1465,31.10,98.17,9.70
950,385994515,0.7964,0.1919,-0.1333,32.74,98.54,8.96
951,385999516,0.7959,0.1963,-0.1162,34.27,98.90,8.35
952,386004515,0.7852,0.1963,-0.0928,35.61,99.39,7.74
953,386009516,0.7856,0.2095,-0.0845,36.89,99.94,6.95
954,386014515,0.7881,0.2061,-0.0854,37.99,100.30,6.22
955,386019828,0.7769,0.1992,-0.0645,39.15,100.67,5.67
956,386024516,0.7729,0.1953,-0.0571,40.24,101.22,5.06
957,386029515,0.7739,0.1924,-0.0483,41.40,101.40,4.63
958,386034543,0.7729,0.1914,-0.0532,42.80,101.71,4.21
959,386039516,0.7754,0.1851,-0.0493,44.21,101.77,3.84
960,386044517,0.7817,0.1831,-0.0391,45.73,101.89,3.72
961,386049517,0.7788,0.1821,-0.0347,47.38,101.77,3.54
962,386054515,0.7349,0.1445,-0.0728,48.72,101.52,3.54
963,386059514,0.7490,0.1597,-0.0420,49.57,101.34,3.54
964,386064516,0.7822,0.1792,-0.0264,50.24,101.34,3.35
965,386069516,0.8247,0.1816,-0.0308,50.85,101.16,3.29
966,386074515,0.8379,0.1821,-0.0234,51.52,100.79,3.23
967,386079516,0.8208,0.1860,-0.0171,52.01,100.37,2.99
968,386084515,0.8228,0.1860,-0.0059,52.44,99.94,2.50
969,386089518,0.8188,0.1758,-0.0024,52.20,99.27,2.07
970,386094515,0.8042,0.2144,-0.0361,51.22,98.41,1.28
971,386099516,0.8066,0.1812,0.0664,50.24,97.62,0.61
972,386104515,0.8169,0.1504,0.0625,49.33,97.44,0.06
973,386109859,0.8359,0.1509,-0.0010,49.15,97.07,-0.18
974,386114517,0.8428,0.1597,0.0156,49.57,96.65,-0.37
975,386119516,0.8291,0.1738,0.0220,50.49,96.40,-0.61
976,386124516,0.8311,0.1807,0.0122,52.01,95.91,-0.67
977,386129515,0.8320,0.1880,0.0122,54.15,95.49,-0.67
978,386134516,0.8311,0.1948,0.0532,56.40,95.61,-0.73
979,386139516,0.8311,0.1841,0.0220,59.15,95.67,-0.79
980,386144516,0.8247,0.1753,0.0151,62.44,95.37,-0.98
981,386149514,0.8203,0.1753,0.0132,65.61,95.49,-0.98
982,386154518,0.8271,0.1772,0.0327,68.90,95.37,-1.22
983,386159516,0.8330,0.1855,0.0405,72.26,95.55,-1.59
984,386164515,0.8394,0.1860,0.0347,75.43,95.49,-2.13
985,386169516,0.8403,0.1890,0.0376,78.54,95.30,-2.80
986,386174515,0.8511,0.2002,0.0420,81.65,95.49,-3.54
987,386179516,0.8555,0.2046,0.0449,84.88,95.30,-4.63
988,386184515,0.8657,0.2095,0.0488,88.29,95.12,-5.73
989,386189517,0.8804,0.2178,0.0693,91.59,95.06,-6.77
990,386194515,0.8188,0.2358,0.0405,95.06,94.82,-7.99
991,386199516,0.8110,0.2378,0.0078,98.96,94.39,-9.27
992,386204515,0.8501,0.2271,0.0298,103.60,93.78,-10.30
993,386209516,0.9297,0.2192,0.1367,108.60,93.96,-11.22
994,386214520,0.9585,0.2324,0.1426,112.80,94.70,-12.01
995,386219516,0.9375,0.2578,0.1011,116.28,95.12,-12.87
996,386224515,0.8838,0.2744,0.0815,119.27,95.00,-14.33
997,386229516,0.8481,0.2808,0.0635,121.77,94.63,-15.73
998,386234515,0.8311,0.2759,0.0342,123.60,94.27,-17.50
999,386239516,0.8086,0.2861,0.0532,125.18,93.54,-19.33
1000,386244515,0.8184,0.2422,0.0649,126.95,92.99,-21.40
1001,386249516,0.8247,0.2524,0.0454,127.50,92.26,-23.11
1002,386254516,0.8271,0.2622,0.0200,129.63,90.61,-25.00
1003,386259516,0.7979,0.2451,0.0352,130.37,89.09,-26.83
1004,386264516,0.7827,0.2559,0.0723,133.66,87.07,-28.11
1005,386269516,0.7476,0.2852,0.0542,136.59,85.91,-29.27
1006,386274515,0.7412,0.2808,0.0542,139.57,85.30,-30.30
1007,386279516,0.7148,0.2900,0.0630,142.68,84.63,-31.46
1008,386284515,0.6919,0.3042,0.0757,145.85,82.07,-32.62
1009,386289516,0.6689,0.3262,0.0684,149.02,80.43,-33.66
1010,386294515,0.6528,0.3511,0.0728,152.07,78.72,-34.82
1011,386299514,0.6440,0.3701,0.0918,155.55,76.77,-35.79
1012,386304516,0.6279,0.3867,0.0986,158.78,75.00,-37.01
1013,386309515,0.6025,0.3994,0.1123,162.20,73.05,-38.29
1014,386314518,0.5732,0.4111,0.1270,165.24,71.65,-39.76
1015,386320054,0.5405,0.4233,0.1172,169.39,69.76,-41.52
1016,386324516,0.4980,0.4971,0.0747,172.01,68.41,-42.99
1017,386329516,0.5093,0.4429,0.1084,176.95,66.52,-44.63
1018,386334516,0.5093,0.4297,0.1387,181.59,65.06,-45.79
1019,386339515,0.4956,0.4717,0.0396,186.59,63.17,-47.07
1020,386344517,0.5029,0.4658,0.0854,190.91,60.85,-48.84
1021,386349516,0.4893,0.5024,0.0894,194.57,58.60,-50.79
1022,386354517,0.4824,0.5039,0.0498,197.50,55.91,-53.05
1023,386359516,0.4736,0.5073,0.0527,199.63,53.11,-55.18
1024,386364518,0.4399,0.5142,0.0615,201.34,50.24,-57.62
1025,386369516,0.4482,0.5068,0.0889,202.44,47.68,-59.76
1026,386374763,0.4438,0.5254,0.0635,203.05,45.06,-62.01
1027,386379516,0.4341,0.5312,0.0576,203.17,42.44,-64.45
1028,386384515,0.4277,0.5303,0.0630,202.93,40.06,-66.89
1029,386389516,0.4038,0.5293,0.0259,202.68,37.56,-69.39
1030,386394515,0.3936,0.5371,0.0029,202.07,34.94,-71.71
1031,386399516,0.3906,0.5493,-0.0142,201.46,32.32,-74.33
1032,386404515,0.4072,0.5566,-0.0327,200.98,29.33,-77.01
1033,386409516,0.4194,0.5742,-0.0757,200.55,25.61,-79.76
1034,386414515,0.4209,0.6021,-0.0659,200.55,22.01,-82.93
1035,386419516,0.4292,0.5981,-0.0342,200.91,18.66,-86.22
1036,386424515,0.4233,0.5815,-0.0283,202.01,15.18,-89.21
1037,386429514,0.3916,0.5742,-0.0190,203.84,12.50,-91.83
1038,386434516,0.3496,0.5762,-0.0166,206.34,10.24,-94.15
1039,386439514,0.3281,0.5703,-0.0522,209.09,8.23,-96.46
1040,386444516,0.3247,0.5791,-0.0791,211.77,6.22,-98.72
1041,386449515,0.3467,0.5771,-0.0806,214.27,4.21,-101.10
1042,386454516,0.3496,0.5737,-0.0933,216.28,2.26,-103.66
1043,386459516,0.3457,0.5674,-0.1172,217.80,0.06,-106.10
1044,386464516,0.3452,0.5767,-0.1240,218.84,-1.71,-108.35
1045,386469515,0.3364,0.5806,-0.1421,218.90,-3.48,-110.79
1046,386474514,0.3232,0.5913,-0.1655,218.29,-5.18,-113.17
1047,386479516,0.3008,0.5942,-0.1763,216.59,-6.77,-115.49
1048,386484516,0.2852,0.6025,-0.1978,214.09,-8.41,-117.80
1049,386489516,0.2632,0.5977,-0.2148,210.43,-10.00,-120.00
1050,386494516,0.2373,0.6064,-0.2324,205.91,-11.71,-122.13
1051,386499516,0.2153,0.6216,-0.2378,200.55,-13.17,-124.15
1052,386504515,0.2109,0.6421,-0.2329,194.57,-14.70,-126.28
1053,386509516,0.1963,0.6558,-0.2383,188.11,-16.16,-128.41
1054,386514516,0.1885,0.6680,-0.2500,180.98,-17.38,-130.61
1055,386519516,0.1772,0.6831,-0.2715,173.66,-18.66,-132.80
1056,386524517,0.1631,0.7104,-0.2881,166.59,-20.06,-135.00
1057,386529516,0.1484,0.7354,-0.3169,159.27,-21.40,-137.13
1058,386534516,0.1372,0.7578,-0.3403,152.74,-22.93,-139.27
1059,386539516,0.1230,0.7852,-0.3506,146.65,-24.45,-141.22
1060,386544515,0.1074,0.8037,-0.3574,141.04,-25.98,-142.99
1061,386549516,0.0928,0.8228,-0.3613,136.16,-27.56,-144.76
1062,386554514,0.0776,0.8384,-0.3730,130.91,-28.84,-146.34
1063,386559514,0.0610,0.8550,-0.3813,128.90,-30.30,-147.68
1064,386564516,0.0464,0.8745,-0.3911,126.04,-31.59,-149.02
1065,386569515,0.0264,0.8906,-0.3896,123.66,-32.74,-150.18
1066,386574516,0.0078,0.9038,-0.4028,121.52,-33.78,-151.22
1067,386579516,-0.0063,0.9258,-0.4175,119.76,-34.88,-151.83
1068,386584516,-0.0264,0.9502,-0.4390,118.66,-35.98,-152.50
1069,386589516,-0.0420,0.9795,-0.4551,117.99,-37.01,-152.99
1070,386594515,-0.0557,1.0073,-0.4595,117.80,-38.35,-153.11
1071,386599516,-0.0625,1.0259,-0.4653,118.29,-39.27,-153.05
1072,386604516,-0.0767,1.0527,-0.4702,119.21,-40.06,-152.74
1073,386609516,-0.0903,1.0713,-0.4722,120.37,-41.34,-152.20
1074,386614515,-0.1069,1.0894,-0.4722,121.59,-42.32,-151.28
1075,386619516,-0.1108,1.1060,-0.4663,122.80,-43.35,-150.30
1076,386624515,-0.1255,1.1201,-0.4644,123.72,-44.39,-148.84
1077,386629515,-0.1333,1.1318,-0.4595,124.45,-45.43,-147.38
1078,386634516,-0.1450,1.1411,-0.4502,124.82,-46.77,-145.43
1079,386639515,-0.1567,1.1562,-0.4438,124.76,-47.80,-143.17
1080,386644516,-0.1548,1.1714,-0.4375,124.51,-49.09,-140.67
1081,386649516,-0.1631,1.1885,-0.4385,124.02,-50.37,-137.93
1082,386654514,-0.1763,1.2026,-0.4419,123.23,-51.71,-134.88
1083,386659516,-0.1924,1.2246,-0.4399,121.95,-52.99,-131.71
1084,386664516,-0.2188,1.2036,-0.3911,119.63,-54.15,-128.17
1085,386669516,-0.2251,1.2358,-0.4648,116.59,-55.18,-124.57
1086,386674516,-0.1953,1.2480,-0.4961,114.09,-56.71,-120.91
1087,386679514,-0.2119,1.2363,-0.4141,111.10,-58.17,-117.01
1088,386684514,-0.2246,1.2241,-0.4448,107.13,-59.33,-112.93
1089,386689514,-0.1460,1.2852,-0.4380,102.74,-60.91,-108.90
1090,386694514,-0.2690,1.2739,-0.4282,96.71,-61.95,-104.63
1091,386699516,-0.3169,1.2266,-0.4204,90.55,-63.05,-100.79
1092,386704516,-0.2612,1.2300,-0.5347,83.90,-64.76,-96.83
1093,386709516,-0.2319,1.2720,-0.5234,79.27,-67.01,-92.74
1094,386714514,-0.2319,1.2773,-0.4644,76.04,-68.60,-88.11
1095,386719515,-0.2114,1.2920,-0.4712,74.02,-70.18,-83.35
1096,386724516,-0.2168,1.3032,-0.4863,72.80,-71.95,-78.54
1097,386729515,-0.2446,1.3066,-0.4712,71.95,-73.84,-73.29
1098,386734516,-0.2593,1.3325,-0.4541,71.10,-75.91,-67.93
1099,386739516,-0.3013,1.3252,-0.3999,69.02,-77.93,-62.44
1100,386744516,-0.3086,1.3276,-0.4121,65.73,-80.00,-56.89
1101,386749516,-0.3262,1.3320,-0.4482,62.26,-82.44,-51.34
1102,386754516,-0.3521,1.3408,-0.4165,58.72,-85.06,-45.73
1103,386759514,-0.3906,1.3130,-0.3501,54.63,-87.32,-40.18
1104,386764515,-0.3438,1.3135,-0.3564,49.63,-89.57,-34.39
1105,386769516,-0.3618,1.3228,-0.3560,45.18,-92.56,-28.78
1106,386774516,-0.4170,1.2886,-0.3506,40.91,-95.37,-23.05
1107,386779516,-0.3750,1.3013,-0.3057,37.50,-98.23,-17.20
1108,386784515,-0.4180,1.2710,-0.3213,34.82,-101.52,-11.28
1109,386789516,-0.3931,1.2900,-0.3140,33.23,-105.00,-5.12
1110,386794516,-0.4067,1.2739,-0.2700,32.44,-108.60,1.04
1111,386799634,-0.4580,1.2642,-0.2842,32.07,-113.23,8.72
1112,386804515,-0.4312,1.2515,-0.2866,32.56,-116.71,13.90
1113,386809516,-0.4287,1.2456,-0.2354,34.57,-120.98,20.67
1114,386814701,-0.4531,1.2261,-0.1724,38.23,-126.28,28.96
1115,386819516,-0.4854,1.2163,-0.1533,40.85,-129.94,34.57
1116,386824514,-0.5181,1.1997,-0.1353,43.54,-134.57,41.83
1117,386829514,-0.5537,1.1836,-0.1182,45.73,-139.82,49.15
1118,386834577,-0.6045,1.1680,-0.1069,47.26,-146.52,58.11
1119,386839516,-0.6313,1.1582,-0.1035,48.17,-151.04,64.21
1120,386844516,-0.6685,1.1455,-0.0913,49.09,-157.07,71.59
1121,386849516,-0.7100,1.1348,-0.0835,50.24,-163.29,79.33
1122,386854516,-0.7559,1.1196,-0.0845,51.34,-169.51,86.83
1123,386859516,-0.8018,1.0996,-0.0786,52.56,-175.91,94.21
1124,386864514,-0.8535,1.0747,-0.0786,53.35,-182.26,101.71
1125,386869514,-0.9062,1.0532,-0.0718,53.72,-188.60,109.21
1126,386874515,-0.9536,1.0337,-0.0615,53.84,-195.18,116.34
1127,386879514,-1.0020,1.0078,-0.0664,53.54,-201.65,123.60
1128,386884516,-1.0537,0.9824,-0.0698,52.68,-208.29,130.73
1129,386889515,-1.1055,0.9619,-0.0806,51.65,-215.18,137.68
1130,386894514,-1.1519,0.9341,-0.0850,50.73,-222.01,144.45
1131,386899514,-1.2056,0.9053,-0.0972,49.88,-229.21,151.22
1132,386904518,-1.2544,0.8853,-0.1025,49.27,-236.28,157.80
1133,386909515,-1.3115,0.8579,-0.1167,48.96,-243.48,164.39
1134,386914878,-1.3711,0.8281,-0.1270,48.84,-252.13,172.26
1135,386919516,-1.4111,0.8101,-0.1396,48.78,-258.11,177.38
1136,386924516,-1.4604,0.7881,-0.1533,48.90,-265.61,183.72
1137,386929515,-1.5044,0.7700,-0.1675,49.02,-272.99,189.94
1138,386934516,-1.5601,0.7476,-0.1768,48.90,-280.55,196.28
1139,386939515,-1.6191,0.7310,-0.1943,48.66,-287.93,202.20
1140,386944516,-1.6855,0.7163,-0.2070,48.17,-295.49,207.93
1141,386949514,-1.7598,0.6958,-0.2217,47.07,-304.70,214.82
1142,386954516,-1.8047,0.6885,-0.2295,46.04,-310.79,219.27
1143,386959515,-1.8647,0.6758,-0.2480,44.70,-318.41,224.57
1144,386964516,-1.9209,0.6685,-0.2603,43.11,-326.22,229.76
1145,386969516,-1.9795,0.6626,-0.2769,41.22,-333.78,235.00
1146,386974516,-2.0488,0.6543,-0.3120,38.72,-342.80,240.85
1147,386979515,-2.1226,0.6826,-0.3247,36.59,-348.90,244.63
1148,386984979,-2.2549,0.6689,-0.3555,33.11,-358.05,249.94
1149,386989516,-2.3242,0.6665,-0.3799,30.98,-364.27,253.66
1150,386994516,-2.3926,0.6685,-0.3809,27.99,-373.23,259.02
1151,386999516,-2.4326,0.6807,-0.3901,26.46,-379.21,262.44
1152,387004515,-2.5122,0.6841,-0.4106,24.63,-387.93,267.38
1153,387009516,-2.6191,0.7056,-0.4106,23.17,-393.54,270.43
1154,387014516,-2.7856,0.6968,-0.4746,19.02,-402.38,274.88
1155,387019516,-2.8369,0.6890,-0.4985,14.09,-410.43,278.41
1156,387024515,-2.8921,0.7197,-0.4751,8.35,-418.48,281.52
1157,387029516,-2.9551,0.7012,-0.4912,1.40,-426.22,284.27
1158,387034516,-3.0381,0.7144,-0.5039,-6.04,-434.09,286.52
1159,387039516,-3.1157,0.7559,-0.5166,-12.99,-441.89,288.35
1160,387044515,-3.1924,0.7881,-0.5522,-19.21,-449.82,289.76
1161,387049516,-3.2871,0.8315,-0.5742,-24.88,-457.56,290.61
1162,387054516,-3.2490,0.8013,-0.5488,-30.55,-465.12,291.22
1163,387059535,-3.3813,0.8359,-0.5356,-37.32,-472.50,291.46
1164,387064548,-3.4917,0.8877,-0.6504,-43.72,-479.76,291.28
1165,387069516,-3.6104,0.9561,-0.6221,-49.51,-486.95,290.85
1166,387074516,-3.8042,1.0361,-0.6475,-54.21,-493.72,290.06
1167,387079516,-3.9541,1.0571,-0.6733,-57.62,-500.61,289.09
1168,387084515,-4.0439,1.0869,-0.6714,-60.06,-506.95,288.17
1169,387089516,-4.0942,1.1250,-0.6372,-62.13,-512.93,287.20
1170,387094516,-4.1899,1.1582,-0.6836,-64.33,-518.35,286.22
1171,387099516,-4.2661,1.2173,-0.7412,-66.95,-523.72,285.12
1172,387104515,-4.3101,1.2510,-0.7280,-69.51,-528.84,284.27
1173,387109516,-4.3760,1.2886,-0.7632,-72.26,-533.66,283.41
1174,387114517,-4.4258,1.3262,-0.8203,-75.98,-538.17,282.50
1175,387119516,-4.4590,1.3765,-0.8560,-80.91,-542.62,281.52
1176,387124515,-4.5044,1.4600,-0.9214,-86.04,-546.89,280.12
1177,387129516,-4.5669,1.5415,-0.9722,-90.67,-550.79,278.84
1178,387134516,-4.6177,1.6226,-0.9966,-93.96,-554.15,277.32
1179,387139516,-4.6582,1.6860,-1.0083,-95.30,-557.20,276.10
1180,387144515,-4.7070,1.7788,-1.0542,-93.96,-558.96,275.00
1181,387149516,-4.7275,1.8501,-1.0615,-89.82,-560.55,273.84
1182,387154516,-4.7300,1.9189,-1.0977,-83.29,-561.22,273.60
1183,387159516,-4.7402,1.9697,-1.1045,-74.09,-560.79,274.70
1184,387164514,-4.7446,2.0552,-1.1387,-62.99,-559.09,277.13
1185,387169516,-4.7349,2.1143,-1.1904,-49.76,-556.46,280.67
1186,387174516,-4.7212,2.1748,-1.2456,-34.39,-552.74,285.67
1187,387179515,-4.6821,2.2378,-1.2939,-18.11,-547.74,292.07
1188,387184517,-4.6392,2.3027,-1.3711,-1.16,-541.83,299.70
1189,387189516,-4.6055,2.3623,-1.4224,16.34,-534.70,308.66
1190,387194518,-4.6025,2.3950,-1.4741,33.72,-526.34,319.02
1191,387199515,-4.5688,2.4277,-1.4849,50.18,-516.10,330.49
1192,387204516,-4.4868,2.4365,-1.5493,65.30,-504.51,343.11
1193,387209516,-4.4253,2.4595,-1.5791,77.44,-491.77,356.34
1194,387214516,-4.3945,2.4736,-1.6606,86.22,-478.11,370.00
1195,387219515,-4.3389,2.4634,-1.7051,92.56,-463.60,383.84
1196,387224930,-4.2729,2.4741,-1.7759,96.10,-448.29,397.80
1197,387229516,-4.2173,2.4536,-1.8228,97.26,-432.32,411.40
1198,387234516,-4.1426,2.4453,-1.9385,96.16,-416.34,424.63
1199,387239516,-4.1426,2.4058,-1.9683,92.26,-400.24,437.32
1200,387244515,-4.1011,2.3760,-2.0366,86.22,-384.33,449.27
1201,387249516,-4.0942,2.3477,-2.1323,77.26,-369.27,460.49
1202,387254516,-4.0791,2.3013,-2.1606,66.52,-354.63,470.98
1203,387259516,-3.9966,2.2632,-2.1924,53.90,-340.24,480.67
1204,387264515,-3.9546,2.2261,-2.2402,39.76,-326.46,489.63
1205,387269516,-3.8999,2.1782,-2.2417,24.09,-313.41,497.87
1206,387274514,-3.8296,2.1284,-2.2388,7.32,-300.98,505.37
1207,387279516,-3.7773,2.0918,-2.2549,-9.82,-289.21,512.32
1208,387284516,-3.7251,2.0420,-2.2617,-26.40,-278.17,518.84
1209,387289515,-3.6812,1.9985,-2.2451,-41.40,-268.11,524.82
1210,387294518,-3.6362,1.9512,-2.2578,-54.57,-258.60,530.49
1211,387299519,-3.5869,1.9116,-2.2563,-65.85,-249.82,535.85
1212,387304515,-3.5410,1.8706,-2.2314,-74.45,-241.40,541.22
1213,387309528,-3.4985,1.8086,-2.2104,-79.63,-233.72,546.46
1214,387314516,-3.4780,1.7593,-2.2036,-82.13,-226.22,551.95
1215,387319557,-3.4512,1.7085,-2.1953,-82.50,-218.84,557.32
1216,387324516,-3.4185,1.6519,-2.1831,-80.98,-211.71,562.87
1217,387329515,-3.3804,1.5996,-2.1538,-77.26,-204.57,568.23
1218,387334516,-3.3555,1.5317,-2.1245,-71.65,-197.32,573.66
1219,387339515,-3.3184,1.4648,-2.1226,-64.82,-190.00,579.09
1220,387344516,-3.2646,1.4038,-2.1138,-57.93,-182.32,584.02
1221,387349515,-3.2109,1.3394,-2.0928,-51.34,-174.45,588.66
1222,387354516,-3.1606,1.2778,-2.0688,-44.63,-166.65,592.93
1223,387359515,-3.1152,1.2217,-2.0508,-37.62,-158.66,596.83
1224,387364516,-3.0776,1.1597,-2.0342,-30.91,-150.43,600.37
1225,387369515,-3.0566,1.0903,-2.0156,-24.51,-141.89,603.60
1226,387374516,-3.0264,1.0278,-1.9956,-19.27,-133.29,606.59
1227,387379516,-2.9766,0.9702,-1.9507,-15.79,-124.94,608.90
1228,387384516,-2.9248,0.9253,-1.9116,-14.33,-116.46,610.55
1229,387389516,-2.8774,0.8779,-1.8848,-14.39,-108.54,611.52
1230,387395000,-2.8452,0.8379,-1.8467,-15.79,-100.61,611.71
1231,387399516,-2.8159,0.7783,-1.8281,-17.50,-92.87,611.16
1232,387404516,-2.7837,0.7427,-1.8032,-19.76,-85.37,610.00
1233,387409516,-2.7549,0.6553,-1.7861,-23.54,-78.23,607.99
1234,387414515,-2.7256,0.6250,-1.7759,-27.32,-70.98,605.79
1235,387419517,-2.7114,0.6060,-1.7456,-29.63,-63.78,603.35
1236,387424516,-2.6826,0.5557,-1.7329,-29.76,-56.59,600.85
1237,387429516,-2.6387,0.4946,-1.7275,-27.32,-49.15,598.54
1238,387434515,-2.6069,0.4443,-1.7061,-22.50,-41.77,596.59
1239,387439516,-2.5767,0.4116,-1.6890,-14.88,-33.96,594.57
1240,387444516,-2.5459,0.3818,-1.6660,-5.37,-25.79,592.62
1241,387449516,-2.5054,0.3555,-1.6387,5.24,-17.56,590.49
1242,387454515,-2.4712,0.3174,-1.5942,16.52,-8.90,588.41
1243,387459516,-2.4453,0.2749,-1.5728,27.74,0.06,586.28
1244,387464516,-2.4102,0.2197,-1.5479,38.54,9.33,583.96
1245,387469515,-2.3799,0.1675,-1.5068,48.60,18.96,581.59
1246,387474516,-2.3506,0.1211,-1.4731,57.62,28.66,578.96
1247,387479516,-2.3271,0.0840,-1.4385,65.30,38.72,575.98
1248,387484516,-2.2949,0.0415,-1.3892,71.40,48.41,572.32
1249,387489515,-2.2734,0.0005,-1.3564,75.55,58.66,568.11
1250,387494514,-2.2534,-0.0317,-1.3315,78.23,68.35,563.23
1251,387499516,-2.2305,-0.0635,-1.3042,79.51,77.93,557.74
1252,387504516,-2.2256,-0.0996,-1.2734,79.33,87.01,551.65
1253,387509515,-2.2236,-0.1313,-1.2324,77.99,95.49,545.24
1254,387514516,-2.2021,-0.1714,-1.1880,75.61,103.84,538.17
1255,387519515,-2.1929,-0.1992,-1.1470,72.56,111.28,531.22
1256,387524517,-2.1875,-0.2256,-1.1157,68.84,118.41,523.84
1257,387529515,-2.1733,-0.2568,-1.0835,64.70,125.18,516.34
1258,387534516,-2.1494,-0.2759,-1.0361,60.06,131.16,508.60
1259,387539515,-2.1313,-0.3003,-1.0010,55.67,137.01,500.67
1260,387544516,-2.1289,-0.3198,-0.9658,51.89,142.20,492.56
1261,387549516,-2.1304,-0.3379,-0.9385,48.96,147.01,484.63
1262,387554516,-2.1343,-0.3667,-0.9209,47.20,151.40,476.89
1263,387559516,-2.1450,-0.3813,-0.8955,46.65,155.61,469.21
1264,387564515,-2.1582,-0.3994,-0.8691,47.01,159.39,461.71
1265,387569516,-2.1826,-0.4199,-0.8276,48.11,163.11,454.27
1266,387574516,-2.1953,-0.4336,-0.7979,49.88,166.71,446.77
1267,387579516,-2.2061,-0.4575,-0.7583,51.77,170.37,439.57
1268,387584515,-2.2231,-0.4688,-0.7188,53.41,173.72,432.20
1269,387589516,-2.2471,-0.4834,-0.6831,54.82,177.07,424.94
1270,387594516,-2.2563,-0.4966,-0.6475,55.06,180.18,417.68
1271,387599517,-2.2734,-0.5117,-0.6089,54.21,183.23,410.37
1272,387604516,-2.2954,-0.5259,-0.5620,52.07,186.04,403.11
1273,387609515,-2.3101,-0.5449,-0.5093,48.48,188.35,395.91
1274,387614516,-2.3262,-0.5723,-0.4663,43.41,190.61,388.90
1275,387619515,-2.3486,-0.5991,-0.4243,37.20,192.68,382.01
1276,387624579,-2.3677,-0.6265,-0.3804,30.06,194.45,375.18
1277,387629515,-2.3867,-0.6558,-0.3442,22.13,195.85,368.41
1278,387634516,-2.4111,-0.6929,-0.2915,14.09,197.07,361.77
1279,387639515,-2.3989,-0.7310,-0.2656,5.85,197.93,355.37
1280,387644516,-2.3838,-0.7661,-0.2173,-2.32,198.66,348.84
1281,387649516,-2.3750,-0.7988,-0.1914,-10.06,198.78,342.56
1282,387654516,-2.3652,-0.8301,-0.1738,-17.26,198.72,336.10
1283,387659515,-2.3789,-0.8574,-0.1538,-23.78,197.99,329.94
1284,387664516,-2.3730,-0.8887,-0.1294,-29.63,196.77,323.96
1285,387669516,-2.3638,-0.9058,-0.1289,-34.63,195.06,318.05
1286,387674516,-2.3618,-0.9243,-0.1226,-38.41,193.11,312.26
1287,387679516,-2.3511,-0.9395,-0.1069,-40.91,190.49,306.52
1288,387684515,-2.3447,-0.9521,-0.1099,-42.26,187.50,301.04
1289,387689516,-2.3120,-0.9751,-0.0972,-42.80,184.27,295.49
1290,387694516,-2.2881,-0.9932,-0.0874,-43.11,180.43,289.57
1291,387699516,-2.2524,-1.0234,-0.0811,-42.93,176.34,283.84
1292,387704515,-2.2256,-1.0552,-0.0728,-42.74,171.71,277.62
1293,387709516,-2.1763,-1.0845,-0.0615,-42.13,166.59,271.28
1294,387714516,-2.1313,-1.1123,-0.0513,-41.22,161.52,264.63
1295,387719516,-2.0752,-1.1367,-0.0474,-39.63,155.85,257.50
1296,387724515,-2.0112,-1.1626,-0.0400,-37.01,150.18,249.94
1297,387729516,-1.9346,-1.2021,-0.0244,-33.29,144.21,241.95
1298,387734516,-1.8491,-1.2705,-0.0093,-28.72,138.17,233.54
1299,387739516,-1.7490,-1.4287,-0.0068,-22.87,131.83,224.76
1300,387744515,-1.7080,-1.8613,-0.1074,-14.70,125.55,216.10
1301,387749516,-1.7759,-2.3594,-0.2539,-3.05,119.45,207.26
1302,387754516,-1.7412,-2.5747,-0.2236,16.65,113.72,196.46
1303,387759516,-1.5161,-2.5791,-0.0972,48.17,111.71,181.83
1304,387764515,-1.2949,-2.3857,-0.0366,88.29,111.77,163.48
1305,387769516,-1.1621,-2.2705,-0.0566,128.05,111.89,142.07
1306,387774516,-1.0718,-2.2129,-0.0835,158.05,110.18,119.02
1307,387779516,-1.1069,-2.1445,-0.0503,173.11,106.52,95.55
1308,387784515,-1.1338,-2.0410,0.0303,172.50,100.43,73.54
1309,387789516,-1.1289,-1.8604,0.0215,160.00,93.66,52.68
1310,387794516,-1.1157,-1.6602,0.0728,140.55,85.43,33.48
1311,387799516,-1.1206,-1.5361,0.1382,118.05,77.56,16.34
1312,387804515,-1.0649,-1.3745,0.1021,96.65,68.48,1.16
1313,387809516,-1.0112,-1.2769,0.1382,77.74,58.84,-12.20
1314,387814516,-0.9707,-1.2144,0.1958,62.50,49.70,-24.02
1315,387819515,-0.9351,-1.1621,0.1836,52.26,40.49,-34.82
1316,387824516,-0.8906,-1.1255,0.1792,46.83,31.59,-44.57
1317,387829515,-0.8516,-1.1025,0.1880,45.61,23.41,-53.41
1318,387834514,-0.8501,-1.0977,0.1641,47.62,15.98,-61.77
1319,387839516,-0.8442,-1.1016,0.1323,51.77,8.78,-69.27
1320,387844516,-0.8335,-1.0942,0.1143,56.40,2.01,-76.40
1321,387849515,-0.8188,-1.0845,0.0991,61.10,-4.15,-83.11
1322,387854516,-0.8066,-1.0718,0.0786,65.91,-10.12,-89.45
1323,387859515,-0.8013,-1.0591,0.0591,70.61,-15.49,-95.37
1324,387864516,-0.8027,-1.0430,0.0493,74.88,-20.43,-100.98
1325,387869515,-0.8076,-1.0293,0.0254,78.29,-25.12,-106.16
1326,387874516,-0.8140,-1.0093,0.0161,80.98,-29.33,-110.85
1327,387879515,-0.8203,-0.9961,0.0088,82.56,-33.35,-115.24
1328,387884516,-0.8262,-0.9751,-0.0068,83.35,-37.20,-119.39
1329,387889515,-0.8340,-0.9531,-0.0195,83.48,-40.98,-123.17
1330,387894517,-0.8340,-0.9312,-0.0210,82.80,-44.45,-126.59
1331,387899515,-0.8291,-0.9165,-0.0259,82.01,-47.62,-129.76
1332,387904516,-0.8242,-0.8970,-0.0278,81.04,-50.67,-132.62
1333,387909515,-0.8208,-0.8794,-0.0322,79.63,-53.41,-135.00
1334,387914516,-0.8188,-0.8687,-0.0469,78.23,-56.10,-137.26
1335,387919515,-0.8223,-0.8560,-0.0479,76.65,-58.41,-138.90
1336,387924516,-0.8203,-0.8447,-0.0586,75.24,-60.61,-140.24
1337,387929515,-0.8188,-0.8374,-0.0635,73.60,-62.62,-141.40
1338,387934520,-0.8159,-0.8257,-0.0718,71.46,-64.57,-142.32
1339,387939515,-0.8149,-0.8120,-0.0815,69.21,-66.10,-142.87
1340,387944514,-0.8062,-0.8057,-0.0781,66.83,-67.50,-143.60
1341,387949518,-0.7871,-0.7998,-0.0913,63.78,-68.84,-144.15
1342,387954515,-0.7749,-0.7964,-0.0967,60.43,-69.94,-144.82
1343,387959515,-0.7583,-0.7871,-0.0977,56.95,-71.28,-145.37
1344,387964517,-0.7407,-0.7769,-0.0991,53.11,-72.13,-146.04
1345,387969515,-0.7319,-0.7686,-0.1025,49.45,-73.11,-146.65
1346,387974515,-0.7231,-0.7690,-0.1079,45.85,-73.84,-147.26
1347,387979516,-0.7173,-0.7666,-0.1167,42.38,-74.82,-147.87
1348,387984519,-0.7075,-0.7671,-0.1147,39.51,-75.55,-148.48
1349,387989515,-0.7012,-0.7705,-0.1143,36.95,-76.34,-149.27
1350,387994560,-0.6895,-0.7773,-0.1113,35.18,-77.01,-150.06
1351,387999516,-0.6743,-0.7856,-0.1108,34.09,-77.44,-150.91
1352,388004516,-0.6611,-0.8037,-0.1108,33.29,-78.05,-152.07
1353,388009516,-0.6445,-0.8154,-0.1055,33.35,-78.54,-153.23
1354,388014516,-0.6284,-0.8276,-0.1089,34.02,-79.02,-154.45
1355,388019516,-0.6152,-0.8389,-0.1099,34.94,-79.45,-155.73
1356,388024516,-0.5991,-0.8447,-0.1152,35.91,-79.94,-157.32
1357,388029516,-0.5830,-0.8550,-0.1152,37.13,-80.37,-158.78
1358,388034582,-0.5737,-0.8574,-0.1235,37.87,-80.98,-160.43
1359,388039516,-0.5610,-0.8638,-0.1274,38.35,-81.77,-162.20
1360,388044516,-0.5576,-0.8525,-0.1333,38.54,-82.62,-164.09
1361,388049516,-0.5552,-0.8711,-0.1177,37.99,-83.48,-166.16
1362,388054516,-0.5366,-0.8730,-0.1143,37.01,-84.27,-168.17
1363,388059516,-0.5166,-0.8784,-0.1260,35.73,-85.18,-170.55
1364,388064516,-0.4980,-0.8857,-0.1255,34.57,-86.10,-173.17
1365,388069516,-0.4990,-0.8940,-0.1167,33.54,-87.01,-175.73
1366,388074517,-0.4956,-0.9023,-0.1147,32.93,-87.87,-178.60
1367,388079516,-0.4673,-0.9121,-0.1177,32.99,-88.48,-181.40
1368,388084516,-0.4473,-0.9116,-0.1279,33.60,-89.15,-184.39
1369,388089517,-0.4341,-0.9155,-0.1016,34.88,-89.82,-187.20
1370,388094516,-0.4668,-0.9468,-0.0967,36.28,-90.43,-189.82
1371,388099516,-0.4531,-0.9668,-0.0947,38.11,-90.91,-192.01
1372,388104516,-0.4282,-0.9609,-0.0991,40.06,-91.40,-194.09
1373,388109516,-0.4048,-0.9546,-0.1030,42.26,-91.52,-196.52
1374,388114517,-0.4009,-0.9629,-0.1230,44.39,-92.38,-198.66
1375,388119516,-0.3955,-0.9707,-0.1108,46.22,-92.44,-200.73
1376,388124516,-0.3740,-0.9858,-0.0967,47.38,-92.20,-202.68
1377,388129516,-0.3569,-1.0010,-0.0972,48.17,-92.38,-204.82
1378,388134516,-0.3330,-1.0029,-0.0864,48.29,-92.50,-206.89
1379,388139516,-0.3135,-1.0015,-0.0811,48.05,-92.01,-208.78
1380,388144516,-0.2979,-0.9971,-0.0859,47.68,-91.77,-211.10
1381,388149516,-0.2866,-0.9971,-0.0996,47.32,-91.16,-213.05
1382,388154516,-0.2876,-0.9980,-0.0928,46.95,-90.79,-214.94
1383,388159516,-0.2881,-0.9897,-0.0967,46.65,-90.18,-216.59
1384,388164516,-0.2822,-0.9854,-0.1187,46.46,-89.76,-218.17
1385,388169516,-0.2852,-0.9834,-0.1138,46.77,-89.39,-219.51
1386,388174516,-0.2725,-0.9868,-0.0918,47.07,-88.90,-220.85
1387,388179516,-0.2544,-0.9868,-0.1025,47.01,-88.54,-221.95
1388,388184515,-0.2271,-0.9805,-0.1030,46.71,-88.17,-223.23
1389,388189517,-0.2065,-0.9751,-0.0845,45.85,-87.87,-224.45
1390,388194519,-0.1904,-0.9756,-0.0806,44.76,-87.32,-225.85
1391,388199516,-0.1606,-0.9722,-0.0801,43.35,-86.89,-227.20
1392,388204516,-0.1323,-0.9663,-0.0820,42.01,-86.52,-228.60
1393,388209516,-0.0503,-0.9146,-0.1357,41.77,-86.34,-230.37
1394,388214516,-0.0972,-0.9512,-0.0669,43.35,-86.40,-231.71
1395,388219516,-0.0928,-0.9727,-0.0186,44.63,-85.79,-232.80
1396,388224516,-0.0898,-0.9722,-0.0195,44.94,-84.94,-233.96
1397,388229516,-0.0698,-0.9448,-0.0298,44.57,-84.09,-235.18
1398,388234516,-0.0566,-0.9170,-0.0381,43.96,-83.17,-236.34
1399,388239517,-0.0474,-0.8955,-0.0645,43.72,-82.26,-237.26
1400,388244516,-0.0444,-0.8740,-0.0693,43.96,-81.46,-237.93
1401,388249516,-0.0371,-0.8608,-0.0615,44.39,-80.55,-238.29
1402,388254516,-0.0391,-0.8281,-0.0605,45.30,-79.63,-238.35
1403,388259516,-0.0166,-0.7944,-0.0601,45.98,-78.41,-238.29
1404,388264514,0.0078,-0.7896,-0.0469,46.46,-77.56,-237.93
1405,388269516,0.0239,-0.7837,-0.0298,46.04,-76.52,-237.38
1406,388274516,0.0391,-0.7583,-0.0210,44.70,-75.43,-236.89
1407,388279516,0.0659,-0.7373,-0.0195,42.80,-74.39,-236.28
1408,388284514,0.0869,-0.7095,-0.0054,40.43,-73.17,-235.91
1409,388289514,0.1162,-0.6895,0.0005,37.93,-72.07,-235.55
1410,388294516,0.1455,-0.6704,-0.0059,35.18,-70.98,-235.30
1411,388299515,0.1699,-0.6455,-0.0068,32.44,-69.88,-235.06
1412,388304518,0.1855,-0.6245,-0.0181,29.76,-68.60,-234.82
1413,388309515,0.1958,-0.6084,-0.0181,26.89,-67.44,-234.63
1414,388314514,0.2129,-0.5894,-0.0195,23.72,-65.98,-234.33
1415,388319516,0.2319,-0.5713,-0.0166,20.37,-64.76,-234.21
1416,388324516,0.2510,-0.5488,-0.0278,16.89,-63.41,-233.90
1417,388329515,0.2681,-0.5269,-0.0337,13.17,-62.13,-233.48
1418,388334516,0.2852,-0.5078,-0.0400,9.63,-60.79,-232.99
1419,388339515,0.2959,-0.4873,-0.0449,5.85,-59.63,-232.26
1420,388344516,0.2988,-0.4653,-0.0522,2.44,-58.29,-231.28
1421,388349515,0.3081,-0.4541,-0.0771,-0.67,-56.83,-230.37
1422,388354516,0.3267,-0.4331,-0.0928,-3.29,-55.55,-229.33
1423,388359515,0.3403,-0.4224,-0.1104,-5.73,-54.27,-228.23
1424,388364516,0.3608,-0.4014,-0.1240,-7.87,-52.93,-227.01
1425,388369515,0.3833,-0.3843,-0.1318,-9.45,-51.46,-225.85
1426,388374516,0.4146,-0.3633,-0.1431,-10.43,-50.18,-224.76
1427,388379515,0.4404,-0.3379,-0.1455,-10.91,-48.60,-223.72
1428,388384516,0.4775,-0.3110,-0.1694,-10.85,-47.38,-222.93
1429,388389515,0.5039,-0.2778,-0.1934,-10.24,-46.10,-222.32
1430,388394516,0.5210,-0.2393,-0.2080,-9.57,-45.00,-221.71
1431,388399613,0.5508,-0.2080,-0.2183,-8.96,-44.21,-221.34
1432,388404514,0.5664,-0.1719,-0.2480,-8.78,-43.72,-221.10
1433,388409518,0.6055,-0.1553,-0.2241,-9.45,-43.23,-220.85
1434,388415026,0.6050,-0.1133,-0.2476,-10.61,-42.56,-220.61
1435,388419517,0.6050,-0.0811,-0.2896,-12.38,-42.44,-220.67
1436,388424516,0.6519,-0.0820,-0.2725,-15.18,-42.20,-220.43
1437,388429516,0.7529,-0.0947,-0.2485,-17.93,-41.77,-219.94
1438,388434516,0.7119,-0.0815,-0.3169,-22.68,-41.59,-218.96
1439,388439516,0.6572,-0.0420,-0.4180,-27.74,-42.07,-218.29
1440,388444516,0.6328,-0.0015,-0.2314,-32.62,-41.22,-217.74
1441,388449516,0.6426,0.0166,-0.2627,-36.95,-39.76,-217.26
1442,388454516,0.6738,0.0312,-0.3574,-40.73,-39.09,-216.59
1443,388459516,0.6870,0.0503,-0.3022,-44.09,-37.87,-215.98
1444,388464516,0.6782,0.0615,-0.2290,-46.77,-36.10,-215.12
1445,388469516,0.6919,0.0635,-0.2876,-48.84,-34.33,-213.90
1446,388474516,0.7090,0.0913,-0.3188,-49.88,-32.87,-212.68
1447,388479516,0.6860,0.1182,-0.2778,-49.70,-30.85,-211.22
1448,388484649,0.7153,0.1333,-0.2480,-48.41,-28.66,-209.70
1449,388489516,0.7441,0.1523,-0.2793,-45.91,-26.52,-207.93
1450,388494516,0.7529,0.1758,-0.2788,-42.20,-24.70,-205.79
1451,388499517,0.7441,0.1909,-0.2148,-37.32,-22.56,-203.90
1452,388504514,0.7222,0.2153,-0.2192,-32.07,-20.30,-201.89
1453,388509518,0.7295,0.2407,-0.3071,-26.95,-18.78,-199.94
1454,388514516,0.7573,0.2197,-0.2251,-21.71,-17.32,-197.68
1455,388519516,0.7749,0.2095,-0.2202,-16.22,-15.67,-195.18
1456,388524516,0.7754,0.2148,-0.2363,-10.91,-14.27,-192.38
1457,388529515,0.7607,0.2295,-0.2549,-6.04,-13.05,-189.76
1458,388534516,0.7100,0.2690,-0.2378,-1.95,-11.95,-187.20
1459,388539609,0.6836,0.2632,-0.2363,0.91,-10.98,-184.45
1460,388544517,0.7886,0.2710,-0.2168,2.99,-10.12,-181.59
1461,388549515,0.8584,0.2886,-0.2471,4.88,-9.02,-178.60
1462,388554516,0.8774,0.2881,-0.1729,6.89,-8.05,-175.43
1463,388559515,0.8770,0.2744,-0.2026,8.84,-7.07,-171.89
1464,388564516,0.8462,0.3037,-0.2397,11.04,-6.22,-168.29
1465,388569515,0.8145,0.3325,-0.2388,13.29,-5.67,-164.82
1466,388574516,0.7876,0.3696,-0.2285,15.49,-4.94,-161.46
1467,388579516,0.7798,0.3799,-0.2900,17.50,-4.63,-158.23
1468,388584516,0.7896,0.4072,-0.2603,19.39,-4.27,-154.94
1469,388589515,0.7930,0.4219,-0.2437,21.16,-3.48,-151.65
1470,388594516,0.7979,0.4297,-0.2734,22.93,-2.68,-148.29
1471,388599515,0.8105,0.4360,-0.3057,24.27,-2.01,-144.82
1472,388604514,0.8130,0.4448,-0.2798,25.18,-1.34,-141.22
1473,388609532,0.8228,0.4609,-0.2686,25.98,-0.30,-137.62
1474,388614516,0.8398,0.4756,-0.2754,26.16,0.91,-134.09
1475,388619515,0.8511,0.4956,-0.2842,26.04,2.26,-130.55
1476,388624518,0.8354,0.5210,-0.2769,25.79,3.66,-127.13
1477,388629515,0.8369,0.5439,-0.2612,25.49,5.30,-124.09
1478,388634516,0.8589,0.5557,-0.3052,25.18,6.89,-120.98
1479,388639515,0.8560,0.5698,-0.2759,25.67,8.41,-117.80
1480,388644516,0.8662,0.5913,-0.2725,27.07,10.06,-114.51
1481,388649515,0.8740,0.6045,-0.2935,29.88,11.34,-111.34
1482,388654516,0.8813,0.5967,-0.3340,33.23,12.38,-107.93
1483,388659515,0.8657,0.6274,-0.2632,37.01,13.84,-104.57
1484,388664516,0.8618,0.6504,-0.2510,41.52,15.61,-101.40
1485,388669515,0.8828,0.6060,-0.2651,46.95,16.83,-98.48
1486,388674516,0.9102,0.5864,-0.3345,52.50,17.56,-95.24
1487,388679515,0.8799,0.5947,-0.2686,58.41,18.54,-91.95
1488,388684516,0.8569,0.6260,-0.2036,64.57,20.55,-88.23
1489,388689515,0.8623,0.6299,-0.2319,70.55,22.32,-84.70
1490,388694516,0.8936,0.6182,-0.2949,76.34,23.84,-81.22
1491,388699516,0.8901,0.6147,-0.2222,81.59,25.18,-77.93
1492,388704514,0.8926,0.6025,-0.1987,86.46,27.13,-75.06
1493,388709516,0.9043,0.6079,-0.2534,90.85,28.35,-72.56
1494,388714594,0.9082,0.6157,-0.2729,95.00,29.09,-70.12
1495,388719516,0.8984,0.6357,-0.2349,98.35,29.94,-68.11
1496,388724516,0.8965,0.6509,-0.2295,101.28,30.79,-66.46
1497,388729518,0.8960,0.6616,-0.2612,103.72,31.28,-65.12
1498,388734516,0.8940,0.6538,-0.2666,105.55,31.71,-63.96
1499,388739516,0.8857,0.6421,-0.2412,106.89,31.95,-62.87
1500,388744517,0.8799,0.6377,-0.2510,107.56,32.26,-61.95
1501,388749516,0.8696,0.6387,-0.2734,107.44,32.32,-61.16
1502,388754514,0.8540,0.6401,-0.2627,106.77,32.38,-60.49
1503,388759516,0.8354,0.6431,-0.2295,105.12,32.80,-59.94
1504,388764516,0.8213,0.6431,-0.2422,103.11,33.35,-59.57
1505,388769516,0.8262,0.6299,-0.2490,100.30,33.66,-59.39
1506,388774516,0.8350,0.6206,-0.2212,97.20,34.33,-59.27
1507,388779516,0.8413,0.6074,-0.1924,93.35,35.43,-59.27
1508,388784516,0.8462,0.6030,-0.1914,89.39,36.40,-59.33
1509,388789517,0.8594,0.5972,-0.1924,85.06,37.74,-59.51
1510,388794516,0.8594,0.6016,-0.1655,80.73,39.45,-59.57
1511,388799516,0.8496,0.6162,-0.1416,75.98,41.52,-59.76
1512,388804516,0.8359,0.6489,-0.1338,71.22,44.27,-59.88
1513,388809516,0.7993,0.6826,-0.2192,65.91,46.77,-60.18
1514,388814516,0.7339,0.6567,-0.3555,59.39,47.68,-60.67
1515,388819516,0.7476,0.5845,-0.3413,51.04,47.74,-60.91
1516,388824516,0.8154,0.5830,-0.3052,42.62,47.56,-60.67
1517,388829516,0.8486,0.6191,-0.2622,35.98,48.11,-60.67
1518,388834516,0.8325,0.6431,-0.2178,32.01,48.96,-60.91
1519,388839515,0.8223,0.6636,-0.1953,30.30,50.30,-61.46
1520,388844516,0.8242,0.6670,-0.1899,30.61,51.59,-61.89
1521,388849515,0.8364,0.6548,-0.1870,32.13,52.80,-62.26
1522,388854517,0.8472,0.6270,-0.1934,34.02,53.90,-62.56
1523,388859515,0.8462,0.6104,-0.1914,36.34,54.82,-62.68
1524,388864516,0.8311,0.6035,-0.1841,38.96,55.49,-62.68
1525,388869515,0.8188,0.5977,-0.1812,41.95,56.16,-62.50
1526,388874516,0.7988,0.5938,-0.1694,44.94,56.89,-62.44
1527,388879515,0.7979,0.5928,-0.1626,47.87,57.56,-62.07
1528,388884516,0.7856,0.5830,-0.1616,50.18,58.17,-61.71
1529,388889515,0.7720,0.5762,-0.1636,52.01,59.02,-61.22
1530,388894516,0.7617,0.5688,-0.1621,53.54,59.63,-60.55
1531,388899515,0.7588,0.5659,-0.1577,54.57,60.06,-60.00
1532,388904516,0.7427,0.5684,-0.1479,55.43,60.55,-59.09
1533,388909515,0.7358,0.5669,-0.1499,56.22,61.28,-58.35
1534,388914516,0.7266,0.5703,-0.1450,56.83,61.59,-57.44
1535,388919516,0.7202,0.5669,-0.1440,57.80,61.83,-56.46
1536,388924516,0.7183,0.5718,-0.1401,58.78,62.32,-55.55
1537,388929516,0.7251,0.5757,-0.1465,60.06,62.38,-54.45
1538,388934516,0.7280,0.5830,-0.1367,61.89,62.50,-53.48
1539,388939515,0.7300,0.5933,-0.1357,64.09,62.26,-52.68
1540,388944516,0.7358,0.6050,-0.1323,66.52,62.07,-51.83
1541,388949515,0.7397,0.6152,-0.1396,69.33,61.71,-51.04
1542,388954517,0.7515,0.6323,-0.1343,72.44,61.34,-50.37
1543,388959515,0.7720,0.6494,-0.1289,75.85,60.73,-49.94
1544,388964516,0.7983,0.6772,-0.1294,80.37,59.88,-49.70
1545,388969515,0.8135,0.7017,-0.1226,83.48,59.09,-49.76
1546,388974516,0.8359,0.7241,-0.1299,88.29,58.05,-50.06
1547,388979515,0.8501,0.7393,-0.1191,91.34,57.32,-50.49
1548,388984514,0.8594,0.7500,-0.1216,94.88,56.22,-51.16
1549,388989517,0.8662,0.7612,-0.1230,97.99,55.06,-52.26
1550,388994516,0.8594,0.7622,-0.1162,100.00,53.72,-53.23
1551,388999515,0.8521,0.7681,-0.1191,100.98,52.80,-54.21
1552,389004516,0.8413,0.7715,-0.1152,101.46,51.40,-55.49
1553,389009515,0.8345,0.7725,-0.1128,101.34,50.55,-56.46
1554,389014514,0.8232,0.7642,-0.1255,100.30,49.70,-57.50
1555,389019516,0.8101,0.7622,-0.1216,98.11,48.60,-58.60
1556,389024516,0.7954,0.7534,-0.1299,95.67,47.80,-59.57
1557,389029515,0.7852,0.7505,-0.1289,92.68,46.83,-60.43
1558,389034516,0.7788,0.7437,-0.1323,89.33,46.10,-61.04
1559,389039515,0.7769,0.7397,-0.1255,85.85,45.24,-61.52
1560,389044516,0.7778,0.7393,-0.1167,82.32,44.63,-62.01
1561,389049515,0.7749,0.7402,-0.1196,79.15,44.21,-62.44
1562,389054519,0.7769,0.7363,-0.1328,76.10,43.90,-62.68
1563,389059515,0.7754,0.7383,-0.1172,73.35,43.48,-62.99
1564,389064516,0.7646,0.7266,-0.1074,71.04,43.60,-63.29
1565,389069515,0.7607,0.7217,-0.1133,69.39,43.78,-63.23
1566,389074516,0.7617,0.7188,-0.1162,67.99,43.90,-63.23
1567,389079515,0.7676,0.7236,-0.0996,67.01,44.21,-63.29
1568,389084516,0.7720,0.7231,-0.1045,66.28,44.63,-63.29
1569,389089515,0.7905,0.7212,-0.1113,65.73,44.94,-63.17
1570,389094516,0.7920,0.7114,-0.1035,65.43,45.43,-63.05
1571,389099518,0.7959,0.7075,-0.1025,65.30,45.73,-62.87
1572,389104516,0.8110,0.6982,-0.1104,65.30,45.85,-62.44
1573,389109515,0.8193,0.6895,-0.1089,65.43,46.16,-62.20
1574,389114516,0.8335,0.6890,-0.1025,65.85,46.52,-61.83
1575,389119514,0.8486,0.6904,-0.1084,66.46,46.65,-61.65
1576,389124518,0.8550,0.6909,-0.1060,67.38,46.83,-61.34
1577,389129515,0.8667,0.7007,-0.0884,68.23,47.20,-61.22
1578,389134516,0.8789,0.7021,-0.0942,69.15,47.38,-61.04
1579,389139516,0.8970,0.7144,-0.1055,70.24,47.32,-60.91
1580,389144516,0.9062,0.7158,-0.0977,71.28,47.56,-60.79
1581,389149516,0.9097,0.7183,-0.0898,72.32,47.93,-60.49
1582,389154514,0.9214,0.7153,-0.0913,72.80,48.11,-60.30
1583,389159516,0.9297,0.7173,-0.1016,73.11,48.54,-60.06
1584,389164516,0.9292,0.7285,-0.1021,72.74,48.72,-59.76
1585,389169515,0.9282,0.7266,-0.0928,72.07,49.02,-59.39
1586,389174516,0.9277,0.7339,-0.0923,71.10,49.51,-59.02
1587,389179516,0.9199,0.7227,-0.1084,69.51,49.94,-58.41
1588,389184516,0.9155,0.7188,-0.1099,67.62,50.37,-57.68
1589,389189516,0.9048,0.7168,-0.1064,65.55,50.43,-56.95
1590,389194517,0.8936,0.7188,-0.1138,63.11,51.22,-55.98
1591,389199516,0.8750,0.7202,-0.1157,60.85,51.59,-54.94
1592,389204516,0.8589,0.7144,-0.1108,58.41,52.01,-53.84
1593,389209516,0.8447,0.7183,-0.1006,55.98,52.44,-52.68
1594,389214516,0.8237,0.7139,-0.1069,53.84,53.05,-51.34
1595,389219517,0.8027,0.7075,-0.1108,51.46,53.48,-50.06
1596,389224516,0.7822,0.7065,-0.0913,49.57,53.78,-48.60
1597,389229516,0.7607,0.7056,-0.0762,47.87,54.21,-47.26
1598,389234514,0.7490,0.7070,-0.0811,46.46,54.70,-45.79
1599,389239516,0.7251,0.7080,-0.0728,45.18,55.12,-44.45
1600,389244516,0.7173,0.7095,-0.0576,44.33,55.55,-43.11
1601,389249515,0.7056,0.7065,-0.0591,43.72,55.91,-42.01
1602,389254516,0.6958,0.7148,-0.0557,43.23,56.16,-40.85
1603,389259516,0.6943,0.7168,-0.0449,43.11,56.46,-39.76
1604,389264516,0.6909,0.7183,-0.0405,43.29,56.59,-38.72
1605,389269516,0.6787,0.7202,-0.0332,43.78,56.77,-37.68
1606,389274516,0.6724,0.7212,-0.0376,44.21,56.89,-36.65
1607,389279516,0.6641,0.7222,-0.0249,45.12,56.83,-35.67
1608,389284516,0.6611,0.7227,-0.0186,45.85,57.01,-34.57
1609,389289516,0.6592,0.7183,-0.0161,46.34,57.07,-33.66
1610,389294516,0.6528,0.7183,-0.0132,46.71,56.95,-32.99
1611,389299516,0.6470,0.7202,-0.0122,46.77,56.89,-32.13
1612,389304516,0.6489,0.7212,0.0034,46.52,56.71,-31.52
1613,389309516,0.6489,0.7227,0.0073,45.85,56.65,-30.85
1614,389314516,0.6465,0.7251,0.0073,45.00,56.34,-30.30
1615,389319516,0.6475,0.7217,0.0054,43.96,55.73,-29.94
1616,389324517,0.6436,0.7227,0.0195,42.50,55.37,-29.57
1617,389329516,0.6426,0.7202,0.0186,41.16,54.82,-29.27
1618,389334514,0.6406,0.7153,0.0225,39.45,54.39,-29.02
1619,389339514,0.6406,0.7124,0.0288,37.80,53.78,-28.84
1620,389344858,0.6416,0.7056,0.0317,35.91,53.29,-28.48
1621,389349516,0.6406,0.6997,0.0264,33.90,52.62,-28.11
1622,389354515,0.6421,0.6963,0.0391,31.71,51.83,-27.87
1623,389359516,0.6484,0.6929,0.0405,29.57,51.28,-27.44
1624,389364515,0.6475,0.6875,0.0400,27.50,50.30,-26.95
1625,389369516,0.6499,0.6865,0.0503,25.37,49.76,-26.52
1626,389374515,0.6509,0.6816,0.0493,23.41,48.84,-25.98
1627,389379516,0.6528,0.6846,0.0552,21.52,48.11,-25.55
1628,389384514,0.6567,0.6855,0.0562,19.70,47.50,-25.18
1629,389389516,0.6582,0.6821,0.0562,18.23,46.65,-24.63
1630,389394515,0.6646,0.6826,0.0605,16.77,45.85,-24.09
1631,389399518,0.6655,0.6855,0.0645,15.73,45.18,-23.60
1632,389404514,0.6670,0.6797,0.0596,14.70,44.51,-22.99
1633,389409516,0.6743,0.6777,0.0679,13.84,43.72,-22.38
1634,389415823,0.6758,0.6777,0.0684,13.35,42.80,-21.59
1635,389419516,0.6758,0.6792,0.0781,12.87,42.07,-21.04
1636,389424514,0.6816,0.6831,0.0747,12.56,41.46,-20.30
1637,389429515,0.6875,0.6855,0.0732,12.32,40.73,-19.51
1638,389434516,0.6987,0.6914,0.0747,11.89,40.06,-18.72
1639,389439514,0.7017,0.6938,0.0801,11.40,39.15,-17.99
1640,389444515,0.7070,0.6997,0.0762,10.67,38.29,-17.20
1641,389449517,0.7124,0.7061,0.0757,9.94,37.38,-16.46
1642,389454516,0.7148,0.7119,0.0713,9.27,36.52,-15.73
1643,389459516,0.7207,0.7168,0.0791,8.60,35.79,-15.00
1644,389464516,0.7217,0.7271,0.0723,7.93,34.88,-14.33
1645,389469515,0.7266,0.7310,0.0830,7.38,34.15,-13.66
1646,389474516,0.7285,0.7349,0.0757,6.65,33.17,-13.05
1647,389479516,0.7290,0.7417,0.0728,5.98,32.38,-12.32
1648,389484516,0.7373,0.7432,0.0737,5.49,31.52,-11.59
1649,389489515,0.7412,0.7495,0.0698,5.12,30.67,-11.04
1650,389494516,0.7402,0.7559,0.0703,5.00,29.82,-10.43
1651,389499516,0.7446,0.7646,0.0708,5.24,28.96,-9.70
1652,389504516,0.7485,0.7734,0.0742,5.67,28.23,-9.09
1653,389509515,0.7524,0.7847,0.0654,6.40,27.38,-8.60
1654,389514516,0.7568,0.7983,0.0693,7.50,26.52,-8.05
1655,389519516,0.7700,0.8115,0.0713,8.78,25.73,-7.68
1656,389524514,0.7871,0.8301,0.0708,10.61,24.82,-7.44
1657,389529516,0.8003,0.8462,0.0649,12.68,24.15,-7.44
1658,389534515,0.8081,0.8672,0.0645,14.94,23.11,-7.56
1659,389539516,0.8105,0.8760,0.0659,17.07,22.13,-7.80
1660,389544874,0.8140,0.8848,0.0620,19.45,21.28,-8.17
1661,389549516,0.8149,0.8955,0.0562,21.28,20.37,-8.41
1662,389554515,0.8071,0.8940,0.0566,22.87,19.45,-8.84
1663,389559516,0.8018,0.8994,0.0562,23.96,18.66,-9.27
1664,389564514,0.7900,0.8970,0.0498,24.70,17.80,-9.70
1665,389569517,0.7808,0.8921,0.0371,24.82,16.83,-9.88
1666,389574515,0.7656,0.8916,0.0391,24.51,16.04,-10.18
1667,389579516,0.7500,0.8862,0.0288,23.78,15.24,-10.43
1668,389584514,0.7319,0.8838,0.0293,22.74,14.51,-10.43
1669,389589516,0.7114,0.8784,0.0298,21.28,13.72,-10.43
1670,389594516,0.6948,0.8726,0.0200,19.82,13.35,-10.30
1671,389599517,0.6797,0.8672,0.0176,18.23,12.68,-10.00
1672,389604516,0.6577,0.8618,0.0098,16.59,12.07,-9.57
1673,389609516,0.6436,0.8618,0.0083,14.94,11.65,-9.02
1674,389614516,0.6318,0.8696,0.0068,13.72,11.16,-8.35
1675,389619517,0.6245,0.8701,0.0103,12.99,10.79,-7.74
1676,389624516,0.6143,0.8726,0.0044,12.38,10.61,-7.07
1677,389629516,0.6064,0.8740,0.0024,12.20,10.18,-6.28
1678,389634516,0.6030,0.8794,0.0039,12.38,10.00,-5.67
1679,389639517,0.6011,0.8848,0.0024,12.68,9.76,-5.06
1680,389644515,0.5933,0.8818,-0.0005,13.17,9.33,-4.51
1681,389649516,0.5869,0.8862,-0.0015,13.60,9.09,-3.90
1682,389654516,0.5806,0.8848,0.0015,13.84,8.72,-3.35
1683,389659515,0.5762,0.8857,-0.0068,14.27,8.60,-2.74
1684,389664516,0.5688,0.8794,-0.0015,14.02,8.29,-2.26
1685,389669515,0.5605,0.8765,-0.0059,13.72,7.93,-1.65
1686,389674516,0.5591,0.8730,-0.0015,12.99,7.62,-1.10
1687,389679516,0.5513,0.8682,-0.0049,11.89,7.20,-0.61
1688,389684516,0.5527,0.8633,-0.0054,10.49,6.95,-0.06
1689,389689515,0.5493,0.8613,-0.0049,9.09,6.52,0.55
1690,389694516,0.5410,0.8574,-0.0049,7.50,5.98,1.10
1691,389699516,0.5420,0.8481,-0.0039,5.98,5.49,1.52
1692,389704516,0.5420,0.8447,0.0034,4.27,5.18,2.01
1693,389709515,0.5386,0.8457,0.0020,2.56,4.63,2.62
1694,389714516,0.5400,0.8472,0.0117,1.22,4.02,3.11
1695,389719516,0.5391,0.8457,0.0093,-0.18,3.35,3.48
1696,389724516,0.5420,0.8442,0.0161,-1.10,2.56,3.90
1697,389729514,0.5420,0.8428,0.0142,-1.89,1.95,4.33
1698,389734576,0.5430,0.8423,0.0176,-2.74,1.10,4.70
1699,389739516,0.5449,0.8408,0.0107,-3.41,0.30,5.00
1700,389744515,0.5498,0.8394,0.0132,-4.09,-0.61,5.24
1701,389749516,0.5508,0.8413,0.0176,-4.63,-1.65,5.55
1702,389754518,0.5576,0.8433,0.0186,-5.00,-2.68,5.73
1703,389759515,0.5566,0.8442,0.0205,-5.00,-3.72,5.85
1704,389764516,0.5542,0.8457,0.0156,-5.00,-4.88,6.04
1705,389769515,0.5566,0.8438,0.0166,-5.00,-5.98,6.16
1706,389774516,0.5635,0.8467,0.0166,-4.88,-7.20,6.28
1707,389779516,0.5693,0.8472,0.0176,-4.63,-8.29,6.34
1708,389784516,0.5713,0.8438,0.0146,-4.33,-9.51,6.46
1709,389789515,0.5679,0.8472,0.0142,-4.02,-10.67,6.46
1710,389794516,0.5679,0.8521,0.0098,-3.66,-11.83,6.46
1711,389799516,0.5654,0.8477,0.0054,-3.11,-12.99,6.52
1712,389804516,0.5586,0.8491,0.0049,-2.68,-14.02,6.65
1713,389809515,0.5605,0.8472,-0.0029,-1.95,-15.00,6.71
1714,389814516,0.5566,0.8496,-0.0010,-1.40,-16.22,6.83
1715,389819516,0.5527,0.8428,-0.0024,-0.37,-17.07,7.01
1716,389824514,0.5527,0.8486,-0.0054,0.55,-17.93,7.13
1717,389829516,0.5493,0.8428,-0.0059,1.83,-18.90,7.32
1718,389834874,0.5474,0.8442,-0.0059,3.17,-19.57,7.56
1719,389839516,0.5425,0.8477,-0.0156,4.45,-20.43,7.80
1720,389844515,0.5449,0.8398,-0.0107,5.67,-20.91,7.99
1721,389849516,0.5381,0.8403,-0.0225,6.77,-21.59,8.23
1722,389854516,0.5303,0.8379,-0.0200,7.80,-22.01,8.54
1723,389859516,0.5278,0.8359,-0.0254,8.48,-22.50,8.72
1724,389864515,0.5283,0.8354,-0.0264,8.84,-22.74,9.15
1725,389869516,0.5229,0.8315,-0.0293,8.96,-23.05,9.45
1726,389874515,0.5190,0.8301,-0.0308,8.66,-23.23,9.70
1727,389879626,0.5200,0.8340,-0.0391,7.93,-23.41,10.00
1728,389884515,0.5210,0.8291,-0.0366,7.07,-23.60,10.06
1729,389889516,0.5234,0.8242,-0.0405,6.28,-23.60,10.49
1730,389894515,0.5254,0.8213,-0.0352,5.24,-23.54,10.67
1731,389899516,0.5220,0.8193,-0.0454,4.21,-23.54,10.85
1732,389904515,0.5264,0.8179,-0.0503,2.93,-23.54,11.28
1733,389909516,0.5303,0.8110,-0.0469,1.89,-23.41,11.46
1734,389914514,0.5356,0.8105,-0.0522,0.73,-23.48,11.71
1735,389919516,0.5366,0.8110,-0.0586,-0.49,-23.41,12.01
1736,389924515,0.5371,0.8130,-0.0566,-1.65,-23.41,12.20
1737,389929516,0.5425,0.8062,-0.0630,-2.56,-23.41,12.44
1738,389934514,0.5479,0.8110,-0.0576,-3.35,-23.41,12.68
1739,389939514,0.5513,0.8091,-0.0640,-4.02,-23.35,12.99
1740,389944516,0.5552,0.8091,-0.0635,-4.76,-23.29,13.17
1741,389949515,0.5601,0.8105,-0.0679,-5.43,-23.23,13.35
1742,389954560,0.5654,0.8076,-0.0669,-5.67,-23.29,13.48
1743,389959515,0.5684,0.8105,-0.0708,-6.16,-23.29,13.66
1744,389964516,0.5693,0.8105,-0.0684,-6.46,-23.35,13.96
1745,389969516,0.5781,0.8086,-0.0747,-6.89,-23.35,14.02
1746,389974516,0.5811,0.8047,-0.0771,-7.38,-23.48,14.27
1747,389979515,0.5850,0.8037,-0.0840,-7.99,-23.54,14.39
1748,389984524,0.5903,0.8018,-0.0879,-8.66,-23.66,14.51
1749,389989516,0.5918,0.7974,-0.0962,-9.45,-23.90,14.76
1750,389994516,0.5947,0.7988,-0.0972,-10.06,-24.09,15.00
1751,389999515,0.5952,0.8013,-0.0972,-10.67,-24.21,15.18
1752,390004516,0.5938,0.7983,-0.1050,-11.16,-24.39,15.49
1753,390009516,0.6011,0.7964,-0.1113,-11.65,-24.76,15.73
1754,390014516,0.6040,0.7983,-0.1196,-12.01,-24.76,16.04
1755,390019515,0.6045,0.7959,-0.1299,-11.95,-25.06,16.40
1756,390024516,0.6035,0.7969,-0.1309,-11.59,-25.43,16.77
1757,390029516,0.6011,0.7954,-0.1304,-11.04,-25.49,17.01
1758,390034516,0.5991,0.7920,-0.1392,-9.94,-25.73,17.62
1759,390039515,0.5996,0.7881,-0.1450,-8.78,-25.67,18.05
1760,390044516,0.5977,0.7944,-0.1426,-7.20,-25.73,18.60
1761,390049516,0.5952,0.7832,-0.1450,-5.49,-25.85,19.09
1762,390054516,0.5967,0.7856,-0.1455,-3.48,-26.04,19.70
1763,390059841,0.5898,0.7808,-0.1484,-1.40,-25.91,20.24
1764,390064516,0.5884,0.7769,-0.1475,0.98,-25.79,20.67
1765,390069519,0.5854,0.7754,-0.1484,3.17,-25.67,21.22
1766,390074515,0.5845,0.7739,-0.1489,5.43,-25.43,21.77
1767,390079516,0.5908,0.7690,-0.1509,7.44,-25.06,22.26
1768,390084515,0.5918,0.7686,-0.1509,9.39,-24.88,22.68
1769,390089516,0.5967,0.7671,-0.1528,11.10,-24.45,23.17
1770,390094515,0.5996,0.7612,-0.1528,12.38,-24.15,23.35
1771,390099561,0.6006,0.7583,-0.1553,13.60,-23.78,23.66
1772,390104515,0.6055,0.7588,-0.1553,14.45,-23.48,24.02
1773,390109516,0.6089,0.7500,-0.1606,15.06,-23.17,24.15
1774,390114517,0.6177,0.7446,-0.1670,15.12,-22.80,24.21
1775,390119516,0.6201,0.7373,-0.1621,14.76,-22.38,24.21
1776,390124516,0.6270,0.7314,-0.1680,13.96,-22.07,24.33
1777,390129516,0.6284,0.7275,-0.1685,12.99,-21.83,24.33
1778,390134516,0.6338,0.7197,-0.1641,11.71,-21.52,24.33
1779,390139516,0.6357,0.7173,-0.1655,10.18,-21.34,24.33
1780,390144516,0.6416,0.7085,-0.1729,8.60,-21.10,24.51
1781,390149516,0.6528,0.6992,-0.1699,6.95,-20.67,24.51
1782,390154516,0.6577,0.6992,-0.1714,5.30,-20.43,24.39
1783,390159516,0.6631,0.6924,-0.1777,3.96,-20.12,24.39
1784,390164516,0.6641,0.6929,-0.1699,2.93,-19.82,24.39
1785,390169515,0.6704,0.6895,-0.1694,2.20,-19.76,24.45
1786,390174516,0.6685,0.6914,-0.1719,1.89,-19.39,24.51
1787,390179516,0.6714,0.6821,-0.1670,1.89,-19.02,24.70
1788,390184516,0.6724,0.6792,-0.1675,2.32,-18.90,24.82
1789,390189516,0.6758,0.6772,-0.1729,3.05,-18.29,25.00
1790,390194517,0.6797,0.6772,-0.1670,4.21,-18.17,25.18
1791,390199516,0.6826,0.6704,-0.1655,5.55,-17.80,25.37
1792,390204516,0.6831,0.6689,-0.1670,7.01,-17.44,25.61
1793,390209516,0.6875,0.6724,-0.1685,8.90,-17.20,25.79
1794,390214516,0.6865,0.6646,-0.1650,10.85,-16.71,25.91
1795,390219516,0.6812,0.6636,-0.1636,12.80,-16.28,25.98
1796,390224516,0.6821,0.6636,-0.1616,14.57,-15.91,26.16
1797,390229516,0.6860,0.6650,-0.1626,16.40,-15.24,26.34
1798,390234516,0.6890,0.6636,-0.1631,17.93,-14.94,26.28
1799,390239516,0.6914,0.6606,-0.1655,19.15,-14.45,26.16
1800,390244735,0.6904,0.6582,-0.1655,20.30,-13.90,25.98
1801,390249516,0.6948,0.6592,-0.1665,20.85,-13.29,25.73
1802,390254516,0.6929,0.6543,-0.1611,21.10,-12.80,25.55
1803,390259517,0.6943,0.6489,-0.1650,20.85,-12.38,25.18
1804,390264516,0.6958,0.6538,-0.1655,20.49,-11.83,24.88
1805,390269516,0.6992,0.6523,-0.1675,19.70,-11.59,24.39
1806,390274514,0.7056,0.6499,-0.1665,18.60,-11.10,23.84
1807,390279516,0.7070,0.6479,-0.1660,17.38,-10.61,23.35
1808,390284516,0.7075,0.6460,-0.1626,15.98,-10.24,22.80
1809,390289515,0.7080,0.6431,-0.1597,14.45,-9.70,22.13
1810,390294516,0.7075,0.6382,-0.1675,12.68,-9.45,21.65
1811,390299515,0.7075,0.6357,-0.1685,10.91,-9.33,20.98
1812,390304516,0.7104,0.6289,-0.1621,9.02,-9.02,20.37
1813,390309515,0.7158,0.6250,-0.1636,7.13,-8.66,19.70
1814,390314518,0.7197,0.6265,-0.1655,5.24,-8.41,19.27
1815,390319515,0.7212,0.6201,-0.1631,3.66,-8.48,18.54
1816,390324516,0.7217,0.6216,-0.1699,2.20,-8.35,17.80
1817,390329515,0.7188,0.6187,-0.1729,0.98,-8.23,17.13
1818,390334516,0.7236,0.6172,-0.1675,-0.06,-8.17,16.46
1819,390339515,0.7217,0.6138,-0.1699,-0.85,-7.99,15.91
1820,390344516,0.7192,0.6069,-0.1650,-1.28,-7.99,15.37
1821,390349516,0.7192,0.6021,-0.1704,-1.46,-7.80,14.70
1822,390354514,0.7246,0.6045,-0.1738,-1.46,-7.93,14.09
1823,390359517,0.7246,0.6021,-0.1738,-1.40,-7.80,13.60
1824,390364516,0.7236,0.5991,-0.1816,-0.98,-7.68,13.11
1825,390369520,0.7241,0.5952,-0.1729,-0.30,-7.87,12.74
1826,390374518,0.7227,0.5962,-0.1714,0.43,-7.80,12.20
1827,390379519,0.7192,0.5957,-0.1719,1.34,-7.74,11.77
1828,390384514,0.7251,0.5928,-0.1792,2.38,-7.87,11.22
1829,390389514,0.7295,0.5894,-0.1802,3.23,-7.99,10.67
1830,390394514,0.7236,0.5869,-0.1797,4.27,-8.11,10.30
1831,390399516,0.7217,0.5894,-0.1821,5.18,-8.11,9.82
1832,390404516,0.7271,0.5889,-0.1870,5.91,-8.17,9.21
1833,390409515,0.7271,0.5879,-0.1924,6.71,-8.29,8.72
1834,390414516,0.7295,0.5903,-0.1870,7.44,-8.41,8.11
1835,390419518,0.7295,0.5898,-0.1982,8.11,-8.35,7.62
1836,390424516,0.7271,0.5923,-0.1934,8.66,-8.60,7.01
1837,390429516,0.7256,0.5928,-0.1929,9.27,-8.54,6.46
1838,390434584,0.7217,0.5923,-0.1943,9.70,-8.66,5.85
1839,390439516,0.7192,0.5923,-0.2002,9.94,-8.60,5.30
1840,390444516,0.7227,0.5898,-0.2085,10.24,-8.66,4.88
1841,390449515,0.7144,0.5869,-0.2041,10.24,-8.54,4.39
1842,390454516,0.7158,0.5913,-0.2012,10.37,-8.60,3.90
1843,390459515,0.7124,0.5889,-0.2046,10.30,-8.41,3.41
1844,390464514,0.7104,0.5894,-0.2046,10.30,-8.29,2.87
1845,390469516,0.7085,0.5903,-0.2070,10.30,-8.11,2.44
1846,390474516,0.7065,0.5923,-0.2119,10.24,-7.80,2.07
1847,390479515,0.7100,0.5889,-0.2070,10.06,-7.56,1.52
1848,390484516,0.7036,0.5889,-0.2119,9.94,-7.38,1.10
1849,390489515,0.7061,0.5977,-0.2153,9.82,-7.01,0.61
1850,390494516,0.7070,0.5977,-0.2119,9.76,-6.65,0.18
1851,390499515,0.7104,0.6011,-0.2148,9.70,-6.59,-0.24
1852,390504516,0.7061,0.6074,-0.2129,9.70,-6.04,-0.67
1853,390509515,0.7012,0.6035,-0.2139,9.76,-5.55,-1.04
1854,390514516,0.6997,0.6050,-0.2085,9.82,-5.00,-1.40
1855,390519515,0.7012,0.6040,-0.2153,9.76,-4.39,-1.83
1856,390524516,0.7041,0.6128,-0.2036,9.57,-3.96,-2.13
1857,390529515,0.7036,0.6089,-0.2158,9.39,-3.54,-2.50
1858,390534516,0.7065,0.6104,-0.2114,9.09,-2.99,-2.80
1859,390539515,0.7075,0.6123,-0.2109,8.84,-2.38,-3.11
1860,390544516,0.7056,0.6123,-0.2124,8.54,-1.71,-3.48
1861,390549516,0.7119,0.6104,-0.2090,8.35,-1.22,-3.78
1862,390554516,0.7070,0.6152,-0.2036,7.87,-0.61,-4.15
1863,390559515,0.7075,0.6182,-0.2041,7.44,0.00,-4.51
1864,390564514,0.7085,0.6191,-0.2036,6.83,0.61,-4.88
1865,390569516,0.7129,0.6221,-0.2041,6.46,1.16,-5.24
1866,390574516,0.7173,0.6206,-0.1968,6.04,1.71,-5.67
1867,390579515,0.7173,0.6226,-0.1948,5.49,2.20,-5.98
1868,390584516,0.7178,0.6235,-0.2007,5.06,2.50,-6.40
1869,390589515,0.7197,0.6294,-0.1963,4.57,3.23,-6.77
1870,390594538,0.7173,0.6309,-0.1904,4.15,3.78,-7.13
1871,390599516,0.7222,0.6333,-0.1885,3.72,4.09,-7.56
1872,390604516,0.7285,0.6323,-0.1919,3.41,4.57,-7.99
1873,390609516,0.7290,0.6353,-0.1870,3.11,5.12,-8.41
1874,390614516,0.7329,0.6406,-0.1831,2.93,5.37,-8.90
1875,390619516,0.7285,0.6416,-0.1870,2.56,5.73,-9.27
1876,390624516,0.7266,0.6455,-0.1860,2.38,6.28,-9.70
1877,390629516,0.7231,0.6406,-0.1777,2.20,6.59,-10.06
1878,390634516,0.7261,0.6406,-0.1777,1.83,6.89,-10.43
1879,390639516,0.7295,0.6426,-0.1807,1.40,7.26,-10.79
1880,390644516,0.7256,0.6377,-0.1758,0.98,7.44,-11.04
1881,390649516,0.7217,0.6416,-0.1724,0.61,7.87,-11.28
1882,390654516,0.7256,0.6416,-0.1738,0.06,8.05,-11.65
1883,390659516,0.7192,0.6426,-0.1763,-0.43,8.23,-12.01
1884,390664516,0.7207,0.6436,-0.1748,-0.85,8.48,-12.26
1885,390669516,0.7222,0.6445,-0.1724,-1.34,8.66,-12.50
1886,390674516,0.7183,0.6484,-0.1626,-1.59,8.90,-12.87
1887,390679516,0.7202,0.6440,-0.1631,-2.01,9.02,-13.05
1888,390684516,0.7212,0.6460,-0.1621,-2.26,9.39,-13.29
1889,390689516,0.7202,0.6504,-0.1582,-2.44,9.45,-13.54
1890,390694516,0.7217,0.6504,-0.1533,-2.62,9.63,-13.78
1891,390699516,0.7212,0.6523,-0.1494,-2.56,9.70,-14.02
1892,390704516,0.7153,0.6504,-0.1533,-2.68,9.76,-14.21
1893,390709516,0.7173,0.6538,-0.1602,-2.74,9.82,-14.45
1894,390714516,0.7153,0.6567,-0.1592,-2.80,9.82,-14.76
1895,390719516,0.7188,0.6528,-0.1567,-2.93,9.70,-14.88
1896,390724516,0.7124,0.6528,-0.1528,-2.87,9.82,-15.12
1897,390729517,0.7202,0.6504,-0.1484,-2.99,9.63,-15.43
1898,390734516,0.7197,0.6553,-0.1523,-2.87,9.63,-15.55
1899,390739516,0.7173,0.6528,-0.1523,-2.93,9.51,-15.85
1900,390744516,0.7080,0.6499,-0.1479,-3.05,9.39,-15.98
1901,390749516,0.7080,0.6548,-0.1479,-2.87,9.33,-16.04
1902,390754516,0.7109,0.6538,-0.1470,-2.99,9.15,-16.28
1903,390759517,0.7070,0.6553,-0.1460,-3.05,9.02,-16.34
1904,390764516,0.7085,0.6543,-0.1436,-3.05,8.84,-16.46
1905,390769516,0.7090,0.6553,-0.1440,-2.99,8.66,-16.46
1906,390774516,0.6987,0.6602,-0.1475,-2.93,8.48,-16.59
1907,390779516,0.7021,0.6616,-0.1494,-2.87,8.35,-16.65
1908,390784516,0.6997,0.6606,-0.1499,-2.80,8.17,-16.83
1909,390789516,0.6948,0.6665,-0.1411,-2.62,8.11,-16.95
1910,390795037,0.6943,0.6641,-0.1387,-2.44,7.87,-17.01
1911,390799516,0.6943,0.6665,-0.1348,-2.26,7.93,-17.01
1912,390804729,0.6914,0.6685,-0.1455,-2.07,7.56,-16.95
1913,390809516,0.6904,0.6704,-0.1382,-1.89,7.62,-17.01
1914,390814516,0.6865,0.6724,-0.1421,-1.52,7.26,-17.01
1915,390819516,0.6924,0.6748,-0.1445,-1.40,7.20,-16.89
1916,390824516,0.6880,0.6772,-0.1401,-0.98,6.83,-16.95
1917,390829516,0.6870,0.6753,-0.1479,-0.85,6.77,-16.83
1918,390834516,0.6855,0.6772,-0.1416,-0.55,6.71,-16.89
1919,390839516,0.6870,0.6821,-0.1406,-0.37,6.46,-16.77
1920,390844516,0.6855,0.6812,-0.1416,-0.12,6.34,-16.83
1921,390849517,0.6860,0.6851,-0.1392,0.18,6.22,-16.83
1922,390854516,0.6792,0.6851,-0.1377,0.30,5.98,-16.65
1923,390859516,0.6787,0.6880,-0.1426,0.67,6.04,-16.65
1924,390864516,0.6797,0.6914,-0.1411,1.04,5.67,-16.59
1925,390869516,0.6831,0.6934,-0.1396,1.28,5.61,-16.52
1926,390874514,0.6792,0.6943,-0.1455,1.59,5.55,-16.28
1927,390879516,0.6753,0.6982,-0.1406,1.95,5.43,-16.16
1928,390884516,0.6743,0.7012,-0.1475,2.26,5.37,-16.10
1929,390889516,0.6772,0.6973,-0.1367,2.50,5.12,-15.85
1930,390894516,0.6733,0.7017,-0.1421,2.74,5.00,-15.67
1931,390899515,0.6724,0.7012,-0.1450,2.93,5.00,-15.49
1932,390904516,0.6738,0.7021,-0.1392,3.05,5.00,-15.43
1933,390909515,0.6729,0.7041,-0.1362,3.23,5.00,-15.06
1934,390914516,0.6704,0.7070,-0.1357,3.48,4.82,-14.94
1935,390919515,0.6709,0.7119,-0.1392,3.54,4.82,-14.70
1936,390924516,0.6699,0.7061,-0.1362,3.72,4.63,-14.51
1937,390929515,0.6704,0.7109,-0.1318,3.66,4.70,-14.21
1938,390934516,0.6680,0.7124,-0.1367,3.90,4.63,-14.02
1939,390939516,0.6650,0.7124,-0.1353,4.09,4.82,-13.78
1940,390944516,0.6675,0.7173,-0.1333,4.27,4.88,-13.54
1941,390949515,0.6694,0.7202,-0.1270,4.39,4.76,-13.29
1942,390954514,0.6631,0.7217,-0.1353,4.51,4.70,-12.99
1943,390959518,0.6655,0.7178,-0.1338,4.63,4.88,-12.87
1944,390964516,0.6655,0.7241,-0.1338,5.00,4.88,-12.56
1945,390969515,0.6621,0.7256,-0.1304,5.06,5.00,-12.20
1946,390974514,0.6670,0.7246,-0.1304,5.30,5.06,-11.95
1947,390979516,0.6621,0.7266,-0.1265,5.49,4.94,-11.77
1948,390984516,0.6611,0.7271,-0.1274,5.79,4.88,-11.65
1949,390989515,0.6636,0.7295,-0.1255,5.85,5.00,-11.40
1950,390994516,0.6636,0.7310,-0.1245,6.10,5.12,-11.16
1951,390999515,0.6660,0.7295,-0.1265,6.16,5.18,-11.04
1952,391004517,0.6646,0.7329,-0.1250,6.34,5.18,-10.67
1953,391009515,0.6631,0.7300,-0.1167,6.34,5.30,-10.55
1954,391014516,0.6641,0.7305,-0.1206,6.52,5.43,-10.18
1955,391019515,0.6646,0.7383,-0.1230,6.59,5.24,-10.06
1956,391024516,0.6621,0.7358,-0.1196,6.77,5.37,-9.88
1957,391029515,0.6616,0.7344,-0.1201,6.71,5.43,-9.63
1958,391034516,0.6602,0.7334,-0.1201,6.52,5.61,-9.45
1959,391039515,0.6611,0.7358,-0.1118,6.52,5.55,-9.21
1960,391044516,0.6616,0.7358,-0.1162,6.34,5.61,-8.96
1961,391049515,0.6582,0.7363,-0.1167,6.22,5.67,-8.90
1962,391054514,0.6616,0.7373,-0.1084,5.98,5.61,-8.60
1963,391059516,0.6621,0.7363,-0.1084,5.91,5.73,-8.41
1964,391064516,0.6621,0.7432,-0.1152,5.79,5.67,-8.35
1965,391069518,0.6602,0.7402,-0.1040,5.67,5.85,-8.17
1966,391074516,0.6606,0.7397,-0.1099,5.67,5.85,-8.05
1967,391079516,0.6558,0.7451,-0.1089,5.73,5.91,-7.80
1968,391084516,0.6611,0.7437,-0.1040,5.79,5.79,-7.62
1969,391089516,0.6577,0.7446,-0.1001,5.85,5.91,-7.56
1970,391094516,0.6587,0.7485,-0.0991,5.98,6.10,-7.38
1971,391099516,0.6592,0.7510,-0.1016,6.04,5.98,-7.13
1972,391104518,0.6533,0.7505,-0.1016,6.16,6.16,-7.01
1973,391109516,0.6548,0.7476,-0.0986,6.16,6.10,-6.95
1974,391114517,0.6543,0.7490,-0.0947,6.04,6.10,-6.77
1975,391119516,0.6572,0.7500,-0.1006,5.98,6.16,-6.65
1976,391124515,0.6553,0.7505,-0.0942,5.61,6.28,-6.46
1977,391129516,0.6553,0.7480,-0.0962,5.43,6.04,-6.28
1978,391134516,0.6519,0.7500,-0.0942,5.18,6.16,-6.16
1979,391139516,0.6538,0.7515,-0.0957,4.88,6.16,-6.04
1980,391144515,0.6523,0.7554,-0.0972,4.76,6.16,-5.79
1981,391149516,0.6528,0.7520,-0.0933,4.63,6.10,-5.67
1982,391154516,0.6499,0.7505,-0.0962,4.39,6.04,-5.43
1983,391159516,0.6484,0.7520,-0.0938,4.33,5.98,-5.30
1984,391164515,0.6475,0.7510,-0.1006,4.27,5.91,-5.12
1985,391169516,0.6460,0.7544,-0.0923,4.15,5.98,-4.94
1986,391174516,0.6460,0.7534,-0.0933,4.02,5.91,-4.70
1987,391179516,0.6445,0.7563,-0.0908,4.02,5.98,-4.45
1988,391184515,0.6470,0.7563,-0.0938,4.02,5.91,-4.27
1989,391189516,0.6416,0.7539,-0.0962,4.02,5.91,-4.09
1990,391194519,0.6416,0.7549,-0.0952,3.96,5.79,-4.09
1991,391199516,0.6450,0.7529,-0.0903,3.90,5.73,-3.72
1992,391204517,0.6440,0.7539,-0.0991,3.78,5.67,-3.54
1993,391209516,0.6431,0.7539,-0.0981,3.90,5.49,-3.35
1994,391214516,0.6416,0.7534,-0.0928,3.84,5.37,-3.11
1995,391219516,0.6426,0.7515,-0.0879,3.54,5.43,-2.87
1996,391224515,0.6411,0.7549,-0.0933,3.48,5.24,-2.68
1997,391229516,0.6436,0.7554,-0.0928,3.48,5.24,-2.68
1998,391234516,0.6460,0.7549,-0.0903,3.41,5.00,-2.44
1999,391239516,0.6440,0.7539,-0.0874,3.35,4.82,-2.38
2000,391244515,0.6426,0.7520,-0.0845,3.35,4.63,-2.20
2001,391249516,0.6416,0.7520,-0.0830,3.41,4.63,-2.07
2002,391254516,0.6416,0.7480,-0.0869,3.54,4.33,-1.89
2003,391259516,0.6406,0.7480,-0.0830,3.60,4.09,-1.71
2004,391264515,0.6431,0.7480,-0.0825,3.78,4.09,-1.65
2005,391269516,0.6406,0.7446,-0.0835,3.90,3.84,-1.40
2006,391274516,0.6362,0.7471,-0.0796,4.02,3.60,-1.40
2007,391279516,0.6382,0.7476,-0.0801,4.09,3.41,-1.22
2008,391284524,0.6401,0.7441,-0.0820,4.15,3.23,-1.04
2009,391289515,0.6392,0.7461,-0.0806,4.27,2.87,-1.04
2010,391294516,0.6431,0.7446,-0.0811,4.39,2.68,-0.98
2011,391299515,0.6411,0.7480,-0.0801,4.51,2.50,-0.91
2012,391304515,0.6411,0.7456,-0.0845,4.63,2.20,-0.98
2013,391309517,0.6406,0.7427,-0.0815,4.57,1.83,-0.85
2014,391314516,0.6382,0.7412,-0.0771,4.70,1.77,-0.85
2015,391319516,0.6411,0.7451,-0.0728,4.94,1.52,-0.73
2016,391324515,0.6353,0.7432,-0.0796,4.94,1.34,-0.79
2017,391329517,0.6411,0.7422,-0.0796,4.94,0.91,-0.67
2018,391334516,0.6382,0.7451,-0.0752,4.88,0.79,-0.67
2019,391339517,0.6382,0.7427,-0.0776,5.00,0.55,-0.67
2020,391344514,0.6387,0.7427,-0.0835,4.94,0.30,-0.61
2021,391349516,0.6387,0.7456,-0.0767,4.88,0.12,-0.61
2022,391354517,0.6387,0.7480,-0.0845,4.76,-0.12,-0.67
2023,391359516,0.6426,0.7495,-0.0811,4.70,-0.37,-0.73
2024,391364515,0.6445,0.7461,-0.0767,4.45,-0.67,-0.73
2025,391369516,0.6421,0.7485,-0.0767,4.39,-0.91,-0.85
2026,391374516,0.6426,0.7500,-0.0757,4.15,-0.98,-0.79
2027,391379516,0.6401,0.7524,-0.0811,4.15,-1.34,-0.79
2028,391384716,0.6367,0.7490,-0.0771,3.72,-1.40,-1.04
2029,391389516,0.6377,0.7500,-0.0806,3.48,-1.59,-0.91
2030,391394516,0.6392,0.7471,-0.0874,3.11,-1.71,-1.04
2031,391399516,0.6382,0.7490,-0.0845,2.74,-1.95,-0.98
2032,391404515,0.6357,0.7456,-0.0825,2.44,-2.07,-1.10
2033,391409516,0.6401,0.7520,-0.0859,2.13,-2.26,-1.04
2034,391414516,0.6411,0.7515,-0.0942,1.89,-2.26,-0.98
2035,391419516,0.6421,0.7510,-0.0840,1.59,-2.56,-0.98
2036,391424515,0.6436,0.7524,-0.0923,1.34,-2.56,-1.04
2037,391429516,0.6372,0.7495,-0.0864,1.22,-2.93,-0.91
2038,391434516,0.6416,0.7490,-0.0908,1.22,-2.74,-0.98
2039,391439516,0.6377,0.7515,-0.0903,1.16,-3.05,-0.98
2040,391444515,0.6387,0.7510,-0.0825,1.28,-3.11,-0.85
2041,391449516,0.6382,0.7549,-0.0874,1.34,-3.17,-0.73
2042,391454516,0.6382,0.7505,-0.0913,1.65,-3.17,-0.61
2043,391459516,0.6377,0.7534,-0.0903,1.83,-3.11,-0.55
2044,391464677,0.6353,0.7539,-0.0928,1.95,-3.29,-0.49
2045,391469516,0.6377,0.7510,-0.0952,2.07,-3.35,-0.37
2046,391474515,0.6362,0.7515,-0.0962,2.32,-3.29,-0.30
2047,391479516,0.6318,0.7524,-0.0889,2.62,-3.35,-0.18
2048,391484515,0.6338,0.7529,-0.0918,2.68,-3.29,-0.06
2049,391489515,0.6377,0.7500,-0.0938,2.68,-3.35,0.00
2050,391494516,0.6372,0.7534,-0.0923,2.74,-3.23,0.12
2051,391499515,0.6372,0.7520,-0.0967,2.80,-3.35,0.12
2052,391504514,0.6411,0.7520,-0.0908,2.74,-3.29,0.24
2053,391509514,0.6392,0.7568,-0.0972,2.50,-3.35,0.43
2054,391514516,0.6377,0.7544,-0.0947,2.26,-3.35,0.43
2055,391519515,0.6387,0.7559,-0.0962,2.13,-3.23,0.55
2056,391524514,0.6440,0.7534,-0.0967,1.83,-3.29,0.55
2057,391529516,0.6406,0.7549,-0.0991,1.65,-3.35,0.55
2058,391534516,0.6411,0.7573,-0.1016,1.46,-3.35,0.61
2059,391539516,0.6406,0.7612,-0.1030,1.40,-3.48,0.73
2060,391544515,0.6406,0.7578,-0.1025,1.34,-3.41,0.73
2061,391549516,0.6431,0.7627,-0.1050,1.40,-3.35,0.73
2062,391554517,0.6377,0.7622,-0.1021,1.46,-3.35,0.91
2063,391559516,0.6382,0.7612,-0.0972,1.59,-3.29,0.85
2064,391564514,0.6406,0.7612,-0.1060,1.59,-3.35,0.91
