# skilleye imu stream v1
# device=xiao_esp32c6 imu=mpu6050 addr=0x68
# rate_hz=200 accel_range_g=16 gyro_range_dps=2000 dlpf_hz=94
# units: accel in g, gyro in deg/s, t_us in microseconds since boot (monotonic)
# no shared clock with the camera -- tap the racket once before each take
# so both recordings share a spike to align on
seq,t_us,ax,ay,az,gx,gy,gz
0,179640442,-0.9336,-0.1138,-0.1392,-2.93,0.67,-0.85
1,179645445,-0.9360,-0.1138,-0.1445,-2.93,0.43,-0.98
2,179650441,-0.9365,-0.1104,-0.1460,-2.74,0.30,-1.04
3,179655522,-0.9380,-0.1113,-0.1436,-2.68,0.12,-1.10
4,179660442,-0.9399,-0.1074,-0.1445,-2.44,0.12,-1.16
5,179665442,-0.9341,-0.1069,-0.1426,-2.13,-0.06,-1.16
6,179670443,-0.9351,-0.1035,-0.1538,-2.01,-0.18,-1.28
7,179675442,-0.9341,-0.1035,-0.1470,-1.71,-0.18,-1.34
8,179680443,-0.9395,-0.1030,-0.1509,-1.46,-0.24,-1.22
9,179685460,-0.9395,-0.1016,-0.1494,-1.22,-0.55,-1.28
10,179690442,-0.9395,-0.1025,-0.1562,-1.10,-0.49,-1.16
11,179695442,-0.9390,-0.1021,-0.1587,-0.98,-0.67,-1.16
12,179700442,-0.9346,-0.1001,-0.1538,-0.67,-0.67,-1.04
13,179705442,-0.9360,-0.1021,-0.1528,-0.61,-0.73,-1.04
14,179710442,-0.9370,-0.1030,-0.1543,-0.37,-0.85,-0.91
15,179715471,-0.9355,-0.1021,-0.1602,-0.37,-1.04,-0.79
16,179720442,-0.9346,-0.0991,-0.1548,-0.18,-1.04,-0.61
17,179725441,-0.9307,-0.0986,-0.1636,-0.12,-1.04,-0.49
18,179730444,-0.9360,-0.0996,-0.1582,-0.06,-1.10,-0.37
19,179735440,-0.9355,-0.1006,-0.1670,-0.06,-1.10,-0.12
20,179740467,-0.9331,-0.1001,-0.1616,-0.12,-1.04,0.06
21,179745442,-0.9390,-0.0996,-0.1675,-0.18,-0.98,0.18
22,179750440,-0.9351,-0.1001,-0.1646,-0.12,-0.85,0.30
23,179755681,-0.9385,-0.0972,-0.1577,-0.43,-0.67,0.49
24,179760442,-0.9365,-0.1001,-0.1626,-0.67,-0.43,0.61
25,179765442,-0.9414,-0.1006,-0.1704,-0.91,-0.43,0.67
26,179770441,-0.9380,-0.0981,-0.1660,-1.28,-0.12,0.79
27,179775443,-0.9390,-0.1001,-0.1680,-1.52,0.00,0.79
28,179780441,-0.9419,-0.1006,-0.1729,-1.89,0.24,0.85
29,179785442,-0.9478,-0.0986,-0.1636,-2.01,0.37,0.91
30,179790442,-0.9497,-0.0962,-0.1660,-2.32,0.43,0.85
31,179795441,-0.9478,-0.1021,-0.1616,-2.44,0.55,1.04
32,179800496,-0.9453,-0.1025,-0.1665,-2.20,0.91,0.98
33,179805442,-0.9473,-0.1050,-0.1670,-1.89,0.91,0.98
34,179810442,-0.9507,-0.1084,-0.1689,-1.52,0.79,0.98
35,179815442,-0.9482,-0.1050,-0.1650,-0.91,0.85,1.16
36,179820443,-0.9502,-0.1069,-0.1592,-0.37,0.98,1.10
37,179825442,-0.9497,-0.1064,-0.1670,0.12,0.79,1.10
38,179830443,-0.9463,-0.1069,-0.1748,0.73,0.98,1.22
39,179835442,-0.9497,-0.1079,-0.1694,1.34,0.85,1.10
40,179840443,-0.9492,-0.1079,-0.1699,1.77,1.10,1.16
41,179845442,-0.9473,-0.1133,-0.1704,2.07,0.98,1.16
42,179850441,-0.9438,-0.1104,-0.1694,2.44,1.04,1.10
43,179855441,-0.9399,-0.1133,-0.1699,2.56,1.28,1.04
44,179860440,-0.9375,-0.1123,-0.1743,2.93,1.34,1.04
45,179865442,-0.9385,-0.1108,-0.1743,2.93,1.46,0.91
46,179870441,-0.9355,-0.1147,-0.1719,2.93,1.59,0.73
47,179875442,-0.9326,-0.1152,-0.1753,2.93,1.59,0.73
48,179880440,-0.9297,-0.1123,-0.1694,2.99,1.71,0.67
49,179885442,-0.9312,-0.1104,-0.1670,2.93,1.83,0.61
50,179890442,-0.9326,-0.1099,-0.1685,2.99,1.83,0.61
51,179895518,-0.9326,-0.1128,-0.1689,3.11,1.83,0.55
52,179900442,-0.9390,-0.1064,-0.1621,3.11,1.77,0.61
53,179905442,-0.9395,-0.1084,-0.1631,3.23,1.71,0.61
54,179910440,-0.9390,-0.1064,-0.1558,3.17,1.83,0.67
55,179915442,-0.9399,-0.1045,-0.1650,3.48,1.77,0.55
56,179920443,-0.9395,-0.1055,-0.1626,3.54,1.65,0.73
57,179925442,-0.9385,-0.1025,-0.1602,3.54,1.52,0.85
58,179930442,-0.9404,-0.1021,-0.1606,3.60,1.65,0.91
59,179935460,-0.9419,-0.1021,-0.1582,3.60,1.46,0.91
60,179940442,-0.9399,-0.1045,-0.1626,3.66,1.59,1.04
61,179945941,-0.9404,-0.1084,-0.1597,3.78,1.34,1.04
62,179950443,-0.9409,-0.1084,-0.1587,3.72,1.40,1.22
63,179955442,-0.9399,-0.1108,-0.1611,3.78,1.40,1.28
64,179960441,-0.9399,-0.1113,-0.1538,3.72,1.34,1.28
65,179965440,-0.9390,-0.1133,-0.1602,3.78,1.28,1.28
66,179970442,-0.9370,-0.1128,-0.1685,3.72,1.16,1.22
67,179975523,-0.9360,-0.1123,-0.1597,3.60,1.04,1.16
68,179980648,-0.9360,-0.1133,-0.1587,3.41,0.85,1.28
69,179985608,-0.9336,-0.1118,-0.1572,3.29,0.73,1.22
70,179990441,-0.9302,-0.1108,-0.1567,2.99,0.55,1.10
71,179995442,-0.9272,-0.1084,-0.1553,2.68,0.55,0.98
72,180000441,-0.9277,-0.1060,-0.1597,2.32,0.49,0.98
73,180005779,-0.9307,-0.1104,-0.1558,1.89,0.30,0.91
74,180010442,-0.9321,-0.1094,-0.1602,1.59,0.24,1.04
75,180015441,-0.9292,-0.1074,-0.1499,1.22,0.12,0.98
76,180020444,-0.9277,-0.1084,-0.1514,0.91,0.12,0.98
77,180025440,-0.9287,-0.1084,-0.1523,0.73,0.12,1.04
78,180030441,-0.9297,-0.1079,-0.1514,0.79,-0.12,1.04
79,180035444,-0.9287,-0.1089,-0.1562,0.73,-0.12,1.22
80,180040441,-0.9258,-0.1089,-0.1523,0.79,-0.55,1.28
81,180045444,-0.9263,-0.1055,-0.1523,0.79,-0.61,1.34
82,180050441,-0.9224,-0.1030,-0.1450,0.79,-0.79,1.40
83,180055442,-0.9263,-0.1050,-0.1543,0.61,-1.04,1.52
84,180060441,-0.9268,-0.1016,-0.1494,0.55,-1.34,1.65
85,180065440,-0.9282,-0.1016,-0.1470,0.24,-1.65,1.59
86,180070442,-0.9282,-0.0952,-0.1382,-0.06,-1.83,1.77
87,180075442,-0.9277,-0.0962,-0.1465,-0.43,-1.95,1.95
88,180080443,-0.9316,-0.0972,-0.1401,-0.73,-2.07,1.89
89,180085442,-0.9282,-0.0928,-0.1455,-1.16,-2.13,2.01
90,180090441,-0.9355,-0.0923,-0.1455,-1.52,-2.32,2.07
91,180095442,-0.9341,-0.0898,-0.1445,-1.89,-2.44,2.13
92,180100442,-0.9346,-0.0908,-0.1348,-2.13,-2.56,2.20
93,180105442,-0.9341,-0.0942,-0.1372,-2.62,-2.38,2.26
94,180110441,-0.9287,-0.0957,-0.1421,-2.80,-2.50,2.32
95,180115442,-0.9019,-0.0938,-0.1489,-3.17,-2.50,2.44
96,180120442,-0.8965,-0.0991,-0.1470,-3.54,-2.62,2.26
97,180125442,-0.9014,-0.1030,-0.1362,-4.21,-2.80,2.26
98,180130440,-0.9199,-0.1030,-0.1475,-4.82,-2.87,2.20
99,180135442,-0.9312,-0.1006,-0.1460,-5.55,-3.11,2.13
100,180140442,-0.9360,-0.1050,-0.1533,-6.10,-3.17,2.07
101,180145442,-0.9360,-0.1064,-0.1538,-6.65,-3.17,1.95
102,180150442,-0.9326,-0.1089,-0.1450,-7.01,-3.29,1.89
103,180155442,-0.9272,-0.1094,-0.1636,-7.38,-3.41,1.89
104,180160441,-0.9297,-0.1060,-0.1592,-7.99,-3.60,1.89
105,180165440,-0.9302,-0.1079,-0.1572,-8.29,-3.66,1.71
106,180170442,-0.9287,-0.1069,-0.1538,-8.90,-3.78,1.71
107,180175442,-0.9282,-0.1050,-0.1611,-9.33,-4.02,1.52
108,180180441,-0.9263,-0.1084,-0.1621,-9.70,-4.15,1.40
109,180185442,-0.9199,-0.1045,-0.1572,-10.18,-4.33,1.34
110,180190443,-0.9243,-0.1040,-0.1567,-10.79,-4.45,1.10
111,180195444,-0.9248,-0.1016,-0.1641,-11.34,-4.76,1.04
112,180200442,-0.9268,-0.1030,-0.1636,-12.07,-4.82,0.85
113,180205442,-0.9253,-0.1035,-0.1592,-12.74,-4.82,0.61
114,180210440,-0.9287,-0.0972,-0.1602,-13.54,-5.18,0.37
115,180215444,-0.9326,-0.0986,-0.1602,-14.39,-5.18,0.18
116,180220440,-0.9360,-0.0981,-0.1636,-15.12,-5.06,0.00
117,180225442,-0.9365,-0.0986,-0.1592,-15.91,-5.24,-0.30
118,180230442,-0.9360,-0.0977,-0.1621,-16.59,-5.30,-0.61
119,180235440,-0.9390,-0.0889,-0.1660,-17.38,-5.24,-0.79
120,180240440,-0.9443,-0.0942,-0.1636,-17.93,-5.06,-0.91
121,180245959,-0.9448,-0.0942,-0.1650,-18.54,-5.00,-1.16
122,180250442,-0.9443,-0.0947,-0.1602,-18.90,-4.76,-1.28
123,180255442,-0.9429,-0.0981,-0.1626,-19.15,-4.57,-1.28
124,180260442,-0.9541,-0.1035,-0.1558,-19.63,-4.57,-1.46
125,180265440,-0.9561,-0.0977,-0.1572,-19.88,-4.27,-1.40
126,180270440,-0.9580,-0.1035,-0.1641,-20.12,-4.09,-1.34
127,180275712,-0.9634,-0.1006,-0.1670,-20.18,-3.78,-1.46
128,180280444,-0.9663,-0.1021,-0.1670,-20.55,-3.66,-1.34
129,180285443,-0.9663,-0.1025,-0.1680,-20.73,-3.41,-1.28
130,180290442,-0.9624,-0.1006,-0.1660,-21.10,-3.35,-1.34
131,180295440,-0.9639,-0.1035,-0.1650,-21.65,-3.17,-1.28
132,180300440,-0.9673,-0.1064,-0.1685,-22.07,-3.05,-1.22
133,180305441,-0.9712,-0.1113,-0.1709,-22.80,-3.05,-1.28
134,180310442,-0.9717,-0.1128,-0.1680,-23.48,-2.93,-1.28
135,180315442,-0.9741,-0.1108,-0.1729,-24.09,-2.99,-1.22
136,180320440,-0.9746,-0.1104,-0.1768,-24.76,-2.93,-1.16
137,180325442,-0.9780,-0.1128,-0.1768,-25.43,-2.68,-1.16
138,180330440,-0.9785,-0.1123,-0.1704,-25.98,-2.68,-1.04
139,180335442,-0.9775,-0.1152,-0.1660,-26.40,-2.68,-1.10
140,180340444,-0.9746,-0.1074,-0.1748,-26.89,-2.32,-1.16
141,180345443,-0.9731,-0.1123,-0.1699,-27.44,-2.26,-1.16
142,180350442,-0.9741,-0.1118,-0.1724,-27.68,-1.95,-1.10
143,180355455,-0.9771,-0.1079,-0.1616,-27.93,-1.59,-1.10
144,180360440,-0.9814,-0.1079,-0.1621,-28.11,-1.28,-1.10
145,180365440,-0.9717,-0.1055,-0.1562,-28.48,-0.73,-1.16
146,180370442,-0.9673,-0.1055,-0.1558,-28.72,-0.06,-1.16
147,180375442,-0.9624,-0.1016,-0.1572,-29.21,0.61,-1.10
148,180380440,-0.9585,-0.1001,-0.1562,-29.63,1.10,-1.28
149,180385444,-0.9512,-0.1016,-0.1533,-30.00,1.95,-1.28
150,180390441,-0.9512,-0.1025,-0.1523,-30.61,2.50,-1.40
151,180395442,-0.9482,-0.0952,-0.1543,-31.16,3.23,-1.46
152,180400442,-0.9429,-0.0923,-0.1523,-31.83,3.90,-1.52
153,180405442,-0.9438,-0.0894,-0.1533,-32.50,4.82,-1.71
154,180410441,-0.9395,-0.0879,-0.1562,-33.35,5.30,-1.83
155,180415442,-0.9458,-0.0845,-0.1611,-33.90,6.04,-1.89
156,180420440,-0.9434,-0.0845,-0.1553,-34.70,6.65,-1.95
157,180425442,-0.9336,-0.0811,-0.1533,-35.61,7.44,-2.20
158,180430441,-0.9351,-0.0796,-0.1567,-36.46,8.11,-2.38
159,180435442,-0.9351,-0.0796,-0.1592,-37.26,8.66,-2.38
160,180440440,-0.9316,-0.0728,-0.1567,-38.05,9.51,-2.56
161,180445444,-0.9287,-0.0776,-0.1528,-38.90,10.24,-2.74
162,180450441,-0.9321,-0.0752,-0.1484,-39.51,10.85,-3.05
163,180455442,-0.9341,-0.0742,-0.1528,-40.30,11.59,-3.17
164,180460440,-0.9370,-0.0737,-0.1475,-40.79,12.01,-3.35
165,180465441,-0.9419,-0.0747,-0.1523,-41.40,12.68,-3.54
166,180470440,-0.9395,-0.0693,-0.1494,-41.95,13.29,-3.66
167,180475440,-0.9453,-0.0732,-0.1562,-42.26,13.84,-3.84
168,180480442,-0.9458,-0.0718,-0.1558,-42.50,14.21,-4.02
169,180485442,-0.9434,-0.0723,-0.1572,-42.80,14.63,-4.15
170,180490442,-0.9473,-0.0732,-0.1528,-42.99,14.82,-4.33
171,180495443,-0.9463,-0.0684,-0.1567,-43.17,15.18,-4.45
172,180500442,-0.9443,-0.0713,-0.1582,-43.11,15.43,-4.57
173,180505442,-0.9424,-0.0688,-0.1582,-43.23,15.61,-4.63
174,180510442,-0.9419,-0.0737,-0.1631,-43.17,15.67,-4.63
175,180515441,-0.9395,-0.0718,-0.1660,-43.05,15.61,-4.76
176,180520442,-0.9390,-0.0688,-0.1572,-42.80,15.55,-4.70
177,180525442,-0.9424,-0.0693,-0.1675,-42.62,15.49,-4.76
178,180530442,-0.9414,-0.0747,-0.1606,-42.26,15.43,-4.76
179,180535441,-0.9395,-0.0698,-0.1626,-41.77,15.12,-4.63
180,180540442,-0.9424,-0.0737,-0.1675,-41.28,15.12,-4.70
181,180545442,-0.9434,-0.0718,-0.1699,-40.91,14.63,-4.63
182,180550442,-0.9473,-0.0693,-0.1685,-40.37,14.39,-4.57
183,180555441,-0.9473,-0.0684,-0.1719,-39.39,14.21,-4.51
184,180560442,-0.9492,-0.0747,-0.1646,-38.54,13.90,-4.51
185,180565443,-0.9521,-0.0728,-0.1699,-37.62,13.60,-4.39
186,180570442,-0.9502,-0.0684,-0.1724,-36.46,13.41,-4.33
187,180575440,-0.9507,-0.0674,-0.1704,-35.24,13.05,-4.39
188,180580442,-0.9502,-0.0674,-0.1738,-33.90,12.87,-4.45
189,180585442,-0.9531,-0.0674,-0.1709,-32.56,12.50,-4.51
190,180590441,-0.9536,-0.0679,-0.1729,-31.10,12.20,-4.63
191,180595444,-0.9541,-0.0649,-0.1772,-29.63,11.89,-4.76
192,180600440,-0.9561,-0.0679,-0.1758,-28.05,11.59,-4.70
193,180605442,-0.9575,-0.0659,-0.1792,-26.40,11.28,-4.88
194,180610441,-0.9619,-0.0664,-0.1758,-24.94,10.98,-5.06
195,180615442,-0.9624,-0.0674,-0.1777,-23.60,10.61,-5.18
196,180620440,-0.9585,-0.0669,-0.1870,-22.26,10.37,-5.43
197,180625444,-0.9575,-0.0684,-0.1836,-20.79,10.06,-5.55
198,180630441,-0.9570,-0.0684,-0.1797,-19.45,9.70,-5.61
199,180635807,-0.9595,-0.0693,-0.1807,-18.41,9.33,-5.85
200,180640444,-0.9546,-0.0693,-0.1846,-17.32,9.02,-5.91
201,180645442,-0.9497,-0.0728,-0.1870,-16.34,8.66,-6.10
202,180650442,-0.9492,-0.0708,-0.1836,-15.61,8.41,-6.28
203,180655442,-0.9443,-0.0708,-0.1812,-14.76,8.23,-6.34
204,180660441,-0.9419,-0.0698,-0.1826,-14.09,7.93,-6.40
205,180665442,-0.9409,-0.0737,-0.1890,-13.29,7.62,-6.52
206,180670440,-0.9380,-0.0742,-0.1875,-12.80,7.50,-6.65
207,180675440,-0.9419,-0.0747,-0.1816,-12.38,7.20,-6.65
208,180680441,-0.9380,-0.0767,-0.1860,-11.89,7.20,-6.89
209,180685442,-0.9404,-0.0781,-0.1836,-11.59,6.95,-6.95
210,180690442,-0.9380,-0.0791,-0.1885,-11.16,6.83,-6.89
211,180695442,-0.9429,-0.0757,-0.1860,-11.04,6.65,-6.95
212,180700442,-0.9390,-0.0786,-0.1826,-10.73,6.46,-7.07
213,180705445,-0.9326,-0.0796,-0.1802,-10.43,6.46,-7.26
214,180710441,-0.9370,-0.0811,-0.1846,-10.37,6.40,-7.26
215,180715442,-0.9355,-0.0786,-0.1885,-10.06,6.10,-7.38
216,180720442,-0.9341,-0.0771,-0.1841,-9.94,6.10,-7.44
217,180725442,-0.9331,-0.0791,-0.1841,-9.88,5.91,-7.50
218,180730442,-0.9287,-0.0742,-0.1860,-9.76,5.73,-7.80
219,180735442,-0.9233,-0.0747,-0.1846,-9.70,5.61,-7.87
220,180740441,-0.9233,-0.0703,-0.1812,-9.57,5.37,-7.99
221,180745442,-0.9214,-0.0771,-0.1826,-9.45,5.24,-8.11
222,180750441,-0.9248,-0.0757,-0.1826,-9.33,5.24,-8.29
223,180755442,-0.9180,-0.0732,-0.1802,-9.45,5.06,-8.35
224,180760441,-0.9248,-0.0757,-0.1797,-9.57,4.76,-8.60
225,180765442,-0.9243,-0.0747,-0.1836,-9.51,4.51,-8.72
226,180770441,-0.9209,-0.0767,-0.1792,-9.63,4.39,-8.84
227,180775442,-0.9160,-0.0801,-0.1826,-9.76,4.27,-8.90
228,180780442,-0.9170,-0.0757,-0.1802,-9.94,4.02,-9.09
229,180785442,-0.9170,-0.0762,-0.1836,-10.06,3.78,-9.15
230,180790441,-0.9126,-0.0767,-0.1841,-10.18,3.66,-9.21
231,180795442,-0.9106,-0.0771,-0.1846,-10.30,3.41,-9.21
232,180800441,-0.9028,-0.0771,-0.1816,-10.67,3.17,-9.33
233,180805442,-0.9033,-0.0742,-0.1758,-10.85,2.74,-9.33
234,180810441,-0.8960,-0.0732,-0.1704,-10.98,2.38,-9.27
235,180815442,-0.8931,-0.0742,-0.1855,-11.28,1.83,-9.21
236,180820442,-0.8882,-0.0713,-0.1807,-11.59,1.40,-9.21
237,180825442,-0.8901,-0.0679,-0.1787,-11.89,0.79,-9.09
238,180830441,-0.8950,-0.0703,-0.1836,-12.13,0.37,-9.09
239,180835444,-0.8989,-0.0723,-0.1836,-12.50,-0.30,-9.09
240,180840441,-0.8994,-0.0698,-0.1841,-12.87,-0.85,-9.02
241,180845442,-0.9053,-0.0698,-0.1860,-13.41,-1.52,-8.96
242,180850441,-0.9146,-0.0684,-0.1895,-13.96,-2.13,-8.90
243,180855442,-0.9170,-0.0698,-0.1885,-14.57,-2.87,-8.84
244,180860443,-0.9189,-0.0703,-0.1953,-15.30,-3.72,-8.72
245,180865442,-0.9180,-0.0674,-0.1895,-16.10,-4.51,-8.72
246,180870441,-0.9209,-0.0693,-0.1958,-17.01,-5.18,-8.54
247,180875442,-0.9175,-0.0674,-0.1929,-17.87,-6.16,-8.60
248,180880441,-0.9121,-0.0649,-0.1968,-19.02,-7.01,-8.48
249,180885806,-0.9155,-0.0659,-0.1909,-20.43,-7.99,-8.60
250,180890442,-0.9116,-0.0659,-0.1997,-21.95,-8.84,-8.54
251,180895442,-0.9106,-0.0688,-0.2070,-23.60,-9.88,-8.48
252,180900442,-0.9106,-0.0649,-0.1968,-25.49,-10.91,-8.54
253,180905441,-0.9097,-0.0684,-0.2036,-27.80,-11.71,-8.54
254,180910443,-0.9131,-0.0776,-0.2026,-30.37,-12.68,-8.48
255,180915442,-0.9180,-0.0762,-0.2124,-33.17,-13.66,-8.60
256,180920442,-0.9238,-0.0815,-0.2256,-36.04,-14.21,-8.66
257,180925964,-0.9272,-0.0918,-0.2305,-41.22,-15.00,-9.02
258,180930442,-0.9331,-0.0903,-0.2412,-45.30,-15.49,-9.39
259,180935443,-0.9355,-0.0889,-0.2534,-51.65,-16.16,-10.18
260,180940442,-0.9370,-0.0884,-0.2642,-56.34,-16.71,-10.61
261,180945440,-0.9287,-0.0879,-0.2700,-62.13,-17.26,-11.40
262,180950441,-0.9360,-0.0840,-0.2705,-68.05,-17.80,-12.26
263,180955442,-0.9380,-0.0830,-0.2759,-74.02,-18.29,-13.11
264,180960442,-0.9375,-0.0898,-0.2837,-80.06,-18.66,-14.15
265,180965442,-0.9434,-0.0879,-0.2803,-85.79,-18.96,-15.24
266,180970441,-0.9463,-0.0884,-0.2705,-91.71,-19.15,-16.22
267,180975782,-0.9526,-0.0889,-0.2681,-98.11,-19.45,-17.32
268,180980496,-0.9497,-0.0815,-0.2671,-102.32,-19.45,-18.11
269,180985441,-0.9507,-0.0791,-0.2500,-107.20,-19.39,-19.02
270,180990809,-0.9546,-0.0771,-0.2432,-112.68,-19.02,-19.94
271,180995442,-0.9570,-0.0762,-0.2480,-116.22,-18.96,-20.67
272,181000441,-0.9521,-0.0791,-0.2520,-120.49,-18.54,-21.65
273,181005442,-0.9565,-0.0747,-0.2490,-124.82,-18.17,-22.44
274,181010441,-0.9512,-0.0771,-0.2485,-129.27,-17.44,-23.41
275,181015442,-0.9497,-0.0732,-0.2607,-133.60,-16.83,-24.45
276,181020441,-0.9492,-0.0669,-0.2588,-137.68,-16.04,-25.61
277,181025444,-0.9526,-0.0679,-0.2666,-141.65,-15.24,-26.83
278,181030441,-0.9512,-0.0669,-0.2808,-145.37,-14.27,-28.05
279,181035442,-0.9570,-0.0649,-0.2852,-149.02,-13.48,-29.21
280,181040441,-0.9097,-0.0425,-0.2832,-152.32,-12.32,-30.67
281,181045442,-0.9453,-0.0781,-0.2773,-155.30,-11.28,-31.95
282,181050442,-0.9819,-0.0918,-0.3081,-158.17,-9.94,-33.05
283,181055442,-0.9985,-0.0908,-0.3052,-161.16,-8.54,-34.15
284,181060442,-1.0010,-0.0889,-0.2993,-164.15,-6.83,-35.18
285,181065442,-1.0034,-0.0962,-0.2959,-167.13,-4.82,-36.34
286,181070441,-1.0005,-0.1025,-0.3066,-169.88,-2.74,-37.32
287,181075442,-0.9927,-0.1084,-0.3179,-172.68,-0.85,-38.23
288,181080442,-0.9858,-0.1133,-0.3140,-175.30,1.71,-39.09
289,181085441,-0.9824,-0.1187,-0.3223,-177.74,4.02,-39.63
290,181090440,-0.9819,-0.1274,-0.3340,-180.12,6.16,-40.18
291,181095442,-0.9805,-0.1284,-0.3340,-182.13,8.78,-40.61
292,181100443,-0.9844,-0.1343,-0.3447,-183.96,11.22,-40.91
293,181105442,-0.9844,-0.1313,-0.3521,-185.43,13.84,-41.22
294,181110441,-0.9883,-0.1372,-0.3643,-186.83,16.28,-41.40
295,181115444,-0.9951,-0.1362,-0.3647,-187.99,19.09,-41.52
296,181120442,-0.9990,-0.1372,-0.3652,-189.15,21.95,-41.77
297,181125442,-1.0015,-0.1348,-0.3740,-190.18,24.70,-41.83
298,181130441,-1.0112,-0.1377,-0.3809,-191.16,27.87,-41.83
299,181135442,-1.0225,-0.1396,-0.3857,-192.07,30.73,-42.01
300,181140442,-1.0342,-0.1387,-0.3931,-192.93,33.84,-42.01
301,181145442,-1.0439,-0.1387,-0.4019,-193.54,37.07,-41.89
302,181150441,-1.0557,-0.1401,-0.4077,-193.90,40.18,-41.65
303,181155442,-1.0669,-0.1362,-0.4214,-194.15,42.99,-41.34
304,181160441,-1.0737,-0.1328,-0.4243,-193.90,46.04,-40.98
305,181165444,-1.0850,-0.1289,-0.4399,-193.29,48.78,-40.49
306,181170441,-1.0938,-0.1245,-0.4546,-192.32,51.52,-40.00
307,181175442,-1.0991,-0.1230,-0.4707,-191.04,54.21,-39.45
308,181180440,-1.1045,-0.1108,-0.4805,-189.39,56.65,-38.66
309,181185440,-1.1094,-0.1099,-0.4893,-187.68,59.21,-37.80
310,181190440,-1.1030,-0.1030,-0.4951,-185.91,61.71,-36.95
311,181195444,-1.1011,-0.0957,-0.5000,-184.15,64.02,-36.10
312,181200441,-1.1045,-0.0869,-0.5142,-182.56,66.34,-35.06
313,181205442,-1.0991,-0.0854,-0.5151,-180.85,68.66,-34.02
314,181210441,-1.1084,-0.0776,-0.5259,-179.39,71.04,-33.05
315,181215442,-1.1138,-0.0674,-0.5347,-177.93,73.11,-32.13
316,181220441,-1.1216,-0.0645,-0.5356,-176.59,75.49,-31.04
317,181225444,-1.1270,-0.0586,-0.5483,-175.00,77.68,-30.00
318,181230441,-1.1265,-0.0488,-0.5596,-173.54,79.76,-29.02
319,181235442,-1.1265,-0.0352,-0.5654,-171.95,82.01,-28.05
320,181240441,-1.1157,-0.0254,-0.5776,-170.43,84.88,-27.01
321,181245440,-1.1089,-0.0176,-0.5801,-168.66,86.22,-25.98
322,181250440,-1.1006,-0.0034,-0.5908,-166.77,86.16,-25.00
323,181255444,-1.0845,0.0107,-0.5986,-164.76,88.90,-24.02
324,181260441,-1.0679,0.0225,-0.6079,-162.62,91.04,-23.23
325,181265442,-1.0566,0.0396,-0.6128,-160.55,93.05,-22.26
326,181270441,-1.0435,0.0537,-0.6177,-158.17,94.76,-21.46
327,181275442,-1.0361,0.0684,-0.6270,-155.67,96.89,-20.73
328,181280441,-1.0347,0.0801,-0.6333,-153.41,98.78,-20.00
329,181285440,-1.0371,0.0894,-0.6333,-150.73,100.67,-19.33
330,181291735,-1.0571,0.0923,-0.6348,-147.93,102.99,-18.48
331,181295442,-1.0547,0.1133,-0.6387,-146.16,104.82,-18.11
332,181300444,-1.0483,0.1201,-0.6274,-143.78,106.95,-17.56
333,181305442,-1.0425,0.1279,-0.6333,-141.52,109.33,-16.95
334,181310441,-1.0308,0.1372,-0.6353,-139.27,111.52,-16.34
335,181315442,-1.0269,0.1436,-0.6294,-136.95,113.72,-15.67
336,181320440,-1.0146,0.1343,-0.6274,-134.76,116.16,-14.82
337,181325442,-0.9863,0.1211,-0.6494,-132.62,118.11,-14.02
338,181330441,-0.9990,0.1641,-0.6206,-131.04,120.43,-13.11
339,181335442,-1.0049,0.1855,-0.6079,-128.96,122.93,-12.56
340,181340442,-1.0000,0.2036,-0.6182,-126.46,125.30,-12.07
341,181345444,-0.9873,0.2261,-0.6372,-123.41,127.38,-11.71
342,181350441,-0.9727,0.2324,-0.6406,-120.24,129.51,-11.22
343,181355982,-0.9600,0.2451,-0.6289,-116.28,131.65,-10.85
344,181360444,-0.9565,0.2588,-0.6401,-113.60,133.17,-10.43
345,181365442,-0.9517,0.2676,-0.6440,-110.55,134.76,-10.18
346,181370674,-0.9536,0.2734,-0.6323,-107.50,136.65,-10.00
347,181375444,-0.9507,0.2861,-0.6377,-104.33,138.29,-9.70
348,181380441,-0.9375,0.3022,-0.6445,-101.59,139.76,-9.51
349,181385476,-0.9253,0.3193,-0.6509,-98.66,141.22,-9.39
350,181390442,-0.9072,0.3364,-0.6367,-96.22,142.44,-9.27
351,181395441,-0.8843,0.3516,-0.6387,-93.72,143.96,-9.09
352,181400442,-0.8530,0.3652,-0.6392,-91.40,145.18,-8.90
353,181405443,-0.8110,0.3760,-0.6323,-89.09,146.28,-8.54
354,181410442,-0.7627,0.3848,-0.6270,-87.13,147.32,-7.99
355,181415441,-0.7251,0.4307,-0.6782,-84.82,148.23,-7.50
356,181420442,-0.6812,0.4336,-0.6445,-82.26,148.72,-7.20
357,181425442,-0.6455,0.4277,-0.6143,-80.12,149.15,-6.46
358,181430442,-0.6172,0.4175,-0.6250,-78.41,149.82,-5.85
359,181435441,-0.5957,0.4102,-0.6074,-77.26,150.55,-4.94
360,181440442,-0.5806,0.4067,-0.5962,-76.28,151.65,-4.02
361,181445442,-0.5835,0.4146,-0.6108,-75.61,152.50,-3.05
362,181450443,-0.5811,0.4312,-0.6274,-74.88,153.48,-1.83
363,181455525,-0.5835,0.4380,-0.6382,-73.72,154.27,-0.79
364,181460442,-0.5713,0.4570,-0.6265,-72.01,155.00,0.24
365,181465443,-0.5483,0.4702,-0.6260,-70.18,155.85,1.28
366,181470442,-0.5332,0.4780,-0.6333,-68.23,156.89,2.20
367,181475442,-0.5293,0.4780,-0.6328,-66.16,157.80,2.99
368,181480440,-0.5249,0.4771,-0.6250,-63.90,158.72,3.96
369,181485442,-0.5181,0.4883,-0.6328,-61.65,159.51,4.94
370,181490441,-0.4927,0.4897,-0.6484,-59.57,160.61,5.91
371,181495444,-0.4819,0.4956,-0.6548,-57.32,161.40,7.07
372,181500440,-0.4648,0.5015,-0.6572,-55.30,162.20,8.17
373,181505441,-0.4482,0.4995,-0.6641,-53.29,162.87,9.27
374,181510442,-0.4390,0.4941,-0.6812,-51.59,163.78,10.43
375,181515442,-0.4390,0.4956,-0.6855,-50.30,164.51,11.71
376,181520442,-0.4434,0.4946,-0.6821,-49.39,165.18,12.93
377,181525441,-0.4297,0.4956,-0.6880,-49.09,165.73,13.96
378,181530442,-0.4395,0.4834,-0.6729,-48.84,166.46,15.24
379,181535442,-0.4536,0.4849,-0.6660,-49.09,167.44,16.40
380,181540442,-0.4702,0.4800,-0.6655,-49.39,168.29,17.56
381,181545441,-0.4966,0.4863,-0.6699,-49.70,169.57,18.60
382,181550442,-0.4858,0.4912,-0.6792,-49.94,170.67,19.63
383,181555442,-0.4858,0.5049,-0.6929,-49.51,171.71,20.61
384,181560443,-0.4736,0.5146,-0.6953,-48.78,172.62,21.34
385,181565441,-0.4668,0.5161,-0.6919,-47.74,173.72,22.20
386,181570443,-0.4644,0.5278,-0.6973,-46.52,174.76,22.68
387,181575442,-0.5288,0.4175,-0.7241,-45.37,175.43,23.41
388,181580442,-0.6021,0.2695,-0.7603,-43.05,176.16,26.65
389,181585441,-0.4302,0.5132,-0.6440,-39.45,176.59,31.34
390,181590442,-0.2598,0.5708,-0.7354,-35.61,176.95,34.21
391,181595442,-0.3535,0.3760,-0.7700,-31.89,177.56,36.34
392,181600442,-0.3657,0.1147,-0.6191,-26.83,178.48,39.94
393,181605442,-0.4141,0.2031,-0.7432,-21.10,179.33,44.27
394,181610442,-0.5151,0.4048,-0.8691,-15.06,178.90,46.40
395,181615442,-0.5347,0.5708,-0.7407,-9.21,179.21,46.89
396,181620440,-0.5083,0.6226,-0.6152,-4.27,180.67,46.34
397,181625442,-0.4897,0.5991,-0.7178,0.18,181.65,45.79
398,181630441,-0.4668,0.5508,-0.7983,4.39,181.71,45.43
399,181635442,-0.4463,0.4819,-0.7056,8.05,182.32,45.00
400,181640440,-0.4224,0.4360,-0.6504,11.40,183.05,44.45
401,181645442,-0.3892,0.4380,-0.7656,14.51,183.17,43.78
402,181650441,-0.3569,0.4722,-0.8247,17.26,182.80,42.74
403,181655444,-0.3291,0.5322,-0.7393,19.15,182.68,41.46
404,181660442,-0.3159,0.6377,-0.8164,18.72,182.20,39.57
405,181665442,-0.3271,0.6255,-0.7500,15.30,181.34,36.83
406,181670441,-0.3936,0.5151,-0.6821,10.43,181.59,34.57
407,181675444,-0.4380,0.3936,-0.6357,5.55,182.38,33.05
408,181680440,-0.3477,0.3228,-0.6602,-0.37,183.29,32.07
409,181685440,-0.2456,0.3438,-0.7251,-6.34,183.11,31.22
410,181690442,-0.2178,0.3970,-0.7090,-11.59,182.74,29.94
411,181695443,-0.1509,0.4370,-0.6445,-16.22,182.50,28.66
412,181700442,-0.1479,0.4800,-0.6436,-21.04,182.26,27.07
413,181705440,-0.1592,0.4814,-0.6846,-25.24,181.71,25.61
414,181710442,-0.1729,0.4541,-0.6743,-29.45,180.91,24.27
415,181715442,-0.1782,0.4189,-0.6255,-33.11,180.18,22.99
416,181720442,-0.1528,0.4009,-0.6313,-36.34,179.33,21.83
417,181725441,-0.1294,0.3906,-0.6714,-38.96,178.17,20.61
418,181730442,-0.1133,0.4048,-0.6499,-41.34,176.77,19.57
419,181735442,-0.0967,0.4292,-0.6128,-43.48,175.55,18.66
420,181740443,-0.0684,0.4482,-0.6143,-45.37,174.15,17.80
421,181745441,-0.0459,0.4458,-0.6436,-47.13,172.32,16.95
422,181750442,-0.0278,0.4302,-0.6152,-48.72,170.37,16.22
423,181755443,-0.0093,0.4067,-0.5869,-50.00,168.48,15.49
424,181760442,0.0049,0.3994,-0.6074,-51.04,166.10,14.76
425,181765667,0.0220,0.4111,-0.6216,-51.77,163.41,13.96
426,181770442,0.0342,0.4336,-0.5947,-52.20,160.79,13.11
427,181775442,0.0518,0.4556,-0.5605,-52.62,158.41,12.20
428,181780442,0.0625,0.4702,-0.5757,-53.05,155.67,11.34
429,181785441,0.0708,0.4624,-0.5850,-53.54,152.74,10.49
430,181790442,0.0879,0.4136,-0.5972,-53.96,149.09,10.18
431,181795440,0.1270,0.3896,-0.5391,-54.33,146.52,10.30
432,181800441,0.1611,0.4033,-0.5283,-55.18,143.41,10.30
433,181805440,0.1538,0.3638,-0.5991,-56.22,139.63,10.61
434,181810442,0.1885,0.4033,-0.4990,-57.44,134.88,11.40
435,181815442,0.2075,0.4473,-0.4878,-58.41,132.26,11.46
436,181820440,0.2227,0.4316,-0.5635,-59.63,128.23,11.65
437,181825442,0.2368,0.4116,-0.5317,-60.98,124.15,12.01
438,181830441,0.2651,0.3936,-0.4844,-61.77,120.12,12.68
439,181835442,0.2866,0.3921,-0.4946,-62.32,116.04,13.23
440,181840440,0.2896,0.4009,-0.5332,-62.44,111.59,13.84
441,181845442,0.2778,0.4243,-0.4878,-62.26,107.74,14.33
442,181850441,0.2700,0.4448,-0.4434,-62.07,104.02,14.63
443,181855442,0.2759,0.4561,-0.4575,-61.83,100.43,14.88
444,181860440,0.2773,0.4399,-0.4834,-61.59,96.77,15.06
445,181865442,0.2832,0.4180,-0.4517,-61.28,93.66,15.43
446,181870441,0.2998,0.3960,-0.4224,-60.73,90.06,16.10
447,181875442,0.3223,0.3843,-0.4463,-60.06,86.52,16.65
448,181880442,0.3281,0.3906,-0.4546,-59.09,85.06,17.50
449,181885442,0.3276,0.4053,-0.4126,-57.87,82.07,18.11
450,181890442,0.3188,0.4175,-0.4053,-56.40,79.82,18.60
451,181895442,0.3096,0.4331,-0.4487,-54.57,77.20,19.09
452,181900440,0.3237,0.4468,-0.4565,-52.44,74.70,19.33
453,181905441,0.3442,0.4609,-0.4229,-49.82,72.38,19.70
454,181910541,0.3506,0.4619,-0.4326,-47.44,70.37,19.33
455,181915497,0.3447,0.4517,-0.4888,-44.45,67.87,19.33
456,181920442,0.3838,0.4268,-0.4785,-41.28,65.18,19.70
457,181925442,0.4321,0.3809,-0.4517,-38.05,63.17,20.73
458,181930442,0.4668,0.3345,-0.4399,-34.51,60.85,22.68
459,181935441,0.5000,0.2861,-0.4512,-30.55,58.66,25.79
460,181940442,0.5078,0.2642,-0.4434,-26.28,56.65,29.63
461,181945442,0.4912,0.3179,-0.4224,-21.77,54.94,33.48
462,181950442,0.4810,0.3452,-0.4194,-17.38,53.60,36.71
463,181955441,0.4731,0.3818,-0.4634,-12.80,52.56,39.27
464,181960442,0.4814,0.3882,-0.4697,-8.41,51.04,41.34
465,181965442,0.4941,0.3921,-0.4434,-3.84,49.76,43.29
466,181970442,0.5054,0.3931,-0.4497,0.79,48.72,45.06
467,181975441,0.5225,0.4106,-0.4863,5.30,47.56,46.65
468,181980442,0.5376,0.4443,-0.5107,10.00,46.16,47.87
469,181985692,0.5332,0.5430,-0.5508,15.55,44.09,47.74
470,181990443,0.5444,0.5249,-0.5542,19.15,42.44,46.95
471,181995442,0.5615,0.5190,-0.5913,23.41,40.30,45.85
472,182000441,0.5684,0.4824,-0.5566,27.38,38.23,44.88
473,182005441,0.5713,0.4419,-0.5176,31.16,36.52,44.39
474,182010442,0.5532,0.4507,-0.5605,34.51,35.43,44.21
475,182015442,0.5420,0.4595,-0.5649,37.87,33.96,44.09
476,182020441,0.5376,0.4663,-0.5444,40.55,32.87,43.48
477,182025442,0.5498,0.4526,-0.5303,43.11,32.13,42.99
478,182030440,0.5605,0.4419,-0.5547,46.10,31.65,42.62
479,182035442,0.5752,0.4307,-0.5488,49.33,31.52,42.26
480,182040441,0.5859,0.4189,-0.5635,53.17,31.65,42.01
481,182045442,0.5908,0.4014,-0.5801,57.01,31.71,42.01
482,182050440,0.5972,0.4033,-0.5933,61.65,32.13,42.13
483,182055442,0.6035,0.4028,-0.6152,66.22,32.62,42.38
484,182060442,0.6099,0.4028,-0.6260,70.79,33.17,42.44
485,182065442,0.6318,0.3818,-0.6309,74.88,33.90,42.80
486,182070440,0.6816,0.3569,-0.6387,79.09,35.37,43.48
487,182075442,0.7153,0.3584,-0.6650,83.11,36.83,44.70
488,182080441,0.7383,0.3516,-0.7021,86.77,38.17,45.79
489,182085444,0.7363,0.3579,-0.7388,90.18,39.76,46.95
490,182090440,0.7217,0.3633,-0.7598,92.80,41.10,47.87
491,182095442,0.7007,0.3726,-0.7832,94.70,42.62,48.66
492,182100441,0.6841,0.3872,-0.8008,96.22,44.15,49.33
493,182105440,0.6997,0.4160,-0.8101,97.32,46.10,49.63
494,182110441,0.7163,0.3691,-0.8008,98.78,47.99,49.94
495,182116046,0.7354,0.3730,-0.8193,100.00,50.49,50.73
496,182120443,0.7461,0.3555,-0.8413,100.30,52.20,51.04
497,182125442,0.7397,0.3398,-0.8408,100.00,54.27,51.46
498,182130442,0.7363,0.3364,-0.8569,99.15,56.59,51.95
499,182135441,0.7427,0.3384,-0.8623,97.80,58.60,52.38
500,182140442,0.7710,0.3311,-0.8613,96.46,60.91,52.62
501,182145445,0.7998,0.3237,-0.8755,94.45,63.78,52.74
502,182150442,0.7935,0.3262,-0.8970,92.99,65.49,52.80
503,182155442,0.7852,0.3286,-0.9189,91.52,67.62,52.87
504,182160442,0.7646,0.3374,-0.9473,89.39,69.82,52.74
505,182165441,0.7368,0.3359,-0.9824,86.52,71.28,52.38
506,182170443,0.7671,0.2944,-0.9180,83.48,73.23,52.26
507,182175442,0.7939,0.2881,-0.9155,80.55,75.67,52.56
508,182180442,0.8027,0.2842,-0.9365,77.87,77.93,52.87
509,182185560,0.8027,0.2842,-0.9419,75.61,80.12,53.05
510,182190441,0.7876,0.2871,-0.9424,74.02,82.50,53.11
511,182195443,0.7739,0.2822,-0.9419,72.68,84.63,53.48
512,182200443,0.7646,0.2627,-0.9204,71.89,85.98,53.78
513,182205440,0.7456,0.2578,-0.9189,71.77,86.04,54.09
514,182210440,0.7490,0.2563,-0.9121,72.13,88.48,54.45
515,182215440,0.7622,0.2495,-0.8955,73.23,89.76,54.82
516,182220441,0.7734,0.2505,-0.8882,74.82,91.04,55.12
517,182225442,0.7690,0.2417,-0.8809,76.95,91.83,55.37
518,182230440,0.7681,0.2305,-0.8740,79.63,92.56,55.79
519,182235442,0.7661,0.2329,-0.8726,82.93,93.23,56.16
520,182240441,0.7598,0.2275,-0.8540,86.71,93.41,56.34
521,182245444,0.7534,0.2183,-0.8413,90.91,93.60,56.65
522,182250440,0.7358,0.2275,-0.8340,95.85,93.54,56.65
523,182255442,0.7217,0.1948,-0.7896,100.73,93.29,56.46
524,182260441,0.7285,0.1948,-0.8101,106.22,92.99,56.10
525,182265442,0.7295,0.2085,-0.7979,112.13,92.87,55.85
526,182270440,0.7256,0.2354,-0.7485,118.41,92.38,55.24
527,182275440,0.7148,0.2344,-0.7510,124.94,91.89,54.70
528,182280442,0.7173,0.2397,-0.8081,130.00,90.79,54.09
529,182285442,0.7197,0.2476,-0.7754,137.01,89.33,52.99
530,182290442,0.7285,0.2539,-0.7358,143.29,88.60,51.52
531,182295441,0.7373,0.2642,-0.7266,149.45,86.16,49.63
532,182300442,0.7256,0.2681,-0.7056,155.18,85.12,47.20
533,182305442,0.7178,0.2690,-0.6812,160.73,85.37,44.51
534,182310442,0.6909,0.2588,-0.6821,166.16,85.37,41.77
535,182315442,0.6763,0.2378,-0.6763,171.10,85.12,39.09
536,182320442,0.6768,0.2085,-0.6377,175.37,83.05,36.46
537,182325442,0.6909,0.1802,-0.6050,179.33,81.77,34.09
538,182330440,0.7163,0.1597,-0.5664,182.44,80.85,31.71
539,182335442,0.7310,0.1509,-0.5220,185.00,80.00,29.33
540,182340442,0.7227,0.1548,-0.4888,186.89,79.15,26.77
541,182345539,0.7090,0.1641,-0.4619,188.29,78.60,23.72
542,182350442,0.6333,0.1743,-0.4614,189.45,77.93,20.49
543,182355442,0.6016,0.1904,-0.4302,190.49,77.20,16.71
544,182360442,0.6274,0.1963,-0.3848,191.52,77.07,12.50
545,182365441,0.6729,0.1719,-0.3242,192.01,77.56,8.35
546,182370442,0.7256,0.1299,-0.2881,192.44,77.99,4.57
547,182375442,0.7788,0.1079,-0.3047,192.56,78.54,0.55
548,182380442,0.8130,0.1099,-0.2793,192.26,78.90,-3.23
549,182385442,0.8159,0.1226,-0.2612,191.52,79.21,-7.13
550,182390441,0.7920,0.1226,-0.2529,190.12,79.57,-11.22
551,182395442,0.7500,0.1108,-0.2446,188.17,79.94,-15.30
552,182400442,0.7017,0.0933,-0.2358,185.79,80.24,-18.90
553,182405441,0.6548,0.0713,-0.2402,183.29,80.85,-22.32
554,182410442,0.6104,0.0586,-0.2446,180.18,81.04,-25.55
555,182415442,0.5781,0.0645,-0.2490,177.01,81.04,-28.60
556,182420440,0.5581,0.0640,-0.2378,173.60,81.04,-31.59
557,182425442,0.5205,0.0713,-0.2339,170.18,81.10,-34.63
558,182430443,0.4897,0.0928,-0.2495,167.38,80.06,-37.44
559,182435442,0.4868,0.1128,-0.2153,164.88,79.63,-40.24
560,182440441,0.4893,0.1177,-0.1255,162.20,79.63,-43.17
561,182445442,0.4951,0.1250,-0.1133,159.27,79.88,-46.28
562,182450442,0.4961,0.1367,-0.1602,156.28,79.88,-49.27
563,182455442,0.4956,0.1523,-0.1406,153.35,79.45,-52.62
564,182460441,0.4443,0.1660,-0.1099,150.43,79.33,-56.04
565,182465442,0.4341,0.1675,-0.0972,147.80,79.15,-59.39
566,182470442,0.4648,0.1714,-0.1226,145.24,78.78,-62.99
567,182475443,0.4600,0.1606,-0.1167,142.56,78.84,-66.28
568,182480443,0.4336,0.1484,-0.0898,139.57,78.66,-69.63
569,182485444,0.4619,0.1650,-0.1045,136.59,78.60,-73.05
570,182490442,0.4868,0.1611,-0.1279,133.60,78.29,-76.46
571,182495442,0.4839,0.1406,-0.1099,129.09,78.05,-79.94
572,182500442,0.4717,0.1558,-0.0913,128.05,77.80,-83.17
573,182505442,0.4497,0.1553,-0.1011,123.90,77.44,-86.52
574,182510442,0.4346,0.1562,-0.1011,120.30,76.95,-89.76
575,182515527,0.4097,0.1582,-0.0815,116.52,76.52,-92.93
576,182520440,0.3965,0.1675,-0.0688,112.62,76.10,-96.10
577,182525442,0.3940,0.1680,-0.0708,108.72,75.73,-99.09
578,182530442,0.3882,0.1655,-0.0562,104.76,74.94,-102.20
579,182535442,0.3926,0.1665,-0.0415,100.61,74.27,-105.06
580,182540444,0.3853,0.1655,-0.0366,96.52,73.60,-107.99
581,182545442,0.3804,0.1660,-0.0454,92.56,72.56,-110.73
582,182550442,0.3628,0.1772,-0.0479,88.96,71.59,-113.48
583,182555442,0.3315,0.1855,-0.0566,85.55,70.24,-116.34
584,182560931,0.3101,0.1914,-0.0796,82.56,68.17,-119.21
585,182565442,0.2734,0.2119,-0.1099,80.18,65.49,-122.07
586,182570442,0.2344,0.2280,-0.0557,77.99,62.56,-125.00
587,182575442,0.1846,0.2549,-0.0259,76.04,59.51,-128.29
588,182580441,0.1738,0.2744,0.0151,74.76,56.77,-131.95
589,182585443,0.1733,0.2593,0.0591,73.41,54.63,-135.85
590,182590442,0.1846,0.2764,0.0962,72.80,52.74,-139.57
591,182595443,0.2842,0.3105,0.1230,72.50,51.16,-143.54
592,182600449,0.3252,0.3301,0.1401,72.01,49.82,-147.68
593,182605442,0.3071,0.3330,0.1675,71.95,48.23,-151.83
594,182610442,0.2920,0.3237,0.1958,71.83,46.89,-155.24
595,182615442,0.2637,0.3135,0.2231,72.44,45.55,-160.12
596,182620442,0.2451,0.3198,0.2373,72.99,44.45,-163.35
597,182625442,0.2114,0.3203,0.2515,74.45,42.99,-168.48
598,182630444,0.1865,0.3267,0.2544,75.55,42.01,-171.89
599,182635441,0.1519,0.3169,0.2686,77.50,40.67,-175.98
600,182640442,0.1304,0.3110,0.2661,79.63,39.39,-180.06
601,182645444,0.1172,0.3120,0.2495,81.77,37.74,-184.27
602,182650442,0.0859,0.3154,0.2568,83.96,36.22,-188.41
603,182655486,0.0894,0.3262,0.2427,87.07,34.27,-193.35
604,182660444,0.0825,0.3418,0.2363,88.84,32.93,-196.77
605,182665441,0.0576,0.3560,0.2158,90.79,30.98,-201.16
606,182670442,0.0396,0.3696,0.2031,92.56,29.09,-205.61
607,182675442,0.0244,0.4004,0.2007,94.09,26.77,-210.30
608,182680442,0.0488,0.4189,0.1758,95.43,24.51,-215.12
609,182685441,0.0425,0.4346,0.1577,96.28,21.77,-219.70
610,182690442,0.0337,0.4487,0.1646,97.26,18.90,-224.33
611,182695441,0.0464,0.4492,0.1484,98.35,16.04,-228.72
612,182700442,0.0200,0.4873,0.1128,100.06,12.80,-232.99
613,182705441,-0.0361,0.5366,0.1240,102.32,9.39,-237.07
614,182710444,-0.0464,0.5552,0.1104,105.43,5.67,-241.04
615,182715441,-0.0518,0.5698,0.1118,108.66,1.71,-244.45
616,182720441,-0.0811,0.5918,0.1191,112.26,-2.20,-247.62
617,182725440,-0.1289,0.6118,0.1172,115.79,-6.40,-250.43
618,182730442,-0.1724,0.6304,0.1069,119.15,-11.22,-252.93
619,182735441,-0.2124,0.6484,0.1147,122.01,-16.04,-255.06
620,182740442,-0.2300,0.6660,0.1221,124.02,-21.16,-257.07
621,182745441,-0.2383,0.6938,0.1187,125.24,-26.40,-259.02
622,182750442,-0.2388,0.7280,0.1294,125.61,-31.83,-260.73
623,182755441,-0.2461,0.7646,0.1270,125.43,-37.50,-262.13
624,182760442,-0.2578,0.8076,0.1431,125.30,-43.35,-263.35
625,182765441,-0.2739,0.8511,0.1440,124.82,-49.09,-264.21
626,182770442,-0.3052,0.8970,0.1772,124.15,-55.18,-264.70
627,182775441,-0.3501,0.9404,0.1992,123.54,-61.04,-264.82
628,182780442,-0.4072,0.9844,0.2178,122.80,-66.89,-264.45
629,182785441,-0.4663,1.0200,0.2393,121.40,-72.93,-263.41
630,182790442,-0.5132,1.0581,0.2607,119.02,-79.39,-262.32
631,182795441,-0.5459,1.0913,0.2812,115.61,-85.85,-260.61
632,182800444,-0.5762,1.1299,0.2974,111.04,-92.56,-258.48
633,182805441,-0.6074,1.1709,0.3091,105.12,-99.57,-255.98
634,182810442,-0.6338,1.2139,0.3286,97.99,-106.89,-253.35
635,182815441,-0.6650,1.2432,0.3408,90.37,-114.39,-250.24
636,182820440,-0.6929,1.2798,0.3403,82.26,-121.65,-246.89
637,182825440,-0.7090,1.3164,0.3413,74.27,-129.15,-242.93
638,182830440,-0.7593,1.3350,0.3735,66.52,-136.40,-238.90
639,182835442,-0.7969,1.3818,0.3643,59.45,-143.54,-234.63
640,182840442,-0.8374,1.3945,0.3716,53.11,-150.43,-230.06
641,182845441,-0.8579,1.3887,0.3506,47.56,-157.26,-225.06
642,182850442,-0.8867,1.4121,0.3442,43.48,-163.90,-219.76
643,182855441,-0.9321,1.4219,0.3101,40.98,-170.67,-214.02
644,182860442,-0.9663,1.4526,0.2822,39.82,-177.38,-207.80
645,182865441,-1.0117,1.4551,0.2949,39.33,-184.15,-201.28
646,182870442,-1.0503,1.4604,0.2969,39.57,-191.04,-194.33
647,182875441,-1.0894,1.4619,0.2715,40.30,-197.99,-187.32
648,182880442,-1.1406,1.4619,0.2544,41.52,-205.12,-180.12
649,182885441,-1.1978,1.4634,0.2573,43.17,-212.74,-172.87
650,182890442,-1.2480,1.4800,0.2686,45.06,-220.37,-165.79
651,182895441,-1.3018,1.4790,0.2661,46.52,-228.11,-158.78
652,182900444,-1.3706,1.4941,0.2549,47.99,-235.91,-152.26
653,182905441,-1.4683,1.4951,0.2139,49.57,-244.39,-145.73
654,182910442,-1.5366,1.5103,0.1582,51.71,-253.23,-139.39
655,182915441,-1.5864,1.5312,0.1333,54.27,-262.44,-132.99
656,182920442,-1.6548,1.5371,0.1406,57.62,-271.65,-126.95
657,182925441,-1.7427,1.5044,0.1187,60.91,-280.91,-121.10
658,182930440,-1.8081,1.4932,0.0718,63.66,-290.79,-114.94
659,182935559,-1.8628,1.4883,0.0483,66.40,-301.10,-108.90
660,182940442,-1.9268,1.4731,0.0479,68.29,-311.46,-102.74
661,182945441,-1.9692,1.4473,0.0449,69.76,-322.26,-96.59
662,182950442,-2.0444,1.4360,-0.0054,71.52,-332.99,-90.49
663,182955441,-2.1460,1.4204,-0.0278,72.26,-344.27,-84.27
664,182960442,-2.2227,1.4111,-0.0503,72.80,-356.04,-78.11
665,182965440,-2.2554,1.4116,-0.0620,73.48,-367.93,-71.77
666,182970475,-2.3711,1.3872,-0.1069,73.54,-379.94,-65.24
667,182975441,-2.4771,1.3618,-0.1772,73.35,-392.26,-58.66
668,182980444,-2.5205,1.3770,-0.1777,73.84,-403.96,-51.89
669,182985441,-2.6211,1.3730,-0.2480,74.76,-415.73,-45.00
670,182990442,-2.7246,1.3706,-0.3110,76.10,-427.20,-37.68
671,182995442,-2.8374,1.3877,-0.3794,78.29,-438.48,-30.18
672,183000442,-2.9092,1.3882,-0.4131,81.16,-448.78,-22.26
673,183005442,-3.0322,1.3877,-0.5098,84.57,-459.57,-14.15
674,183010442,-3.1528,1.4307,-0.5469,88.41,-469.45,-5.91
675,183015441,-3.2769,1.4419,-0.6191,92.44,-478.84,2.87
676,183020442,-3.3843,1.4570,-0.6938,96.95,-488.23,12.01
677,183025441,-3.4648,1.4751,-0.7388,101.65,-496.83,21.65
678,183030442,-3.5225,1.4829,-0.7974,106.52,-505.06,31.89
679,183035440,-3.5664,1.5020,-0.8667,111.71,-512.20,42.56
680,183040513,-3.6089,1.5396,-0.9351,117.74,-518.60,53.66
681,183045441,-3.6792,1.5605,-1.0015,124.21,-524.57,65.49
682,183050444,-3.7476,1.5806,-1.0742,131.16,-529.70,78.05
683,183055441,-3.7910,1.6201,-1.1104,138.60,-534.15,90.61
684,183060442,-3.8511,1.6670,-1.1611,148.41,-537.62,105.06
685,183065441,-3.9292,1.7124,-1.1938,159.88,-540.12,119.76
686,183070442,-4.0000,1.7554,-1.2148,172.20,-541.40,135.18
687,183075441,-4.0640,1.7861,-1.2441,185.06,-541.95,151.40
688,183080442,-4.1055,1.8188,-1.2568,197.32,-541.40,168.11
689,183085441,-4.1499,1.8276,-1.2856,208.84,-540.24,185.37
690,183090442,-4.2012,1.8867,-1.3159,218.54,-538.11,202.80
691,183095441,-4.3008,1.9019,-1.3438,225.37,-535.37,220.37
692,183100442,-4.3779,1.9258,-1.4102,228.78,-532.13,237.87
693,183105441,-4.4180,1.9380,-1.4316,229.21,-528.23,255.30
694,183110442,-4.4521,1.9585,-1.5239,227.20,-524.02,272.01
695,183115441,-4.5215,1.9878,-1.5371,221.89,-519.09,287.93
696,183120444,-4.5474,2.0225,-1.6270,214.02,-514.02,303.11
697,183125441,-4.5747,2.0576,-1.6826,204.39,-508.17,317.62
698,183130441,-4.6182,2.0742,-1.7119,192.93,-501.77,331.52
699,183135440,-4.6235,2.0942,-1.7441,180.18,-494.51,344.76
700,183140442,-4.6406,2.1011,-1.7896,165.24,-486.71,357.26
701,183145441,-4.6572,2.1182,-1.8022,147.99,-478.23,368.96
702,183150442,-4.6650,2.1250,-1.8208,129.21,-469.45,380.18
703,183155441,-4.6572,2.1323,-1.8608,107.26,-460.06,390.73
704,183160442,-4.6289,2.1611,-1.8901,84.82,-450.55,400.30
705,183165442,-4.6118,2.1875,-1.9580,61.77,-441.10,409.21
706,183170442,-4.5991,2.2139,-2.0464,39.27,-431.71,417.44
707,183175441,-4.5728,2.2422,-2.1279,18.23,-422.26,425.18
708,183180442,-4.5498,2.2710,-2.2202,-1.10,-412.87,432.50
709,183185441,-4.5234,2.2700,-2.3086,-18.35,-403.48,439.57
710,183190442,-4.4854,2.2690,-2.3843,-34.39,-394.57,446.59
711,183195442,-4.4365,2.2559,-2.4429,-48.84,-385.61,453.48
712,183200444,-4.3794,2.2217,-2.4976,-62.68,-376.89,460.06
713,183205441,-4.3257,2.2095,-2.5347,-76.59,-368.35,466.34
714,183210442,-4.2769,2.1738,-2.5894,-90.24,-360.18,472.44
715,183215442,-4.2402,2.1636,-2.6333,-103.05,-352.44,478.23
716,183220442,-4.1807,2.1621,-2.6631,-115.24,-344.94,483.96
717,183225442,-4.1094,2.1440,-2.6841,-126.28,-337.62,489.57
718,183230441,-4.0459,2.1450,-2.6958,-135.24,-330.73,495.43
719,183235442,-4.0049,2.1426,-2.7007,-141.71,-323.96,501.04
720,183240441,-3.9360,2.1279,-2.7148,-145.30,-317.13,507.01
721,183245441,-3.8853,2.1094,-2.7129,-146.34,-310.43,513.17
722,183250442,-3.8330,2.0962,-2.7026,-145.30,-303.72,519.39
723,183255441,-3.7861,2.0654,-2.6797,-143.29,-296.46,525.79
724,183260442,-3.7539,2.0229,-2.6680,-140.73,-289.15,532.38
725,183265441,-3.7295,1.9971,-2.6753,-138.11,-281.40,539.15
726,183270442,-3.6997,1.9458,-2.6484,-135.73,-273.41,546.40
727,183275441,-3.6626,1.8965,-2.6304,-133.96,-265.43,553.48
728,183280442,-3.6265,1.8506,-2.6206,-133.66,-257.68,560.73
729,183285441,-3.6152,1.8032,-2.5977,-134.70,-249.94,567.93
730,183290442,-3.6138,1.7593,-2.5928,-136.22,-242.38,575.24
731,183295441,-3.6382,1.7114,-2.5874,-137.99,-235.18,582.68
732,183300442,-3.6641,1.6489,-2.5698,-139.02,-228.29,590.06
733,183305441,-3.6592,1.5747,-2.5581,-138.54,-221.65,597.01
734,183310442,-3.6045,1.5161,-2.5195,-136.95,-214.88,603.66
735,183315441,-3.5342,1.4614,-2.4937,-134.88,-208.11,609.94
736,183320442,-3.6108,1.3945,-2.4639,-130.61,-201.16,616.04
737,183325441,-3.6309,1.3145,-2.4336,-123.11,-194.09,622.26
738,183330637,-3.6226,1.2358,-2.4043,-113.78,-186.83,628.35
739,183335443,-3.6147,1.1646,-2.3745,-103.72,-179.09,634.15
740,183340441,-3.5908,1.0708,-2.3228,-92.80,-170.79,639.82
741,183345442,-3.6133,1.0010,-2.2422,-81.46,-162.20,645.00
742,183350442,-3.6094,0.9253,-2.1631,-69.76,-153.54,649.39
743,183355442,-3.6504,0.8506,-2.1152,-57.74,-144.57,653.72
744,183360441,-3.6558,0.7783,-2.0747,-45.55,-135.06,657.56
745,183365442,-3.6338,0.6992,-2.0122,-33.72,-125.18,660.55
746,183370442,-3.5991,0.6157,-1.9150,-23.05,-114.70,663.05
747,183375442,-3.5938,0.5415,-1.8755,-13.60,-103.96,664.70
748,183380441,-3.5825,0.4663,-1.8325,-5.37,-92.62,665.73
749,183385442,-3.5342,0.3765,-1.7764,2.44,-81.04,666.28
750,183390726,-3.4644,0.2925,-1.7227,10.12,-68.78,666.34
751,183395442,-3.4180,0.2168,-1.6704,17.13,-55.85,666.04
752,183400442,-3.3774,0.1704,-1.5977,23.78,-42.32,665.12
753,183405442,-3.3506,0.1196,-1.5635,30.98,-28.05,663.78
754,183410662,-3.3188,0.0742,-1.5303,38.84,-13.48,661.65
755,183415443,-3.3042,0.0186,-1.5254,46.95,0.98,658.60
756,183420442,-3.2842,-0.0498,-1.4951,55.30,15.79,654.88
757,183425442,-3.2085,-0.1309,-1.4316,62.26,30.67,650.37
758,183430441,-3.1626,-0.1938,-1.4087,67.32,45.67,644.82
759,183435442,-3.1606,-0.2563,-1.3931,70.73,57.68,639.94
760,183440445,-3.1118,-0.3389,-1.3228,73.96,75.49,631.59
761,183445442,-3.0298,-0.4106,-1.2769,75.43,89.88,623.84
762,183450823,-2.9985,-0.4717,-1.2607,74.70,103.66,615.00
763,183455442,-2.9619,-0.5166,-1.2456,72.87,115.24,607.20
764,183460442,-2.8843,-0.5806,-1.1948,68.96,126.89,596.46
765,183465447,-2.8296,-0.6357,-1.1494,63.90,138.78,584.88
766,183470440,-2.7866,-0.7163,-1.1304,57.32,149.63,572.50
767,183475442,-2.7417,-0.8076,-1.0933,49.76,159.57,559.51
768,183480442,-2.6968,-0.8794,-1.0659,41.52,168.78,546.22
769,183485441,-2.6313,-0.9678,-1.0454,32.87,176.83,532.87
770,183490442,-2.5928,-1.0396,-0.9800,23.78,184.09,519.33
771,183495441,-2.5835,-1.0918,-0.9258,14.57,190.18,505.55
772,183500442,-2.5337,-1.1699,-0.8862,5.06,195.61,491.28
773,183506130,-2.4653,-1.2671,-0.7998,-5.91,201.16,474.51
774,183510444,-2.4399,-1.3374,-0.7070,-14.09,204.88,460.61
775,183515442,-2.4014,-1.3740,-0.6577,-20.06,207.44,449.51
776,183520442,-2.3110,-1.4399,-0.5928,-26.22,209.88,435.98
777,183525442,-2.2383,-1.4790,-0.5000,-30.91,211.77,422.50
778,183530441,-2.2056,-1.5015,-0.4355,-33.54,213.41,409.02
779,183535442,-2.1548,-1.5317,-0.3896,-33.78,214.76,395.37
780,183540441,-2.1880,-1.5659,-0.2979,-31.89,215.67,382.01
781,183545440,-2.1436,-1.6133,-0.2627,-28.29,216.52,368.72
782,183550442,-2.1167,-1.6641,-0.1934,-23.66,217.01,355.67
783,183555453,-2.1006,-1.6963,-0.1162,-18.48,217.44,342.44
784,183560444,-2.0913,-1.7305,-0.0439,-13.96,217.80,329.33
785,183565441,-2.0801,-1.7607,0.0137,-10.67,218.11,316.40
786,183570442,-2.0791,-1.8003,0.0620,-8.11,218.11,303.54
787,183575441,-2.0967,-1.8198,0.0947,-7.07,218.05,291.10
788,183580442,-2.1387,-1.8379,0.1504,-7.01,217.50,278.90
789,183585441,-2.1753,-1.8623,0.2100,-7.56,216.52,267.20
790,183590442,-2.2104,-1.8789,0.2568,-8.66,215.24,255.85
791,183595441,-2.2236,-1.8892,0.3081,-9.76,213.66,244.76
792,183600442,-2.2471,-1.8950,0.3618,-11.46,211.40,234.21
793,183605441,-2.2651,-1.9106,0.4033,-13.17,209.09,223.72
794,183610442,-2.2812,-1.9214,0.4385,-15.18,206.22,213.72
795,183615442,-2.2725,-1.9316,0.4600,-17.80,202.93,204.02
796,183620442,-2.2427,-1.9375,0.4785,-20.55,199.02,194.51
797,183625441,-2.2080,-1.9546,0.4922,-23.23,194.70,185.43
798,183630442,-2.1621,-1.9551,0.5068,-25.30,189.51,176.52
799,183635441,-2.2593,-1.8296,0.3970,-26.28,184.15,167.50
800,183640440,-2.0156,-2.4556,0.7544,-25.91,179.09,159.45
801,183645440,-1.8721,-1.9741,0.4546,-22.87,171.04,152.87
802,183650440,-1.7695,-1.7715,0.3804,-17.44,165.30,143.23
803,183655442,-1.5752,-1.8496,0.6353,-9.76,159.27,133.23
804,183660442,-1.4492,-1.8833,0.4580,-1.04,152.80,123.41
805,183665442,-1.3599,-1.9341,0.3721,8.54,146.22,112.99
806,183670443,-1.2271,-1.9399,0.4775,18.60,138.41,102.26
807,183675442,-1.1094,-1.9038,0.4048,29.15,130.98,90.61
808,183680441,-0.9995,-1.8721,0.3413,39.63,124.09,79.88
809,183685442,-0.8999,-1.8477,0.3716,49.63,116.52,67.99
810,183690442,-0.7710,-1.8662,0.3701,59.45,108.90,55.91
811,183695442,-0.6548,-1.8423,0.3140,68.35,101.16,44.02
812,183700441,-0.5732,-1.7993,0.3081,75.61,93.17,31.65
813,183705442,-0.5073,-1.7837,0.3228,81.04,86.16,19.21
814,183710442,-0.4541,-1.7490,0.3052,84.45,77.74,6.71
815,183715442,-0.4355,-1.7192,0.3018,85.55,69.76,-5.79
816,183720441,-0.4160,-1.6934,0.3169,83.96,61.95,-18.05
817,183725442,-0.4053,-1.6592,0.3091,80.37,54.21,-29.76
818,183730480,-0.4087,-1.6201,0.3120,75.61,46.52,-41.04
819,183735442,-0.4326,-1.5806,0.3198,70.37,39.02,-51.83
820,183740441,-0.4644,-1.5405,0.3340,65.12,31.83,-62.13
821,183745442,-0.4917,-1.5015,0.3496,60.30,24.82,-71.46
822,183750441,-0.5273,-1.4678,0.3687,56.16,18.17,-80.06
823,183755442,-0.5679,-1.4316,0.3843,52.93,12.07,-87.99
824,183760442,-0.6001,-1.3916,0.3843,50.43,6.28,-95.12
825,183765441,-0.6323,-1.3467,0.3955,48.78,0.98,-101.83
826,183770442,-0.6660,-1.3105,0.3911,47.44,-3.90,-107.87
827,183775441,-0.7119,-1.2568,0.4072,45.73,-8.60,-113.35
828,183780442,-0.7197,-1.2388,0.4062,43.11,-12.93,-118.35
829,183785441,-0.7378,-1.2109,0.3887,40.12,-17.07,-122.74
830,183790442,-0.7539,-1.1831,0.3701,38.11,-21.16,-126.89
831,183795441,-0.7798,-1.1353,0.4067,37.13,-24.88,-130.61
832,183800442,-0.7861,-1.1118,0.3911,36.77,-28.54,-133.90
833,183805441,-0.7881,-1.0806,0.3745,36.95,-32.20,-136.77
834,183810885,-0.7925,-1.0601,0.3916,37.87,-35.73,-139.45
835,183815442,-0.7905,-1.0488,0.3774,39.02,-39.51,-141.65
836,183820442,-0.7817,-1.0337,0.3701,40.67,-43.48,-143.72
837,183825442,-0.7632,-1.0171,0.3740,42.01,-47.32,-145.55
838,183830441,-0.7417,-1.0112,0.3633,43.41,-51.28,-147.50
839,183835442,-0.7197,-0.9990,0.3555,44.51,-55.49,-149.27
840,183840442,-0.7017,-0.9917,0.3521,44.94,-59.57,-151.22
841,183845443,-0.6768,-0.9790,0.3286,45.30,-63.96,-153.05
842,183850838,-0.6582,-0.9688,0.3101,45.18,-67.99,-154.82
843,183855442,-0.6328,-0.9634,0.3003,45.24,-72.20,-156.59
844,183860441,-0.6138,-0.9570,0.2910,45.12,-76.22,-158.17
845,183865442,-0.5884,-0.9526,0.2705,45.30,-80.12,-159.21
846,183870442,-0.5767,-0.9409,0.2544,45.79,-83.72,-160.18
847,183875442,-0.5649,-0.9312,0.2344,46.83,-87.38,-160.85
848,183880442,-0.5537,-0.9243,0.2148,48.05,-90.73,-161.40
849,183885440,-0.5361,-0.9146,0.2080,49.70,-93.90,-161.71
850,183890442,-0.5244,-0.9121,0.1895,51.34,-96.59,-161.71
851,183895441,-0.5122,-0.9087,0.1738,53.17,-99.33,-161.83
852,183900444,-0.4951,-0.9102,0.1587,55.06,-102.13,-161.59
853,183905441,-0.4854,-0.9126,0.1475,57.13,-104.57,-161.65
854,183910442,-0.4619,-0.9160,0.1421,58.84,-107.01,-161.59
855,183915441,-0.4272,-0.9150,0.1250,60.55,-109.39,-161.71
856,183920442,-0.3896,-0.9077,0.1216,61.89,-111.77,-161.95
857,183925441,-0.3628,-0.9043,0.1128,62.93,-113.96,-162.38
858,183930442,-0.3320,-0.9053,0.1006,63.48,-116.10,-162.80
859,183935441,-0.2998,-0.9028,0.0942,63.78,-118.05,-163.29
860,183940442,-0.2783,-0.9038,0.0815,64.02,-120.00,-163.78
861,183945441,-0.2622,-0.9067,0.0869,64.70,-121.71,-164.21
862,183950443,-0.2402,-0.9043,0.0884,65.67,-123.17,-164.21
863,183955440,-0.2358,-0.9004,0.0781,66.83,-124.33,-164.33
864,183960442,-0.2104,-0.8979,0.0713,67.62,-125.12,-164.21
865,183965441,-0.2227,-0.9028,0.0630,68.48,-125.73,-163.84
866,183970440,-0.2178,-0.9077,0.0693,69.15,-126.22,-163.41
867,183975442,-0.2070,-0.8945,0.0605,69.45,-126.34,-162.87
868,183980442,-0.1924,-0.8843,0.0454,69.33,-126.71,-162.26
869,183985441,-0.1777,-0.8818,0.0317,69.09,-126.83,-161.77
870,183990442,-0.1694,-0.8774,0.0181,68.60,-126.83,-161.28
871,183995441,-0.1597,-0.8735,0.0112,68.05,-126.95,-160.67
872,184000442,-0.1450,-0.8662,0.0063,67.26,-126.95,-160.18
873,184005441,-0.1235,-0.8628,0.0024,66.40,-127.13,-159.76
874,184010442,-0.1035,-0.8540,0.0044,65.67,-126.89,-159.27
875,184015441,-0.0806,-0.8496,0.0059,64.82,-126.77,-158.90
876,184020442,-0.0508,-0.8438,0.0078,64.21,-126.46,-158.41
877,184025441,-0.0303,-0.8340,0.0093,64.09,-126.04,-157.93
878,184030442,-0.0146,-0.8330,0.0166,63.66,-125.18,-157.32
879,184035441,0.0044,-0.8311,0.0024,63.05,-124.21,-156.46
880,184040444,0.0039,-0.8687,-0.0190,62.20,-123.29,-155.61
881,184045441,0.0088,-0.8452,-0.0112,60.98,-122.26,-154.51
882,184050440,0.0161,-0.8315,-0.0146,58.96,-120.91,-153.41
883,184055519,0.0317,-0.8330,-0.0156,56.04,-119.45,-152.50
884,184060442,0.0479,-0.8379,-0.0010,52.20,-117.74,-151.59
885,184065441,0.0566,-0.8452,0.0015,47.26,-115.85,-150.67
886,184070444,0.0791,-0.8340,0.0000,41.65,-113.90,-149.82
887,184075441,0.1079,-0.8325,0.0024,35.12,-112.01,-149.21
888,184080442,0.1270,-0.8174,-0.0054,27.99,-109.94,-148.66
889,184085441,0.1426,-0.8076,-0.0117,20.24,-108.11,-148.48
890,184090442,0.1562,-0.7954,-0.0195,12.13,-106.28,-148.29
891,184095441,0.1670,-0.7930,-0.0449,3.54,-104.70,-148.48
892,184100442,0.1909,-0.7886,-0.0586,-5.37,-102.99,-148.78
893,184105441,0.2212,-0.8003,-0.0645,-14.63,-101.77,-149.33
894,184110442,0.2432,-0.7886,-0.0698,-23.66,-100.18,-149.76
895,184115442,0.2734,-0.7881,-0.0815,-32.44,-98.84,-150.37
896,184120442,0.3125,-0.7822,-0.0894,-40.00,-97.44,-151.22
897,184125534,0.3364,-0.7739,-0.0903,-46.77,-95.85,-152.07
898,184130441,0.3555,-0.7544,-0.0962,-51.83,-94.21,-153.17
899,184135442,0.3594,-0.7363,-0.1123,-55.55,-92.80,-154.51
900,184140441,0.3706,-0.6768,-0.1436,-58.17,-91.89,-155.98
901,184145442,0.4141,-0.6582,-0.1001,-59.45,-90.55,-157.87
902,184150440,0.4370,-0.6562,-0.0776,-58.96,-89.15,-159.57
903,184155440,0.4751,-0.6631,-0.1553,-57.99,-87.87,-160.98
904,184160440,0.4805,-0.6602,-0.1206,-57.32,-87.20,-162.50
905,184165440,0.5059,-0.6069,-0.1631,-55.37,-86.16,-163.84
906,184170442,0.4941,-0.5996,-0.1035,-53.17,-84.70,-165.24
907,184175441,0.5117,-0.5767,-0.1509,-52.01,-83.72,-166.40
908,184180442,0.5391,-0.5806,-0.1831,-52.01,-83.17,-167.80
909,184185442,0.5635,-0.5684,-0.1489,-54.76,-82.38,-169.15
910,184190441,0.5874,-0.5713,-0.1558,-58.72,-81.65,-170.73
911,184195443,0.5898,-0.5591,-0.1372,-63.48,-80.43,-172.20
912,184200443,0.5957,-0.5396,-0.1489,-68.54,-79.33,-173.66
913,184205442,0.6035,-0.5127,-0.1523,-74.21,-77.93,-174.94
914,184210442,0.6045,-0.4785,-0.1465,-79.57,-76.28,-176.10
915,184215442,0.6104,-0.4829,-0.1294,-84.45,-74.76,-176.95
916,184220442,0.5991,-0.4238,-0.1157,-91.04,-71.65,-178.60
917,184225442,0.6206,-0.3955,-0.1479,-94.76,-69.33,-179.82
918,184230442,0.6758,-0.3867,-0.1260,-98.84,-66.22,-181.16
919,184235443,0.7285,-0.3335,-0.1445,-102.20,-63.11,-182.07
920,184240442,0.7637,-0.3604,-0.0903,-104.09,-60.12,-182.99
921,184245442,0.8940,-0.4604,-0.2363,-101.71,-60.43,-183.54
922,184250442,0.9053,-0.4390,-0.0381,-96.40,-60.98,-183.60
923,184255440,0.8179,-0.3936,-0.0815,-90.91,-60.30,-183.41
924,184260440,0.7832,-0.3291,-0.1904,-85.18,-59.88,-182.74
925,184265442,0.8892,-0.3208,-0.2124,-80.49,-60.55,-181.46
926,184270443,0.9248,-0.3706,-0.1006,-77.99,-60.61,-179.39
927,184275442,0.8442,-0.3989,-0.1064,-76.16,-59.82,-176.83
928,184280442,0.7456,-0.4097,-0.1768,-72.68,-58.72,-173.72
929,184285442,0.7266,-0.4111,-0.2007,-67.20,-57.68,-170.61
930,184290442,0.7461,-0.3579,-0.1680,-60.61,-56.40,-167.50
931,184295442,0.7812,-0.3101,-0.1626,-53.17,-54.88,-164.33
932,184300442,0.7793,-0.2769,-0.1338,-45.30,-52.80,-160.91
933,184305443,0.7588,-0.2378,-0.2100,-37.26,-50.91,-157.32
934,184310442,0.7871,-0.2739,-0.1509,-29.94,-49.39,-153.41
935,184315442,0.7920,-0.3091,-0.1206,-23.66,-47.20,-149.33
936,184320442,0.7783,-0.3247,-0.1758,-17.93,-45.30,-144.94
937,184325442,0.7881,-0.3096,-0.1851,-12.20,-43.66,-140.73
938,184330442,0.8047,-0.2622,-0.1597,-6.77,-42.20,-136.71
939,184335443,0.8286,-0.1992,-0.1646,-2.13,-40.49,-133.17
940,184340442,0.8623,-0.1313,-0.1904,1.65,-39.45,-130.30
941,184345442,0.8628,-0.1006,-0.1572,4.33,-38.23,-128.17
942,184350442,0.8618,-0.0830,-0.1328,6.22,-36.83,-126.22
943,184355440,0.8462,-0.1177,-0.1460,7.50,-35.12,-124.27
944,184360440,0.8320,-0.1357,-0.1685,8.29,-33.29,-122.26
945,184365440,0.8301,-0.1279,-0.1523,8.66,-31.71,-120.30
946,184370442,0.8242,-0.0903,-0.1465,9.02,-29.82,-118.54
947,184375442,0.8271,-0.0430,-0.1440,9.02,-27.93,-117.01
948,184380442,0.8223,0.0107,-0.1621,8.72,-26.22,-115.55
949,184385442,0.8154,0.0361,-0.1509,8.11,-24.33,-114.27
950,184390442,0.8105,0.0459,-0.1680,7.07,-22.44,-113.23
951,184395442,0.8179,0.0342,-0.1704,5.85,-20.73,-112.32
952,184400443,0.8281,0.0322,-0.1821,4.02,-19.27,-111.40
953,184405442,0.8296,0.0371,-0.1680,1.59,-17.50,-110.49
954,184410444,0.8257,0.0586,-0.1768,-1.28,-15.91,-109.70
955,184415441,0.8330,0.0884,-0.1938,-4.33,-14.57,-108.90
956,184420442,0.8428,0.0967,-0.1943,-7.99,-13.17,-108.23
957,184425442,0.8481,0.1138,-0.1982,-11.95,-11.83,-107.56
958,184430442,0.8638,0.1113,-0.2017,-16.10,-10.55,-106.89
959,184435443,0.8804,0.0962,-0.1997,-20.49,-9.21,-106.04
960,184440442,0.8843,0.1001,-0.2080,-25.18,-8.17,-105.30
961,184445442,0.8799,0.1084,-0.2144,-29.45,-7.07,-104.76
962,184450442,0.8862,0.1313,-0.2100,-33.84,-6.16,-104.09
963,184455442,0.8887,0.1499,-0.2148,-38.05,-5.00,-103.60
964,184460442,0.8770,0.1733,-0.2192,-42.20,-4.15,-103.17
965,184465441,0.8809,0.1733,-0.2051,-45.98,-3.05,-102.62
966,184470442,0.8877,0.1650,-0.1968,-49.51,-1.95,-102.07
967,184475442,0.8911,0.1602,-0.1978,-53.05,-0.73,-101.28
968,184480442,0.8984,0.1606,-0.1899,-56.46,0.37,-100.55
969,184485442,0.9111,0.1733,-0.1958,-59.51,1.52,-99.76
970,184490442,0.9170,0.1792,-0.1924,-61.95,2.68,-98.90
971,184495442,0.9277,0.1948,-0.1899,-64.45,3.90,-97.99
972,184500442,0.9380,0.2012,-0.1904,-66.34,5.06,-97.13
973,184505443,0.9390,0.2041,-0.1831,-67.93,6.22,-96.10
974,184510889,0.9521,0.2041,-0.1890,-69.57,7.44,-94.88
975,184515442,0.9512,0.1987,-0.1938,-70.30,8.23,-94.02
976,184520442,0.9536,0.1968,-0.1836,-70.91,9.45,-92.99
977,184525442,0.9561,0.1973,-0.1821,-71.22,10.43,-91.89
978,184530440,0.9517,0.2104,-0.1914,-70.91,11.16,-90.67
979,184535442,0.9443,0.2222,-0.1982,-70.00,12.13,-89.63
980,184540441,0.9380,0.2285,-0.1914,-68.72,13.17,-88.29
981,184545442,0.9331,0.2344,-0.1802,-67.13,14.21,-87.20
982,184550440,0.9321,0.2314,-0.1758,-65.00,15.24,-86.04
983,184555442,0.9336,0.2280,-0.1685,-62.62,16.40,-84.76
984,184560441,0.9360,0.2251,-0.1616,-60.12,17.50,-83.41
985,184565442,0.9395,0.2236,-0.1636,-57.32,18.54,-81.89
986,184570440,0.9492,0.2285,-0.1558,-54.45,19.45,-80.43
987,184575442,0.9561,0.2256,-0.1616,-51.52,20.49,-78.96
988,184580441,0.9590,0.2295,-0.1553,-48.41,21.34,-77.32
989,184585442,0.9653,0.2280,-0.1533,-45.55,22.07,-75.67
990,184590440,0.9702,0.2241,-0.1558,-42.62,22.74,-73.96
991,184595442,0.9741,0.2222,-0.1548,-39.82,23.29,-72.20
992,184600441,0.9780,0.2251,-0.1533,-37.26,23.72,-70.30
993,184605442,0.9756,0.2295,-0.1543,-34.88,24.27,-68.54
994,184610441,0.9780,0.2300,-0.1499,-32.68,24.57,-66.59
995,184615444,0.9756,0.2324,-0.1553,-30.49,24.82,-64.82
996,184620441,0.9712,0.2314,-0.1514,-28.66,25.18,-62.87
997,184625442,0.9648,0.2393,-0.1494,-27.13,25.49,-60.85
998,184630440,0.9609,0.2417,-0.1514,-25.55,25.61,-58.84
999,184635442,0.9604,0.2397,-0.1553,-24.15,25.55,-56.95
1000,184640441,0.9565,0.2402,-0.1538,-22.80,25.67,-55.12
1001,184645442,0.9575,0.2397,-0.1509,-21.40,25.61,-53.11
1002,184650440,0.9668,0.2495,-0.1392,-19.82,25.55,-51.16
1003,184655442,0.9731,0.2529,-0.1357,-17.93,25.49,-49.21
1004,184660442,0.9878,0.2607,-0.1436,-15.73,25.30,-47.38
1005,184665440,0.9976,0.2705,-0.1392,-13.41,25.12,-45.79
1006,184670441,1.0068,0.2749,-0.1323,-10.73,24.82,-44.02
1007,184675577,1.0107,0.2764,-0.1377,-8.29,24.57,-42.32
1008,184680442,1.0161,0.2861,-0.1411,-5.85,24.09,-40.67
1009,184685442,1.0190,0.2871,-0.1504,-3.41,23.48,-38.90
1010,184690442,1.0146,0.2935,-0.1499,-1.22,22.74,-37.13
1011,184695442,1.0112,0.2969,-0.1587,1.04,21.95,-35.55
1012,184700442,1.0137,0.3003,-0.1475,3.35,21.04,-33.96
1013,184705442,1.0161,0.3071,-0.1465,5.79,20.37,-32.38
1014,184710445,1.0171,0.3159,-0.1567,8.05,19.70,-30.73
1015,184715441,1.0151,0.3223,-0.1470,10.30,18.84,-29.27
1016,184720442,1.0117,0.3232,-0.1406,12.56,18.35,-27.93
1017,184725442,1.0132,0.3320,-0.1362,14.70,17.74,-26.71
1018,184730442,1.0073,0.3379,-0.1426,16.71,17.38,-25.18
1019,184735443,0.9922,0.3354,-0.1426,18.48,16.89,-23.84
1020,184740632,0.9697,0.3281,-0.1538,20.06,16.46,-22.44
1021,184745442,1.0044,0.3330,-0.1421,21.28,16.04,-20.85
1022,184750441,1.0156,0.3340,-0.1562,22.26,15.67,-19.51
1023,184755442,0.9702,0.3037,-0.1948,22.80,15.30,-17.80
1024,184760440,0.9941,0.3481,-0.1582,22.62,14.76,-16.22
1025,184765442,1.0264,0.3862,-0.1348,22.74,14.39,-14.94
1026,184770442,1.0308,0.3901,-0.1353,22.99,14.57,-13.78
1027,184775517,1.0210,0.3813,-0.1543,23.23,14.27,-12.50
1028,184780442,1.0054,0.3726,-0.1489,23.54,14.39,-11.40
1029,184785441,0.9917,0.3716,-0.1396,23.66,14.57,-10.06
1030,184790442,0.9800,0.3740,-0.1553,23.78,14.76,-8.84
1031,184795442,0.9839,0.3833,-0.1611,24.02,14.76,-7.62
1032,184800442,0.9746,0.3867,-0.1382,24.39,15.06,-6.34
1033,184805442,0.9805,0.3862,-0.1309,24.27,15.37,-5.24
1034,184810442,0.9790,0.3794,-0.1431,24.09,15.37,-4.09
1035,184815442,0.9771,0.3721,-0.1436,23.90,15.73,-2.87
1036,184820442,0.9785,0.3760,-0.1230,23.60,16.10,-1.89
1037,184825442,0.9785,0.3740,-0.1230,23.05,16.46,-0.79
1038,184830442,0.9800,0.3804,-0.1279,22.44,16.89,0.24
1039,184835443,0.9756,0.3774,-0.1245,21.65,17.26,1.22
1040,184840440,0.9761,0.3804,-0.1206,20.98,17.80,2.26
1041,184845442,0.9795,0.3740,-0.1240,20.06,18.23,3.17
1042,184850441,0.9751,0.3716,-0.1147,19.15,18.66,3.96
1043,184855442,0.9736,0.3662,-0.1177,18.29,19.09,5.06
1044,184860440,0.9707,0.3618,-0.1201,17.20,19.51,5.85
1045,184865442,0.9741,0.3618,-0.1030,16.22,19.82,6.59
1046,184870441,0.9683,0.3599,-0.0991,15.06,20.06,7.44
1047,184875444,0.9697,0.3594,-0.1064,14.09,20.73,8.05
1048,184880623,0.9707,0.3555,-0.0942,12.80,21.10,8.84
1049,184885442,0.9800,0.3535,-0.0845,11.59,21.59,9.57
1050,184890441,0.9775,0.3481,-0.0825,10.30,21.95,10.30
1051,184895442,0.9844,0.3457,-0.0962,8.96,22.50,10.91
1052,184900440,0.9849,0.3398,-0.0747,7.80,23.11,11.52
1053,184905442,0.9878,0.3413,-0.0640,6.40,23.60,12.26
1054,184910441,0.9922,0.3374,-0.0645,5.24,24.33,12.74
1055,184915442,0.9917,0.3335,-0.0674,3.84,24.57,13.29
1056,184920440,0.9902,0.3286,-0.0605,2.62,25.06,13.78
1057,184925442,0.9893,0.3223,-0.0586,1.34,25.67,14.27
1058,184930441,0.9878,0.3154,-0.0601,0.12,26.04,14.82
1059,184935442,0.9941,0.3066,-0.0605,-1.04,26.22,15.24
1060,184940442,0.9897,0.3037,-0.0503,-2.26,26.52,15.79
1061,184945442,0.9893,0.2979,-0.0479,-3.29,26.83,16.22
1062,184950441,0.9878,0.2974,-0.0498,-4.15,27.01,16.77
1063,184955442,0.9878,0.2891,-0.0444,-4.70,27.32,17.07
1064,184960440,0.9761,0.2910,-0.0161,-5.49,27.56,17.68
1065,184965447,0.9854,0.2876,-0.0327,-6.10,27.99,17.87
1066,184970441,0.9937,0.2803,-0.0415,-6.46,27.74,18.29
1067,184975441,0.9995,0.2739,-0.0225,-6.71,28.05,18.48
1068,184980440,0.9985,0.2720,-0.0146,-6.89,28.05,19.02
1069,184985440,0.9917,0.2642,-0.0063,-6.89,28.23,19.21
1070,184990442,0.9849,0.2646,-0.0181,-6.77,28.29,19.39
1071,184995441,0.9800,0.2642,-0.0073,-6.40,28.29,19.63
1072,185000442,0.9702,0.2622,0.0029,-5.98,28.48,20.00
1073,185005442,0.9731,0.2588,-0.0098,-5.61,28.60,20.12
1074,185010442,0.9756,0.2549,-0.0005,-5.00,28.60,20.43
1075,185015442,0.9741,0.2515,0.0122,-4.57,28.66,20.55
1076,185020442,0.9795,0.2490,0.0127,-3.78,28.66,20.85
1077,185025442,0.9814,0.2437,0.0034,-3.05,28.60,20.91
1078,185030442,0.9844,0.2422,0.0044,-2.44,28.35,21.04
1079,185035442,0.9834,0.2397,0.0205,-1.65,28.29,21.22
1080,185040442,0.9819,0.2339,0.0205,-0.91,28.23,21.16
1081,185045442,0.9795,0.2329,0.0210,-0.18,28.05,21.34
1082,185050442,0.9746,0.2251,0.0225,0.30,27.87,21.46
1083,185055442,0.9712,0.2212,0.0376,0.79,27.74,21.52
1084,185060442,0.9673,0.2212,0.0337,1.40,27.50,21.59
1085,185065442,0.9673,0.2168,0.0396,1.71,27.32,21.59
1086,185070442,0.9619,0.2173,0.0493,2.20,27.13,21.52
1087,185075442,0.9644,0.2114,0.0498,2.56,26.95,21.59
1088,185080442,0.9629,0.2070,0.0469,2.74,26.71,21.46
1089,185085442,0.9565,0.2129,0.0581,2.99,26.34,21.40
1090,185090442,0.9565,0.2085,0.0679,3.23,26.04,21.34
1091,185095442,0.9590,0.2109,0.0688,3.48,25.85,21.10
1092,185100442,0.9678,0.2114,0.0566,3.48,25.49,20.85
1093,185105442,0.9702,0.2061,0.0630,3.54,25.06,20.43
1094,185110442,0.9678,0.2046,0.0776,3.29,24.57,20.12
1095,185115442,0.9722,0.2021,0.0747,3.05,24.21,19.82
1096,185120443,0.9766,0.2002,0.0698,2.56,23.54,19.57
1097,185125442,0.9746,0.1963,0.0752,2.13,23.05,19.15
1098,185130442,0.9697,0.1934,0.0889,1.40,22.26,18.90
1099,185135443,0.9692,0.1943,0.0884,0.67,21.77,18.78
1100,185140442,0.9688,0.1880,0.0864,0.00,20.91,18.41
1101,185145491,0.9683,0.1846,0.0884,-0.85,20.37,18.17
1102,185150442,0.9692,0.1851,0.1025,-1.59,19.63,17.87
1103,185155442,0.9707,0.1792,0.0923,-2.38,18.90,17.50
1104,185160442,0.9731,0.1743,0.0972,-3.05,18.11,17.13
1105,185165442,0.9771,0.1758,0.1006,-3.72,17.44,16.89
1106,185170442,0.9761,0.1714,0.1157,-4.21,16.65,16.65
1107,185175443,0.9712,0.1748,0.1045,-4.82,15.85,16.16
1108,185180441,0.9707,0.1675,0.1030,-5.18,14.94,15.85
1109,185185729,0.9731,0.1675,0.1104,-5.61,13.90,15.49
1110,185190441,0.9712,0.1680,0.1172,-5.98,13.35,15.24
1111,185195442,0.9731,0.1685,0.1113,-6.28,12.38,14.94
1112,185200712,0.9805,0.1621,0.1011,-6.46,11.22,14.51
1113,185205442,0.9785,0.1641,0.1182,-6.59,10.37,14.39
1114,185210441,0.9795,0.1626,0.1221,-6.65,9.33,13.90
1115,185215442,0.9751,0.1655,0.1157,-6.71,8.35,13.54
1116,185220442,0.9766,0.1621,0.1230,-6.83,7.38,13.17
1117,185225442,0.9731,0.1577,0.1206,-6.89,6.52,12.87
1118,185230442,0.9731,0.1616,0.1226,-7.01,5.67,12.50
