# skilleye imu stream v1
# device=xiao_esp32c6 imu=mpu6050 addr=0x68
# rate_hz=200 accel_range_g=16 gyro_range_dps=2000 dlpf_hz=94
# units: accel in g, gyro in deg/s, t_us in microseconds since boot (monotonic)
# no shared clock with the camera -- tap the racket once before each take
# so both recordings share a spike to align on
seq,t_us,ax,ay,az,gx,gy,gz
0,428233294,0.0239,-0.1489,-0.8813,2.07,-0.91,2.01
1,428238625,0.0273,-0.1479,-0.8799,1.89,-1.04,1.95
2,428243296,0.0308,-0.1475,-0.8823,1.95,-0.79,1.95
3,428248583,0.0293,-0.1489,-0.8760,1.83,-0.91,1.83
4,428253296,0.0225,-0.1519,-0.8765,1.83,-0.98,1.77
5,428258295,0.0186,-0.1494,-0.8779,1.77,-0.98,1.71
6,428263296,0.0288,-0.1499,-0.8779,1.71,-0.79,1.65
7,428268296,0.0161,-0.1484,-0.8774,1.77,-0.98,1.59
8,428273297,0.0371,-0.1460,-0.8872,1.83,-1.04,1.52
9,428278296,0.0293,-0.1455,-0.8721,1.89,-1.10,1.52
10,428283741,0.0244,-0.1484,-0.8813,2.01,-1.16,1.40
11,428288296,0.0225,-0.1538,-0.8804,2.07,-1.22,1.52
12,428293301,0.0200,-0.1582,-0.8779,2.20,-1.28,1.46
13,428298296,0.0254,-0.1504,-0.8726,2.32,-1.40,1.40
14,428303507,0.0205,-0.1582,-0.8740,2.32,-1.34,1.52
15,428308517,0.0376,-0.1543,-0.8838,2.32,-1.40,1.65
16,428313298,0.0298,-0.1572,-0.8770,2.44,-1.40,1.59
17,428318401,0.0186,-0.1611,-0.8789,2.44,-1.46,1.71
18,428323296,0.0264,-0.1616,-0.8760,2.44,-1.46,1.71
19,428328296,0.0269,-0.1577,-0.8740,2.50,-1.46,1.83
20,428333296,0.0200,-0.1626,-0.8818,2.44,-1.34,1.89
21,428338296,0.0322,-0.1562,-0.8765,2.50,-1.59,2.07
22,428343296,0.0308,-0.1611,-0.8794,2.50,-1.52,2.07
23,428348295,0.0186,-0.1626,-0.8740,2.44,-1.52,2.13
24,428353296,0.0225,-0.1606,-0.8784,2.50,-1.40,2.20
25,428358296,0.0273,-0.1509,-0.8755,2.38,-1.40,2.38
26,428363295,0.0156,-0.1592,-0.8755,2.38,-1.46,2.44
27,428368296,0.0249,-0.1519,-0.8750,2.26,-1.46,2.44
28,428373582,0.0278,-0.1514,-0.8804,2.32,-1.22,2.44
29,428378296,0.0181,-0.1528,-0.8691,2.32,-1.46,2.32
30,428383295,0.0181,-0.1558,-0.8750,2.20,-1.34,2.38
31,428388294,0.0298,-0.1479,-0.8721,2.26,-1.28,2.32
32,428393294,0.0127,-0.1470,-0.8730,2.26,-1.28,2.20
33,428398294,0.0107,-0.1528,-0.8726,2.20,-1.28,2.26
34,428403294,0.0288,-0.1416,-0.8687,2.20,-1.16,2.13
35,428408294,0.0122,-0.1470,-0.8711,2.20,-1.34,2.07
36,428413491,0.0176,-0.1470,-0.8740,2.20,-1.16,2.01
37,428418296,0.0278,-0.1494,-0.8735,2.20,-1.10,1.95
38,428423296,0.0278,-0.1504,-0.8804,2.26,-1.22,1.83
39,428428296,0.0181,-0.1528,-0.8804,2.32,-1.22,2.01
40,428433295,0.0195,-0.1538,-0.8804,2.38,-1.28,1.95
41,428438300,0.0308,-0.1494,-0.8745,2.26,-1.28,1.89
42,428443296,0.0312,-0.1479,-0.8765,2.26,-1.28,1.89
43,428448295,0.0210,-0.1533,-0.8711,2.26,-1.34,1.89
44,428453296,0.0283,-0.1548,-0.8784,2.32,-1.22,1.89
45,428458294,0.0239,-0.1519,-0.8784,2.20,-1.28,1.89
46,428463294,0.0317,-0.1494,-0.8755,2.26,-1.28,1.89
47,428468296,0.0332,-0.1528,-0.8784,2.26,-1.40,1.95
48,428473378,0.0254,-0.1504,-0.8765,2.38,-1.46,1.89
49,428478295,0.0278,-0.1509,-0.8740,2.44,-1.40,1.89
50,428483298,0.0264,-0.1475,-0.8779,2.44,-1.46,1.89
51,428488294,0.0254,-0.1499,-0.8760,2.38,-1.59,1.77
52,428493294,0.0229,-0.1528,-0.8770,2.38,-1.40,1.89
53,428498294,0.0273,-0.1528,-0.8823,2.44,-1.52,1.83
54,428503294,0.0244,-0.1514,-0.8750,2.50,-1.59,1.89
55,428508294,0.0171,-0.1587,-0.8760,2.50,-1.59,1.89
56,428513298,0.0244,-0.1538,-0.8794,2.50,-1.65,1.83
57,428518295,0.0229,-0.1528,-0.8721,2.38,-1.52,1.77
58,428523296,0.0205,-0.1528,-0.8735,2.56,-1.52,1.89
59,428528296,0.0308,-0.1558,-0.8730,2.50,-1.40,1.89
60,428533296,0.0273,-0.1558,-0.8716,2.50,-1.40,1.89
61,428538296,0.0249,-0.1533,-0.8706,2.44,-1.34,1.95
62,428543296,0.0146,-0.1592,-0.8677,2.44,-1.34,1.89
63,428548424,0.0273,-0.1543,-0.8799,2.38,-1.34,1.95
64,428553296,0.0298,-0.1538,-0.8696,2.32,-1.16,1.89
65,428558388,0.0171,-0.1548,-0.8672,2.32,-1.22,2.01
66,428563296,0.0259,-0.1572,-0.8740,2.20,-1.10,2.07
67,428568768,0.0303,-0.1602,-0.8721,2.26,-1.10,2.07
68,428573296,0.0327,-0.1562,-0.8726,2.26,-1.04,2.07
69,428578296,0.0361,-0.1631,-0.8726,2.13,-0.85,2.32
70,428583296,0.0293,-0.1650,-0.8711,2.13,-0.79,2.44
71,428588295,0.0283,-0.1650,-0.8726,2.20,-0.79,2.68
72,428593295,0.0303,-0.1675,-0.8711,2.32,-0.67,2.80
73,428598294,0.0269,-0.1655,-0.8735,2.32,-0.61,2.99
74,428603294,0.0381,-0.1655,-0.8721,2.32,-0.55,3.05
75,428608294,0.0396,-0.1631,-0.8740,2.32,-0.61,3.23
76,428613300,0.0269,-0.1699,-0.8745,2.32,-0.55,3.48
77,428618294,0.0371,-0.1641,-0.8774,2.50,-0.61,3.60
78,428623294,0.0371,-0.1602,-0.8818,2.32,-0.73,3.78
79,428628298,0.0273,-0.1602,-0.8813,2.32,-0.61,3.96
80,428633294,0.0366,-0.1562,-0.8779,2.32,-0.61,4.02
81,428638583,0.0396,-0.1504,-0.8813,2.26,-0.73,4.02
82,428643745,0.0264,-0.1460,-0.8813,2.38,-0.91,4.02
83,428648296,0.0420,-0.1445,-0.8813,2.13,-0.91,4.02
84,428653295,0.0293,-0.1382,-0.8853,2.32,-0.91,3.84
85,428658296,0.0195,-0.1406,-0.8828,2.20,-0.91,3.72
86,428663294,0.0425,-0.1304,-0.8857,2.32,-1.16,3.72
87,428668431,0.0269,-0.1362,-0.8862,2.38,-1.22,3.29
88,428673296,0.0254,-0.1309,-0.8843,2.44,-1.22,3.23
89,428678298,0.0288,-0.1294,-0.8799,2.56,-1.28,2.87
90,428683296,0.0264,-0.1299,-0.8813,2.62,-1.59,2.56
91,428688295,0.0303,-0.1274,-0.8848,2.74,-1.77,2.20
92,428693421,0.0254,-0.1284,-0.8799,2.93,-1.77,2.01
93,428698294,0.0234,-0.1284,-0.8862,2.99,-1.89,1.65
94,428703294,0.0190,-0.1294,-0.8813,2.99,-2.13,1.34
95,428708295,0.0122,-0.1348,-0.8838,2.99,-2.20,1.10
96,428713295,0.0283,-0.1328,-0.8789,3.05,-2.32,0.79
97,428718294,0.0166,-0.1353,-0.8809,3.11,-2.32,0.49
98,428723294,0.0332,-0.1318,-0.8813,3.05,-2.38,0.30
99,428728294,0.0190,-0.1401,-0.8838,2.87,-2.38,0.24
100,428733296,0.0352,-0.1484,-0.8755,3.05,-2.32,0.06
101,428738298,0.0347,-0.1470,-0.8789,2.93,-2.56,-0.06
102,428743780,0.0195,-0.1475,-0.8804,2.93,-2.62,-0.06
103,428748296,0.0190,-0.1514,-0.8765,2.93,-2.62,-0.18
104,428753296,0.0166,-0.1528,-0.8779,3.05,-2.68,-0.18
105,428758296,0.0146,-0.1616,-0.8735,3.11,-2.80,-0.24
106,428763296,0.0190,-0.1543,-0.8745,3.17,-2.93,-0.12
107,428768296,0.0264,-0.1499,-0.8760,3.29,-2.80,-0.18
108,428773296,0.0161,-0.1528,-0.8755,3.35,-3.11,-0.12
109,428778296,0.0044,-0.1538,-0.8784,3.41,-2.93,-0.06
110,428783296,0.0068,-0.1572,-0.8755,3.41,-3.05,-0.18
111,428788544,0.0059,-0.1572,-0.8789,3.35,-2.99,-0.30
112,428793295,0.0122,-0.1548,-0.8721,3.48,-3.17,-0.18
113,428798295,0.0190,-0.1533,-0.8740,3.41,-3.11,-0.12
114,428803294,0.0112,-0.1543,-0.8774,3.48,-3.17,-0.24
115,428808294,0.0117,-0.1572,-0.8867,3.48,-3.11,-0.24
116,428813294,0.0083,-0.1509,-0.8784,3.41,-3.17,-0.30
117,428818297,0.0107,-0.1572,-0.8779,3.35,-3.23,-0.30
118,428823297,0.0020,-0.1562,-0.8813,3.41,-3.17,-0.37
119,428828429,0.0093,-0.1602,-0.8711,3.35,-3.23,-0.30
120,428833700,0.0234,-0.1548,-0.8740,3.23,-3.17,-0.37
121,428838296,0.0078,-0.1626,-0.8745,3.35,-3.17,-0.30
122,428843567,0.0068,-0.1602,-0.8740,3.29,-3.11,-0.24
123,428848296,0.0127,-0.1646,-0.8774,3.23,-3.05,-0.24
124,428853296,0.0049,-0.1641,-0.8687,3.17,-2.93,-0.06
125,428858296,0.0063,-0.1606,-0.8677,3.17,-2.80,-0.12
126,428863444,0.0205,-0.1611,-0.8647,3.11,-2.80,0.06
127,428868296,0.0049,-0.1636,-0.8726,3.05,-2.68,0.18
128,428873296,0.0156,-0.1699,-0.8706,2.99,-2.50,0.30
129,428878296,0.0078,-0.1709,-0.8623,2.80,-2.32,0.43
130,428883296,0.0312,-0.1587,-0.8691,2.74,-2.26,0.43
131,428888296,0.0161,-0.1689,-0.8735,2.62,-2.20,0.61
132,428893297,0.0332,-0.1631,-0.8745,2.50,-1.95,0.73
133,428898296,0.0156,-0.1655,-0.8730,2.50,-1.89,0.85
134,428903296,0.0337,-0.1602,-0.8677,2.26,-1.71,0.91
135,428908298,0.0239,-0.1597,-0.8726,2.13,-1.65,1.10
136,428913296,0.0142,-0.1567,-0.8672,2.07,-1.46,1.04
137,428918296,0.0332,-0.1528,-0.8638,1.95,-1.22,1.16
138,428923295,0.0244,-0.1567,-0.8623,1.89,-1.22,1.10
139,428928296,0.0073,-0.1621,-0.8647,1.89,-1.04,0.98
140,428933296,0.0269,-0.1533,-0.8667,1.83,-0.85,1.04
141,428938296,0.0186,-0.1611,-0.8711,1.83,-0.79,1.10
142,428943774,0.0293,-0.1582,-0.8706,1.59,-0.61,1.16
143,428948296,0.0225,-0.1587,-0.8716,1.65,-0.55,1.10
144,428953296,0.0312,-0.1602,-0.8726,1.59,-0.49,1.16
145,428958296,0.0205,-0.1650,-0.8765,1.65,-0.55,1.22
146,428963296,0.0356,-0.1616,-0.8726,1.65,-0.55,1.34
147,428968296,0.0249,-0.1650,-0.8774,1.71,-0.61,1.59
148,428973297,0.0200,-0.1699,-0.8804,1.89,-0.73,1.77
149,428978296,0.0337,-0.1611,-0.8809,1.95,-0.73,1.83
150,428983295,0.0195,-0.1675,-0.8760,2.07,-1.04,2.01
151,428988294,0.0405,-0.1646,-0.8823,2.26,-1.22,2.20
152,428993294,0.0205,-0.1689,-0.8838,2.32,-1.34,2.32
153,428998295,0.0298,-0.1646,-0.8818,2.56,-1.40,2.38
154,429003294,0.0239,-0.1646,-0.8799,2.74,-1.52,2.68
155,429008294,0.0195,-0.1621,-0.8770,2.87,-1.71,2.68
156,429013294,0.0405,-0.1597,-0.8784,3.05,-1.83,2.93
157,429018703,0.0298,-0.1577,-0.8770,3.05,-1.89,2.87
158,429023663,0.0220,-0.1592,-0.8813,3.11,-1.95,2.99
159,429028296,0.0200,-0.1597,-0.8696,3.29,-2.01,3.05
160,429033298,0.0234,-0.1567,-0.8687,3.29,-2.01,3.05
161,429038299,0.0195,-0.1523,-0.8687,3.29,-1.95,3.11
162,429043296,0.0190,-0.1533,-0.8730,3.35,-2.01,3.05
163,429048296,0.0337,-0.1470,-0.8677,3.23,-1.77,2.87
164,429053296,0.0215,-0.1470,-0.8667,3.23,-1.71,2.93
165,429058296,0.0210,-0.1519,-0.8672,3.11,-1.71,2.80
166,429063296,0.0181,-0.1543,-0.8774,3.05,-1.52,2.68
167,429068296,0.0298,-0.1479,-0.8652,3.11,-1.40,2.62
168,429073295,0.0342,-0.1489,-0.8672,3.05,-1.28,2.56
169,429078294,0.0352,-0.1440,-0.8691,3.05,-1.28,2.50
170,429083294,0.0254,-0.1450,-0.8691,2.93,-1.22,2.32
171,429088294,0.0254,-0.1528,-0.8711,2.93,-1.22,2.26
172,429093294,0.0356,-0.1440,-0.8672,2.87,-0.98,2.20
173,429098295,0.0186,-0.1479,-0.8774,2.93,-0.91,2.07
174,429103294,0.0337,-0.1421,-0.8804,2.74,-1.04,1.83
175,429109004,0.0347,-0.1421,-0.8794,2.80,-1.10,1.77
176,429113486,0.0347,-0.1460,-0.8843,2.56,-1.04,1.71
177,429118296,0.0322,-0.1436,-0.8809,2.62,-0.98,1.59
178,429123298,0.0234,-0.1494,-0.8818,2.50,-1.04,1.52
179,429128296,0.0332,-0.1450,-0.8818,2.62,-1.28,1.46
180,429133296,0.0146,-0.1543,-0.8828,2.56,-1.22,1.34
181,429138296,0.0371,-0.1504,-0.8784,2.62,-1.46,1.34
182,429143296,0.0190,-0.1592,-0.8838,2.56,-1.52,1.22
183,429148296,0.0356,-0.1499,-0.8784,2.68,-1.52,1.34
184,429153296,0.0166,-0.1562,-0.8765,2.80,-1.59,1.28
185,429158296,0.0142,-0.1587,-0.8857,2.80,-1.77,1.34
186,429163295,0.0337,-0.1553,-0.8779,2.93,-1.83,1.34
187,429168294,0.0151,-0.1655,-0.8760,2.93,-1.95,1.34
188,429173294,0.0273,-0.1631,-0.8789,3.11,-2.01,1.46
189,429178294,0.0269,-0.1636,-0.8794,3.11,-2.20,1.52
190,429183294,0.0234,-0.1685,-0.8784,3.29,-2.20,1.71
191,429188294,0.0342,-0.1626,-0.8730,3.29,-2.32,1.89
192,429193294,0.0200,-0.1709,-0.8774,3.29,-2.20,2.01
193,429198294,0.0156,-0.1689,-0.8711,3.41,-2.20,2.01
194,429203296,0.0337,-0.1646,-0.8706,3.48,-2.26,2.20
195,429208296,0.0215,-0.1616,-0.8755,3.48,-2.13,2.32
196,429213294,0.0132,-0.1689,-0.8750,3.35,-2.07,2.44
197,429218294,0.0181,-0.1616,-0.8716,3.35,-1.95,2.50
198,429223294,0.0215,-0.1641,-0.8682,3.23,-1.95,2.62
199,429228294,0.0342,-0.1562,-0.8677,3.23,-1.95,2.68
200,429233294,0.0107,-0.1641,-0.8730,3.17,-1.65,2.68
201,429238294,0.0122,-0.1543,-0.8706,3.11,-1.59,2.74
202,429243294,0.0317,-0.1533,-0.8721,2.93,-1.52,2.56
203,429248294,0.0127,-0.1548,-0.8716,2.80,-1.40,2.74
204,429253294,0.0146,-0.1562,-0.8735,2.68,-1.34,2.62
205,429258297,0.0273,-0.1514,-0.8687,2.74,-1.28,2.56
206,429263296,0.0083,-0.1572,-0.8735,2.56,-1.28,2.56
207,429268295,0.0122,-0.1562,-0.8721,2.44,-1.16,2.56
208,429273738,0.0156,-0.1553,-0.8726,2.32,-1.04,2.50
209,429278296,0.0190,-0.1509,-0.8716,2.26,-0.98,2.38
210,429283296,0.0093,-0.1558,-0.8711,2.20,-0.98,2.32
211,429288296,0.0293,-0.1562,-0.8765,2.07,-0.85,2.32
212,429293296,0.0186,-0.1514,-0.8784,2.07,-0.85,2.38
213,429298296,0.0127,-0.1582,-0.8726,2.13,-0.85,2.32
214,429303296,0.0312,-0.1484,-0.8706,2.07,-0.91,2.38
215,429308296,0.0142,-0.1577,-0.8779,2.07,-0.85,2.26
216,429313297,0.0269,-0.1562,-0.8711,2.01,-0.85,2.26
217,429318405,0.0112,-0.1597,-0.8765,2.13,-0.91,2.32
218,429323435,0.0229,-0.1611,-0.8779,2.13,-0.85,2.38
219,429328296,0.0195,-0.1582,-0.8779,2.13,-0.91,2.32
220,429333403,0.0288,-0.1572,-0.8774,2.20,-0.91,2.38
221,429338443,0.0278,-0.1504,-0.8726,2.20,-0.91,2.38
222,429343348,0.0161,-0.1602,-0.8770,2.26,-1.04,2.44
223,429348376,0.0283,-0.1558,-0.8755,2.26,-0.91,2.38
224,429353704,0.0176,-0.1558,-0.8770,2.26,-0.98,2.38
225,429358296,0.0205,-0.1606,-0.8735,2.32,-0.98,2.44
226,429363296,0.0137,-0.1572,-0.8711,2.38,-1.10,2.44
227,429368296,0.0156,-0.1572,-0.8711,2.38,-1.22,2.38
228,429373296,0.0278,-0.1533,-0.8760,2.50,-1.04,2.44
229,429378296,0.0303,-0.1562,-0.8794,2.50,-1.16,2.44
230,429383295,0.0288,-0.1538,-0.8774,2.50,-1.10,2.32
231,429388294,0.0063,-0.1611,-0.8726,2.56,-1.16,2.44
232,429393294,0.0166,-0.1553,-0.8730,2.68,-1.10,2.32
233,429398294,0.0386,-0.1514,-0.8770,2.62,-1.22,2.32
234,429403296,0.0273,-0.1523,-0.8813,2.50,-1.22,2.32
235,429408296,0.0200,-0.1543,-0.8770,2.56,-1.10,2.38
236,429413296,0.0210,-0.1558,-0.8745,2.68,-1.40,2.26
237,429418296,0.0391,-0.1479,-0.8779,2.62,-1.40,2.26
238,429423705,0.0259,-0.1562,-0.8828,2.62,-1.34,2.32
239,429428297,0.0112,-0.1572,-0.8789,2.62,-1.40,2.26
240,429433296,0.0337,-0.1470,-0.8735,2.74,-1.40,2.20
241,429438454,0.0205,-0.1548,-0.8828,2.62,-1.46,2.07
242,429443772,0.0308,-0.1519,-0.8799,2.68,-1.40,2.13
243,429448296,0.0293,-0.1504,-0.8765,2.62,-1.46,2.07
244,429453296,0.0308,-0.1519,-0.8779,2.56,-1.46,2.13
245,429458296,0.0200,-0.1528,-0.8765,2.62,-1.52,2.07
246,429463643,0.0210,-0.1553,-0.8730,2.62,-1.52,2.07
247,429468297,0.0229,-0.1562,-0.8750,2.56,-1.65,1.95
248,429473295,0.0161,-0.1587,-0.8804,2.62,-1.46,2.07
249,429478294,0.0298,-0.1528,-0.8823,2.56,-1.40,2.01
250,429483294,0.0327,-0.1519,-0.8730,2.62,-1.59,1.95
251,429488294,0.0283,-0.1543,-0.8789,2.56,-1.46,1.89
252,429493294,0.0142,-0.1548,-0.8730,2.44,-1.46,1.95
253,429498294,0.0371,-0.1509,-0.8755,2.56,-1.52,1.83
254,429503687,0.0205,-0.1533,-0.8765,2.56,-1.52,1.83
255,429508295,0.0215,-0.1548,-0.8774,2.62,-1.34,1.77
256,429513294,0.0288,-0.1494,-0.8799,2.56,-1.59,1.71
257,429518294,0.0195,-0.1489,-0.8755,2.50,-1.40,1.65
258,429523294,0.0156,-0.1567,-0.8765,2.56,-1.59,1.59
259,429528294,0.0312,-0.1528,-0.8735,2.62,-1.46,1.65
260,429533294,0.0244,-0.1523,-0.8770,2.56,-1.59,1.65
261,429538294,0.0171,-0.1543,-0.8770,2.62,-1.52,1.52
262,429543294,0.0156,-0.1592,-0.8745,2.62,-1.59,1.46
263,429548295,0.0273,-0.1548,-0.8770,2.50,-1.71,1.52
264,429553294,0.0107,-0.1587,-0.8813,2.62,-1.71,1.40
265,429558294,0.0161,-0.1606,-0.8789,2.62,-1.71,1.46
266,429563401,0.0278,-0.1577,-0.8760,2.68,-1.71,1.52
267,429568298,0.0278,-0.1548,-0.8755,2.74,-1.71,1.59
268,429573345,0.0122,-0.1606,-0.8735,2.62,-1.77,1.52
269,429578295,0.0210,-0.1597,-0.8745,2.56,-1.65,1.59
270,429583722,0.0288,-0.1577,-0.8706,2.68,-1.71,1.65
271,429588296,0.0088,-0.1646,-0.8726,2.62,-1.71,1.71
272,429593296,0.0249,-0.1587,-0.8696,2.62,-1.77,1.71
273,429598296,0.0283,-0.1592,-0.8677,2.68,-1.65,1.77
274,429603296,0.0142,-0.1670,-0.8735,2.56,-1.59,1.77
275,429608296,0.0127,-0.1636,-0.8750,2.62,-1.59,1.77
276,429613296,0.0161,-0.1631,-0.8794,2.50,-1.52,1.83
277,429618296,0.0195,-0.1577,-0.8755,2.56,-1.46,1.95
278,429623297,0.0303,-0.1562,-0.8687,2.50,-1.52,1.83
279,429628769,0.0166,-0.1631,-0.8765,2.44,-1.40,2.07
280,429633296,0.0298,-0.1548,-0.8696,2.50,-1.40,2.01
281,429638296,0.0171,-0.1616,-0.8750,2.38,-1.22,1.89
282,429643296,0.0337,-0.1587,-0.8701,2.26,-1.34,2.01
283,429648296,0.0259,-0.1548,-0.8789,2.32,-1.52,2.01
284,429653296,0.0137,-0.1597,-0.8755,2.26,-1.40,2.01
285,429658296,0.0278,-0.1567,-0.8726,2.38,-1.34,2.01
286,429663296,0.0303,-0.1533,-0.8740,2.32,-1.34,1.95
287,429668296,0.0259,-0.1558,-0.8799,2.44,-1.46,1.89
288,429673296,0.0176,-0.1636,-0.8765,2.38,-1.40,2.01
289,429678294,0.0308,-0.1606,-0.8740,2.44,-1.52,2.01
290,429683294,0.0288,-0.1553,-0.8696,2.50,-1.40,2.01
291,429688294,0.0234,-0.1543,-0.8765,2.38,-1.46,2.01
292,429693294,0.0225,-0.1567,-0.8711,2.38,-1.52,2.01
293,429698294,0.0288,-0.1553,-0.8745,2.38,-1.40,2.07
294,429703298,0.0215,-0.1592,-0.8735,2.38,-1.34,2.07
295,429708296,0.0205,-0.1606,-0.8755,2.50,-1.28,1.95
296,429713789,0.0264,-0.1572,-0.8760,2.44,-1.34,1.95
297,429718296,0.0278,-0.1572,-0.8765,2.50,-1.40,2.07
298,429723296,0.0166,-0.1602,-0.8765,2.44,-1.46,1.95
299,429728301,0.0156,-0.1528,-0.8721,2.50,-1.28,2.01
300,429733296,0.0171,-0.1558,-0.8774,2.44,-1.34,2.07
301,429738296,0.0146,-0.1582,-0.8774,2.50,-1.46,2.01
302,429743296,0.0176,-0.1597,-0.8789,2.44,-1.59,2.01
303,429748296,0.0308,-0.1548,-0.8774,2.44,-1.40,2.07
304,429753296,0.0166,-0.1562,-0.8745,2.38,-1.46,2.13
305,429758296,0.0215,-0.1582,-0.8789,2.38,-1.28,1.89
306,429763296,0.0229,-0.1597,-0.8740,2.44,-1.40,2.01
307,429768296,0.0312,-0.1523,-0.8745,2.50,-1.40,2.01
308,429773295,0.0205,-0.1558,-0.8789,2.38,-1.46,2.01
309,429778296,0.0171,-0.1567,-0.8809,2.38,-1.46,1.95
310,429783296,0.0190,-0.1611,-0.8765,2.44,-1.46,1.95
311,429788299,0.0259,-0.1553,-0.8770,2.38,-1.59,2.01
312,429793296,0.0146,-0.1602,-0.8740,2.38,-1.52,2.01
313,429798297,0.0342,-0.1548,-0.8779,2.44,-1.34,2.07
314,429803296,0.0146,-0.1577,-0.8774,2.38,-1.46,1.95
315,429808517,0.0244,-0.1577,-0.8755,2.32,-1.46,2.01
316,429813773,0.0264,-0.1626,-0.8755,2.38,-1.46,1.95
317,429818296,0.0264,-0.1528,-0.8765,2.32,-1.46,1.95
318,429823297,0.0156,-0.1606,-0.8779,2.44,-1.40,1.89
319,429828729,0.0254,-0.1509,-0.8765,2.44,-1.40,1.95
320,429833296,0.0186,-0.1597,-0.8730,2.38,-1.46,1.89
321,429838296,0.0137,-0.1582,-0.8799,2.38,-1.34,1.95
322,429843296,0.0283,-0.1548,-0.8765,2.38,-1.52,1.89
323,429848294,0.0220,-0.1582,-0.8770,2.44,-1.46,1.95
324,429853294,0.0112,-0.1616,-0.8765,2.38,-1.46,1.89
325,429858294,0.0254,-0.1572,-0.8760,2.32,-1.52,1.89
326,429863295,0.0205,-0.1538,-0.8711,2.38,-1.52,1.95
327,429868431,0.0176,-0.1641,-0.8774,2.32,-1.52,1.83
328,429873318,0.0308,-0.1538,-0.8770,2.32,-1.34,1.89
329,429878295,0.0078,-0.1611,-0.8789,2.32,-1.40,1.89
330,429883699,0.0332,-0.1514,-0.8745,2.38,-1.59,1.95
331,429888296,0.0088,-0.1611,-0.8750,2.50,-1.46,1.83
332,429893296,0.0303,-0.1538,-0.8750,2.38,-1.40,1.83
333,429898296,0.0166,-0.1543,-0.8784,2.32,-1.40,1.83
334,429903295,0.0200,-0.1616,-0.8701,2.32,-1.71,1.83
335,429908296,0.0317,-0.1528,-0.8750,2.44,-1.46,1.77
336,429913294,0.0112,-0.1606,-0.8735,2.50,-1.46,1.83
337,429918296,0.0312,-0.1562,-0.8794,2.44,-1.40,1.83
338,429923296,0.0312,-0.1567,-0.8774,2.38,-1.71,1.83
339,429928294,0.0322,-0.1553,-0.8828,2.44,-1.46,1.77
340,429933294,0.0112,-0.1587,-0.8789,2.38,-1.46,1.83
341,429938294,0.0273,-0.1543,-0.8691,2.50,-1.59,1.89
342,429943298,0.0293,-0.1538,-0.8691,2.38,-1.59,1.95
343,429948294,0.0278,-0.1533,-0.8833,2.44,-1.52,1.77
344,429953296,0.0308,-0.1519,-0.8657,2.50,-1.52,1.83
345,429958296,0.0210,-0.1543,-0.8716,2.44,-1.52,1.89
346,429963295,0.0225,-0.1567,-0.8726,2.50,-1.46,1.83
347,429968296,0.0161,-0.1636,-0.8760,2.56,-1.46,1.77
348,429973296,0.0244,-0.1562,-0.8755,2.50,-1.52,1.77
349,429978296,0.0293,-0.1567,-0.8779,2.50,-1.40,1.77
350,429983296,0.0264,-0.1514,-0.8740,2.50,-1.46,1.83
351,429988299,0.0137,-0.1582,-0.8770,2.32,-1.46,1.77
352,429993296,0.0293,-0.1533,-0.8706,2.38,-1.52,1.77
353,429998444,0.0249,-0.1548,-0.8726,2.50,-1.65,1.89
354,430003299,0.0259,-0.1641,-0.8740,2.26,-1.34,1.77
355,430008296,0.0146,-0.1562,-0.8760,2.32,-1.40,1.89
356,430013296,0.0342,-0.1528,-0.8779,2.26,-1.46,1.83
357,430018296,0.0146,-0.1621,-0.8716,2.26,-1.46,1.77
358,430023296,0.0278,-0.1533,-0.8760,2.07,-1.40,1.77
359,430028296,0.0127,-0.1621,-0.8760,2.01,-1.22,1.83
360,430033297,0.0200,-0.1587,-0.8779,2.07,-1.28,1.83
361,430038753,0.0264,-0.1538,-0.8682,2.01,-1.28,1.83
362,430043296,0.0312,-0.1558,-0.8740,2.13,-1.34,1.89
363,430048296,0.0298,-0.1543,-0.8726,2.07,-1.34,1.77
364,430053296,0.0249,-0.1558,-0.8726,2.20,-1.22,1.89
365,430058296,0.0200,-0.1567,-0.8735,2.26,-1.40,1.77
366,430063297,0.0176,-0.1597,-0.8706,2.26,-1.46,1.95
367,430068709,0.0166,-0.1587,-0.8750,2.13,-1.40,1.89
368,430073296,0.0181,-0.1572,-0.8794,2.38,-1.52,1.95
369,430078296,0.0190,-0.1577,-0.8721,2.38,-1.46,2.01
370,430083296,0.0195,-0.1587,-0.8687,2.38,-1.52,1.95
371,430088296,0.0166,-0.1592,-0.8726,2.50,-1.46,2.01
372,430093295,0.0205,-0.1572,-0.8716,2.68,-1.71,1.95
373,430098296,0.0337,-0.1572,-0.8765,2.62,-1.59,1.89
374,430103296,0.0210,-0.1514,-0.8799,2.68,-1.77,1.89
375,430108296,0.0122,-0.1577,-0.8740,2.68,-1.65,1.89
376,430113320,0.0254,-0.1519,-0.8770,2.62,-1.71,1.89
377,430118296,0.0269,-0.1514,-0.8711,2.62,-1.65,1.83
378,430123297,0.0161,-0.1538,-0.8750,2.68,-1.71,1.83
379,430128295,0.0146,-0.1567,-0.8784,2.68,-1.65,1.89
380,430133294,0.0127,-0.1587,-0.8730,2.62,-1.65,1.83
381,430138294,0.0259,-0.1582,-0.8701,2.56,-1.71,1.83
382,430143294,0.0312,-0.1499,-0.8706,2.56,-1.65,1.71
383,430148294,0.0225,-0.1543,-0.8691,2.38,-1.77,1.77
384,430153294,0.0166,-0.1621,-0.8677,2.50,-1.59,1.71
385,430158294,0.0317,-0.1533,-0.8750,2.44,-1.52,1.77
386,430163295,0.0259,-0.1548,-0.8789,2.44,-1.59,1.65
387,430169377,0.0225,-0.1548,-0.8745,2.38,-1.40,1.65
388,430173296,0.0200,-0.1577,-0.8730,2.38,-1.52,1.65
389,430178296,0.0190,-0.1553,-0.8789,2.38,-1.46,1.59
390,430183296,0.0259,-0.1592,-0.8784,2.32,-1.22,1.65
391,430188296,0.0337,-0.1523,-0.8716,2.44,-1.46,1.65
392,430193296,0.0278,-0.1523,-0.8726,2.38,-1.46,1.65
393,430198299,0.0176,-0.1592,-0.8691,2.38,-1.40,1.52
394,430203295,0.0215,-0.1592,-0.8691,2.32,-1.46,1.59
395,430208296,0.0239,-0.1572,-0.8755,2.32,-1.40,1.59
396,430213294,0.0229,-0.1562,-0.8735,2.44,-1.40,1.59
397,430218294,0.0127,-0.1616,-0.8789,2.38,-1.65,1.65
398,430223294,0.0190,-0.1616,-0.8779,2.44,-1.40,1.71
399,430228294,0.0288,-0.1553,-0.8774,2.50,-1.40,1.65
400,430233294,0.0229,-0.1611,-0.8750,2.50,-1.71,1.65
401,430238294,0.0288,-0.1572,-0.8740,2.44,-1.59,1.65
402,430243294,0.0278,-0.1548,-0.8721,2.50,-1.46,1.65
403,430248295,0.0327,-0.1543,-0.8740,2.50,-1.52,1.65
404,430253294,0.0225,-0.1548,-0.8750,2.44,-1.59,1.71
405,430258294,0.0142,-0.1577,-0.8750,2.56,-1.65,1.77
406,430263294,0.0312,-0.1553,-0.8716,2.56,-1.52,1.77
407,430268294,0.0225,-0.1611,-0.8726,2.56,-1.52,1.71
408,430273294,0.0151,-0.1616,-0.8745,2.50,-1.40,1.83
409,430278294,0.0278,-0.1611,-0.8760,2.56,-1.46,1.77
410,430283294,0.0264,-0.1577,-0.8677,2.50,-1.40,1.77
411,430288294,0.0151,-0.1597,-0.8726,2.56,-1.34,1.83
412,430293294,0.0293,-0.1592,-0.8765,2.50,-1.40,1.71
413,430298299,0.0186,-0.1562,-0.8716,2.56,-1.40,1.83
414,430303298,0.0225,-0.1592,-0.8765,2.44,-1.52,1.77
415,430308298,0.0146,-0.1587,-0.8691,2.50,-1.46,1.83
416,430313295,0.0112,-0.1592,-0.8804,2.56,-1.52,1.83
417,430318296,0.0293,-0.1582,-0.8784,2.44,-1.52,1.77
418,430323296,0.0205,-0.1572,-0.8745,2.44,-1.40,1.77
419,430328296,0.0210,-0.1611,-0.8745,2.50,-1.34,1.89
420,430333296,0.0264,-0.1543,-0.8774,2.62,-1.34,1.77
421,430338296,0.0132,-0.1602,-0.8760,2.56,-1.46,1.83
422,430343297,0.0259,-0.1572,-0.8794,2.56,-1.34,1.89
423,430348296,0.0308,-0.1528,-0.8735,2.44,-1.52,1.83
424,430353296,0.0293,-0.1558,-0.8770,2.38,-1.40,1.89
425,430358296,0.0181,-0.1567,-0.8706,2.38,-1.40,1.83
426,430363457,0.0181,-0.1562,-0.8789,2.26,-1.34,1.83
427,430368381,0.0273,-0.1572,-0.8706,2.44,-1.46,1.89
428,430373294,0.0264,-0.1528,-0.8750,2.32,-1.40,1.95
429,430378745,0.0327,-0.1514,-0.8745,2.38,-1.40,1.83
430,430383296,0.0264,-0.1572,-0.8740,2.38,-1.34,1.83
431,430388299,0.0273,-0.1548,-0.8789,2.38,-1.46,1.95
432,430393296,0.0254,-0.1533,-0.8770,2.44,-1.59,1.77
433,430398680,0.0288,-0.1523,-0.8745,2.56,-1.46,1.83
434,430403296,0.0112,-0.1567,-0.8765,2.44,-1.65,1.89
435,430408296,0.0166,-0.1582,-0.8818,2.38,-1.46,1.77
436,430413495,0.0181,-0.1606,-0.8818,2.62,-1.52,1.77
437,430418386,0.0239,-0.1567,-0.8823,2.50,-1.52,1.83
438,430423295,0.0249,-0.1553,-0.8740,2.62,-1.52,1.83
439,430428300,0.0288,-0.1567,-0.8765,2.56,-1.59,1.71
440,430433294,0.0337,-0.1494,-0.8838,2.62,-1.59,1.77
441,430438294,0.0298,-0.1562,-0.8745,2.44,-1.59,1.77
442,430443294,0.0225,-0.1602,-0.8735,2.56,-1.59,1.77
443,430448294,0.0161,-0.1611,-0.8701,2.56,-1.52,1.77
444,430453294,0.0269,-0.1626,-0.8784,2.32,-1.59,1.77
445,430458294,0.0308,-0.1577,-0.8770,2.44,-1.46,1.77
446,430463294,0.0229,-0.1567,-0.8779,2.50,-1.46,1.77
447,430468296,0.0278,-0.1572,-0.8716,2.50,-1.52,1.89
448,430473298,0.0088,-0.1626,-0.8726,2.56,-1.52,1.83
449,430478356,0.0249,-0.1558,-0.8721,2.44,-1.46,1.71
450,430483390,0.0308,-0.1572,-0.8711,2.38,-1.52,1.71
451,430488319,0.0195,-0.1572,-0.8760,2.44,-1.46,1.77
452,430493295,0.0308,-0.1548,-0.8730,2.44,-1.40,1.71
453,430498617,0.0166,-0.1587,-0.8711,2.38,-1.40,1.71
454,430503364,0.0376,-0.1538,-0.8750,2.38,-1.34,1.77
455,430508609,0.0142,-0.1631,-0.8774,2.38,-1.52,1.77
456,430513534,0.0288,-0.1562,-0.8701,2.50,-1.52,1.83
457,430518296,0.0151,-0.1606,-0.8750,2.50,-1.65,1.83
458,430523296,0.0269,-0.1538,-0.8735,2.62,-1.59,1.83
459,430528508,0.0342,-0.1548,-0.8721,2.50,-1.46,1.77
460,430533512,0.0078,-0.1592,-0.8755,2.56,-1.46,1.77
461,430538296,0.0215,-0.1562,-0.8755,2.50,-1.40,1.71
462,430543296,0.0210,-0.1597,-0.8745,2.62,-1.16,1.77
463,430548297,0.0327,-0.1533,-0.8779,2.50,-1.46,1.83
464,430553296,0.0205,-0.1597,-0.8750,2.56,-1.52,1.83
465,430558296,0.0195,-0.1558,-0.8740,2.56,-1.52,1.77
466,430563296,0.0083,-0.1621,-0.8760,2.56,-1.40,1.83
467,430568296,0.0264,-0.1548,-0.8745,2.50,-1.52,1.71
468,430573296,0.0112,-0.1553,-0.8696,2.62,-1.52,1.71
469,430578296,0.0327,-0.1558,-0.8726,2.50,-1.40,1.71
470,430583296,0.0278,-0.1484,-0.8760,2.56,-1.34,1.65
471,430588296,0.0312,-0.1577,-0.8735,2.50,-1.40,1.77
472,430593296,0.0278,-0.1538,-0.8730,2.44,-1.59,1.71
473,430598435,0.0132,-0.1602,-0.8721,2.44,-1.46,1.77
474,430603632,0.0322,-0.1577,-0.8730,2.38,-1.34,1.71
475,430608296,0.0200,-0.1597,-0.8794,2.50,-1.28,1.71
476,430613299,0.0298,-0.1548,-0.8789,2.44,-1.46,1.71
477,430618296,0.0049,-0.1597,-0.8779,2.32,-1.28,1.71
478,430623347,0.0171,-0.1572,-0.8755,2.38,-1.46,1.77
479,430628296,0.0225,-0.1606,-0.8706,2.32,-1.34,1.83
480,430633443,0.0166,-0.1587,-0.8706,2.44,-1.28,1.77
481,430638447,0.0210,-0.1597,-0.8716,2.44,-1.34,1.77
482,430643294,0.0229,-0.1538,-0.8779,2.44,-1.40,1.83
483,430648294,0.0166,-0.1587,-0.8794,2.44,-1.22,1.83
484,430653294,0.0303,-0.1553,-0.8789,2.50,-1.28,1.83
485,430658294,0.0225,-0.1582,-0.8755,2.44,-1.34,1.77
486,430663296,0.0151,-0.1597,-0.8818,2.38,-1.40,1.77
487,430668298,0.0244,-0.1533,-0.8740,2.38,-1.34,1.77
488,430673300,0.0161,-0.1597,-0.8730,2.38,-1.22,1.89
489,430678296,0.0312,-0.1494,-0.8735,2.44,-1.28,1.83
490,430683296,0.0171,-0.1562,-0.8770,2.50,-1.34,1.71
491,430688296,0.0327,-0.1533,-0.8774,2.44,-1.28,1.83
492,430693296,0.0186,-0.1558,-0.8750,2.44,-1.34,1.83
493,430698295,0.0195,-0.1616,-0.8804,2.50,-1.59,1.83
494,430703296,0.0166,-0.1548,-0.8755,2.50,-1.52,1.77
495,430708294,0.0225,-0.1592,-0.8730,2.44,-1.28,1.77
496,430713296,0.0142,-0.1592,-0.8730,2.50,-1.40,1.89
497,430718296,0.0317,-0.1519,-0.8745,2.56,-1.46,1.77
498,430723771,0.0088,-0.1621,-0.8730,2.50,-1.34,1.71
499,430728296,0.0298,-0.1514,-0.8760,2.50,-1.52,1.83
500,430733296,0.0146,-0.1606,-0.8755,2.50,-1.59,1.77
501,430738295,0.0259,-0.1558,-0.8730,2.44,-1.52,1.77
502,430743296,0.0166,-0.1602,-0.8755,2.56,-1.46,1.77
503,430748294,0.0220,-0.1611,-0.8706,2.44,-1.40,1.77
504,430753298,0.0288,-0.1528,-0.8770,2.50,-1.52,1.71
505,430758296,0.0151,-0.1533,-0.8750,2.50,-1.46,1.71
506,430763296,0.0244,-0.1558,-0.8726,2.38,-1.34,1.77
507,430768296,0.0239,-0.1558,-0.8823,2.56,-1.34,1.83
508,430773295,0.0308,-0.1553,-0.8784,2.44,-1.65,1.83
509,430778296,0.0166,-0.1587,-0.8755,2.44,-1.52,1.77
510,430783296,0.0293,-0.1616,-0.8696,2.38,-1.40,1.77
511,430788296,0.0225,-0.1538,-0.8677,2.44,-1.52,1.71
512,430793295,0.0161,-0.1636,-0.8774,2.38,-1.40,1.77
513,430798296,0.0327,-0.1587,-0.8726,2.32,-1.40,1.77
514,430803563,0.0293,-0.1587,-0.8779,2.44,-1.59,1.77
515,430808295,0.0249,-0.1567,-0.8765,2.44,-1.40,1.77
516,430813294,0.0234,-0.1543,-0.8745,2.38,-1.40,1.77
517,430818294,0.0186,-0.1562,-0.8774,2.38,-1.34,1.95
518,430823294,0.0283,-0.1597,-0.8789,2.32,-1.34,1.83
519,430828294,0.0220,-0.1562,-0.8721,2.44,-1.28,1.89
520,430833295,0.0122,-0.1631,-0.8730,2.32,-1.40,1.83
521,430838297,0.0249,-0.1572,-0.8794,2.26,-1.22,1.77
522,430843297,0.0249,-0.1577,-0.8799,2.44,-1.34,1.83
523,430848295,0.0186,-0.1582,-0.8696,2.32,-1.40,1.89
524,430853296,0.0190,-0.1582,-0.8691,2.38,-1.22,1.83
525,430858296,0.0244,-0.1592,-0.8730,2.32,-1.34,1.83
526,430863296,0.0264,-0.1543,-0.8745,2.32,-1.40,1.83
527,430868296,0.0151,-0.1665,-0.8711,2.44,-1.34,1.95
528,430873296,0.0161,-0.1616,-0.8745,2.56,-1.40,1.95
529,430878296,0.0229,-0.1606,-0.8745,2.44,-1.46,1.83
530,430883716,0.0205,-0.1611,-0.8770,2.32,-1.46,1.83
531,430888296,0.0254,-0.1587,-0.8735,2.38,-1.34,1.89
532,430893296,0.0317,-0.1553,-0.8735,2.50,-1.46,1.89
533,430898298,0.0303,-0.1567,-0.8799,2.44,-1.46,1.95
534,430903295,0.0317,-0.1562,-0.8760,2.38,-1.40,1.89
535,430908296,0.0225,-0.1582,-0.8770,2.50,-1.40,1.89
536,430913294,0.0195,-0.1616,-0.8716,2.44,-1.40,1.89
537,430918431,0.0283,-0.1538,-0.8770,2.38,-1.46,1.83
538,430923296,0.0254,-0.1528,-0.8740,2.38,-1.40,1.89
539,430928443,0.0122,-0.1592,-0.8701,2.44,-1.46,1.89
540,430933296,0.0308,-0.1523,-0.8730,2.38,-1.34,1.95
541,430938298,0.0122,-0.1611,-0.8813,2.26,-1.40,2.01
542,430943336,0.0312,-0.1558,-0.8809,2.32,-1.59,1.89
543,430948569,0.0186,-0.1572,-0.8774,2.32,-1.52,1.77
544,430953296,0.0146,-0.1558,-0.8750,2.32,-1.59,1.77
545,430958299,0.0386,-0.1543,-0.8745,2.32,-1.34,1.83
546,430963296,0.0176,-0.1597,-0.8799,2.38,-1.40,1.89
547,430968296,0.0259,-0.1538,-0.8750,2.38,-1.46,1.83
548,430973741,0.0283,-0.1567,-0.8760,2.38,-1.52,1.83
549,430978296,0.0088,-0.1631,-0.8765,2.26,-1.52,1.83
550,430983296,0.0337,-0.1538,-0.8750,2.38,-1.52,1.83
551,430988296,0.0117,-0.1602,-0.8730,2.38,-1.46,1.83
552,430993296,0.0269,-0.1582,-0.8755,2.38,-1.52,1.83
553,430998296,0.0244,-0.1582,-0.8760,2.38,-1.65,1.65
554,431003296,0.0293,-0.1499,-0.8716,2.44,-1.52,1.71
555,431008297,0.0112,-0.1611,-0.8770,2.44,-1.52,1.71
556,431013296,0.0332,-0.1533,-0.8730,2.38,-1.52,1.77
557,431018296,0.0229,-0.1562,-0.8765,2.44,-1.52,1.65
558,431023295,0.0176,-0.1606,-0.8740,2.44,-1.71,1.65
559,431028756,0.0298,-0.1543,-0.8755,2.56,-1.65,1.65
560,431033296,0.0166,-0.1587,-0.8770,2.44,-1.59,1.59
561,431038294,0.0303,-0.1572,-0.8799,2.56,-1.52,1.77
562,431043295,0.0146,-0.1567,-0.8726,2.56,-1.71,1.65
563,431048294,0.0220,-0.1587,-0.8755,2.50,-1.59,1.71
564,431053294,0.0278,-0.1582,-0.8745,2.44,-1.65,1.77
565,431058294,0.0234,-0.1567,-0.8726,2.50,-1.71,1.77
566,431063294,0.0146,-0.1621,-0.8784,2.50,-1.59,1.83
567,431068294,0.0322,-0.1548,-0.8735,2.44,-1.46,1.71
568,431073603,0.0117,-0.1592,-0.8755,2.38,-1.46,1.77
569,431078298,0.0225,-0.1567,-0.8794,2.32,-1.46,1.77
570,431083295,0.0342,-0.1553,-0.8770,2.26,-1.59,1.77
571,431088296,0.0117,-0.1650,-0.8809,2.20,-1.52,1.71
572,431093296,0.0298,-0.1533,-0.8696,2.26,-1.40,1.77
573,431098296,0.0117,-0.1631,-0.8755,2.07,-1.40,1.77
574,431103296,0.0283,-0.1587,-0.8765,2.07,-1.34,1.71
575,431108342,0.0234,-0.1592,-0.8760,2.07,-1.34,1.83
576,431113326,0.0278,-0.1543,-0.8740,2.07,-1.46,1.77
577,431118295,0.0176,-0.1587,-0.8755,1.89,-1.28,1.71
578,431123296,0.0195,-0.1577,-0.8745,2.07,-1.40,1.77
579,431128296,0.0195,-0.1597,-0.8711,1.95,-1.34,1.77
580,431133788,0.0220,-0.1577,-0.8721,2.01,-1.46,1.71
581,431138296,0.0239,-0.1543,-0.8818,2.07,-1.46,1.77
582,431143296,0.0181,-0.1582,-0.8745,2.13,-1.40,1.89
583,431148296,0.0161,-0.1582,-0.8735,2.20,-1.40,1.77
584,431153763,0.0161,-0.1582,-0.8687,2.32,-1.52,1.83
585,431158296,0.0142,-0.1611,-0.8770,2.44,-1.52,1.83
586,431163298,0.0269,-0.1577,-0.8716,2.44,-1.71,1.83
587,431168296,0.0234,-0.1582,-0.8794,2.44,-1.77,1.83
588,431173296,0.0312,-0.1548,-0.8765,2.62,-1.71,1.83
589,431178296,0.0210,-0.1509,-0.8760,2.56,-1.65,1.83
590,431183295,0.0142,-0.1597,-0.8784,2.50,-1.77,1.77
591,431188297,0.0361,-0.1514,-0.8755,2.68,-1.89,1.89
592,431193294,0.0181,-0.1558,-0.8726,2.56,-1.77,1.89
593,431198356,0.0176,-0.1562,-0.8750,2.62,-1.83,1.83
594,431203665,0.0171,-0.1558,-0.8799,2.56,-1.71,1.77
595,431208298,0.0303,-0.1553,-0.8789,2.50,-1.77,1.77
596,431213296,0.0098,-0.1572,-0.8716,2.44,-1.59,1.77
597,431218442,0.0239,-0.1543,-0.8735,2.44,-1.59,1.77
598,431223296,0.0186,-0.1602,-0.8662,2.38,-1.59,1.89
599,431228294,0.0176,-0.1558,-0.8735,2.38,-1.71,1.77
600,431233296,0.0288,-0.1543,-0.8726,2.26,-1.52,1.71
601,431238300,0.0176,-0.1558,-0.8784,2.32,-1.52,1.77
602,431243296,0.0352,-0.1567,-0.8740,2.26,-1.34,1.71
603,431248296,0.0190,-0.1528,-0.8789,2.26,-1.52,1.77
604,431253296,0.0288,-0.1572,-0.8755,2.20,-1.40,1.71
605,431258294,0.0239,-0.1499,-0.8721,2.20,-1.46,1.77
606,431263294,0.0293,-0.1567,-0.8799,2.13,-1.40,1.71
607,431268294,0.0132,-0.1553,-0.8701,2.13,-1.34,1.65
608,431273294,0.0229,-0.1587,-0.8770,2.07,-1.46,1.71
609,431278294,0.0288,-0.1567,-0.8745,2.20,-1.34,1.65
610,431283294,0.0161,-0.1538,-0.8745,2.20,-1.34,1.71
611,431288294,0.0195,-0.1553,-0.8770,2.13,-1.34,1.59
612,431293296,0.0205,-0.1543,-0.8711,2.01,-1.34,1.52
613,431298294,0.0215,-0.1611,-0.8799,2.26,-1.28,1.46
614,431303294,0.0283,-0.1538,-0.8735,2.13,-1.28,1.65
615,431308294,0.0186,-0.1611,-0.8779,2.32,-1.28,1.52
616,431313294,0.0288,-0.1543,-0.8706,2.20,-1.34,1.59
617,431318294,0.0195,-0.1621,-0.8716,2.26,-1.28,1.59
618,431323294,0.0210,-0.1572,-0.8784,2.26,-1.52,1.52
619,431328294,0.0259,-0.1621,-0.8760,2.32,-1.59,1.59
620,431333294,0.0200,-0.1558,-0.8755,2.44,-1.59,1.59
621,431338294,0.0317,-0.1528,-0.8735,2.38,-1.46,1.71
622,431343294,0.0117,-0.1621,-0.8750,2.44,-1.34,1.71
623,431348294,0.0366,-0.1553,-0.8789,2.38,-1.46,1.71
624,431353294,0.0132,-0.1616,-0.8779,2.56,-1.71,1.77
625,431358294,0.0317,-0.1558,-0.8740,2.38,-1.46,1.83
626,431363294,0.0244,-0.1533,-0.8677,2.50,-1.52,1.77
627,431368298,0.0112,-0.1641,-0.8726,2.50,-1.46,1.83
628,431373296,0.0308,-0.1592,-0.8745,2.38,-1.40,1.77
629,431378296,0.0088,-0.1636,-0.8755,2.44,-1.40,1.83
630,431383759,0.0151,-0.1567,-0.8735,2.44,-1.34,1.77
631,431388296,0.0278,-0.1582,-0.8721,2.38,-1.46,1.89
632,431393296,0.0225,-0.1567,-0.8711,2.38,-1.40,1.83
633,431398296,0.0186,-0.1616,-0.8774,2.38,-1.34,1.95
634,431403296,0.0181,-0.1577,-0.8735,2.32,-1.28,1.89
635,431408298,0.0190,-0.1616,-0.8750,2.26,-1.34,2.01
636,431413295,0.0312,-0.1558,-0.8740,2.38,-1.28,1.89
637,431418296,0.0151,-0.1582,-0.8789,2.32,-1.40,2.01
638,431423296,0.0283,-0.1577,-0.8799,2.32,-1.28,1.83
639,431428295,0.0317,-0.1562,-0.8721,2.20,-1.28,1.89
640,431433487,0.0215,-0.1528,-0.8755,2.20,-1.22,1.83
641,431438784,0.0166,-0.1562,-0.8784,2.26,-1.22,1.83
642,431443296,0.0210,-0.1606,-0.8755,2.13,-1.28,1.89
643,431448296,0.0283,-0.1587,-0.8740,2.13,-1.28,1.83
644,431453345,0.0322,-0.1504,-0.8828,2.13,-1.34,1.83
645,431458296,0.0142,-0.1577,-0.8774,2.07,-1.34,1.83
646,431463704,0.0220,-0.1558,-0.8755,2.20,-1.40,1.95
647,431468297,0.0151,-0.1587,-0.8794,2.13,-1.40,1.83
648,431473294,0.0361,-0.1504,-0.8696,2.26,-1.28,1.83
649,431478294,0.0142,-0.1626,-0.8760,2.13,-1.46,1.83
650,431483294,0.0283,-0.1499,-0.8691,2.20,-1.46,1.77
651,431488294,0.0122,-0.1616,-0.8735,2.26,-1.40,1.77
652,431493359,0.0317,-0.1504,-0.8745,2.32,-1.52,1.77
653,431498296,0.0117,-0.1611,-0.8760,2.32,-1.52,1.71
654,431503296,0.0239,-0.1558,-0.8809,2.38,-1.46,1.65
655,431508301,0.0186,-0.1577,-0.8740,2.38,-1.59,1.65
656,431513295,0.0166,-0.1567,-0.8701,2.44,-1.77,1.59
657,431518300,0.0166,-0.1582,-0.8765,2.50,-1.71,1.59
658,431523296,0.0210,-0.1602,-0.8789,2.56,-1.52,1.59
659,431528682,0.0283,-0.1528,-0.8711,2.56,-1.65,1.52
660,431533296,0.0127,-0.1611,-0.8691,2.56,-1.59,1.59
661,431538557,0.0215,-0.1616,-0.8730,2.50,-1.59,1.65
662,431543661,0.0317,-0.1548,-0.8735,2.50,-1.59,1.71
663,431548296,0.0156,-0.1650,-0.8682,2.50,-1.52,1.71
664,431553654,0.0322,-0.1582,-0.8701,2.44,-1.34,1.77
665,431558296,0.0205,-0.1582,-0.8774,2.38,-1.52,1.83
666,431563296,0.0254,-0.1611,-0.8774,2.44,-1.46,1.83
667,431568296,0.0308,-0.1558,-0.8730,2.38,-1.34,1.89
668,431573296,0.0146,-0.1616,-0.8779,2.26,-1.22,1.83
669,431578705,0.0122,-0.1602,-0.8765,2.32,-1.16,1.95
670,431583296,0.0293,-0.1543,-0.8750,2.07,-1.16,1.95
671,431588296,0.0190,-0.1616,-0.8716,2.07,-1.10,2.07
672,431593296,0.0171,-0.1616,-0.8774,2.20,-1.16,2.01
673,431598296,0.0181,-0.1602,-0.8755,2.07,-1.22,2.01
674,431603296,0.0298,-0.1533,-0.8696,2.13,-1.22,1.95
675,431608296,0.0146,-0.1572,-0.8735,2.13,-1.16,1.95
676,431613296,0.0322,-0.1519,-0.8784,2.20,-1.10,1.95
677,431618296,0.0273,-0.1548,-0.8794,2.13,-1.04,2.01
678,431623300,0.0303,-0.1499,-0.8765,2.07,-1.16,1.95
679,431628296,0.0200,-0.1567,-0.8740,2.07,-1.28,1.95
680,431633296,0.0293,-0.1562,-0.8770,2.20,-1.16,1.95
681,431638295,0.0308,-0.1489,-0.8770,2.20,-1.22,1.83
682,431643294,0.0205,-0.1558,-0.8750,2.13,-1.28,1.77
683,431648294,0.0200,-0.1548,-0.8823,2.13,-1.34,1.83
684,431653294,0.0317,-0.1489,-0.8838,2.26,-1.28,1.89
685,431658846,0.0259,-0.1538,-0.8779,2.32,-1.28,1.83
686,431663296,0.0205,-0.1562,-0.8765,2.38,-1.52,1.83
687,431668296,0.0210,-0.1572,-0.8760,2.38,-1.40,1.77
688,431673297,0.0327,-0.1504,-0.8770,2.32,-1.46,1.77
689,431678299,0.0332,-0.1519,-0.8779,2.44,-1.46,1.77
690,431683296,0.0225,-0.1519,-0.8750,2.38,-1.46,1.59
691,431688296,0.0171,-0.1577,-0.8755,2.38,-1.40,1.71
692,431693296,0.0337,-0.1509,-0.8765,2.38,-1.40,1.71
693,431698296,0.0186,-0.1577,-0.8760,2.38,-1.52,1.71
694,431703761,0.0127,-0.1548,-0.8730,2.44,-1.40,1.77
695,431708296,0.0352,-0.1519,-0.8711,2.26,-1.46,1.71
696,431713296,0.0205,-0.1572,-0.8730,2.32,-1.40,1.65
697,431718296,0.0269,-0.1562,-0.8711,2.38,-1.46,1.71
698,431723296,0.0171,-0.1548,-0.8740,2.20,-1.34,1.65
699,431728296,0.0322,-0.1582,-0.8735,2.26,-1.28,1.52
700,431733296,0.0239,-0.1572,-0.8730,2.20,-1.40,1.65
701,431738296,0.0332,-0.1582,-0.8765,2.20,-1.34,1.59
702,431743772,0.0137,-0.1582,-0.8721,2.20,-1.22,1.52
703,431748296,0.0210,-0.1519,-0.8740,2.20,-1.22,1.77
704,431753296,0.0249,-0.1548,-0.8716,2.13,-1.28,1.71
705,431758296,0.0283,-0.1538,-0.8740,2.07,-1.28,1.65
706,431763297,0.0137,-0.1597,-0.8745,2.20,-1.34,1.71
707,431768295,0.0259,-0.1533,-0.8726,2.26,-1.28,1.65
708,431773294,0.0308,-0.1538,-0.8716,2.13,-1.28,1.65
709,431778294,0.0225,-0.1597,-0.8789,2.32,-1.10,1.65
710,431783294,0.0327,-0.1567,-0.8750,2.20,-1.40,1.65
711,431788294,0.0088,-0.1616,-0.8721,2.26,-1.28,1.71
712,431793294,0.0254,-0.1577,-0.8784,2.26,-1.52,1.65
713,431798294,0.0249,-0.1543,-0.8765,2.26,-1.34,1.71
714,431803298,0.0176,-0.1567,-0.8828,2.32,-1.46,1.65
715,431808626,0.0249,-0.1572,-0.8740,2.32,-1.59,1.77
716,431813656,0.0229,-0.1562,-0.8789,2.32,-1.40,1.65
717,431818296,0.0239,-0.1611,-0.8813,2.38,-1.52,1.71
718,431823296,0.0278,-0.1548,-0.8755,2.32,-1.46,1.71
719,431828296,0.0278,-0.1528,-0.8730,2.38,-1.59,1.83
720,431833296,0.0249,-0.1572,-0.8784,2.26,-1.59,1.77
721,431838609,0.0312,-0.1567,-0.8750,2.13,-1.46,1.71
722,431843746,0.0293,-0.1519,-0.8696,2.26,-1.40,1.83
723,431848296,0.0234,-0.1553,-0.8735,2.38,-1.52,1.77
724,431853296,0.0200,-0.1597,-0.8672,2.20,-1.34,1.83
725,431858296,0.0200,-0.1572,-0.8721,2.32,-1.40,1.71
726,431863296,0.0181,-0.1626,-0.8784,2.26,-1.46,1.83
727,431868296,0.0288,-0.1577,-0.8735,2.26,-1.34,1.89
728,431873296,0.0225,-0.1558,-0.8809,2.32,-1.40,1.95
729,431878297,0.0249,-0.1577,-0.8799,2.20,-1.46,1.83
730,431883296,0.0312,-0.1519,-0.8774,2.26,-1.28,1.89
731,431888296,0.0176,-0.1548,-0.8750,2.20,-1.46,1.83
732,431893296,0.0186,-0.1587,-0.8682,2.26,-1.52,1.89
733,431898296,0.0186,-0.1553,-0.8750,2.20,-1.28,2.01
734,431903296,0.0259,-0.1543,-0.8804,2.26,-1.46,1.89
735,431908296,0.0234,-0.1528,-0.8760,2.20,-1.46,1.83
736,431913296,0.0161,-0.1587,-0.8760,2.13,-1.40,1.89
737,431918296,0.0254,-0.1587,-0.8770,2.13,-1.34,1.95
738,431923296,0.0317,-0.1523,-0.8716,2.20,-1.40,1.89
739,431928296,0.0166,-0.1582,-0.8784,2.20,-1.22,1.83
740,431933296,0.0200,-0.1553,-0.8726,2.13,-1.34,1.89
741,431938296,0.0308,-0.1509,-0.8735,2.32,-1.40,2.07
742,431943295,0.0195,-0.1543,-0.8696,2.26,-1.34,1.89
743,431948294,0.0361,-0.1528,-0.8726,2.26,-1.46,1.89
744,431953297,0.0151,-0.1562,-0.8750,2.32,-1.40,1.89
745,431958295,0.0347,-0.1514,-0.8789,2.20,-1.46,1.83
746,431963296,0.0146,-0.1597,-0.8779,2.20,-1.59,1.95
747,431968295,0.0283,-0.1494,-0.8735,2.26,-1.28,1.83
748,431973294,0.0151,-0.1577,-0.8794,2.38,-1.52,1.89
749,431978294,0.0205,-0.1548,-0.8770,2.38,-1.52,1.95
750,431983294,0.0317,-0.1533,-0.8726,2.26,-1.46,1.89
751,431988294,0.0176,-0.1592,-0.8755,2.32,-1.52,1.83
752,431993375,0.0186,-0.1558,-0.8755,2.20,-1.46,1.83
753,431998386,0.0264,-0.1538,-0.8716,2.20,-1.46,1.77
754,432003681,0.0317,-0.1494,-0.8745,2.20,-1.40,1.89
755,432008296,0.0186,-0.1543,-0.8735,2.32,-1.59,1.83
756,432013296,0.0181,-0.1606,-0.8784,2.26,-1.40,1.83
757,432018296,0.0264,-0.1577,-0.8716,2.26,-1.59,1.83
758,432023296,0.0254,-0.1523,-0.8774,2.26,-1.40,1.83
759,432028296,0.0308,-0.1558,-0.8750,2.13,-1.22,1.71
760,432033296,0.0225,-0.1577,-0.8774,2.20,-1.40,1.77
761,432038296,0.0269,-0.1562,-0.8711,2.32,-1.40,1.83
762,432043296,0.0264,-0.1562,-0.8726,2.20,-1.34,1.77
763,432048296,0.0259,-0.1523,-0.8799,2.13,-1.22,1.83
764,432053296,0.0229,-0.1567,-0.8760,2.07,-1.22,1.83
765,432058296,0.0244,-0.1567,-0.8779,2.13,-1.46,1.83
766,432063296,0.0234,-0.1562,-0.8779,2.01,-1.46,1.77
767,432068296,0.0220,-0.1572,-0.8721,2.13,-1.28,1.89
768,432073296,0.0210,-0.1538,-0.8726,2.07,-1.22,1.83
769,432078296,0.0278,-0.1475,-0.8730,2.07,-1.22,1.77
770,432083297,0.0269,-0.1543,-0.8799,2.07,-1.46,1.83
771,432088296,0.0259,-0.1572,-0.8750,2.13,-1.34,1.83
772,432093664,0.0234,-0.1572,-0.8755,2.20,-1.28,1.89
773,432098296,0.0259,-0.1553,-0.8765,2.26,-1.40,1.89
774,432103296,0.0239,-0.1572,-0.8794,2.26,-1.52,1.95
775,432108296,0.0249,-0.1562,-0.8716,2.26,-1.28,1.89
776,432113319,0.0181,-0.1597,-0.8735,2.13,-1.28,1.95
777,432118296,0.0215,-0.1567,-0.8726,2.07,-1.22,2.01
778,432123296,0.0200,-0.1587,-0.8779,2.26,-1.28,2.01
779,432128296,0.0229,-0.1562,-0.8779,2.20,-1.28,2.07
780,432133296,0.0225,-0.1597,-0.8706,2.13,-1.28,2.01
781,432138296,0.0146,-0.1616,-0.8706,2.26,-1.22,2.20
782,432143296,0.0215,-0.1611,-0.8730,2.20,-1.10,2.07
783,432148296,0.0186,-0.1621,-0.8706,2.07,-0.98,2.32
784,432153296,0.0186,-0.1636,-0.8701,2.01,-1.04,2.32
785,432158296,0.0205,-0.1621,-0.8721,2.07,-0.91,2.38
786,432163296,0.0127,-0.1587,-0.8662,2.01,-0.85,2.38
787,432168296,0.0190,-0.1606,-0.8696,1.89,-0.79,2.50
788,432173295,0.0166,-0.1616,-0.8687,1.83,-0.73,2.44
789,432178295,0.0259,-0.1577,-0.8711,1.89,-0.79,2.50
790,432183294,0.0229,-0.1567,-0.8730,1.71,-0.55,2.44
791,432188294,0.0220,-0.1533,-0.8745,1.65,-0.30,2.50
792,432193294,0.0273,-0.1533,-0.8711,1.52,-0.43,2.44
793,432198297,0.0420,-0.1572,-0.8701,1.52,-0.37,2.44
794,432203298,0.0464,-0.1553,-0.8730,1.28,-0.18,2.56
795,432208294,0.0430,-0.1621,-0.8760,1.16,0.06,2.68
796,432213297,0.0454,-0.1626,-0.8740,0.98,0.00,2.74
797,432218296,0.0449,-0.1597,-0.8745,0.98,0.00,2.93
798,432223296,0.0479,-0.1567,-0.8755,0.98,0.18,2.93
799,432228296,0.0356,-0.1587,-0.8794,0.85,0.06,3.05
800,432233296,0.0371,-0.1572,-0.8779,0.73,0.18,3.17
801,432238294,0.0405,-0.1577,-0.8701,0.73,0.18,3.17
802,432243294,0.0352,-0.1523,-0.8804,0.73,0.18,3.23
803,432248295,0.0283,-0.1548,-0.8770,0.91,0.12,3.29
804,432253294,0.0244,-0.1509,-0.8838,0.79,0.06,3.35
805,432258297,0.0288,-0.1455,-0.8843,0.98,0.12,3.17
806,432263296,0.0220,-0.1475,-0.8901,1.10,-0.06,3.11
807,432268294,0.0254,-0.1431,-0.8848,1.40,-0.55,2.99
808,432273296,0.0181,-0.1401,-0.8813,1.59,-0.61,3.05
809,432278296,0.0215,-0.1411,-0.8877,1.89,-0.98,2.93
810,432283296,0.0166,-0.1431,-0.8916,2.20,-1.28,2.80
811,432288297,0.0122,-0.1396,-0.8882,2.38,-1.52,2.74
812,432293296,0.0078,-0.1436,-0.8892,2.62,-1.71,2.50
813,432298296,0.0151,-0.1411,-0.8882,2.80,-2.20,2.38
814,432303296,0.0166,-0.1436,-0.8911,2.87,-2.26,2.26
815,432308296,0.0186,-0.1396,-0.8931,2.93,-2.50,2.07
816,432313294,0.0156,-0.1377,-0.8911,3.05,-2.74,1.83
817,432318294,0.0142,-0.1411,-0.8945,3.17,-3.05,1.71
818,432323294,0.0210,-0.1401,-0.8838,3.11,-3.11,1.59
819,432328294,0.0278,-0.1401,-0.8857,3.17,-3.35,1.40
820,432333294,0.0347,-0.1411,-0.8867,3.23,-3.54,1.28
821,432338294,0.0288,-0.1470,-0.8843,3.17,-3.66,1.22
822,432343294,0.0151,-0.1523,-0.8818,3.17,-3.72,1.16
823,432348295,0.0254,-0.1533,-0.8823,3.23,-3.78,1.10
824,432353294,0.0220,-0.1401,-0.8862,3.11,-3.84,1.10
825,432358294,0.0215,-0.1377,-0.8760,3.05,-3.90,0.91
826,432363294,0.0239,-0.1362,-0.8887,2.93,-3.96,0.85
827,432368294,0.0259,-0.1313,-0.8857,2.62,-3.90,0.55
828,432373294,0.0244,-0.1333,-0.8853,2.56,-4.02,0.30
829,432378294,0.0229,-0.1284,-0.8906,2.32,-4.09,0.06
830,432383294,0.0234,-0.1270,-0.8857,2.26,-4.21,-0.30
831,432388294,0.0244,-0.1289,-0.8823,2.13,-4.15,-0.61
832,432393294,0.0283,-0.1260,-0.8848,2.20,-4.39,-0.91
833,432398294,0.0381,-0.1235,-0.8760,2.07,-4.51,-1.28
834,432403297,0.0332,-0.1235,-0.8726,2.26,-4.76,-1.71
835,432408297,0.0308,-0.1196,-0.8789,2.38,-4.76,-2.01
836,432413425,0.0259,-0.1230,-0.8755,2.44,-4.76,-2.26
837,432418299,0.0225,-0.1250,-0.8716,2.50,-4.88,-2.68
838,432423297,0.0137,-0.1250,-0.8730,2.56,-4.76,-2.99
839,432428296,0.0239,-0.1230,-0.8721,2.32,-4.76,-3.29
840,432433296,0.0264,-0.1245,-0.8784,2.26,-4.57,-3.72
841,432438359,0.0166,-0.1245,-0.8711,2.07,-4.51,-4.15
842,432443296,0.0093,-0.1309,-0.8750,1.89,-4.45,-4.51
843,432448296,0.0059,-0.1411,-0.8682,1.83,-4.39,-4.63
844,432453296,-0.0034,-0.1401,-0.8706,1.65,-4.21,-4.82
845,432458296,-0.0239,-0.0962,-0.8442,1.65,-3.96,-5.00
846,432463295,-0.0947,-0.1123,-0.8271,2.38,-3.54,-5.91
847,432468296,-0.0825,-0.1211,-0.8164,3.23,-3.35,-7.62
848,432473294,-0.0845,-0.0967,-0.7871,2.80,-2.68,-8.60
849,432478296,-0.0845,-0.0752,-0.8496,2.87,-2.07,-9.82
850,432483296,-0.0645,-0.1021,-0.9414,1.83,-2.01,-10.79
851,432488296,-0.0693,-0.0923,-0.8979,1.59,-1.52,-11.65
852,432493348,-0.0693,-0.0991,-0.8643,0.18,-0.98,-12.38
853,432498362,-0.0591,-0.0894,-0.8872,-0.49,-0.61,-13.05
854,432503732,-0.0469,-0.0908,-0.8853,-0.49,0.06,-13.72
855,432508296,-0.0293,-0.0933,-0.8545,-0.43,0.49,-14.15
856,432513296,0.0015,-0.0820,-0.8608,-0.79,1.28,-14.57
857,432518639,0.0356,-0.1309,-0.9082,-0.79,2.01,-14.88
858,432523296,0.0864,-0.1880,-0.9355,-1.16,2.44,-14.57
859,432528296,0.1240,-0.2031,-0.9365,-2.07,2.87,-13.84
860,432533296,0.1479,-0.2388,-0.9604,-2.74,2.87,-12.62
861,432538295,0.1650,-0.2769,-0.9873,-3.17,2.50,-10.91
862,432543294,0.1577,-0.2646,-0.9883,-3.60,2.01,-9.02
863,432548294,0.1421,-0.2402,-0.9746,-2.80,1.40,-7.26
864,432553295,0.1260,-0.2393,-0.9478,-1.52,0.67,-5.85
865,432558294,0.1074,-0.2236,-0.9136,-0.18,0.12,-4.57
866,432563296,0.0840,-0.2144,-0.8818,1.04,-0.67,-3.60
867,432568773,0.0693,-0.1138,-0.8467,2.38,-0.85,-3.54
868,432573296,0.0645,-0.1562,-0.8501,2.99,-1.22,-3.54
869,432578296,0.0410,-0.1187,-0.8154,3.23,-1.71,-3.60
870,432584019,0.0669,-0.1030,-0.8306,3.11,-2.07,-4.21
871,432588296,0.0908,-0.0796,-0.8237,3.17,-2.44,-4.82
872,432593300,0.1338,0.0220,-0.8442,3.35,-2.87,-6.52
873,432598296,0.1362,0.1069,-0.8662,3.60,-3.41,-7.99
874,432603294,0.1196,0.0654,-0.8677,4.45,-4.15,-9.63
875,432608294,0.0894,-0.0122,-0.8721,5.61,-5.00,-10.98
876,432613295,0.0723,-0.0679,-0.8936,7.01,-5.98,-11.83
877,432618294,0.0698,-0.0586,-0.9531,8.96,-7.44,-12.56
878,432623296,0.1025,-0.0015,-1.0620,12.01,-9.39,-13.48
879,432628430,0.0967,-0.0854,-1.0908,16.10,-13.35,-14.51
880,432633782,0.0898,-0.2559,-0.9580,19.02,-16.52,-14.33
881,432638296,0.2065,-0.6411,-0.9878,20.12,-20.12,-12.68
882,432643296,0.2974,-0.6997,-0.9668,19.39,-24.09,-8.72
883,432648296,0.3853,-0.5049,-0.9844,18.72,-28.23,-5.37
884,432653745,0.4385,-0.3213,-0.9907,19.45,-32.93,-2.44
885,432658296,0.3521,-0.2114,-0.8628,20.18,-37.99,-0.12
886,432663296,0.3032,-0.1929,-0.7319,20.55,-42.13,2.13
887,432668296,0.2690,-0.2061,-0.7676,21.71,-45.79,4.57
888,432673296,0.2285,-0.2583,-0.9302,23.66,-50.18,7.32
889,432678296,0.1890,-0.2852,-1.0273,26.40,-55.12,10.67
890,432683296,0.1733,-0.1816,-0.9980,28.78,-60.12,13.54
891,432688296,0.0918,-0.0317,-0.9370,31.04,-64.15,15.43
892,432693296,-0.0254,0.0942,-0.8179,32.13,-67.01,16.10
893,432698297,-0.1772,0.2056,-0.7290,31.40,-68.23,14.82
894,432703296,-0.3081,0.2451,-0.7119,27.87,-67.80,12.01
895,432708296,-0.3599,0.1729,-0.7832,22.93,-66.10,8.84
896,432713296,-0.3481,0.0586,-0.9438,17.74,-64.39,6.34
897,432718296,-0.3096,-0.0249,-1.0752,13.72,-63.17,5.00
898,432723296,-0.2207,-0.0430,-1.0649,10.67,-61.89,4.39
899,432728296,-0.1074,-0.0825,-1.0142,7.99,-59.88,3.84
900,432733296,-0.0449,-0.1226,-1.0093,5.61,-57.32,3.90
901,432738296,-0.0537,-0.1177,-0.9185,4.57,-54.27,3.96
902,432743296,-0.0645,-0.1440,-0.9551,3.35,-50.43,4.09
903,432748296,-0.0811,-0.1841,-1.0337,2.38,-46.52,4.70
904,432753296,-0.1133,-0.2046,-0.9360,2.56,-42.26,5.18
905,432758296,-0.1147,-0.1914,-0.8184,4.15,-36.77,6.04
906,432763295,-0.1040,-0.1909,-0.9443,6.71,-31.65,6.71
907,432768757,-0.0811,-0.2173,-0.9897,10.43,-27.26,7.62
908,432773296,-0.0669,-0.2217,-0.8413,14.76,-21.89,8.78
909,432778296,-0.0605,-0.2080,-0.8823,20.79,-16.34,10.00
910,432783296,-0.0942,-0.1772,-0.9448,28.48,-11.52,11.04
911,432788296,-0.0820,-0.1665,-0.9448,38.23,-5.43,11.89
912,432793296,-0.0928,-0.1831,-0.8940,45.06,-1.22,12.44
913,432798297,-0.1089,-0.1714,-0.8921,53.90,3.90,12.99
914,432803296,-0.0693,-0.1611,-0.9312,62.44,8.60,13.17
915,432808299,-0.0239,-0.1650,-0.9214,71.16,14.02,13.41
916,432813296,-0.0078,-0.1714,-0.8857,75.85,17.62,13.54
917,432818296,-0.0034,-0.1846,-0.9038,80.37,21.59,13.72
918,432823296,0.0039,-0.1948,-0.9067,83.23,24.94,13.78
919,432828296,0.0117,-0.1958,-0.8955,84.57,28.90,13.66
920,432833296,0.0107,-0.1963,-0.8843,84.21,31.16,13.54
921,432838295,0.0142,-0.2017,-0.8960,82.56,33.35,13.35
922,432843294,0.0229,-0.2061,-0.8872,79.63,35.12,13.17
923,432848296,0.0396,-0.2075,-0.8750,75.73,36.77,12.93
924,432853297,0.0449,-0.2119,-0.8838,70.67,38.05,12.62
925,432858782,0.0654,-0.2124,-0.8994,63.84,38.66,12.20
926,432863296,0.0737,-0.2075,-0.8813,58.78,39.15,12.01
927,432868296,0.0776,-0.2104,-0.8853,52.26,39.57,11.71
928,432873296,0.0762,-0.2139,-0.8828,45.18,39.51,11.28
929,432878296,0.0752,-0.2104,-0.8872,37.87,39.45,11.04
930,432883296,0.0957,-0.2100,-0.8857,28.72,39.15,10.49
931,432888296,0.0918,-0.2090,-0.8794,22.56,38.60,10.12
932,432893296,0.0850,-0.2095,-0.8770,15.24,37.87,9.88
933,432898789,0.0903,-0.1968,-0.8643,6.46,37.20,9.70
934,432903296,0.0879,-0.1978,-0.8589,0.91,36.40,9.63
935,432908294,0.0957,-0.1997,-0.8662,-5.91,35.55,9.51
936,432913294,0.0967,-0.2002,-0.8540,-12.07,34.76,9.63
937,432918294,0.1079,-0.2017,-0.8428,-17.87,33.84,9.94
938,432923294,0.1011,-0.1973,-0.8330,-22.99,32.99,10.30
939,432928294,0.0864,-0.2007,-0.8345,-27.20,32.20,10.91
940,432933297,0.0957,-0.1914,-0.8223,-30.43,31.52,11.46
941,432938780,0.0742,-0.1914,-0.8247,-33.05,30.91,12.38
942,432943296,0.0825,-0.1841,-0.8247,-33.90,30.30,13.05
943,432948296,0.0664,-0.1821,-0.8184,-34.15,29.45,14.09
944,432953392,0.0645,-0.1904,-0.8159,-33.41,28.72,15.12
945,432958295,0.0752,-0.1865,-0.8125,-31.89,28.17,16.22
946,432963296,0.0752,-0.2007,-0.8203,-30.00,27.56,17.68
947,432968705,0.0723,-0.2085,-0.8213,-27.26,26.71,19.09
948,432973296,0.0762,-0.2163,-0.8169,-24.21,25.85,20.85
949,432978296,0.0762,-0.2197,-0.8091,-20.49,25.06,22.56
950,432983296,0.0718,-0.2314,-0.8198,-16.28,24.33,24.33
951,432988296,0.0654,-0.2383,-0.8218,-11.52,23.66,26.22
952,432993813,0.0571,-0.2344,-0.8188,-6.34,23.11,28.29
953,432998296,0.0557,-0.2388,-0.8262,-1.04,22.50,30.18
954,433003662,0.0513,-0.2437,-0.8247,4.39,21.83,32.20
955,433008296,0.0444,-0.2432,-0.8330,9.94,21.04,34.27
956,433013510,0.0557,-0.2495,-0.8413,15.61,20.43,36.16
957,433018339,0.0625,-0.2554,-0.8442,20.91,19.51,38.05
958,433023330,0.0547,-0.2598,-0.8613,26.16,18.60,39.94
959,433028440,0.0415,-0.2671,-0.8691,30.98,17.44,41.89
960,433033367,0.0298,-0.2700,-0.8799,35.67,16.10,43.66
961,433038356,0.0278,-0.2769,-0.9048,40.18,14.82,45.49
962,433043561,0.0244,-0.2930,-0.9258,44.70,13.29,47.26
963,433048296,0.0229,-0.3042,-0.9380,49.57,11.71,49.09
964,433053296,0.0186,-0.3237,-0.9473,54.70,10.18,50.91
965,433058296,0.0078,-0.3340,-0.9478,60.30,9.09,52.74
966,433063296,-0.0024,-0.3472,-0.9502,66.04,7.80,54.57
967,433068294,-0.0269,-0.3584,-0.9526,73.35,7.07,56.83
968,433073297,-0.0278,-0.3643,-0.9438,78.29,6.83,58.35
969,433078296,-0.0337,-0.3657,-0.9346,84.51,6.59,59.88
970,433083296,-0.0420,-0.3760,-0.9268,90.00,6.77,61.59
971,433088296,-0.0376,-0.3901,-0.9146,95.18,7.13,63.23
972,433093296,-0.0415,-0.4019,-0.9033,99.33,7.93,64.76
973,433098295,-0.0576,-0.4058,-0.8877,102.26,9.02,65.98
974,433103294,-0.0562,-0.4126,-0.8784,104.02,10.49,67.20
975,433108294,-0.0488,-0.4243,-0.8647,104.76,11.89,68.29
976,433113323,-0.0518,-0.4287,-0.8433,104.33,13.78,69.09
977,433118297,-0.0610,-0.4478,-0.8330,103.11,15.79,70.00
978,433123296,-0.0439,-0.4517,-0.8130,101.04,17.87,70.73
979,433128295,-0.0532,-0.4644,-0.7939,98.17,20.49,71.46
980,433133296,-0.0493,-0.4604,-0.7812,95.79,22.38,71.83
981,433138294,-0.0547,-0.4702,-0.7705,92.93,24.88,72.32
982,433143294,-0.0435,-0.4805,-0.7534,90.12,27.32,72.80
983,433148294,-0.0366,-0.4834,-0.7383,87.50,29.57,73.23
984,433153294,-0.0322,-0.4907,-0.7407,85.24,31.77,73.54
985,433158294,-0.0176,-0.4849,-0.7319,83.29,33.78,73.96
986,433164378,-0.0137,-0.4922,-0.7295,81.04,36.22,74.33
987,433168296,-0.0063,-0.4893,-0.7134,79.51,37.68,74.51
988,433173297,-0.0190,-0.4937,-0.7026,77.56,39.57,74.63
989,433178296,-0.0181,-0.5059,-0.7041,74.57,41.83,74.51
990,433183296,-0.0059,-0.5059,-0.6953,72.50,43.29,74.33
991,433188297,-0.0146,-0.5205,-0.6890,69.82,44.88,74.21
992,433193295,0.0117,-0.5171,-0.6934,66.95,46.46,73.78
993,433198445,-0.0093,-0.5293,-0.6870,64.51,47.68,73.29
994,433203297,-0.0020,-0.5317,-0.6860,62.20,48.72,72.62
995,433208728,0.0088,-0.5332,-0.6782,59.76,49.76,71.71
996,433213296,-0.0063,-0.5386,-0.6787,58.41,50.43,70.91
997,433218296,0.0146,-0.5322,-0.6772,57.01,50.91,69.94
998,433223295,0.0122,-0.5366,-0.6807,55.91,51.16,68.66
999,433228296,0.0098,-0.5464,-0.6860,55.30,51.10,67.87
1000,433233296,0.0176,-0.5508,-0.6860,54.63,50.79,66.71
1001,433238296,0.0210,-0.5488,-0.6851,54.02,50.55,65.55
1002,433243295,0.0171,-0.5562,-0.6851,53.11,50.00,64.45
1003,433248296,0.0127,-0.5669,-0.6797,52.01,48.84,63.17
1004,433253296,0.0117,-0.5742,-0.6802,51.34,48.11,62.26
1005,433258295,0.0166,-0.5815,-0.6855,50.37,47.07,61.22
1006,433263296,0.0166,-0.5854,-0.6821,49.39,45.98,60.06
1007,433268297,0.0107,-0.5942,-0.6772,48.41,44.45,58.72
1008,433273446,-0.0015,-0.6011,-0.6699,47.80,43.05,57.56
1009,433278720,0.0010,-0.6030,-0.6709,47.13,41.77,56.28
1010,433283296,-0.0078,-0.5996,-0.6704,46.77,40.24,54.94
1011,433288296,-0.0186,-0.6025,-0.6646,46.40,38.66,53.54
1012,433293296,-0.0249,-0.6045,-0.6655,46.10,37.20,52.13
1013,433298295,-0.0225,-0.6069,-0.6577,45.85,35.55,50.73
1014,433303295,-0.0312,-0.6143,-0.6431,45.49,33.96,49.21
1015,433308294,-0.0259,-0.6216,-0.6235,45.37,32.56,47.68
1016,433313294,-0.0239,-0.6309,-0.6201,45.00,31.40,46.16
1017,433318294,-0.0278,-0.6406,-0.6108,44.70,30.06,44.76
1018,433323294,-0.0342,-0.6411,-0.5923,44.21,28.90,43.29
1019,433328298,-0.0400,-0.6523,-0.5903,43.60,27.93,41.89
1020,433333521,-0.0483,-0.6533,-0.5864,42.93,26.65,40.49
1021,433338296,-0.0386,-0.6562,-0.5781,42.38,25.55,38.90
1022,433343296,-0.0386,-0.6611,-0.5630,41.71,24.63,37.62
1023,433348296,-0.0327,-0.6694,-0.5483,40.98,23.60,36.22
1024,433353296,-0.0229,-0.6689,-0.5566,40.37,22.50,34.94
1025,433358296,-0.0195,-0.6763,-0.5503,40.00,21.46,33.72
1026,433363294,-0.0229,-0.6743,-0.5449,39.45,20.49,32.62
1027,433368294,-0.0327,-0.6831,-0.5479,38.96,19.33,31.46
1028,433373294,-0.0342,-0.6860,-0.5620,38.60,18.41,30.43
1029,433378294,-0.0425,-0.6934,-0.5483,38.23,17.50,29.33
1030,433383294,-0.0376,-0.6826,-0.5513,37.80,16.71,28.35
1031,433388294,0.0054,-0.7021,-0.5703,37.99,15.55,27.26
1032,433393294,-0.0737,-0.7544,-0.5688,38.11,14.57,26.59
1033,433398295,-0.1021,-0.7236,-0.5425,37.50,14.02,25.73
1034,433403294,-0.0767,-0.7178,-0.5488,36.52,13.54,24.76
1035,433408294,-0.0654,-0.7261,-0.5488,35.30,12.99,23.96
1036,433413294,-0.0576,-0.7197,-0.5356,33.90,12.80,23.29
1037,433418294,-0.0552,-0.7246,-0.5439,32.50,12.62,22.62
1038,433423294,-0.0537,-0.7329,-0.5605,30.91,12.32,21.95
1039,433428294,-0.0532,-0.7388,-0.5469,29.63,12.07,21.46
1040,433433294,-0.0586,-0.7271,-0.5430,28.29,12.20,20.98
1041,433438294,0.0054,-0.7310,-0.5552,27.68,12.32,20.18
1042,433443294,-0.0718,-0.7671,-0.5684,27.32,12.20,19.82
1043,433448294,-0.0718,-0.7114,-0.5508,26.83,12.44,19.15
1044,433453294,-0.1099,-0.7231,-0.5718,26.04,12.80,18.35
1045,433458294,-0.0898,-0.6973,-0.5503,24.45,13.23,17.68
1046,433463294,-0.0259,-0.6919,-0.5317,22.56,13.90,16.89
1047,433468298,-0.0522,-0.7534,-0.5552,20.73,14.76,16.46
1048,433473296,-0.0801,-0.7393,-0.5640,18.35,15.37,16.16
1049,433478296,-0.0674,-0.7349,-0.5547,15.79,16.46,15.79
1050,433483296,-0.0537,-0.7456,-0.5449,13.48,17.74,15.55
1051,433488782,-0.0386,-0.7388,-0.5503,11.04,19.27,15.24
1052,433493296,-0.0386,-0.7310,-0.5762,9.76,20.49,15.06
1053,433498675,-0.0576,-0.7227,-0.5801,8.41,22.20,14.57
1054,433503295,-0.0576,-0.7158,-0.5698,7.74,23.54,14.45
1055,433508295,-0.0601,-0.7158,-0.5796,7.38,25.37,13.96
1056,433513294,-0.0469,-0.7095,-0.5923,7.07,27.20,13.72
1057,433518294,0.0029,-0.7222,-0.5840,7.56,29.21,13.23
1058,433523294,-0.0840,-0.7490,-0.5957,8.17,31.40,12.93
1059,433528294,-0.0972,-0.7090,-0.6211,8.48,33.54,12.26
1060,433533301,-0.1426,-0.7275,-0.6382,7.56,36.16,11.59
1061,433538296,-0.1245,-0.7192,-0.6055,6.22,38.11,10.85
1062,433543646,-0.0845,-0.7271,-0.6528,3.90,41.16,9.88
1063,433548297,-0.0581,-0.7109,-0.6777,2.01,42.38,9.21
1064,433553660,-0.0527,-0.7017,-0.6646,-1.65,44.51,7.93
1065,433558296,-0.0205,-0.6660,-0.6758,-4.45,45.98,7.07
1066,433563557,-0.0020,-0.6782,-0.7310,-7.87,47.50,5.67
1067,433568296,-0.0732,-0.7363,-0.7505,-10.12,47.93,5.00
1068,433573296,-0.1509,-0.7300,-0.7227,-13.17,48.72,3.96
1069,433578296,-0.1680,-0.7310,-0.7900,-16.77,49.27,2.74
1070,433583464,-0.1162,-0.7466,-0.8262,-21.46,49.39,1.59
1071,433588296,-0.0449,-0.7358,-0.8467,-24.82,49.27,0.91
1072,433593296,-0.0171,-0.7280,-0.8325,-27.32,48.78,0.49
1073,433598296,-0.0293,-0.7241,-0.8989,-28.78,48.23,0.43
1074,433603296,-0.0376,-0.7139,-0.9507,-29.27,47.01,0.12
1075,433608964,-0.0308,-0.7114,-0.9199,-28.84,45.91,-0.18
1076,433613296,-0.0063,-0.7080,-0.9233,-27.74,44.82,-0.30
1077,433618298,0.0176,-0.6914,-0.9692,-25.55,43.66,-0.61
1078,433623296,0.0278,-0.6748,-0.9712,-23.11,42.26,-0.79
1079,433628296,0.0332,-0.6660,-0.9458,-20.30,41.22,-0.85
1080,433633296,0.0352,-0.6553,-0.9497,-17.56,40.30,-1.16
1081,433638296,0.0371,-0.6475,-0.9604,-14.94,39.39,-1.34
1082,433643296,0.0371,-0.6362,-0.9316,-12.44,38.78,-1.59
1083,433648296,0.0308,-0.6313,-0.9175,-10.30,38.23,-1.95
1084,433653296,0.0249,-0.6313,-0.9268,-8.48,37.93,-2.38
1085,433658296,0.0391,-0.6123,-0.9551,-6.59,37.20,-2.62
1086,433663296,0.0337,-0.6040,-0.9473,-5.06,36.77,-3.17
1087,433668471,0.0430,-0.6074,-0.9458,-3.90,36.59,-3.66
1088,433673296,0.0723,-0.6011,-0.9326,-3.29,36.28,-3.90
1089,433678296,0.0884,-0.6001,-0.9424,-3.23,35.98,-4.21
1090,433683767,0.0947,-0.5952,-0.9307,-3.84,35.61,-4.51
1091,433688296,0.0981,-0.5938,-0.9028,-4.88,35.30,-5.00
1092,433693296,0.1035,-0.5791,-0.9028,-5.98,34.94,-5.37
1093,433698296,0.1216,-0.5825,-0.9155,-7.50,34.51,-5.73
1094,433703731,0.1304,-0.5684,-0.9409,-9.21,34.09,-6.16
1095,433708296,0.1396,-0.5640,-0.9150,-11.34,33.54,-6.83
1096,433713296,0.1572,-0.5518,-0.9214,-13.84,33.17,-7.26
1097,433718298,0.1738,-0.5459,-0.9429,-16.52,32.50,-7.93
1098,433723295,0.1841,-0.5415,-0.9321,-19.45,31.71,-8.41
1099,433728294,0.2026,-0.5347,-0.9312,-22.56,31.04,-9.15
1100,433733294,0.2119,-0.5303,-0.9590,-25.43,30.12,-9.82
1101,433738294,0.2344,-0.5073,-0.9653,-28.17,28.96,-10.43
1102,433743294,0.2539,-0.5083,-0.9443,-31.34,27.93,-11.28
1103,433748294,0.2671,-0.5239,-0.9521,-34.88,26.77,-11.83
1104,433753294,0.2871,-0.5283,-0.9575,-38.60,25.43,-12.38
1105,433758294,0.3003,-0.5220,-0.9434,-42.44,24.33,-12.80
1106,433763295,0.3057,-0.5200,-0.9395,-46.34,23.17,-13.17
1107,433768294,0.3042,-0.5259,-0.9668,-49.76,21.77,-13.48
1108,433773488,0.3130,-0.5195,-0.9780,-52.80,20.12,-13.84
1109,433778297,0.3208,-0.5166,-0.9702,-55.67,18.84,-14.15
1110,433783294,0.3301,-0.5220,-0.9741,-58.11,17.56,-14.45
1111,433788393,0.3296,-0.5210,-0.9790,-60.43,16.16,-14.57
1112,433793296,0.3364,-0.5171,-0.9761,-62.50,14.94,-14.70
1113,433798296,0.3525,-0.5122,-0.9746,-64.33,13.35,-14.76
1114,433803296,0.3584,-0.5088,-0.9771,-66.16,11.71,-14.76
1115,433808297,0.3677,-0.5146,-0.9834,-67.32,10.79,-14.63
1116,433813382,0.3677,-0.5083,-0.9780,-68.41,9.51,-14.33
1117,433818297,0.3662,-0.5088,-0.9824,-69.45,8.29,-13.96
1118,433823296,0.3638,-0.4805,-0.9746,-70.61,7.13,-13.84
1119,433828296,0.3662,-0.4814,-0.9790,-71.22,6.34,-13.96
1120,433833296,0.3813,-0.4932,-0.9717,-71.95,5.73,-14.09
1121,433838296,0.3818,-0.4775,-0.9521,-72.50,4.63,-13.41
1122,433843296,0.3740,-0.5078,-0.9717,-72.80,3.96,-13.05
1123,433848296,0.3608,-0.5127,-0.9556,-73.23,3.60,-12.50
1124,433853296,0.3521,-0.5010,-0.9370,-73.41,3.23,-12.13
1125,433858747,0.3452,-0.4912,-0.9316,-73.60,2.99,-11.52
1126,433863296,0.3438,-0.4756,-0.9268,-73.72,2.99,-11.16
1127,433868296,0.3320,-0.4668,-0.9097,-73.84,3.17,-10.79
1128,433873295,0.3213,-0.4590,-0.8950,-74.02,3.48,-10.37
1129,433878296,0.3174,-0.4634,-0.8940,-74.45,3.48,-9.88
1130,433883296,0.3032,-0.4653,-0.8779,-74.94,3.90,-9.39
1131,433888296,0.3140,-0.4648,-0.8584,-76.16,4.27,-8.60
1132,433893296,0.3076,-0.4663,-0.8486,-77.26,4.82,-7.80
1133,433898296,0.2988,-0.4673,-0.8496,-78.35,5.43,-6.95
1134,433903759,0.2847,-0.4624,-0.8408,-79.27,6.04,-6.04
1135,433908296,0.2612,-0.4614,-0.8105,-80.00,6.83,-5.00
1136,433913297,0.2607,-0.4536,-0.7944,-80.79,7.62,-3.90
1137,433918296,0.2495,-0.4556,-0.7842,-81.34,8.60,-2.62
1138,433923757,0.2363,-0.4604,-0.7563,-81.40,9.76,-1.28
1139,433928297,0.2217,-0.4536,-0.7417,-81.10,10.79,0.18
1140,433933296,0.2144,-0.4507,-0.7378,-80.43,11.77,1.83
1141,433938296,0.2046,-0.4478,-0.7437,-79.45,12.68,3.35
1142,433943296,0.1943,-0.4419,-0.7280,-77.93,13.41,5.12
1143,433948296,0.1880,-0.4316,-0.7222,-76.10,13.90,6.89
1144,433953295,0.1968,-0.4253,-0.7290,-73.84,14.33,8.78
1145,433958294,0.2017,-0.4126,-0.7227,-71.34,14.33,10.67
1146,433963294,0.2017,-0.4097,-0.7158,-68.60,14.45,12.56
1147,433968294,0.2051,-0.3999,-0.7144,-65.61,14.51,14.51
1148,433973294,0.2036,-0.3926,-0.7046,-62.38,14.57,16.28
1149,433978294,0.2070,-0.3765,-0.6899,-58.90,14.76,18.17
1150,433983296,0.2109,-0.3594,-0.6826,-55.37,14.88,19.76
1151,433988297,0.2139,-0.3438,-0.6772,-51.40,14.88,21.40
1152,433993296,0.2134,-0.3320,-0.6558,-47.26,14.94,22.87
1153,433998296,0.2129,-0.3125,-0.6465,-43.05,15.18,24.33
1154,434003296,0.2056,-0.3008,-0.6318,-38.60,15.30,25.61
1155,434008296,0.2075,-0.2954,-0.6196,-34.27,15.61,27.07
1156,434013296,0.2095,-0.2793,-0.5991,-30.12,16.04,28.29
1157,434018296,0.2124,-0.2769,-0.5840,-26.10,16.34,29.57
1158,434023296,0.2202,-0.2681,-0.5835,-22.20,16.83,30.85
1159,434028634,0.2217,-0.2646,-0.5630,-18.41,17.38,32.01
1160,434033296,0.2241,-0.2573,-0.5439,-14.94,17.93,33.23
1161,434038295,0.2290,-0.2466,-0.5317,-11.77,18.78,34.39
1162,434043294,0.2212,-0.2402,-0.5264,-8.84,19.63,35.55
1163,434048294,0.2163,-0.2280,-0.5122,-5.91,20.61,36.52
1164,434053294,0.2173,-0.2202,-0.5005,-3.60,21.89,37.44
1165,434058294,0.2178,-0.2153,-0.4858,-1.34,23.05,38.23
1166,434063295,0.2188,-0.2026,-0.4897,0.73,24.51,39.09
1167,434068345,0.2231,-0.1890,-0.4854,2.74,25.67,39.94
1168,434073295,0.2393,-0.1797,-0.4697,4.27,26.71,40.43
1169,434078296,0.2534,-0.1836,-0.4697,5.30,27.87,40.98
1170,434083294,0.2617,-0.1782,-0.4673,5.91,29.15,41.46
1171,434088296,0.2676,-0.1763,-0.4678,6.04,30.00,42.07
1172,434093296,0.2754,-0.1758,-0.4619,5.79,30.79,42.50
1173,434098299,0.2856,-0.1729,-0.4707,5.37,31.65,43.17
1174,434103296,0.3027,-0.1729,-0.4839,4.88,32.13,43.48
1175,434108296,0.3120,-0.1636,-0.4814,4.39,32.44,43.96
1176,434113323,0.3145,-0.1621,-0.4883,3.90,32.74,44.33
1177,434118296,0.3047,-0.1631,-0.5015,3.54,32.87,44.82
1178,434123296,0.3101,-0.1621,-0.5146,3.17,32.68,45.06
1179,434128296,0.3086,-0.1562,-0.5210,2.68,32.38,45.43
1180,434133297,0.3027,-0.1616,-0.5298,2.13,32.13,45.79
1181,434138296,0.3306,-0.1582,-0.5366,1.40,31.65,46.04
1182,434143296,0.3403,-0.1724,-0.5376,0.24,30.91,46.46
1183,434148296,0.3311,-0.1650,-0.5566,-0.49,30.49,46.83
1184,434153296,0.3496,-0.1514,-0.5396,-1.34,29.70,47.13
1185,434158296,0.3750,-0.1655,-0.5229,-2.68,28.96,47.38
1186,434163296,0.3857,-0.1680,-0.5654,-4.51,28.41,47.80
1187,434168714,0.3906,-0.1797,-0.5874,-7.01,27.50,48.29
1188,434173296,0.3828,-0.1797,-0.5493,-8.72,27.01,48.54
1189,434178296,0.3892,-0.1748,-0.5835,-10.79,26.28,48.84
1190,434183301,0.3809,-0.1719,-0.6045,-13.29,25.37,49.27
1191,434188750,0.3867,-0.1733,-0.6025,-14.88,24.51,49.45
1192,434193295,0.3936,-0.1699,-0.5986,-16.04,24.02,49.57
1193,434198299,0.3892,-0.1694,-0.6260,-17.32,22.87,49.70
1194,434203296,0.3921,-0.1709,-0.6519,-18.11,21.77,49.88
1195,434208773,0.3921,-0.1670,-0.6411,-18.60,20.79,50.00
1196,434213296,0.3896,-0.1704,-0.6436,-18.90,19.88,50.18
1197,434218297,0.3833,-0.1768,-0.6606,-19.02,18.96,50.43
1198,434223295,0.3936,-0.1826,-0.6699,-19.15,17.93,50.55
1199,434228294,0.3936,-0.1890,-0.6680,-18.96,17.13,50.91
1200,434233294,0.4028,-0.1982,-0.6714,-19.02,16.16,51.10
1201,434238294,0.4028,-0.2002,-0.6782,-19.27,15.37,51.46
1202,434243294,0.4185,-0.2007,-0.6768,-19.45,14.39,51.59
1203,434248297,0.4209,-0.2065,-0.6841,-19.63,14.02,51.95
1204,434253296,0.4214,-0.2090,-0.6982,-19.63,13.29,52.26
1205,434258296,0.4253,-0.2080,-0.7026,-19.63,12.74,52.50
1206,434263296,0.4321,-0.2095,-0.7065,-19.39,12.07,52.68
1207,434268296,0.4307,-0.2129,-0.7251,-18.78,11.71,53.17
1208,434273296,0.4219,-0.2090,-0.7314,-17.80,11.34,53.35
1209,434278296,0.4116,-0.2090,-0.7363,-16.59,11.16,53.54
1210,434283298,0.4023,-0.2046,-0.7407,-14.94,10.98,53.66
1211,434288296,0.4019,-0.2056,-0.7549,-13.11,10.73,53.90
1212,434293296,0.3877,-0.2065,-0.7651,-10.98,10.67,54.09
1213,434298296,0.3809,-0.2148,-0.7734,-8.60,10.61,54.39
1214,434303296,0.3696,-0.2183,-0.7891,-5.85,10.73,54.45
1215,434308296,0.3696,-0.2202,-0.8022,-2.99,10.67,54.88
1216,434313776,0.3716,-0.2251,-0.8057,-0.06,10.79,55.12
1217,434318296,0.3589,-0.2305,-0.8179,3.17,10.98,55.61
1218,434323297,0.3506,-0.2383,-0.8359,6.52,10.98,55.98
1219,434328296,0.3462,-0.2456,-0.8306,9.76,11.22,56.52
1220,434333294,0.3384,-0.2544,-0.8418,13.17,11.40,56.95
1221,434338294,0.3452,-0.2578,-0.8442,16.52,11.83,57.56
1222,434343294,0.3315,-0.2622,-0.8442,19.57,12.44,58.23
1223,434348294,0.3208,-0.2734,-0.8442,22.32,13.17,58.96
1224,434353294,0.3145,-0.2798,-0.8403,24.94,13.90,59.51
1225,434358295,0.3208,-0.2783,-0.8501,27.56,14.82,60.18
1226,434363294,0.3164,-0.2803,-0.8384,29.94,15.85,60.79
1227,434368297,0.2920,-0.2842,-0.8354,32.50,16.89,61.34
1228,434373296,0.2856,-0.2876,-0.8359,34.88,18.23,61.83
1229,434378704,0.2822,-0.2842,-0.8296,37.38,19.51,62.20
1230,434383296,0.2886,-0.2842,-0.8047,39.51,20.98,62.68
1231,434388318,0.2749,-0.2861,-0.8037,41.77,22.26,63.05
1232,434393735,0.2764,-0.2925,-0.7920,43.84,24.33,63.35
1233,434398296,0.2910,-0.2969,-0.7808,45.24,25.49,63.60
1234,434403296,0.2983,-0.3027,-0.7700,46.40,27.01,64.02
1235,434408294,0.3022,-0.3057,-0.7622,47.38,28.66,64.15
1236,434413294,0.3096,-0.3105,-0.7485,48.05,30.06,64.39
1237,434418294,0.3076,-0.3096,-0.7300,48.35,31.83,64.51
1238,434423294,0.2983,-0.3198,-0.7197,48.41,33.54,64.45
1239,434428294,0.3032,-0.3203,-0.7109,48.23,35.12,64.76
1240,434433294,0.3115,-0.3193,-0.6948,47.74,36.52,64.88
1241,434438294,0.3154,-0.3228,-0.6772,46.83,38.11,64.76
1242,434443295,0.3198,-0.3296,-0.6709,45.91,39.63,64.82
1243,434448294,0.3247,-0.3359,-0.6562,44.51,41.16,64.82
1244,434453294,0.3330,-0.3462,-0.6440,42.87,42.50,64.94
1245,434458294,0.3354,-0.3535,-0.6284,41.10,43.90,65.12
1246,434463294,0.3481,-0.3628,-0.6143,39.02,45.24,65.18
1247,434468294,0.3447,-0.3677,-0.6030,36.59,46.52,65.30
1248,434473294,0.3452,-0.3833,-0.5918,33.96,47.80,65.49
1249,434478294,0.3511,-0.3979,-0.5801,31.22,48.78,65.67
1250,434483294,0.3560,-0.4077,-0.5752,28.05,49.76,65.79
1251,434488294,0.3501,-0.4219,-0.5771,24.76,50.61,66.22
1252,434493294,0.3506,-0.4443,-0.5703,21.10,51.28,66.59
1253,434498298,0.3618,-0.4546,-0.5669,17.20,51.71,67.01
1254,434503297,0.3848,-0.4668,-0.5610,13.23,52.20,67.38
1255,434508296,0.3906,-0.4756,-0.5444,9.33,52.44,67.87
1256,434513334,0.3955,-0.4863,-0.5337,4.63,52.87,68.41
1257,434518360,0.4199,-0.4927,-0.5386,0.79,52.93,68.90
1258,434523385,0.4429,-0.4985,-0.5264,-2.80,52.99,69.33
1259,434528295,0.4604,-0.5068,-0.5229,-6.22,52.74,69.82
1260,434533296,0.4780,-0.5103,-0.5371,-9.21,52.68,70.18
1261,434538296,0.4897,-0.5127,-0.5371,-11.65,52.13,70.37
1262,434543297,0.4980,-0.5146,-0.5640,-13.54,51.40,70.67
1263,434548296,0.5078,-0.5132,-0.5801,-14.82,50.49,70.61
1264,434553452,0.5220,-0.5142,-0.6006,-15.49,49.57,70.49
1265,434558297,0.5361,-0.5146,-0.6128,-15.24,48.35,70.49
1266,434563471,0.5386,-0.5122,-0.6279,-14.27,47.07,70.18
1267,434568362,0.5386,-0.5093,-0.6523,-12.68,45.67,69.82
1268,434573294,0.5425,-0.5063,-0.6626,-10.18,44.15,69.33
1269,434578298,0.5312,-0.5029,-0.6841,-7.32,42.74,68.66
1270,434583372,0.5283,-0.5049,-0.6953,-3.72,41.52,67.80
1271,434588295,0.5161,-0.5161,-0.7168,0.30,40.37,66.89
1272,434593296,0.5049,-0.5259,-0.7222,4.51,39.21,65.91
1273,434598296,0.4863,-0.5342,-0.7300,8.78,38.35,64.94
1274,434603296,0.4668,-0.5425,-0.7437,13.05,37.80,63.90
1275,434608296,0.4429,-0.5479,-0.7627,17.13,37.44,62.93
1276,434613483,0.4165,-0.5474,-0.7788,21.10,37.20,61.83
1277,434618709,0.3989,-0.5391,-0.7915,25.12,36.77,60.55
1278,434623296,0.3838,-0.5356,-0.7998,29.09,37.01,59.21
1279,434628297,0.3613,-0.5269,-0.8042,32.87,37.44,57.56
1280,434633295,0.3545,-0.5195,-0.7983,36.34,37.93,55.67
1281,434638294,0.3369,-0.5088,-0.7910,39.33,38.78,53.60
1282,434643294,0.3330,-0.5039,-0.7798,41.77,39.70,51.28
1283,434648294,0.3340,-0.4976,-0.7710,43.60,40.85,48.90
1284,434653294,0.3242,-0.5024,-0.7720,44.76,42.50,46.34
1285,434658294,0.3115,-0.5044,-0.7856,45.61,43.66,43.78
1286,434663294,0.2993,-0.5098,-0.8008,45.98,44.88,41.28
1287,434668553,0.2847,-0.5176,-0.8071,45.91,45.98,38.66
1288,434673296,0.2715,-0.5259,-0.8193,45.55,46.89,36.04
1289,434678295,0.2539,-0.5386,-0.8384,45.12,47.68,33.60
1290,434683300,0.2378,-0.5469,-0.8628,44.09,48.48,30.61
1291,434688296,0.2334,-0.5542,-0.8794,43.23,48.60,28.66
1292,434693296,0.2363,-0.5581,-0.8921,41.95,48.60,26.40
1293,434698296,0.2383,-0.5649,-0.9067,40.43,48.54,24.21
1294,434703296,0.2456,-0.5728,-0.9038,38.48,48.17,21.95
1295,434708296,0.2622,-0.5796,-0.9214,35.61,47.68,19.57
1296,434713296,0.2725,-0.5850,-0.9219,33.54,47.13,18.05
1297,434718296,0.2817,-0.5854,-0.9297,30.61,46.16,16.10
1298,434723296,0.2896,-0.5889,-0.9321,27.32,45.24,14.45
1299,434728296,0.2954,-0.5908,-0.9326,23.96,44.02,12.74
1300,434733295,0.3003,-0.5923,-0.9380,20.61,42.74,11.16
1301,434738536,0.2944,-0.5850,-0.9478,17.62,41.40,9.88
1302,434743298,0.2988,-0.5830,-0.9453,14.09,39.82,8.11
1303,434748296,0.2988,-0.5850,-0.9409,12.01,38.72,7.26
1304,434753295,0.2964,-0.5811,-0.9429,9.94,37.38,6.16
1305,434758780,0.3071,-0.5806,-0.9316,8.05,35.91,4.82
1306,434763296,0.3057,-0.5752,-0.9224,6.83,35.18,4.09
1307,434768296,0.2920,-0.5713,-0.9141,5.79,34.33,3.17
1308,434773296,0.3032,-0.5610,-0.8882,4.51,33.60,2.13
1309,434778296,0.3037,-0.5571,-0.8730,3.48,33.41,1.59
1310,434783296,0.3047,-0.5566,-0.8525,2.07,33.54,0.79
1311,434788296,0.3120,-0.5435,-0.8281,0.55,33.78,0.00
1312,434793691,0.3198,-0.5376,-0.7979,-2.01,34.45,-0.85
1313,434798296,0.3252,-0.5312,-0.7759,-3.72,35.12,-1.40
1314,434803295,0.3345,-0.5225,-0.7603,-6.40,36.16,-2.13
1315,434808296,0.3379,-0.5146,-0.7461,-8.96,37.32,-2.87
1316,434813296,0.3477,-0.5063,-0.7349,-11.46,38.54,-3.72
1317,434818296,0.3740,-0.4932,-0.7212,-14.21,40.24,-4.57
1318,434823296,0.3799,-0.4829,-0.7085,-15.55,41.34,-5.18
1319,434828296,0.3770,-0.4702,-0.6948,-17.38,43.11,-6.04
1320,434833297,0.3853,-0.4595,-0.6938,-18.60,44.45,-6.65
1321,434838296,0.3989,-0.4502,-0.6836,-19.70,46.04,-7.44
1322,434843296,0.4146,-0.4414,-0.6821,-20.55,47.56,-8.05
1323,434848298,0.4219,-0.4312,-0.6792,-21.04,48.90,-8.41
1324,434853294,0.4409,-0.4248,-0.6748,-21.46,50.18,-9.09
1325,434858294,0.4531,-0.4199,-0.6680,-21.71,51.65,-9.45
1326,434863294,0.4707,-0.4146,-0.6719,-21.59,52.80,-9.76
1327,434868294,0.4897,-0.3965,-0.6582,-21.22,54.02,-10.00
1328,434873294,0.5020,-0.3848,-0.6499,-20.55,55.00,-10.12
1329,434878442,0.5083,-0.3770,-0.6387,-19.94,56.04,-10.37
1330,434883295,0.5220,-0.3604,-0.6362,-19.09,57.01,-10.67
1331,434888298,0.5371,-0.3457,-0.6265,-18.29,57.87,-10.85
1332,434893296,0.5454,-0.3354,-0.6157,-17.26,58.90,-11.10
1333,434898296,0.5586,-0.3203,-0.6172,-15.98,59.57,-11.28
1334,434903296,0.5649,-0.3105,-0.6104,-14.70,60.30,-11.34
1335,434908296,0.5771,-0.2910,-0.6040,-13.23,61.04,-11.46
1336,434913295,0.5894,-0.2783,-0.6069,-11.46,61.52,-11.59
1337,434918296,0.5918,-0.2705,-0.6064,-10.12,61.89,-11.65
1338,434923296,0.6001,-0.2612,-0.6118,-8.60,62.20,-11.71
1339,434928296,0.6045,-0.2485,-0.6118,-7.20,62.56,-11.59
1340,434933296,0.6196,-0.2334,-0.6143,-5.91,62.74,-11.59
1341,434938295,0.6240,-0.2305,-0.6118,-4.82,62.93,-11.52
1342,434943816,0.6318,-0.2236,-0.6177,-4.02,62.99,-11.40
1343,434948298,0.6338,-0.2163,-0.6172,-3.48,63.17,-11.22
1344,434953296,0.6465,-0.2095,-0.6191,-3.23,63.11,-11.04
1345,434958296,0.6289,-0.2129,-0.6274,-3.29,63.17,-10.67
1346,434963296,0.6362,-0.2070,-0.6348,-3.48,63.17,-10.30
1347,434968296,0.6489,-0.1934,-0.6436,-3.78,63.17,-9.94
1348,434973296,0.6304,-0.1899,-0.6523,-4.45,62.99,-9.51
1349,434978296,0.6479,-0.1733,-0.6572,-5.24,62.87,-8.96
1350,434983296,0.6372,-0.1621,-0.6631,-6.34,62.87,-8.48
1351,434988296,0.6362,-0.1660,-0.6777,-7.62,62.68,-7.99
1352,434993296,0.6348,-0.1528,-0.6792,-9.76,62.80,-7.26
1353,434998296,0.6333,-0.1494,-0.6733,-11.40,62.87,-6.77
1354,435003296,0.6226,-0.1445,-0.6821,-14.33,62.74,-6.04
1355,435008295,0.5947,-0.1455,-0.6812,-17.74,62.99,-5.24
1356,435013296,0.5913,-0.1372,-0.6719,-21.71,63.17,-4.39
1357,435018296,0.5830,-0.1406,-0.6797,-26.16,63.41,-3.35
1358,435023294,0.5894,-0.1377,-0.6929,-31.28,63.84,-2.32
1359,435028296,0.5791,-0.1411,-0.6831,-36.52,64.21,-1.22
1360,435033295,0.5723,-0.1289,-0.6787,-41.77,64.51,0.12
1361,435038296,0.5615,-0.1440,-0.6792,-47.38,65.00,1.40
1362,435043296,0.5591,-0.1406,-0.6973,-53.23,65.12,2.93
1363,435048296,0.5557,-0.1455,-0.6763,-59.27,65.55,4.51
1364,435053298,0.5483,-0.1475,-0.6753,-65.24,65.98,6.40
1365,435058296,0.5361,-0.1592,-0.6812,-72.26,66.46,8.90
1366,435063296,0.5469,-0.1616,-0.6885,-76.83,66.83,10.67
1367,435068296,0.5342,-0.1641,-0.6748,-82.44,67.44,12.87
1368,435073696,0.5122,-0.1704,-0.6841,-88.60,67.80,15.79
1369,435078296,0.5000,-0.1646,-0.7012,-92.62,68.29,17.80
1370,435083767,0.4834,-0.1562,-0.6997,-97.99,68.72,20.73
1371,435088296,0.4702,-0.1533,-0.7056,-100.98,69.02,22.99
1372,435093617,0.4639,-0.1460,-0.7065,-105.00,69.33,25.91
1373,435098296,0.4663,-0.1406,-0.7051,-107.38,69.51,27.99
1374,435103545,0.4585,-0.1343,-0.7051,-110.18,69.94,31.16
1375,435108296,0.4619,-0.1284,-0.7144,-111.89,70.30,33.29
1376,435113308,0.4604,-0.1221,-0.7202,-113.48,70.73,35.98
1377,435118295,0.4541,-0.1260,-0.7075,-114.76,71.04,38.78
1378,435123763,0.4614,-0.1235,-0.7065,-116.16,71.46,42.20
1379,435128296,0.4424,-0.1250,-0.7007,-116.89,72.01,44.51
1380,435133656,0.4492,-0.1162,-0.6963,-118.17,72.68,47.87
1381,435138296,0.4531,-0.1108,-0.6880,-119.02,73.41,50.06
1382,435143294,0.4536,-0.1069,-0.6924,-120.06,74.39,52.80
1383,435148294,0.4600,-0.0981,-0.6909,-120.91,75.06,55.61
1384,435153294,0.4570,-0.1074,-0.6982,-121.65,75.85,58.48
1385,435158294,0.4629,-0.1113,-0.7124,-121.89,76.46,61.40
1386,435163294,0.4814,-0.1001,-0.7114,-121.95,77.20,64.39
1387,435168297,0.4751,-0.0986,-0.7163,-121.52,77.93,67.99
1388,435173296,0.4702,-0.0947,-0.7217,-121.04,78.72,70.98
1389,435178296,0.4717,-0.0845,-0.7139,-120.43,79.27,73.78
1390,435183298,0.4771,-0.0889,-0.7061,-119.57,80.00,76.77
1391,435188296,0.4810,-0.0894,-0.7178,-118.78,80.73,79.63
1392,435193295,0.4893,-0.0884,-0.7173,-117.87,81.40,82.38
1393,435198298,0.5078,-0.0825,-0.7100,-116.71,81.89,84.82
1394,435203393,0.5327,-0.0781,-0.7134,-115.61,82.68,87.44
1395,435208296,0.5532,-0.0811,-0.7207,-114.27,82.68,90.43
1396,435213295,0.5688,-0.0894,-0.7300,-113.11,82.50,93.23
1397,435218296,0.5854,-0.0928,-0.7437,-111.77,82.44,96.10
1398,435223762,0.6113,-0.0918,-0.7490,-110.43,81.83,98.90
1399,435228296,0.6309,-0.0903,-0.7588,-109.02,80.98,101.46
1400,435233296,0.6548,-0.0942,-0.7720,-107.80,80.12,104.02
1401,435238295,0.6631,-0.1021,-0.7769,-106.65,78.84,106.28
1402,435243295,0.6694,-0.1108,-0.7852,-105.73,77.38,108.23
1403,435248294,0.6719,-0.1133,-0.7754,-105.06,75.91,109.88
1404,435253294,0.6543,-0.1216,-0.7705,-104.70,74.39,111.40
1405,435258294,0.6558,-0.1294,-0.7881,-104.45,72.87,112.62
1406,435263297,0.6431,-0.1328,-0.7871,-103.90,70.98,113.78
1407,435268296,0.6260,-0.1470,-0.8022,-103.05,69.21,114.82
1408,435273296,0.6001,-0.1660,-0.8335,-101.71,67.44,115.67
1409,435278296,0.5835,-0.1772,-0.8608,-99.94,65.43,116.28
1410,435283296,0.5728,-0.1812,-0.8647,-97.87,63.29,116.95
1411,435288296,0.5557,-0.1870,-0.8857,-95.67,61.10,117.44
1412,435293296,0.5469,-0.1968,-0.9072,-93.54,58.90,117.80
1413,435298296,0.5469,-0.1963,-0.9033,-91.46,56.77,118.05
1414,435303296,0.5479,-0.1953,-0.8960,-89.94,54.94,117.93
1415,435308296,0.5405,-0.1812,-0.8911,-88.96,52.80,117.56
1416,435313296,0.5249,-0.1782,-0.8804,-88.90,51.77,117.13
1417,435318296,0.5254,-0.1704,-0.8535,-90.00,50.67,116.40
1418,435323296,0.5269,-0.1646,-0.8281,-92.07,50.37,115.49
1419,435328296,0.5298,-0.1528,-0.8125,-95.06,50.06,114.21
1420,435333296,0.5161,-0.1406,-0.7759,-98.90,50.12,112.74
1421,435338296,0.5078,-0.1279,-0.7549,-103.35,50.85,111.28
1422,435343296,0.5073,-0.1104,-0.7407,-109.21,52.07,109.09
1423,435348295,0.4990,-0.1045,-0.7329,-113.11,52.80,107.62
1424,435353295,0.5161,-0.0898,-0.7280,-117.93,53.84,105.55
1425,435358294,0.5200,-0.0884,-0.7324,-122.32,54.88,103.54
1426,435363294,0.5303,-0.0879,-0.7437,-126.10,55.91,101.65
1427,435368294,0.5415,-0.0801,-0.7505,-129.15,56.52,99.70
1428,435373294,0.5552,-0.0791,-0.7598,-131.22,57.20,97.93
1429,435378297,0.5693,-0.0771,-0.7729,-132.26,57.62,95.98
1430,435383296,0.5742,-0.0781,-0.7832,-132.38,57.87,93.96
1431,435388296,0.5889,-0.0718,-0.7900,-131.77,57.93,92.62
1432,435393296,0.5928,-0.0674,-0.7930,-130.49,58.05,91.10
1433,435398296,0.6050,-0.0645,-0.8047,-128.54,57.74,89.15
1434,435403299,0.6152,-0.0645,-0.7974,-125.73,57.68,86.77
1435,435408296,0.6357,-0.0640,-0.7896,-123.60,57.56,86.28
1436,435413296,0.6475,-0.0615,-0.7827,-121.04,57.26,86.28
1437,435418296,0.6372,-0.0674,-0.7754,-118.41,57.20,84.45
1438,435423296,0.6421,-0.0732,-0.7749,-115.49,56.95,82.93
1439,435428296,0.6582,-0.0752,-0.7783,-113.54,57.07,81.89
1440,435433296,0.6445,-0.0864,-0.7725,-111.22,56.95,80.67
1441,435438296,0.6440,-0.0835,-0.7720,-108.96,56.83,79.33
1442,435443296,0.6421,-0.0796,-0.7715,-106.71,56.77,77.80
1443,435448295,0.6294,-0.0845,-0.7681,-105.12,56.89,76.59
1444,435453295,0.6304,-0.0874,-0.7729,-103.96,56.83,75.00
1445,435458294,0.6221,-0.0938,-0.7671,-102.99,57.26,73.48
1446,435463294,0.6191,-0.0908,-0.7637,-102.50,57.50,71.77
1447,435468294,0.6079,-0.0933,-0.7505,-102.74,58.05,70.00
1448,435473294,0.5986,-0.0977,-0.7520,-103.41,58.35,68.17
1449,435478294,0.6055,-0.1094,-0.7583,-104.76,58.78,65.91
1450,435483294,0.6162,-0.1123,-0.7456,-106.22,59.33,64.27
1451,435488295,0.6025,-0.1211,-0.7490,-107.32,59.70,62.74
1452,435493294,0.6089,-0.1299,-0.7520,-108.54,59.82,60.98
1453,435498294,0.6094,-0.1440,-0.7495,-109.94,60.06,58.96
1454,435503294,0.6226,-0.1460,-0.7354,-110.73,60.37,57.26
1455,435508294,0.6045,-0.1602,-0.7354,-111.34,60.79,55.55
1456,435513294,0.6201,-0.1597,-0.7285,-111.46,61.16,53.90
1457,435518294,0.6060,-0.1743,-0.7178,-111.28,61.34,52.26
1458,435523294,0.6201,-0.1763,-0.7061,-110.79,61.71,50.67
1459,435528294,0.6147,-0.1797,-0.7017,-110.06,61.95,49.15
1460,435533294,0.6074,-0.1919,-0.6934,-108.90,62.32,47.80
1461,435538294,0.6045,-0.2026,-0.6855,-107.32,62.56,46.40
1462,435543294,0.6118,-0.2085,-0.6914,-105.73,62.62,45.12
1463,435548294,0.6021,-0.2207,-0.6904,-103.78,62.50,43.96
1464,435553294,0.6050,-0.2300,-0.6704,-101.40,62.32,42.80
1465,435558295,0.6045,-0.2368,-0.6675,-98.84,62.01,41.65
1466,435563296,0.5962,-0.2446,-0.6538,-95.79,62.13,40.67
1467,435568515,0.5884,-0.2515,-0.6514,-92.26,61.65,39.63
1468,435573296,0.5918,-0.2593,-0.6514,-88.29,61.28,38.60
1469,435578705,0.5947,-0.2632,-0.6553,-83.96,60.91,37.68
1470,435583296,0.5942,-0.2686,-0.6396,-79.33,60.37,36.65
1471,435588296,0.5977,-0.2852,-0.6396,-74.39,59.57,35.85
1472,435593296,0.5830,-0.3691,-0.6455,-69.27,58.78,35.55
1473,435598501,0.6157,-0.2920,-0.6040,-64.02,58.11,35.24
1474,435603296,0.6104,-0.2935,-0.5947,-59.15,57.74,34.57
1475,435608367,0.5938,-0.3262,-0.6006,-54.39,57.26,33.66
1476,435613538,0.5679,-0.3447,-0.5962,-50.24,56.95,33.05
1477,435618419,0.5791,-0.3389,-0.5771,-46.89,56.52,32.32
1478,435623296,0.6021,-0.3301,-0.5483,-44.15,56.40,31.65
1479,435628296,0.5923,-0.3374,-0.5205,-41.89,56.40,30.79
1480,435633296,0.6064,-0.3389,-0.5220,-40.18,56.71,29.76
1481,435638410,0.5996,-0.3379,-0.4990,-38.84,57.13,28.90
1482,435643337,0.6025,-0.3354,-0.4771,-37.99,57.56,27.93
1483,435648503,0.6191,-0.3384,-0.4556,-37.20,58.11,26.89
1484,435653432,0.6416,-0.3345,-0.4512,-36.46,58.78,25.85
1485,435658419,0.6597,-0.3394,-0.4512,-35.73,59.39,24.82
1486,435663438,0.6665,-0.3389,-0.4365,-34.76,59.94,23.84
1487,435668296,0.6646,-0.3501,-0.4458,-33.48,60.12,23.05
1488,435673296,0.6973,-0.3579,-0.4570,-31.95,60.43,22.32
1489,435678296,0.7124,-0.3716,-0.4580,-30.00,60.49,21.77
1490,435683298,0.7227,-0.3857,-0.4585,-27.32,60.49,21.28
1491,435688296,0.7451,-0.3862,-0.4785,-24.15,60.18,20.67
1492,435693296,0.7339,-0.3979,-0.4971,-19.27,59.57,20.30
1493,435698296,0.7520,-0.4102,-0.5059,-15.55,59.02,19.94
1494,435703296,0.7363,-0.4224,-0.5400,-10.30,57.99,19.63
1495,435708296,0.7397,-0.4414,-0.5776,-4.82,56.71,19.39
1496,435713600,0.7266,-0.4595,-0.6001,1.71,54.45,19.39
1497,435718296,0.7354,-0.4829,-0.6011,6.95,52.62,19.45
1498,435723296,0.7397,-0.4932,-0.6074,10.67,50.85,19.63
1499,435728295,0.7397,-0.5059,-0.6104,14.63,48.90,19.70
1500,435733296,0.7412,-0.5195,-0.5918,17.80,47.13,19.94
1501,435738312,0.7495,-0.5181,-0.5718,20.00,45.55,20.18
1502,435743764,0.7632,-0.5156,-0.5933,21.28,43.66,20.30
1503,435748296,0.7490,-0.5171,-0.5771,21.28,42.07,20.24
1504,435753296,0.7344,-0.5151,-0.5620,20.12,40.67,19.82
1505,435758294,0.7134,-0.5391,-0.5752,17.80,39.09,19.39
1506,435763294,0.7158,-0.5493,-0.5439,14.33,37.32,19.09
1507,435768294,0.7261,-0.5498,-0.5137,10.06,35.98,18.78
1508,435773294,0.7246,-0.5605,-0.4790,5.12,35.12,18.60
1509,435778294,0.7134,-0.5659,-0.4512,-0.37,34.02,18.60
1510,435783297,0.7104,-0.5571,-0.4180,-6.59,33.17,18.66
1511,435788296,0.7192,-0.5405,-0.3921,-11.71,32.80,18.66
1512,435793295,0.7397,-0.5127,-0.3618,-16.22,32.56,18.60
1513,435798296,0.7676,-0.4927,-0.3594,-19.76,32.13,18.41
1514,435803296,0.7778,-0.4673,-0.3452,-22.44,31.52,18.05
1515,435808296,0.7837,-0.4512,-0.3291,-23.96,30.98,17.68
1516,435813513,0.7988,-0.4355,-0.3179,-24.57,30.37,17.32
1517,435818296,0.8359,-0.4019,-0.3027,-24.15,29.39,16.65
1518,435823295,0.8438,-0.3779,-0.2939,-23.29,28.48,15.79
1519,435828296,0.8467,-0.3530,-0.2871,-21.95,27.13,14.76
1520,435833294,0.8457,-0.3330,-0.2837,-20.61,25.55,13.60
1521,435838294,0.8428,-0.3140,-0.2651,-19.33,23.96,12.32
1522,435843294,0.8389,-0.2915,-0.2627,-18.05,22.26,10.91
1523,435848294,0.8433,-0.2695,-0.2700,-17.01,20.37,9.21
1524,435853294,0.8364,-0.2529,-0.2593,-16.22,18.23,7.74
1525,435858295,0.8228,-0.2495,-0.2603,-15.55,16.04,6.22
1526,435863294,0.8232,-0.2310,-0.2495,-15.18,13.66,4.70
1527,435868297,0.8105,-0.2148,-0.2437,-15.06,11.10,3.23
1528,435873296,0.8120,-0.1963,-0.2271,-15.06,8.66,1.89
1529,435878296,0.8130,-0.1714,-0.2202,-15.43,6.04,0.37
1530,435883296,0.7969,-0.1553,-0.2002,-15.91,3.90,-1.22
1531,435888296,0.7886,-0.1250,-0.1719,-16.83,1.28,-2.99
1532,435893296,0.7690,-0.1035,-0.1621,-17.87,-0.85,-4.94
1533,435898296,0.7710,-0.0830,-0.1572,-19.15,-2.87,-6.95
1534,435903296,0.7651,-0.0669,-0.1606,-20.49,-4.76,-9.15
1535,435908296,0.7490,-0.0547,-0.1611,-21.89,-7.07,-11.28
1536,435913296,0.7373,-0.0508,-0.1743,-23.66,-9.15,-13.48
1537,435918296,0.7383,-0.0483,-0.1729,-25.43,-11.34,-15.61
1538,435923296,0.7407,-0.0493,-0.1807,-27.26,-13.84,-17.68
1539,435928296,0.7466,-0.0459,-0.1831,-29.09,-16.10,-19.63
1540,435933294,0.7471,-0.0552,-0.1875,-31.04,-18.60,-21.40
1541,435938769,0.7510,-0.0562,-0.1978,-32.62,-21.22,-22.93
1542,435943296,0.7490,-0.0522,-0.2021,-34.09,-23.48,-24.63
1543,435948296,0.7539,-0.0435,-0.1987,-35.49,-25.98,-26.16
1544,435953296,0.7437,-0.0400,-0.2104,-36.71,-28.11,-27.80
1545,435958299,0.7266,-0.0430,-0.2144,-38.11,-30.85,-29.88
1546,435963296,0.7051,-0.0435,-0.2202,-38.90,-32.56,-31.10
1547,435968296,0.7085,-0.0488,-0.2129,-40.18,-34.45,-32.62
1548,435973296,0.7075,-0.0430,-0.2114,-41.40,-36.28,-34.15
1549,435978296,0.7212,-0.0571,-0.2212,-42.74,-37.87,-35.73
1550,435983296,0.7456,-0.0493,-0.2139,-44.09,-39.09,-37.07
1551,435988296,0.7476,-0.0391,-0.2080,-45.61,-40.43,-38.78
1552,435993296,0.7339,-0.0352,-0.2021,-46.65,-41.22,-39.82
1553,435998296,0.8252,0.0117,-0.1626,-47.62,-41.95,-41.28
1554,436003296,0.8203,-0.0190,-0.1787,-47.62,-42.68,-43.11
1555,436008296,0.7798,0.0068,-0.2412,-47.20,-43.23,-44.27
1556,436013296,0.7549,-0.0024,-0.2764,-46.46,-44.45,-45.37
1557,436018296,0.7437,-0.0024,-0.2627,-45.12,-45.55,-46.34
1558,436023296,0.7490,-0.0259,-0.3052,-43.29,-47.01,-47.13
1559,436028296,0.7544,-0.0449,-0.3486,-41.16,-48.66,-47.87
1560,436033295,0.7690,-0.0635,-0.3735,-38.48,-50.79,-48.41
1561,436038296,0.7974,-0.0757,-0.3711,-35.85,-52.99,-48.66
1562,436043295,0.8320,-0.0830,-0.3755,-33.05,-55.24,-48.66
1563,436048666,0.8408,-0.0923,-0.3784,-29.76,-58.05,-48.41
1564,436053296,0.8735,-0.0674,-0.3745,-27.26,-60.12,-48.17
1565,436058347,0.8516,-0.0693,-0.3579,-24.51,-62.26,-47.87
1566,436063296,0.8716,-0.0620,-0.3716,-21.52,-64.45,-47.62
1567,436068294,0.8799,-0.0356,-0.4048,-18.48,-66.89,-47.74
1568,436073294,0.8765,-0.0376,-0.4033,-15.24,-69.15,-47.99
1569,436078294,0.8740,-0.0137,-0.3999,-12.01,-71.77,-48.29
1570,436083294,0.8501,-0.0361,-0.4346,-9.15,-74.27,-48.41
1571,436088294,0.8350,-0.0610,-0.4570,-6.34,-76.83,-48.41
1572,436093298,0.8252,-0.0713,-0.4873,-3.60,-79.45,-48.23
1573,436098296,0.7739,-0.1035,-0.4863,-1.10,-82.20,-47.93
1574,436103749,0.7456,-0.1538,-0.5098,1.22,-85.43,-47.20
1575,436108296,0.7539,-0.1782,-0.5449,2.13,-87.50,-46.28
1576,436113321,0.7583,-0.2065,-0.5532,2.93,-90.98,-44.21
1577,436118296,0.7554,-0.2256,-0.5449,2.56,-93.48,-42.13
1578,436123296,0.7471,-0.2197,-0.5605,1.22,-95.67,-39.63
1579,436128296,0.7563,-0.2188,-0.5825,-0.85,-97.74,-37.01
1580,436133296,0.7661,-0.1953,-0.5947,-3.48,-99.82,-34.33
1581,436138295,0.7710,-0.1699,-0.6084,-6.46,-101.52,-31.59
1582,436143294,0.7812,-0.1362,-0.6016,-9.82,-103.11,-29.02
1583,436148294,0.7788,-0.0918,-0.6123,-13.48,-104.21,-26.34
1584,436153294,0.7710,-0.0420,-0.6133,-17.13,-105.18,-23.78
1585,436158294,0.7510,0.0117,-0.6201,-20.67,-105.79,-21.52
1586,436163295,0.7207,0.0605,-0.6255,-24.15,-105.85,-19.33
1587,436168296,0.6650,0.0923,-0.7256,-27.38,-106.28,-17.20
1588,436173296,0.5698,0.0986,-0.8047,-29.15,-107.26,-14.94
1589,436178391,0.4810,0.1064,-0.7983,-29.09,-108.35,-12.44
1590,436183294,0.4878,0.1392,-0.8247,-27.50,-108.78,-9.88
1591,436188296,0.4771,0.1772,-0.8799,-24.39,-108.96,-7.01
1592,436193746,0.5073,0.2119,-0.8535,-19.51,-108.23,-4.09
1593,436198298,0.5547,0.2075,-0.7915,-13.96,-106.10,-0.98
1594,436203295,0.6313,0.1582,-0.7949,-8.54,-102.68,2.56
1595,436208296,0.5640,0.1846,-0.8784,-2.74,-98.60,6.77
1596,436213296,0.6343,0.1880,-0.9316,3.35,-94.63,10.61
1597,436218296,0.6138,0.1343,-0.8970,7.26,-90.06,15.49
1598,436223296,0.5664,0.1245,-0.9995,9.82,-85.79,20.67
1599,436228443,0.5093,0.1445,-1.0737,11.10,-82.01,26.10
1600,436233296,0.4751,0.1704,-1.0835,11.89,-78.23,31.34
1601,436238296,0.4507,0.1963,-1.0898,11.34,-74.27,36.59
1602,436243296,0.4229,0.2007,-1.1470,9.94,-70.49,41.59
1603,436248295,0.3921,0.2153,-1.1646,7.80,-67.01,46.65
1604,436253296,0.3486,0.2427,-1.1763,4.82,-62.74,52.32
1605,436258296,0.3340,0.2871,-1.1567,2.68,-59.57,56.10
1606,436263296,0.3330,0.3394,-1.1543,-0.55,-55.73,60.55
1607,436268295,0.3340,0.3599,-1.1538,-4.27,-51.65,64.70
1608,436273295,0.3110,0.3667,-1.1587,-8.23,-47.32,68.54
1609,436278294,0.2983,0.3774,-1.1704,-12.68,-43.35,72.38
1610,436283294,0.2783,0.3848,-1.1851,-17.44,-39.39,76.28
1611,436288294,0.2666,0.4023,-1.1924,-22.26,-35.49,79.82
1612,436293295,0.2617,0.4136,-1.1919,-27.01,-31.83,83.35
1613,436298294,0.2725,0.4180,-1.2026,-31.46,-28.23,87.01
1614,436303294,0.2769,0.4141,-1.2104,-35.55,-24.94,89.27
1615,436308295,0.2915,0.4136,-1.2065,-38.78,-21.83,92.50
1616,436313294,0.2920,0.4009,-1.2212,-41.46,-18.54,95.37
1617,436318298,0.3032,0.3862,-1.2329,-43.17,-15.49,98.11
1618,436323296,0.3179,0.3545,-1.2349,-44.09,-12.80,100.49
1619,436328295,0.3403,0.3267,-1.2358,-43.78,-9.88,102.93
1620,436333296,0.3623,0.2944,-1.2451,-42.68,-7.13,105.18
1621,436338295,0.3979,0.2563,-1.2471,-40.79,-4.27,107.13
1622,436343296,0.4248,0.2305,-1.2412,-38.29,-1.22,109.09
1623,436348296,0.4858,0.2095,-1.2319,-34.88,2.62,110.85
1624,436353296,0.4771,0.1802,-1.2285,-32.07,5.18,111.95
1625,436358296,0.4385,0.1299,-1.2168,-28.60,8.66,113.23
1626,436363296,0.4399,0.0825,-1.2002,-24.57,13.05,114.39
1627,436368296,0.4517,0.0547,-1.1719,-22.01,16.10,114.88
1628,436373297,0.4668,0.0161,-1.1436,-19.39,21.04,115.67
1629,436378296,0.4722,-0.0137,-1.1284,-18.23,24.39,115.85
1630,436383300,0.4629,-0.0518,-1.0850,-17.38,29.39,115.73
1631,436388296,0.4678,-0.0762,-1.0640,-17.50,32.68,115.49
1632,436393296,0.4604,-0.1016,-1.0435,-18.54,36.95,115.06
1633,436398296,0.4536,-0.1289,-1.0122,-20.18,41.16,114.33
1634,436403730,0.4453,-0.1562,-0.9849,-23.29,46.04,113.41
1635,436408296,0.4438,-0.1738,-0.9590,-25.67,49.33,112.62
1636,436413296,0.4512,-0.1904,-0.9238,-30.12,54.02,111.22
1637,436418296,0.4531,-0.2031,-0.9058,-34.15,57.56,109.94
1638,436423296,0.4639,-0.2041,-0.8809,-38.41,61.22,108.66
1639,436428296,0.4648,-0.2144,-0.8564,-42.93,64.45,107.13
1640,436433294,0.4580,-0.2227,-0.8403,-46.46,67.07,106.22
1641,436438296,0.4624,-0.2295,-0.8086,-52.01,70.67,104.51
1642,436443294,0.4727,-0.2368,-0.7915,-56.46,73.41,103.05
1643,436448294,0.4785,-0.2388,-0.7739,-60.91,76.04,101.52
1644,436453294,0.4790,-0.2407,-0.7534,-65.12,78.41,100.24
1645,436458294,0.4810,-0.2368,-0.7339,-69.39,81.04,98.90
1646,436463294,0.4863,-0.2246,-0.7256,-73.17,83.66,97.50
1647,436468298,0.4800,-0.2188,-0.7168,-76.77,85.00,96.22
1648,436473295,0.4790,-0.2080,-0.7134,-80.06,85.85,94.82
1649,436478295,0.4771,-0.2021,-0.7070,-82.74,86.04,93.66
1650,436483294,0.4761,-0.1958,-0.6973,-84.88,88.29,92.32
1651,436488294,0.4780,-0.1870,-0.6914,-86.59,89.82,90.91
1652,436493294,0.4878,-0.1748,-0.6841,-87.62,90.79,89.88
1653,436498294,0.4790,-0.1665,-0.6777,-88.17,91.65,87.80
1654,436503294,0.4746,-0.1562,-0.6704,-88.29,92.50,86.52
1655,436508294,0.4722,-0.1499,-0.6641,-87.80,93.29,86.52
1656,436513296,0.4697,-0.1440,-0.6641,-86.89,94.02,86.22
1657,436518294,0.4736,-0.1338,-0.6567,-85.30,94.70,84.57
1658,436523294,0.4678,-0.1304,-0.6528,-83.66,95.00,83.05
1659,436528294,0.4824,-0.1235,-0.6479,-81.83,95.30,82.01
1660,436533294,0.4912,-0.1313,-0.6504,-79.39,95.43,80.67
1661,436538294,0.4902,-0.1367,-0.6367,-76.65,95.61,79.45
1662,436543294,0.4980,-0.1392,-0.6416,-74.02,95.55,78.41
1663,436548294,0.5073,-0.1626,-0.6475,-71.28,95.37,77.38
1664,436553294,0.5068,-0.1792,-0.6499,-69.21,95.00,76.71
1665,436558294,0.5186,-0.1787,-0.6333,-67.32,94.33,76.10
1666,436563294,0.5283,-0.1846,-0.6353,-65.79,93.72,75.61
1667,436568294,0.5449,-0.1860,-0.6240,-64.45,92.87,75.06
1668,436573294,0.5835,-0.2041,-0.6274,-63.48,92.01,74.51
1669,436578294,0.6211,-0.2300,-0.6089,-62.50,91.28,73.84
1670,436583294,0.6230,-0.2729,-0.6201,-61.77,90.37,73.11
1671,436588294,0.6260,-0.3145,-0.6079,-61.22,89.70,72.62
1672,436593298,0.6528,-0.3442,-0.5991,-60.91,89.15,72.07
1673,436598296,0.6973,-0.3477,-0.5903,-60.67,88.54,71.46
1674,436603295,0.7427,-0.3555,-0.5713,-60.24,88.05,70.61
1675,436608298,0.7529,-0.3779,-0.5518,-59.33,87.99,69.82
1676,436613296,0.7627,-0.3862,-0.5459,-58.29,86.22,68.96
1677,436618296,0.7749,-0.3843,-0.5415,-56.71,87.74,67.99
1678,436623296,0.7524,-0.4023,-0.5356,-55.24,85.79,67.13
1679,436628296,0.7485,-0.4297,-0.5327,-53.35,85.55,66.04
1680,436633296,0.7549,-0.4229,-0.5278,-52.01,85.49,65.30
1681,436638296,0.7285,-0.4429,-0.5244,-50.24,85.37,64.27
1682,436643296,0.7329,-0.4429,-0.5054,-48.96,85.24,63.72
1683,436648296,0.7217,-0.4497,-0.4873,-47.20,83.41,62.99
1684,436653295,0.7188,-0.4517,-0.4756,-45.55,82.07,62.26
1685,436658296,0.7261,-0.4526,-0.4761,-43.90,80.73,61.59
1686,436663294,0.7427,-0.4473,-0.4736,-42.26,79.02,60.73
1687,436668294,0.7524,-0.4434,-0.4658,-40.73,77.01,60.00
1688,436673294,0.7598,-0.4438,-0.4585,-39.39,74.76,59.27
1689,436678370,0.7671,-0.4316,-0.4546,-38.35,72.38,58.48
1690,436683297,0.7856,-0.4312,-0.4609,-37.38,69.88,57.80
1691,436688398,0.8052,-0.4297,-0.4683,-36.71,67.01,57.13
1692,436693296,0.8174,-0.4307,-0.4727,-36.34,64.15,56.46
1693,436698344,0.8184,-0.4224,-0.4761,-36.28,60.98,55.91
1694,436703296,0.8286,-0.4136,-0.4688,-36.16,58.05,55.24
1695,436708308,0.7876,-0.3989,-0.4756,-36.46,55.30,54.70
1696,436713295,0.7559,-0.3828,-0.4810,-37.20,52.50,54.02
1697,436718297,0.7266,-0.3628,-0.4761,-38.54,49.88,53.41
1698,436723294,0.7124,-0.3301,-0.4600,-40.73,46.95,52.80
1699,436728296,0.7207,-0.3115,-0.4570,-42.74,45.30,52.26
1700,436733296,0.7261,-0.2705,-0.4468,-46.40,43.23,51.52
1701,436738295,0.6968,-0.2476,-0.4502,-50.37,41.71,50.91
1702,436743294,0.7051,-0.2139,-0.4385,-55.06,40.37,50.18
1703,436748294,0.6992,-0.1865,-0.4277,-60.30,39.33,49.39
1704,436753294,0.6963,-0.1670,-0.4268,-65.85,38.41,48.48
1705,436758294,0.6792,-0.1401,-0.4106,-71.65,37.87,47.74
1706,436763296,0.7041,-0.1157,-0.4033,-77.50,37.01,47.01
1707,436768296,0.6899,-0.1016,-0.4033,-83.54,36.46,46.34
1708,436773296,0.6895,-0.0747,-0.3975,-89.70,35.98,45.61
1709,436778296,0.6880,-0.0562,-0.3716,-95.55,35.49,44.88
1710,436783295,0.6821,-0.0684,-0.3701,-101.28,35.18,44.21
1711,436788296,0.6870,-0.0811,-0.3643,-106.28,34.82,43.72
1712,436793296,0.6592,-0.0674,-0.3535,-110.61,34.45,43.11
1713,436798296,0.6431,-0.0654,-0.3145,-114.15,34.02,42.44
1714,436803296,0.6421,-0.0649,-0.3135,-117.38,33.60,41.89
1715,436808296,0.6572,-0.0776,-0.3242,-120.37,33.23,41.34
1716,436813296,0.6699,-0.0830,-0.3208,-122.87,32.87,40.91
1717,436818299,0.6758,-0.0796,-0.3076,-125.18,32.50,40.67
1718,436823296,0.6733,-0.0605,-0.3198,-127.13,32.32,40.30
1719,436828296,0.6704,-0.0488,-0.3320,-128.66,32.01,40.18
1720,436833296,0.6709,-0.0469,-0.3281,-129.76,31.89,40.18
1721,436838296,0.6768,-0.0576,-0.3325,-130.49,31.89,40.18
1722,436843296,0.6821,-0.0679,-0.3438,-130.91,31.65,40.61
1723,436848296,0.6904,-0.0732,-0.3481,-131.16,31.71,40.73
1724,436853296,0.7075,-0.0815,-0.3584,-131.10,31.40,41.04
1725,436858296,0.7129,-0.0908,-0.3848,-131.28,31.34,41.46
1726,436863296,0.7188,-0.0923,-0.4048,-131.59,30.98,41.77
1727,436868296,0.7329,-0.0908,-0.4321,-132.20,30.49,42.20
1728,436873296,0.7446,-0.1050,-0.4468,-133.41,30.18,42.50
1729,436878296,0.7471,-0.1216,-0.4639,-135.43,29.88,42.87
1730,436883296,0.7505,-0.1357,-0.4858,-138.29,29.51,43.29
1731,436888295,0.7637,-0.1450,-0.5176,-141.77,29.09,43.66
1732,436893294,0.7588,-0.1460,-0.5576,-146.04,28.78,44.09
1733,436898294,0.7515,-0.1426,-0.5933,-150.98,28.48,44.63
1734,436903294,0.7412,-0.1372,-0.6255,-156.40,28.29,45.00
1735,436908294,0.7319,-0.1445,-0.6455,-162.32,28.41,45.73
1736,436913777,0.7642,-0.1675,-0.6602,-170.06,28.66,46.34
1737,436918297,0.8115,-0.1953,-0.6846,-175.12,28.96,46.89
1738,436923296,0.8569,-0.2046,-0.7124,-181.16,29.39,47.80
1739,436928296,0.8813,-0.2056,-0.7515,-186.95,29.39,48.54
1740,436933704,0.8960,-0.2070,-0.7974,-193.66,29.15,49.94
1741,436938296,0.9189,-0.2031,-0.8149,-198.17,28.78,50.91
1742,436943296,0.9419,-0.2036,-0.8208,-204.33,27.87,52.38
1743,436948296,0.9648,-0.1982,-0.8350,-210.12,26.83,54.09
1744,436953296,0.9761,-0.2021,-0.8511,-216.83,24.82,56.71
1745,436958296,0.9854,-0.2202,-0.8535,-220.98,23.60,58.72
1746,436963296,0.9941,-0.2090,-0.8784,-225.30,21.34,61.46
1747,436968296,1.0015,-0.1782,-0.8906,-229.27,19.57,64.33
1748,436973682,1.0059,-0.1323,-0.9106,-232.99,17.50,67.80
1749,436978296,0.9951,-0.0923,-0.9160,-235.24,16.65,70.30
1750,436983296,0.9849,-0.0342,-0.9434,-237.50,15.55,73.29
1751,436988296,0.9531,0.0298,-0.9697,-239.45,14.88,76.10
1752,436993296,0.9092,0.0859,-0.9839,-241.52,14.88,79.15
1753,436998297,0.8599,0.1509,-1.0005,-243.17,15.37,81.89
1754,437003299,0.7935,0.2373,-1.0137,-245.18,16.34,85.06
1755,437008296,0.7266,0.2812,-1.0200,-246.40,17.44,87.32
1756,437013296,0.6592,0.3286,-1.0151,-247.80,19.39,89.70
1757,437018296,0.6011,0.3540,-1.0166,-248.78,21.22,92.87
1758,437023296,0.5464,0.3511,-1.0020,-248.84,23.35,96.10
1759,437028296,0.5259,0.3389,-0.9868,-247.80,25.98,99.51
1760,437033295,0.5137,0.3257,-0.9600,-245.73,28.60,103.11
1761,437038296,0.5146,0.3062,-0.9399,-242.38,31.22,106.83
1762,437043295,0.5254,0.2876,-0.9185,-238.05,34.09,110.49
1763,437048296,0.5479,0.2583,-0.8979,-231.22,37.13,115.37
1764,437053296,0.5664,0.2349,-0.8716,-224.57,39.88,119.27
1765,437058296,0.5840,0.2178,-0.8560,-216.95,42.32,123.48
1766,437063296,0.6074,0.2051,-0.8403,-208.90,45.06,127.62
1767,437068296,0.6377,0.1841,-0.8213,-200.37,47.68,131.65
1768,437073296,0.6621,0.1616,-0.8135,-191.52,50.55,135.79
1769,437078296,0.6880,0.1426,-0.8032,-182.50,53.41,139.70
1770,437083296,0.7085,0.1250,-0.7871,-173.60,56.59,143.66
1771,437088296,0.7188,0.1060,-0.7959,-164.70,59.57,147.50
1772,437093354,0.7422,0.0894,-0.7856,-155.85,62.80,150.98
1773,437098477,0.7583,0.0737,-0.7803,-147.44,66.10,154.39
1774,437103758,0.7676,0.0513,-0.7734,-139.39,69.33,157.62
1775,437108296,0.7734,0.0273,-0.7637,-131.95,72.80,160.49
1776,437113328,0.7725,0.0000,-0.7471,-125.24,76.52,163.17
1777,437118295,0.7798,-0.0244,-0.7368,-119.33,80.00,165.79
1778,437123294,0.7769,-0.0542,-0.7266,-114.45,83.35,167.99
1779,437128294,0.7769,-0.0850,-0.7119,-110.12,86.10,169.88
1780,437133294,0.7856,-0.1094,-0.6934,-106.52,90.00,171.52
1781,437138295,0.7764,-0.1431,-0.6665,-103.66,93.41,172.93
1782,437143297,0.7637,-0.1641,-0.6475,-101.22,96.83,173.96
1783,437148296,0.7427,-0.1929,-0.6226,-99.27,100.12,174.82
1784,437153296,0.7251,-0.2148,-0.6045,-97.74,103.41,175.24
1785,437158521,0.7085,-0.2295,-0.5820,-96.77,106.52,175.49
1786,437163296,0.6865,-0.2456,-0.5522,-96.10,109.57,175.73
1787,437168296,0.6558,-0.2632,-0.5352,-95.43,112.87,175.73
1788,437173296,0.6489,-0.2637,-0.5112,-95.00,115.85,175.67
1789,437178411,0.6108,-0.2695,-0.4985,-94.63,119.09,175.61
1790,437183485,0.6089,-0.2734,-0.4819,-93.96,122.01,175.43
1791,437188619,0.5835,-0.2812,-0.4561,-93.23,125.00,175.37
1792,437193296,0.5571,-0.2900,-0.4404,-92.38,127.87,175.12
1793,437198296,0.5352,-0.2979,-0.4150,-91.46,130.67,175.00
1794,437203297,0.5249,-0.3110,-0.3994,-90.43,133.41,174.82
1795,437208296,0.5181,-0.3267,-0.3682,-89.27,136.04,174.82
1796,437213441,0.4946,-0.3589,-0.3472,-87.93,138.72,174.88
1797,437218302,0.4858,-0.3862,-0.3208,-86.34,141.28,174.94
1798,437223370,0.4849,-0.3975,-0.3003,-84.57,143.84,175.06
1799,437228403,0.4458,-0.4272,-0.2725,-82.32,146.46,175.12
1800,437233368,0.4360,-0.4380,-0.2495,-79.94,148.96,175.12
1801,437238295,0.4204,-0.4487,-0.2285,-77.38,151.71,175.12
1802,437243721,0.3862,-0.4688,-0.2012,-73.90,154.76,175.24
1803,437248296,0.3667,-0.4868,-0.1836,-71.52,156.95,175.12
1804,437253296,0.3584,-0.5093,-0.1616,-68.78,159.45,175.12
1805,437258296,0.3564,-0.5381,-0.1431,-66.04,162.13,174.94
1806,437263296,0.3569,-0.5688,-0.1177,-63.29,164.82,175.00
1807,437268296,0.3447,-0.5933,-0.0947,-60.73,167.56,174.82
1808,437273296,0.3169,-0.6172,-0.0825,-58.54,170.37,174.57
1809,437278296,0.3003,-0.6123,-0.0518,-56.46,173.54,174.15
1810,437283296,0.2900,-0.6201,-0.0322,-55.24,175.61,173.60
1811,437288296,0.2827,-0.6152,-0.0024,-54.33,178.17,172.68
1812,437293297,0.2627,-0.6147,0.0151,-53.90,180.55,171.59
1813,437298296,0.2495,-0.6055,0.0322,-54.27,182.80,170.43
1814,437303297,0.2017,-0.6104,0.0474,-55.73,184.63,169.51
1815,437308488,0.1338,-0.6001,0.0562,-60.00,186.04,169.51
1816,437313795,0.2300,-0.5664,0.0820,-65.06,186.77,169.02
1817,437318296,0.3047,-0.5464,0.1904,-69.39,187.56,168.54
1818,437323296,0.3213,-0.5024,0.1943,-74.63,188.72,167.38
1819,437328296,0.3047,-0.4741,0.2026,-79.39,189.39,165.91
1820,437333296,0.2686,-0.5088,0.2793,-83.54,190.24,164.57
1821,437338295,0.2646,-0.5547,0.3057,-86.83,190.98,163.35
1822,437343294,0.2642,-0.6182,0.3008,-89.15,191.34,162.32
1823,437348294,0.2441,-0.6865,0.3247,-90.43,191.34,161.52
1824,437353294,0.2275,-0.7334,0.3706,-90.43,191.16,161.16
1825,437358294,0.1997,-0.7646,0.3721,-89.39,190.85,161.10
1826,437363294,0.1846,-0.7871,0.3779,-87.32,189.82,161.40
1827,437368296,0.1431,-0.8335,0.3799,-84.27,188.60,162.01
1828,437373467,0.0767,-0.8657,0.3945,-81.28,187.07,162.87
1829,437378295,0.0835,-0.9067,0.4326,-78.11,185.37,163.96
1830,437383296,0.0757,-0.9111,0.4570,-74.76,183.29,165.18
1831,437388296,0.0396,-0.9312,0.4844,-71.40,180.98,166.40
1832,437393296,-0.0220,-0.9473,0.5269,-67.56,178.48,167.38
1833,437398295,-0.0503,-0.9502,0.5669,-63.54,175.98,168.17
1834,437403294,-0.0503,-0.9810,0.5947,-59.33,173.41,168.60
1835,437408294,-0.0312,-0.9883,0.6401,-54.88,170.67,168.96
1836,437413294,-0.0425,-0.9844,0.6626,-49.70,167.56,168.96
1837,437418399,-0.0366,-0.9927,0.7095,-44.33,164.51,168.29
1838,437423296,-0.0171,-0.9985,0.7310,-38.35,161.04,167.38
1839,437428295,-0.0601,-1.0210,0.7480,-31.59,157.26,165.91
1840,437433772,-0.0469,-1.0122,0.7715,-24.57,153.17,164.33
1841,437438296,-0.0908,-1.0312,0.8169,-16.83,149.02,162.20
1842,437443296,-0.0732,-1.0332,0.8677,-8.84,144.63,159.70
1843,437448296,-0.0713,-1.0264,0.8994,-0.85,140.67,157.32
1844,437453296,-0.0791,-1.0684,0.9536,6.83,136.40,154.33
1845,437458296,-0.0605,-1.0625,0.9692,13.90,132.20,151.34
1846,437463296,-0.0835,-1.0962,1.0137,20.49,128.05,147.99
1847,437468295,-0.0815,-1.1050,1.0410,25.73,123.41,144.82
1848,437473296,-0.0884,-1.1172,1.0518,29.39,118.84,141.10
1849,437478296,-0.0786,-1.1318,1.0791,31.40,113.72,137.50
1850,437483296,-0.0610,-1.1479,1.0859,31.65,108.05,133.84
1851,437488296,-0.0488,-1.1538,1.1084,30.12,102.20,130.24
1852,437493296,-0.0420,-1.1636,1.1274,27.32,95.91,126.89
1853,437498296,-0.0391,-1.1699,1.1582,23.05,88.72,123.66
1854,437503297,-0.0352,-1.1611,1.1826,17.93,83.17,120.43
1855,437508296,-0.0093,-1.1709,1.2168,11.95,75.49,117.20
1856,437513296,-0.0459,-1.1987,1.2173,5.79,67.62,114.33
1857,437518296,-0.0415,-1.2046,1.2207,-0.06,59.21,111.40
1858,437523296,-0.0488,-1.2021,1.2407,-6.59,48.84,108.17
1859,437528296,-0.0269,-1.1904,1.2544,-10.30,41.83,106.10
1860,437533296,-0.0269,-1.1958,1.2529,-14.63,32.68,103.66
1861,437538296,-0.0127,-1.2046,1.2559,-19.21,21.40,101.04
1862,437543296,-0.0449,-1.2085,1.2666,-21.89,14.02,99.39
1863,437548296,-0.0688,-1.2202,1.2769,-24.39,4.45,97.74
1864,437553294,-0.0791,-1.2393,1.2646,-26.22,-5.00,95.98
1865,437558294,-0.0742,-1.2500,1.2710,-27.68,-14.51,94.39
1866,437563294,-0.0767,-1.2612,1.2725,-28.35,-23.90,92.50
1867,437568294,-0.0835,-1.2583,1.2617,-28.48,-33.23,90.79
1868,437573294,-0.0908,-1.2637,1.2549,-27.68,-42.80,88.48
1869,437578294,-0.1338,-1.2739,1.2441,-25.79,-52.26,87.13
1870,437583294,-0.1475,-1.2690,1.2466,-22.20,-61.71,84.57
1871,437588294,-0.1714,-1.2637,1.2549,-17.32,-70.91,81.89
1872,437593295,-0.1606,-1.2642,1.2461,-11.40,-80.00,79.39
1873,437598294,-0.2007,-1.2749,1.2456,-5.00,-88.78,76.46
1874,437603294,-0.1948,-1.2754,1.2563,1.59,-97.13,73.72
1875,437608294,-0.2012,-1.2842,1.2656,7.74,-105.00,70.85
1876,437613294,-0.2173,-1.2974,1.2671,13.41,-112.32,68.05
1877,437618294,-0.2339,-1.3081,1.2686,18.35,-119.57,65.18
1878,437623294,-0.2402,-1.3179,1.2754,22.56,-126.40,62.32
1879,437628294,-0.2632,-1.3252,1.2690,25.98,-132.80,59.57
1880,437633294,-0.2671,-1.3262,1.2764,28.90,-139.21,56.65
1881,437638294,-0.3008,-1.3438,1.2881,31.40,-145.49,53.72
1882,437643294,-0.3125,-1.3413,1.2979,33.54,-151.40,50.79
1883,437648294,-0.3149,-1.3564,1.3066,35.98,-157.38,47.93
1884,437653294,-0.3413,-1.3677,1.3169,38.84,-163.66,45.18
1885,437658294,-0.2905,-1.3228,1.3032,42.38,-170.00,42.56
1886,437663294,-0.3706,-1.3853,1.3257,47.26,-176.52,40.24
1887,437668294,-0.4351,-1.3955,1.3438,52.01,-183.54,38.29
1888,437673298,-0.4448,-1.4233,1.3740,56.52,-189.94,36.40
1889,437678298,-0.4692,-1.4580,1.3784,62.01,-197.93,34.33
1890,437683767,-0.4497,-1.4644,1.3159,65.61,-204.94,32.87
1891,437688296,-0.4448,-1.5498,1.4219,68.29,-210.06,31.83
1892,437693296,-0.5615,-1.5854,1.4580,73.17,-217.26,30.67
1893,437698770,-0.6162,-1.6265,1.4824,77.80,-222.99,29.39
1894,437703296,-0.6235,-1.6489,1.4482,84.09,-229.09,28.05
1895,437708296,-0.5576,-1.7349,1.5088,92.26,-235.49,26.77
1896,437713297,-0.7153,-1.7944,1.5215,102.87,-241.46,26.10
1897,437718388,-0.7681,-1.7397,1.4644,114.94,-247.99,25.24
1898,437723361,-0.7510,-1.8555,1.5708,129.02,-254.82,24.02
1899,437728440,-0.8833,-1.9165,1.6655,142.93,-260.85,23.60
1900,437733522,-0.8931,-2.0117,1.6504,158.11,-267.32,22.62
1901,437738401,-0.9321,-2.0098,1.5859,172.93,-274.70,22.20
1902,437743346,-1.0435,-2.0371,1.6753,188.17,-282.07,21.52
1903,437748296,-1.0430,-1.9883,1.7695,202.38,-289.57,21.04
1904,437753472,-1.1426,-2.1064,1.7446,216.71,-297.56,20.98
1905,437758390,-1.2676,-2.1694,1.7388,230.43,-306.89,21.22
1906,437763294,-1.2676,-2.2334,1.8467,243.11,-316.46,21.52
1907,437768296,-1.2085,-2.2417,1.8154,255.30,-326.46,21.71
1908,437773296,-1.2080,-2.2510,1.6763,267.01,-338.29,22.13
1909,437778298,-1.2192,-2.2402,1.6309,278.23,-351.46,22.93
1910,437783295,-1.2363,-2.2417,1.6157,287.74,-364.88,23.90
1911,437788296,-1.2339,-2.2549,1.5088,294.70,-378.96,25.06
1912,437793296,-1.2319,-2.2729,1.3882,298.29,-393.84,26.16
1913,437798296,-1.2275,-2.2749,1.3018,298.29,-409.02,27.20
1914,437803296,-1.2114,-2.2676,1.1782,294.51,-424.15,27.99
1915,437808295,-1.1958,-2.2598,0.9814,287.80,-439.33,28.60
1916,437813294,-1.1636,-2.2461,0.8008,278.35,-454.15,28.54
1917,437818294,-1.1396,-2.2358,0.6499,266.52,-468.05,27.99
1918,437823294,-1.0845,-2.2046,0.4614,252.07,-480.67,26.59
1919,437828795,-1.0698,-2.1938,0.2764,235.06,-491.83,24.15
1920,437833297,-1.0703,-2.1362,0.1602,215.98,-500.55,20.24
1921,437838295,-1.0801,-2.0527,0.0146,195.67,-506.22,14.45
1922,437843296,-1.0376,-1.9546,-0.0874,174.21,-508.29,6.46
1923,437848295,-0.9912,-1.8462,-0.1631,152.74,-505.73,-3.66
1924,437853296,-0.8960,-1.7422,-0.3247,128.72,-496.65,-18.66
1925,437858296,-0.8457,-1.7358,-0.5283,114.94,-487.32,-29.88
1926,437863296,-0.8071,-1.7407,-0.7974,99.57,-473.23,-43.72
1927,437868727,-0.8008,-1.7065,-1.1299,83.29,-454.88,-59.45
1928,437873296,-0.7778,-1.6372,-1.3149,73.05,-442.01,-69.21
1929,437878296,-0.7202,-1.5205,-1.4663,60.43,-425.00,-80.73
1930,437883428,-0.6772,-1.4160,-1.5674,47.80,-405.91,-91.89
1931,437888296,-0.6304,-1.3086,-1.6973,32.62,-380.61,-104.33
1932,437893296,-0.5815,-1.2275,-1.7939,22.74,-362.74,-111.77
1933,437898296,-0.5034,-1.1245,-1.8677,11.28,-340.24,-119.76
1934,437903296,-0.4355,-1.0376,-1.9150,1.52,-316.52,-126.52
1935,437908773,-0.3721,-0.9141,-1.9365,-7.80,-287.44,-132.80
1936,437913296,-0.3271,-0.8447,-1.9487,-12.20,-267.68,-135.91
1937,437918297,-0.2881,-0.7471,-1.9370,-14.57,-243.54,-138.48
1938,437923296,-0.2271,-0.6543,-1.9121,-12.62,-219.33,-139.63
1939,437928766,-0.1763,-0.5396,-1.8857,-3.84,-191.40,-139.39
1940,437933296,-0.1362,-0.4810,-1.8477,5.30,-173.78,-138.17
1941,437938295,-0.0791,-0.4214,-1.7930,19.33,-152.56,-135.98
1942,437943296,-0.0303,-0.3677,-1.7363,34.15,-132.80,-132.80
1943,437948294,0.0020,-0.3154,-1.6675,48.48,-114.45,-129.02
1944,437953294,0.0361,-0.2676,-1.6001,61.34,-97.50,-124.88
1945,437958294,0.0796,-0.2285,-1.5249,71.95,-82.01,-120.55
1946,437963294,0.1328,-0.2041,-1.4692,80.00,-67.50,-116.04
1947,437968295,0.1738,-0.1797,-1.4033,85.37,-54.51,-111.46
1948,437973296,0.2202,-0.1558,-1.3472,88.17,-42.68,-106.95
1949,437978295,0.2886,-0.1279,-1.2910,87.99,-32.01,-102.26
1950,437983296,0.3071,-0.1274,-1.2402,84.82,-22.26,-97.56
1951,437988299,0.3511,-0.1094,-1.1890,78.05,-12.20,-91.89
1952,437993296,0.3628,-0.1055,-1.1450,72.07,-6.28,-87.93
1953,437998296,0.4116,-0.0938,-1.1079,63.60,0.55,-82.87
1954,438003296,0.4512,-0.1035,-1.0674,54.33,6.65,-77.56
1955,438008296,0.4858,-0.1040,-1.0137,42.87,13.23,-71.04
1956,438013295,0.5034,-0.1167,-0.9731,34.88,16.83,-66.65
1957,438018294,0.5176,-0.1328,-0.9165,24.57,21.28,-61.04
1958,438023294,0.5220,-0.1509,-0.8667,14.21,24.88,-55.18
1959,438028294,0.5420,-0.1719,-0.7959,2.32,28.90,-48.35
1960,438033294,0.5591,-0.1865,-0.7480,-6.65,31.71,-42.50
1961,438038298,0.5728,-0.1938,-0.6978,-14.39,33.84,-36.65
1962,438043296,0.5801,-0.2153,-0.6489,-21.04,35.85,-30.61
1963,438048299,0.5820,-0.2397,-0.6138,-26.40,37.20,-24.51
1964,438053296,0.6099,-0.2578,-0.5679,-30.73,38.41,-18.23
1965,438058296,0.6357,-0.2788,-0.5459,-34.09,39.21,-11.71
1966,438063296,0.6660,-0.2959,-0.5186,-36.89,39.94,-5.18
1967,438068773,0.6772,-0.3120,-0.4917,-38.90,40.37,1.16
1968,438073296,0.6855,-0.3262,-0.4634,-40.61,40.85,7.44
1969,438078296,0.6909,-0.3315,-0.4370,-42.38,41.22,13.41
1970,438083296,0.6982,-0.3418,-0.4072,-44.57,41.34,18.90
1971,438088296,0.7114,-0.3447,-0.3784,-47.20,41.65,24.15
1972,438093296,0.7188,-0.3530,-0.3433,-50.61,41.71,28.84
1973,438098296,0.7134,-0.3677,-0.3232,-54.51,41.65,33.17
1974,438103296,0.7080,-0.3857,-0.3042,-58.90,41.46,37.13
1975,438108296,0.7124,-0.4028,-0.2778,-63.35,41.10,40.79
1976,438113598,0.7183,-0.4180,-0.2627,-67.74,40.49,43.90
1977,438118296,0.7314,-0.4385,-0.2505,-71.83,39.70,46.77
1978,438123298,0.7319,-0.4575,-0.2407,-75.79,38.66,49.39
1979,438128296,0.7349,-0.4766,-0.2280,-78.90,37.44,51.65
1980,438133296,0.7349,-0.5073,-0.2075,-81.46,36.10,53.84
1981,438138296,0.7217,-0.5444,-0.2070,-83.23,34.51,55.79
1982,438143296,0.7388,-0.5684,-0.1841,-84.63,32.93,57.50
1983,438148296,0.7354,-0.6055,-0.1689,-85.61,30.98,59.27
1984,438153555,0.7349,-0.6260,-0.1558,-86.28,29.15,60.67
1985,438158296,0.7051,-0.6611,-0.1284,-86.65,27.38,61.71
1986,438163296,0.7202,-0.6812,-0.1162,-86.89,25.79,62.80
1987,438168295,0.6909,-0.7051,-0.0913,-86.89,23.41,63.84
1988,438173296,0.6724,-0.7231,-0.0801,-87.01,22.01,64.15
1989,438178296,0.6655,-0.7427,-0.0698,-87.01,20.37,64.63
1990,438183296,0.6626,-0.7622,-0.0688,-86.89,18.60,64.88
1991,438188297,0.6626,-0.7788,-0.0654,-86.65,16.83,65.06
1992,438193484,0.6582,-0.7920,-0.0625,-86.28,14.70,65.06
1993,438198298,0.6611,-0.8047,-0.0596,-85.73,12.80,65.12
1994,438203752,0.6533,-0.8218,-0.0630,-84.76,10.24,65.06
1995,438208296,0.6548,-0.8271,-0.0586,-83.96,8.60,64.88
1996,438213297,0.6479,-0.8320,-0.0586,-82.99,6.34,64.76
1997,438218296,0.6294,-0.8491,-0.0713,-81.95,4.15,64.63
1998,438223296,0.6152,-0.8838,-0.0850,-81.22,1.52,64.45
1999,438228298,0.6162,-0.8457,-0.0391,-80.91,-0.85,64.33
2000,438233294,0.6299,-0.8179,-0.0532,-80.24,-3.17,63.72
2001,438238294,0.6084,-0.8154,-0.0732,-79.70,-5.61,63.05
2002,438243294,0.5845,-0.8330,-0.0454,-78.90,-7.80,62.32
2003,438248294,0.5659,-0.8359,-0.0322,-78.11,-9.88,61.40
2004,438253294,0.5596,-0.8447,-0.0518,-76.83,-12.01,60.55
2005,438258294,0.5430,-0.8521,-0.0542,-75.49,-14.09,59.51
2006,438263294,0.5508,-0.8350,-0.0171,-73.90,-15.79,58.54
2007,438268298,0.5376,-0.8286,-0.0293,-72.13,-17.38,57.26
2008,438273296,0.5391,-0.8296,-0.0322,-70.55,-19.15,56.22
2009,438278298,0.5527,-0.8276,-0.0259,-68.96,-20.49,55.00
2010,438283296,0.5415,-0.8359,-0.0166,-67.38,-21.71,53.78
2011,438288295,0.5405,-0.8423,-0.0312,-66.10,-22.68,52.44
2012,438293300,0.5303,-0.8481,-0.0317,-64.82,-23.84,50.98
2013,438298296,0.5186,-0.8467,-0.0337,-64.15,-24.63,49.94
2014,438303296,0.5327,-0.8613,-0.0400,-63.35,-25.55,48.78
2015,438308296,0.5190,-0.8662,-0.0464,-62.87,-26.46,47.99
2016,438313296,0.5073,-0.8721,-0.0474,-62.80,-27.56,46.89
2017,438318296,0.5098,-0.8569,-0.0479,-63.11,-28.35,46.40
2018,438323295,0.5210,-0.8516,-0.0430,-63.72,-29.39,45.98
2019,438328298,0.5229,-0.8530,-0.0649,-65.12,-30.79,45.61
2020,438333799,0.5283,-0.8486,-0.0728,-66.34,-32.32,45.37
2021,438338296,0.5039,-0.8555,-0.0781,-67.80,-33.72,45.49
2022,438343295,0.5000,-0.8613,-0.0732,-68.96,-35.24,45.61
2023,438348296,0.5054,-0.8511,-0.0918,-69.76,-36.65,45.79
2024,438353300,0.5190,-0.8530,-0.1094,-70.37,-38.17,45.91
2025,438358296,0.5283,-0.8628,-0.1123,-70.24,-39.94,46.04
2026,438363509,0.5391,-0.8623,-0.1240,-69.27,-41.40,46.52
2027,438368757,0.5542,-0.8530,-0.1260,-67.32,-42.74,46.71
2028,438373296,0.5732,-0.8594,-0.1304,-64.57,-43.84,47.13
2029,438378295,0.5869,-0.8599,-0.1323,-61.28,-44.82,47.32
2030,438383296,0.5879,-0.8682,-0.1519,-57.99,-45.73,47.50
2031,438388294,0.5947,-0.8667,-0.1675,-54.33,-46.65,47.74
2032,438393546,0.5698,-0.8623,-0.1758,-50.73,-47.50,47.87
2033,438398296,0.5713,-0.8716,-0.1890,-47.13,-48.29,47.99
2034,438403296,0.5908,-0.8730,-0.2026,-43.29,-49.09,48.29
2035,438408296,0.5796,-0.8594,-0.2026,-39.02,-49.63,48.60
2036,438413295,0.5723,-0.8403,-0.1880,-35.24,-50.00,48.84
2037,438418297,0.5635,-0.8315,-0.1860,-31.77,-49.94,48.90
2038,438423642,0.5513,-0.8359,-0.1890,-28.96,-50.12,49.15
2039,438428296,0.5400,-0.8521,-0.2046,-26.28,-50.18,49.39
2040,438433296,0.5049,-0.8721,-0.1812,-23.54,-50.37,49.70
2041,438438296,0.4946,-0.8594,-0.1880,-20.85,-50.30,50.37
2042,438443296,0.4976,-0.8486,-0.2329,-18.60,-50.37,50.55
2043,438448296,0.4995,-0.8398,-0.2383,-16.95,-50.43,50.91
2044,438453296,0.5015,-0.8320,-0.2212,-15.85,-50.00,51.28
2045,438458296,0.4883,-0.8354,-0.2466,-15.61,-49.45,51.52
2046,438463296,0.4824,-0.8354,-0.2832,-15.91,-48.84,51.83
2047,438468296,0.4600,-0.8394,-0.2861,-17.13,-48.11,52.20
2048,438473296,0.4067,-0.8418,-0.2422,-18.54,-47.32,52.44
2049,438478296,0.4355,-0.8315,-0.2388,-20.06,-46.52,52.62
2050,438483295,0.4453,-0.8125,-0.2783,-21.95,-45.73,52.80
2051,438488296,0.4360,-0.8115,-0.3042,-25.00,-44.76,52.87
2052,438493296,0.4243,-0.8018,-0.2749,-27.50,-44.21,52.80
2053,438498295,0.3848,-0.8169,-0.2793,-30.73,-43.41,52.87
2054,438503296,0.3306,-0.8213,-0.3086,-34.45,-42.87,52.68
2055,438508294,0.3647,-0.8076,-0.3096,-38.60,-42.26,52.87
2056,438513351,0.3750,-0.7778,-0.2822,-43.29,-41.52,52.68
2057,438518295,0.3716,-0.7461,-0.2930,-48.11,-40.91,52.62
2058,438523294,0.3677,-0.7344,-0.2988,-53.48,-40.49,52.44
2059,438528294,0.3467,-0.7383,-0.2983,-59.02,-40.37,52.38
2060,438533294,0.2954,-0.7563,-0.3003,-64.76,-40.24,52.56
2061,438538294,0.3418,-0.7607,-0.3057,-70.67,-40.43,52.62
2062,438543294,0.3535,-0.7695,-0.3164,-76.10,-40.61,52.80
2063,438548294,0.3452,-0.7720,-0.3125,-81.34,-40.79,52.62
2064,438553294,0.3389,-0.7725,-0.3179,-86.16,-41.10,52.56
2065,438558295,0.3345,-0.7783,-0.3340,-91.16,-41.52,52.20
2066,438563294,0.3530,-0.7852,-0.3481,-95.55,-42.26,51.95
2067,438568299,0.3550,-0.7964,-0.3569,-99.88,-42.93,51.46
2068,438573490,0.3667,-0.8037,-0.3682,-103.84,-43.66,50.85
2069,438578295,0.3696,-0.8130,-0.3926,-107.62,-44.33,50.00
2070,438583298,0.3779,-0.8198,-0.4214,-111.16,-45.18,49.09
2071,438588294,0.3838,-0.8340,-0.4448,-114.51,-45.91,47.93
2072,438593298,0.4009,-0.8604,-0.4824,-118.41,-46.71,46.40
2073,438598295,0.4092,-0.8809,-0.5098,-120.98,-47.01,45.24
2074,438603294,0.4331,-0.9214,-0.5537,-124.39,-47.20,43.54
2075,438608294,0.4624,-0.9727,-0.6172,-128.35,-47.20,41.59
2076,438613294,0.4824,-0.9985,-0.6626,-133.05,-46.89,39.33
2077,438618294,0.4893,-0.9966,-0.7285,-138.17,-46.28,36.59
2078,438623294,0.4995,-0.9873,-0.7998,-143.41,-45.37,33.60
2079,438628294,0.5381,-0.9683,-0.8843,-148.72,-44.21,30.61
2080,438633294,0.5742,-0.9219,-0.9556,-154.15,-42.80,27.13
2081,438638295,0.5977,-0.8354,-0.9897,-160.12,-41.04,23.90
2082,438643294,0.5527,-0.7720,-1.0273,-166.46,-38.78,20.49
2083,438648294,0.5361,-0.7158,-1.0610,-173.41,-36.46,17.38
2084,438653294,0.5186,-0.6875,-1.0620,-181.10,-34.15,14.51
2085,438658294,0.4565,-0.6904,-1.0469,-189.02,-31.46,11.95
2086,438663294,0.4062,-0.6992,-1.0479,-195.55,-28.96,9.70
2087,438668294,0.3789,-0.7051,-1.0513,-200.98,-26.52,7.56
2088,438673294,0.3638,-0.7139,-1.0151,-205.12,-24.02,5.61
2089,438678294,0.3696,-0.7070,-0.9961,-208.23,-21.16,3.66
2090,438683294,0.3540,-0.7031,-0.9858,-210.91,-17.56,1.34
2091,438688298,0.3389,-0.7012,-0.9897,-212.62,-14.51,-0.43
2092,438693294,0.3247,-0.7056,-0.9834,-214.09,-11.04,-2.07
2093,438698294,0.3027,-0.7188,-0.9912,-215.37,-7.62,-3.66
2094,438703294,0.3052,-0.7290,-0.9839,-216.77,-3.96,-5.18
2095,438708294,0.2959,-0.7402,-0.9873,-217.99,0.06,-6.59
2096,438713294,0.3203,-0.7300,-0.9937,-219.02,3.96,-7.87
2097,438718294,0.3306,-0.7158,-1.0039,-220.00,7.93,-9.21
2098,438723297,0.3389,-0.7021,-1.0107,-220.43,12.07,-10.43
2099,438728294,0.3359,-0.6953,-1.0273,-220.85,16.34,-11.46
2100,438733420,0.3491,-0.6841,-1.0527,-220.43,20.49,-12.20
2101,438738774,0.3784,-0.6318,-1.0654,-219.51,24.51,-13.11
2102,438743296,0.3774,-0.6196,-1.0830,-218.48,28.35,-13.72
2103,438748689,0.3833,-0.5674,-1.1206,-217.56,32.26,-14.09
2104,438753296,0.3770,-0.5264,-1.0928,-216.83,36.46,-14.27
2105,438758650,0.3857,-0.5225,-1.0908,-215.91,40.61,-14.39
2106,438763296,0.4062,-0.4946,-1.1460,-214.70,44.63,-14.21
2107,438768624,0.4097,-0.4438,-1.1353,-212.93,48.35,-13.84
2108,438773347,0.3984,-0.4390,-1.1064,-210.91,52.07,-13.54
2109,438778700,0.4155,-0.4312,-1.1138,-208.54,55.67,-12.62
2110,438783296,0.4307,-0.3813,-1.1011,-205.61,58.72,-11.83
2111,438788295,0.4351,-0.3794,-1.0620,-202.44,61.89,-10.85
2112,438793296,0.4399,-0.3975,-1.0576,-199.33,64.70,-9.70
2113,438798344,0.4507,-0.3833,-1.0552,-195.91,67.26,-8.23
2114,438803313,0.4565,-0.3755,-1.0269,-192.20,69.70,-6.77
2115,438808374,0.4707,-0.3325,-1.0200,-188.78,71.77,-5.18
2116,438813747,0.4741,-0.3223,-0.9878,-185.24,73.78,-3.54
2117,438818296,0.4536,-0.3237,-0.9517,-182.38,75.55,-1.83
2118,438823296,0.4688,-0.2876,-0.9316,-180.06,77.20,-0.24
2119,438828296,0.5054,-0.3076,-0.9438,-177.44,78.48,1.52
2120,438833296,0.5239,-0.3315,-0.9185,-174.76,79.57,3.54
2121,438838295,0.5332,-0.3413,-0.8662,-172.26,80.55,5.55
2122,438843294,0.5347,-0.3691,-0.8301,-170.24,81.52,7.50
2123,438848294,0.5337,-0.3521,-0.8354,-168.78,82.38,9.63
2124,438853297,0.5449,-0.3281,-0.8501,-167.20,83.35,11.46
2125,438858294,0.5640,-0.3105,-0.8193,-165.67,84.33,13.48
2126,438863294,0.5811,-0.3047,-0.8091,-164.63,83.78,15.30
2127,438868294,0.5815,-0.3130,-0.8115,-163.60,85.61,17.32
2128,438873294,0.5811,-0.3110,-0.8008,-162.99,85.73,19.27
2129,438878294,0.5806,-0.3071,-0.7783,-162.44,85.73,21.28
2130,438883439,0.5854,-0.2954,-0.7686,-161.83,85.67,23.29
2131,438888296,0.6313,-0.2705,-0.7368,-161.34,85.98,25.24
2132,438893296,0.6421,-0.2549,-0.7471,-161.16,88.11,27.26
2133,438898295,0.6299,-0.2549,-0.7295,-160.98,88.29,29.33
2134,438903298,0.6211,-0.2520,-0.6934,-160.67,88.35,31.59
2135,438908309,0.6216,-0.2510,-0.6875,-160.24,88.29,33.72
2136,438913295,0.6416,-0.2451,-0.6768,-159.45,88.11,35.85
2137,438918296,0.6636,-0.2422,-0.6509,-158.48,87.26,38.41
2138,438923294,0.6797,-0.2305,-0.6147,-157.68,85.98,40.12
2139,438928297,0.6914,-0.2256,-0.6147,-156.71,85.49,42.26
2140,438933295,0.6919,-0.2236,-0.6118,-155.55,85.18,44.27
2141,438938294,0.6870,-0.2236,-0.5898,-154.27,85.30,46.34
2142,438943294,0.6895,-0.2227,-0.5771,-152.87,85.24,48.23
2143,438948294,0.6987,-0.2188,-0.5801,-151.40,82.93,50.30
2144,438953294,0.7080,-0.2139,-0.5713,-149.82,81.59,52.13
2145,438958296,0.7256,-0.2153,-0.5552,-147.93,79.57,54.27
2146,438963296,0.7393,-0.2075,-0.5571,-146.22,77.80,56.04
2147,438968296,0.7476,-0.2119,-0.5552,-144.33,76.04,57.80
2148,438973296,0.7573,-0.2051,-0.5527,-142.32,74.21,59.51
2149,438978296,0.7695,-0.1997,-0.5454,-140.24,72.38,61.22
2150,438983296,0.7725,-0.1909,-0.5391,-138.05,70.79,62.56
2151,438988296,0.7725,-0.1816,-0.5361,-135.67,69.27,64.02
2152,438993295,0.7554,-0.1797,-0.5400,-133.05,67.99,65.18
2153,438998296,0.7368,-0.1748,-0.5415,-130.37,67.01,66.40
2154,439003299,0.7310,-0.1699,-0.5366,-127.62,65.98,67.38
