# skilleye imu stream v1
# device=xiao_esp32c6 imu=mpu6050 addr=0x68
# rate_hz=200 accel_range_g=16 gyro_range_dps=2000 dlpf_hz=94
# units: accel in g, gyro in deg/s, t_us in microseconds since boot (monotonic)
# no shared clock with the camera -- tap the racket once before each take
# so both recordings share a spike to align on
seq,t_us,ax,ay,az,gx,gy,gz
0,66191621,-0.7866,0.3809,0.6460,-20.49,8.72,20.55
1,66196622,-0.7852,0.3784,0.6436,-19.45,8.78,20.85
2,66201622,-0.7837,0.3794,0.6450,-18.41,8.78,21.16
3,66206622,-0.7861,0.3823,0.6504,-17.07,8.66,21.40
4,66211964,-0.7852,0.3804,0.6455,-15.55,8.66,21.65
5,66216622,-0.7832,0.3828,0.6484,-14.39,8.72,21.77
6,66221622,-0.7793,0.3794,0.6431,-12.93,8.60,22.07
7,66226621,-0.7729,0.3789,0.6450,-11.28,8.78,22.26
8,66231622,-0.7661,0.3755,0.6460,-9.76,8.78,22.50
9,66236620,-0.7637,0.3789,0.6431,-8.29,8.84,22.68
10,66241622,-0.7622,0.3760,0.6450,-6.65,8.96,22.74
11,66246620,-0.7500,0.3765,0.6406,-5.24,8.78,22.99
12,66251620,-0.7471,0.3721,0.6411,-3.72,8.90,23.11
13,66256622,-0.7485,0.3750,0.6382,-2.44,8.90,23.17
14,66261622,-0.7427,0.3721,0.6387,-1.04,8.90,23.23
15,66266861,-0.7393,0.3711,0.6382,0.24,9.02,23.41
16,66271622,-0.7402,0.3706,0.6367,1.40,9.09,23.48
17,66276624,-0.7422,0.3682,0.6367,2.44,9.21,23.66
18,66281622,-0.7329,0.3677,0.6343,3.35,9.39,23.66
19,66286845,-0.7344,0.3696,0.6387,3.90,9.63,23.72
20,66291622,-0.7358,0.3672,0.6401,4.33,9.63,23.78
21,66296623,-0.7490,0.3672,0.6333,4.45,10.06,23.66
22,66301622,-0.7505,0.3687,0.6421,4.15,10.37,23.72
23,66306622,-0.7534,0.3726,0.6455,3.72,10.79,23.60
24,66311622,-0.7583,0.3735,0.6470,2.99,10.98,23.54
25,66316622,-0.7588,0.3687,0.6460,2.20,11.40,23.35
26,66321621,-0.7549,0.3696,0.6436,1.28,11.77,23.23
27,66326626,-0.7485,0.3750,0.6440,-0.24,12.38,23.05
28,66331622,-0.7456,0.3701,0.6436,-1.40,12.74,22.80
29,66336622,-0.7451,0.3706,0.6411,-2.99,13.11,22.68
30,66342074,-0.7456,0.3716,0.6416,-5.12,13.41,22.13
31,66346624,-0.7466,0.3740,0.6406,-6.71,13.72,21.95
32,66351941,-0.7441,0.3760,0.6353,-8.72,14.02,21.52
33,66356622,-0.7402,0.3745,0.6372,-10.85,14.21,21.22
34,66361622,-0.7446,0.3706,0.6343,-13.05,14.51,20.85
35,66366622,-0.7422,0.3755,0.6328,-15.91,14.88,20.24
36,66371622,-0.7417,0.3735,0.6333,-17.80,15.06,19.94
37,66376622,-0.7383,0.3745,0.6265,-20.61,15.30,19.27
38,66381622,-0.7402,0.3740,0.6318,-22.56,15.30,18.90
39,66386622,-0.7432,0.3760,0.6348,-25.67,15.67,18.17
40,66391622,-0.7422,0.3774,0.6318,-27.68,15.79,17.68
41,66396621,-0.7417,0.3774,0.6328,-30.18,16.10,17.20
42,66401620,-0.7388,0.3774,0.6372,-32.68,16.34,16.65
43,66406620,-0.7402,0.3779,0.6328,-35.06,16.52,16.04
44,66411620,-0.7422,0.3823,0.6396,-37.50,16.89,15.55
45,66416622,-0.7456,0.3813,0.6372,-39.94,17.26,15.12
46,66421621,-0.7490,0.3804,0.6353,-42.07,17.26,14.57
47,66426622,-0.7461,0.3784,0.6284,-44.09,17.68,14.09
48,66431621,-0.7451,0.3818,0.6313,-45.73,17.62,13.72
49,66436855,-0.7432,0.3813,0.6396,-47.20,17.87,13.35
50,66441622,-0.7466,0.3848,0.6392,-48.35,17.99,13.11
51,66446622,-0.7402,0.3823,0.6445,-49.21,18.11,12.80
52,66452029,-0.7456,0.3843,0.6357,-49.88,18.29,12.62
53,66456622,-0.7441,0.3818,0.6353,-50.18,18.29,12.50
54,66461622,-0.7476,0.3853,0.6353,-50.43,18.41,12.44
55,66467112,-0.7524,0.3882,0.6367,-50.30,18.41,12.38
56,66471622,-0.7524,0.3901,0.6323,-50.00,18.23,12.38
57,66476622,-0.7578,0.3887,0.6294,-49.51,18.11,12.32
58,66482023,-0.7583,0.3931,0.6323,-48.72,18.11,12.32
59,66486622,-0.7617,0.3882,0.6235,-47.93,17.74,12.50
60,66491745,-0.7598,0.3892,0.6270,-46.89,17.68,12.50
61,66496622,-0.7661,0.3877,0.6245,-45.79,17.50,12.68
62,66501623,-0.7627,0.3916,0.6187,-44.51,17.38,12.80
63,66506622,-0.7598,0.3901,0.6255,-43.23,17.20,12.87
64,66511622,-0.7544,0.3901,0.6187,-41.95,17.07,13.05
65,66517102,-0.7515,0.3921,0.6206,-40.12,16.89,13.23
66,66521622,-0.7549,0.3901,0.6177,-38.84,16.71,13.35
67,66526621,-0.7520,0.3877,0.6143,-37.32,16.52,13.41
68,66531622,-0.7500,0.3887,0.6133,-35.67,16.34,13.66
69,66536620,-0.7515,0.3877,0.6167,-34.02,16.34,13.84
70,66541622,-0.7500,0.3848,0.6094,-32.32,16.10,14.02
71,66546620,-0.7480,0.3853,0.6123,-30.67,15.91,14.33
72,66551620,-0.7520,0.3828,0.6133,-29.09,15.85,14.63
73,66556620,-0.7529,0.3809,0.6138,-27.56,15.61,14.94
74,66561620,-0.7480,0.3848,0.6108,-26.10,15.55,15.06
75,66566844,-0.7485,0.3843,0.6094,-24.76,15.55,15.37
76,66571622,-0.7505,0.3862,0.6069,-23.66,15.49,15.61
77,66576621,-0.7510,0.3853,0.6113,-22.56,15.43,15.79
78,66581910,-0.7480,0.3867,0.6133,-21.77,15.55,15.98
79,66586622,-0.7510,0.3857,0.6118,-20.85,15.73,16.16
80,66591622,-0.7534,0.3887,0.6182,-20.24,15.91,16.22
81,66596622,-0.7578,0.3921,0.6172,-19.57,16.22,16.40
82,66601622,-0.7598,0.3940,0.6265,-19.02,16.65,16.46
83,66606622,-0.7646,0.3936,0.6235,-18.66,17.01,16.34
84,66611622,-0.7661,0.3940,0.6289,-18.23,17.68,16.34
85,66616622,-0.7681,0.3989,0.6343,-17.93,18.29,16.28
86,66621622,-0.7744,0.4033,0.6401,-17.68,18.90,16.28
87,66626872,-0.7769,0.4087,0.6465,-17.44,19.51,16.28
88,66631622,-0.7852,0.4072,0.6533,-17.44,20.30,16.34
89,66636621,-0.7935,0.4043,0.6558,-17.32,21.04,16.34
90,66641863,-0.7988,0.4053,0.6592,-17.38,21.83,16.46
91,66646622,-0.8057,0.4116,0.6670,-17.50,22.20,16.65
92,66651622,-0.8140,0.4136,0.6724,-17.93,22.80,16.77
93,66656622,-0.8223,0.4160,0.6812,-18.66,23.29,16.95
94,66661626,-0.8291,0.4126,0.6772,-19.27,23.41,17.20
95,66666622,-0.8394,0.4175,0.6787,-19.94,23.48,17.68
96,66671622,-0.8418,0.4155,0.6812,-20.61,23.29,18.05
97,66677073,-0.8496,0.4165,0.6777,-21.28,23.23,18.60
98,66681622,-0.8472,0.4155,0.6792,-21.77,22.80,19.15
99,66686624,-0.8506,0.4116,0.6826,-22.26,22.32,19.88
100,66691622,-0.8491,0.4116,0.6831,-22.32,21.59,20.61
101,66696622,-0.8447,0.4067,0.6821,-22.20,20.79,21.59
102,66701622,-0.8438,0.4033,0.6841,-21.89,19.88,22.56
103,66706623,-0.8384,0.4028,0.6885,-21.10,18.84,23.60
104,66711621,-0.8398,0.4028,0.6846,-20.12,17.74,24.70
105,66716803,-0.8379,0.4033,0.6865,-18.84,16.52,25.85
106,66721622,-0.8418,0.3965,0.6875,-17.26,15.30,27.20
107,66726622,-0.8384,0.3960,0.6841,-15.43,14.09,28.29
108,66731621,-0.8325,0.3906,0.6807,-13.29,12.80,29.63
109,66736852,-0.8335,0.3838,0.6772,-10.91,11.34,31.10
110,66741622,-0.8320,0.3857,0.6846,-8.48,10.06,32.44
111,66746702,-0.8340,0.3838,0.6831,-5.85,8.60,33.90
112,66751621,-0.8335,0.3784,0.6816,-3.17,7.44,35.43
113,66756747,-0.8330,0.3789,0.6797,-0.43,6.04,36.77
114,66761622,-0.8301,0.3740,0.6816,2.20,4.76,38.11
115,66766622,-0.8301,0.3726,0.6777,4.82,3.60,39.45
116,66771622,-0.8330,0.3691,0.6812,7.32,2.68,40.55
117,66776622,-0.8291,0.3667,0.6880,9.57,1.59,41.65
118,66781622,-0.8257,0.3701,0.6875,11.34,0.91,42.56
119,66786622,-0.8232,0.3696,0.6880,12.93,0.18,43.35
120,66791622,-0.8208,0.3706,0.6870,14.27,-0.24,44.15
121,66796622,-0.8184,0.3740,0.6943,15.24,-0.67,44.70
122,66801622,-0.8135,0.3789,0.6982,15.91,-0.98,45.00
123,66806623,-0.8081,0.3867,0.7134,16.28,-1.10,45.37
124,66811622,-0.8062,0.3936,0.7119,16.28,-1.16,45.43
125,66816622,-0.8110,0.3950,0.7158,15.98,-1.16,45.24
126,66821833,-0.8057,0.3955,0.7168,15.43,-1.22,45.12
127,66826622,-0.8047,0.3989,0.7178,14.63,-1.10,44.82
128,66831622,-0.7983,0.4023,0.7163,13.60,-1.22,44.51
129,66836620,-0.7959,0.4023,0.7163,12.32,-1.22,43.96
130,66841620,-0.7915,0.4150,0.7163,10.73,-1.52,43.41
131,66846620,-0.7896,0.4136,0.7207,8.90,-2.01,42.93
132,66851620,-0.7876,0.4189,0.7202,7.01,-2.44,42.13
133,66856620,-0.7822,0.4209,0.7241,5.12,-2.93,41.46
134,66861685,-0.7871,0.4297,0.7188,3.35,-3.41,40.67
135,66866622,-0.7861,0.4321,0.7388,1.28,-4.09,39.88
136,66871622,-0.7896,0.4336,0.7300,-0.43,-4.82,39.09
137,66877033,-0.7881,0.4395,0.7285,-2.20,-5.49,38.23
138,66881622,-0.7886,0.4419,0.7383,-4.02,-6.28,37.44
139,66886622,-0.7905,0.4463,0.7388,-5.85,-7.20,36.77
140,66891622,-0.7920,0.4463,0.7456,-7.56,-8.05,35.98
141,66896622,-0.7915,0.4580,0.7520,-9.39,-8.96,35.43
142,66901622,-0.7983,0.4585,0.7588,-11.10,-9.88,34.82
143,66906622,-0.7910,0.4668,0.7651,-12.93,-10.67,34.45
144,66911623,-0.7954,0.4663,0.7749,-14.76,-11.59,34.09
145,66916621,-0.7900,0.4707,0.7710,-16.59,-12.74,33.84
146,66921851,-0.7856,0.4756,0.7817,-18.54,-13.72,33.60
147,66926622,-0.7876,0.4868,0.7881,-20.67,-14.76,33.35
148,66931623,-0.7856,0.4927,0.7773,-22.74,-16.04,33.11
149,66936622,-0.7856,0.5063,0.7939,-24.76,-17.32,32.99
150,66941623,-0.7856,0.5107,0.8032,-26.52,-18.72,32.80
151,66946941,-0.7886,0.5127,0.7993,-28.11,-20.00,32.74
152,66951622,-0.7905,0.5229,0.8062,-29.51,-21.46,32.62
153,66956622,-0.7876,0.5278,0.8101,-30.85,-22.87,32.56
154,66961622,-0.7856,0.5381,0.8154,-31.89,-24.51,32.56
155,66966622,-0.7847,0.5488,0.8228,-32.80,-26.10,32.56
156,66971622,-0.7837,0.5591,0.8291,-33.54,-27.68,32.56
157,66976621,-0.7827,0.5620,0.8389,-34.09,-29.39,32.74
158,66981821,-0.7803,0.5728,0.8545,-34.51,-30.91,32.99
159,66986622,-0.7822,0.5728,0.8623,-34.76,-32.44,33.29
160,66991622,-0.7744,0.5781,0.8589,-35.00,-34.09,33.48
161,66997065,-0.7681,0.5825,0.8716,-35.24,-35.73,33.96
162,67001622,-0.7676,0.5908,0.8745,-35.37,-37.38,34.51
163,67006622,-0.7627,0.5991,0.8701,-35.55,-39.09,35.12
164,67012111,-0.7617,0.6055,0.8784,-35.61,-40.85,35.91
165,67016686,-0.7627,0.6025,0.8779,-35.24,-42.62,36.77
166,67021622,-0.7593,0.6045,0.8911,-34.45,-44.45,37.87
167,67026622,-0.7642,0.6021,0.8916,-33.41,-46.16,38.96
168,67031622,-0.7656,0.6089,0.8940,-31.77,-47.99,40.30
169,67036841,-0.7734,0.6167,0.9053,-30.00,-49.63,41.46
170,67041622,-0.7764,0.6260,0.9102,-28.17,-51.28,42.74
171,67046621,-0.7798,0.6387,0.9097,-26.46,-52.93,43.78
172,67051780,-0.7749,0.6514,0.9082,-24.94,-54.45,44.70
173,67056622,-0.7715,0.6636,0.9106,-23.66,-55.98,45.73
174,67061622,-0.7588,0.6748,0.9102,-22.32,-57.44,46.65
175,67066622,-0.7437,0.6836,0.9102,-21.10,-58.84,47.44
176,67071622,-0.7344,0.6924,0.9141,-19.76,-60.18,48.23
177,67076622,-0.7275,0.6992,0.9111,-18.29,-61.40,49.02
178,67081622,-0.7109,0.7026,0.9126,-16.71,-62.62,49.76
179,67086622,-0.6973,0.7095,0.9136,-14.88,-63.84,50.55
180,67091622,-0.6797,0.7163,0.9072,-12.74,-64.94,51.34
181,67096622,-0.6611,0.7148,0.9072,-10.43,-65.98,52.13
182,67101626,-0.6421,0.7246,0.8999,-7.80,-67.07,52.87
183,67106622,-0.6274,0.7217,0.8975,-4.82,-68.17,53.78
184,67111622,-0.6133,0.7256,0.8965,-1.52,-69.27,54.76
185,67116624,-0.5991,0.7280,0.8921,2.26,-70.43,55.73
186,67121622,-0.5850,0.7285,0.8857,6.34,-71.59,56.83
187,67126856,-0.5762,0.7334,0.8857,10.73,-72.87,58.05
188,67131621,-0.5693,0.7373,0.8867,15.55,-74.09,59.27
189,67136622,-0.5620,0.7437,0.8867,20.61,-75.55,60.73
190,67141620,-0.5576,0.7471,0.8799,25.61,-76.89,62.01
191,67146620,-0.5513,0.7578,0.8779,30.79,-78.29,63.35
192,67151620,-0.5498,0.7646,0.8813,36.04,-79.45,64.76
193,67156620,-0.5464,0.7700,0.8809,40.91,-80.61,66.10
194,67161900,-0.5469,0.7793,0.8809,45.49,-81.89,67.32
195,67166621,-0.5430,0.7915,0.8784,49.63,-82.99,68.60
196,67171622,-0.5435,0.8008,0.8755,53.23,-84.09,69.82
197,67177069,-0.5449,0.8154,0.8691,56.22,-85.18,70.85
198,67181622,-0.5474,0.8257,0.8760,58.78,-86.16,71.89
199,67186623,-0.5508,0.8394,0.8730,60.79,-87.13,72.68
200,67191622,-0.5557,0.8472,0.8687,62.50,-88.17,73.72
201,67196625,-0.5581,0.8628,0.8770,63.84,-88.96,74.57
202,67201622,-0.5640,0.8740,0.8750,65.00,-89.94,75.30
203,67206622,-0.5659,0.8916,0.8784,65.91,-90.91,75.91
204,67211622,-0.5732,0.9033,0.8833,66.46,-92.07,76.65
205,67216622,-0.5605,0.9185,0.8799,67.20,-92.80,77.20
206,67221622,-0.5815,0.9224,0.8682,67.68,-93.96,77.87
207,67226622,-0.5869,0.9287,0.8628,68.17,-94.76,78.48
208,67231622,-0.5825,0.9385,0.8638,68.66,-95.85,79.33
209,67236622,-0.5776,0.9390,0.8574,69.27,-96.95,80.12
210,67241622,-0.5649,0.9453,0.8462,70.00,-97.87,80.79
211,67246622,-0.5630,0.9517,0.8462,70.85,-98.84,81.65
212,67251620,-0.5581,0.9570,0.8354,71.77,-99.88,82.50
213,67256799,-0.5576,0.9565,0.8354,72.56,-100.85,83.35
214,67261622,-0.5498,0.9570,0.8184,73.54,-101.95,84.33
215,67266622,-0.5391,0.9517,0.8130,74.82,-103.05,85.49
216,67271622,-0.5298,0.9448,0.8052,76.40,-104.21,85.85
217,67276622,-0.5254,0.9390,0.7949,78.17,-105.37,86.83
218,67281622,-0.5171,0.9277,0.7749,80.00,-106.40,88.05
219,67286925,-0.5098,0.9263,0.7734,82.01,-107.56,89.63
220,67291622,-0.5010,0.9243,0.7627,83.96,-108.54,91.10
221,67296622,-0.4897,0.9185,0.7427,85.85,-109.51,92.20
222,67301624,-0.4761,0.9023,0.7290,87.56,-110.24,93.35
223,67306621,-0.4673,0.8877,0.7222,89.33,-110.98,94.63
224,67311808,-0.4517,0.8706,0.7007,91.16,-111.40,95.98
225,67316622,-0.4380,0.8550,0.6963,93.23,-111.71,97.20
226,67321626,-0.4214,0.8438,0.6802,95.18,-111.77,98.48
227,67326622,-0.4077,0.8320,0.6689,97.26,-111.65,99.76
228,67331622,-0.3843,0.8140,0.6543,99.09,-111.28,100.73
229,67336622,-0.3428,0.7949,0.6270,100.91,-110.49,101.77
230,67341622,-0.3296,0.7822,0.6226,102.32,-109.70,102.68
231,67346621,-0.2988,0.7578,0.6030,103.54,-108.66,103.48
232,67351622,-0.2788,0.7402,0.5879,104.45,-107.56,104.21
233,67356622,-0.2734,0.7202,0.5786,105.06,-106.16,104.70
234,67361622,-0.2671,0.6875,0.5601,105.49,-104.27,105.55
235,67366622,-0.2397,0.6665,0.5366,106.04,-102.74,106.10
236,67371622,-0.2080,0.6484,0.5225,106.34,-100.98,106.77
237,67376621,-0.1919,0.6279,0.5054,106.59,-99.15,107.32
238,67381997,-0.1797,0.6099,0.4966,106.77,-97.13,107.99
239,67386622,-0.1792,0.5918,0.4858,106.59,-95.24,108.41
240,67391622,-0.1758,0.5835,0.4780,106.10,-93.23,108.96
241,67397015,-0.1743,0.5786,0.4707,105.49,-91.16,109.15
242,67401622,-0.1743,0.5747,0.4658,104.70,-89.27,109.39
243,67406622,-0.1572,0.5674,0.4585,103.41,-86.40,109.21
244,67412054,-0.1479,0.5684,0.4502,102.26,-83.90,108.72
245,67416622,-0.1294,0.5454,0.4551,101.10,-81.77,108.23
246,67421623,-0.1094,0.5591,0.4619,99.45,-78.54,107.38
247,67426622,-0.0947,0.5645,0.4663,97.56,-75.67,105.98
248,67431622,-0.0825,0.5635,0.4692,95.67,-72.93,104.57
249,67436621,-0.0752,0.5054,0.4424,92.99,-69.63,102.80
250,67441620,-0.0688,0.4619,0.4634,90.43,-66.40,101.28
251,67446622,-0.0596,0.4688,0.4395,88.29,-63.23,100.18
252,67451620,-0.0566,0.4766,0.4341,85.98,-59.94,98.66
253,67456621,-0.0347,0.4551,0.4785,83.48,-56.46,97.13
254,67461622,-0.0215,0.4355,0.4785,79.94,-52.38,95.30
255,67466860,-0.0088,0.4136,0.4668,76.71,-48.96,93.90
256,67471622,-0.0005,0.4014,0.4360,73.84,-46.59,92.93
257,67476622,0.0098,0.4204,0.4697,70.00,-43.54,91.46
258,67481622,0.0249,0.4170,0.4775,64.70,-40.00,89.82
259,67486622,0.0356,0.4438,0.4473,60.73,-37.80,87.80
260,67491622,0.0615,0.4629,0.5601,54.63,-35.43,86.04
261,67497063,0.0767,0.4717,0.5469,45.61,-32.50,84.21
262,67501623,0.0703,0.4976,0.5391,39.39,-29.94,82.56
263,67506621,0.0688,0.5161,0.3867,30.98,-28.90,80.24
264,67511622,0.0625,0.5908,0.5293,22.01,-27.50,77.80
265,67516622,0.0405,0.6143,0.6182,11.10,-25.24,74.33
266,67521622,0.0562,0.5693,0.5454,3.96,-23.23,72.38
267,67526662,0.0723,0.5825,0.4961,-5.98,-21.65,69.76
268,67531622,0.0698,0.5972,0.5928,-12.62,-21.10,67.87
269,67536621,0.0718,0.6216,0.6987,-20.49,-18.60,65.91
270,67541622,0.0894,0.6152,0.5586,-28.54,-17.13,63.78
271,67546620,0.1040,0.6187,0.4951,-35.67,-16.59,62.13
272,67551757,0.1123,0.6328,0.5566,-43.35,-15.43,60.30
273,67556622,0.1099,0.6426,0.7051,-48.17,-13.90,59.21
274,67561621,0.1294,0.6543,0.6260,-54.15,-12.56,57.93
275,67566909,0.1392,0.6729,0.5942,-61.46,-11.40,56.28
276,67571622,0.1504,0.6831,0.7061,-66.28,-10.61,55.30
277,67576622,0.1602,0.6611,0.7290,-72.93,-9.27,54.02
278,67581622,0.1680,0.6553,0.6123,-76.83,-8.54,53.48
279,67586622,0.1709,0.6523,0.6045,-81.40,-7.74,52.68
280,67591622,0.1704,0.6484,0.7114,-83.66,-6.83,52.20
281,67596622,0.1982,0.6274,0.7461,-85.67,-5.18,51.83
282,67601622,0.2163,0.6074,0.6567,-86.10,-4.27,51.89
283,67606622,0.2300,0.5845,0.7065,-85.79,-3.41,52.07
284,67611993,0.2432,0.5679,0.7622,-84.27,-1.95,52.80
285,67616622,0.2451,0.5483,0.7949,-82.68,-0.55,53.29
286,67621622,0.2593,0.5356,0.7905,-80.12,0.73,54.33
287,67626622,0.2661,0.5474,0.8115,-78.35,1.28,55.18
288,67631622,0.2646,0.5688,0.8447,-76.52,2.44,56.04
289,67636621,0.2490,0.6216,0.7891,-74.94,3.11,56.52
290,67641833,0.2334,0.6880,0.7227,-73.29,3.41,56.46
291,67646622,0.2031,0.7300,0.7153,-72.50,3.23,56.28
292,67651622,0.1587,0.7075,0.7637,-71.71,3.41,55.98
293,67656621,0.1709,0.7480,0.7080,-70.55,3.72,55.73
294,67661865,0.1528,0.7739,0.6812,-68.72,3.48,55.18
295,67666622,0.1489,0.7739,0.6875,-67.26,3.48,54.76
296,67671622,0.1738,0.7959,0.7368,-65.12,4.02,54.39
297,67676624,0.2075,0.8232,0.7744,-62.99,4.33,53.96
298,67681621,0.2441,0.7930,0.7681,-60.91,4.45,53.90
299,67686622,0.2788,0.7466,0.7607,-58.60,4.39,53.90
300,67691621,0.3101,0.7344,0.7827,-56.52,4.51,54.02
301,67696622,0.3320,0.7334,0.7852,-54.63,5.00,53.90
302,67701970,0.3481,0.7422,0.8232,-52.80,5.12,53.48
303,67706622,0.3613,0.7466,0.8569,-51.83,5.30,53.35
304,67711622,0.3774,0.7515,0.8950,-50.61,5.49,52.93
305,67717118,0.3979,0.7588,0.9141,-49.02,5.43,52.44
306,67721622,0.3965,0.7666,0.9219,-47.99,5.00,52.26
307,67726623,0.4038,0.7588,0.9375,-47.26,4.39,51.95
308,67731708,0.4019,0.7529,0.9268,-46.71,3.48,51.59
309,67736621,0.3799,0.7388,0.9360,-46.59,2.50,51.46
310,67741620,0.3711,0.7173,0.9399,-46.71,1.34,51.52
311,67746620,0.3706,0.7041,0.9321,-47.20,0.06,51.71
312,67751620,0.3745,0.6948,0.9185,-47.80,-1.52,51.77
313,67756888,0.3784,0.6831,0.9365,-48.78,-3.48,52.01
314,67761624,0.3906,0.6748,0.9551,-49.33,-4.76,52.13
315,67766621,0.4014,0.6670,0.9521,-49.94,-6.40,52.32
316,67771878,0.4092,0.6562,0.9751,-50.55,-8.60,52.74
317,67776622,0.4062,0.6519,0.9775,-50.55,-10.00,52.99
318,67781622,0.4058,0.6362,0.9858,-50.37,-11.83,53.29
319,67786622,0.4067,0.6221,0.9976,-49.76,-13.84,53.66
320,67792085,0.4102,0.6113,0.9946,-48.48,-15.98,54.15
321,67796622,0.4082,0.6152,1.0034,-47.38,-17.32,54.45
322,67801838,0.4077,0.6113,1.0078,-45.73,-18.84,54.70
323,67806622,0.4111,0.6055,1.0015,-43.84,-20.24,54.82
324,67811622,0.4116,0.5947,1.0029,-41.16,-21.83,55.06
325,67816622,0.4155,0.5884,1.0132,-39.15,-22.68,55.06
326,67821805,0.4170,0.5835,1.0010,-36.34,-23.66,55.12
327,67826622,0.4067,0.5806,0.9941,-33.66,-24.27,55.30
328,67831623,0.3979,0.5762,0.9897,-31.10,-25.00,55.24
329,67836621,0.3916,0.5732,0.9775,-28.54,-25.85,55.06
330,67841622,0.3887,0.5684,0.9639,-27.01,-26.46,55.06
331,67846622,0.3896,0.5615,0.9507,-25.43,-27.20,55.00
332,67851622,0.3926,0.5513,0.9404,-24.02,-27.80,55.00
333,67856622,0.3936,0.5527,0.9302,-22.68,-28.29,55.12
334,67861622,0.3921,0.5454,0.9194,-21.77,-28.84,55.06
335,67866622,0.3931,0.5376,0.9097,-21.10,-29.45,55.18
336,67871622,0.3936,0.5312,0.8892,-20.61,-29.82,55.00
337,67876622,0.3999,0.5308,0.8740,-19.88,-30.30,54.94
338,67881622,0.4023,0.5249,0.8599,-19.70,-30.37,54.94
339,67886622,0.4053,0.5234,0.8521,-19.33,-30.61,54.82
340,67892069,0.4106,0.5225,0.8325,-18.84,-30.85,54.76
341,67896622,0.4126,0.5278,0.8291,-18.48,-30.79,54.63
342,67901622,0.4062,0.5225,0.8135,-18.41,-30.61,54.51
343,67906622,0.4072,0.5107,0.7925,-18.29,-30.43,54.39
344,67912039,0.3989,0.5020,0.7700,-18.60,-30.06,54.27
345,67916622,0.3975,0.4932,0.7588,-18.84,-29.76,54.21
346,67921622,0.3965,0.4771,0.7441,-18.96,-29.39,54.09
347,67927052,0.3921,0.4683,0.7314,-19.33,-28.66,54.02
348,67931622,0.3984,0.4595,0.7188,-19.27,-28.17,53.90
349,67936622,0.4043,0.4575,0.7065,-19.02,-27.44,53.72
350,67941621,0.4106,0.4561,0.6948,-18.35,-26.59,53.54
351,67946972,0.4175,0.4517,0.6846,-17.32,-25.49,53.17
352,67951622,0.4170,0.4438,0.6729,-16.46,-24.82,52.87
353,67956622,0.4136,0.4341,0.6597,-15.30,-23.54,52.62
354,67961622,0.4082,0.4253,0.6416,-13.78,-22.44,52.44
355,67966622,0.4004,0.4160,0.6289,-12.38,-21.16,52.13
356,67971708,0.3530,0.4155,0.6016,-10.79,-19.63,51.77
357,67976622,0.3799,0.4126,0.5781,-9.09,-18.41,51.52
358,67981622,0.4009,0.3989,0.5840,-7.32,-16.77,51.16
359,67987105,0.4219,0.3857,0.5894,-5.30,-14.76,50.49
360,67991622,0.4141,0.3789,0.5713,-3.90,-13.29,50.00
361,67996622,0.3892,0.4355,0.5034,-2.38,-11.40,49.15
362,68002104,0.3955,0.4097,0.5479,-1.16,-9.09,47.44
363,68006622,0.3955,0.4146,0.5557,-0.37,-7.13,46.40
364,68011622,0.4058,0.4082,0.5361,0.49,-4.76,44.82
365,68016622,0.4268,0.3745,0.5356,1.10,-2.44,43.41
366,68022004,0.4141,0.3862,0.5352,0.85,0.67,41.40
367,68026622,0.4268,0.3682,0.5610,0.61,2.87,40.18
368,68031622,0.4487,0.3618,0.5596,-0.24,5.67,38.29
369,68036623,0.4702,0.3696,0.5601,-1.10,8.41,36.59
370,68041621,0.4482,0.3921,0.5654,-2.20,10.98,34.45
371,68046620,0.4756,0.3794,0.5688,-3.54,13.35,32.50
372,68051620,0.5127,0.3726,0.5669,-4.70,15.55,30.61
373,68056620,0.5420,0.3652,0.5835,-5.55,17.62,28.66
374,68061620,0.5513,0.3745,0.6128,-6.16,19.63,26.83
375,68066622,0.5518,0.3672,0.6250,-6.71,21.59,24.94
376,68071622,0.5396,0.3628,0.6147,-7.44,23.35,22.99
377,68076622,0.5342,0.3560,0.6191,-8.66,25.30,20.61
378,68081622,0.5371,0.3486,0.6353,-9.70,26.34,19.02
379,68086648,0.5376,0.3428,0.6450,-11.16,27.62,17.07
380,68091622,0.5386,0.3359,0.6411,-12.68,28.60,15.06
381,68096622,0.5264,0.3345,0.6406,-14.02,29.21,13.11
382,68101620,0.5190,0.3389,0.6396,-15.30,29.76,11.10
383,68106752,0.5122,0.3472,0.6284,-16.28,30.18,9.21
384,68111622,0.5034,0.3730,0.6240,-16.77,30.18,7.38
385,68116624,0.5044,0.3828,0.6250,-16.52,30.12,5.37
386,68121981,0.5039,0.3999,0.6558,-15.37,30.18,3.72
387,68126622,0.5068,0.4233,0.6743,-12.99,29.88,2.01
388,68131622,0.5068,0.4463,0.6758,-9.94,29.70,0.61
389,68136624,0.5107,0.4644,0.6904,-6.52,29.21,-0.79
390,68141621,0.5063,0.4814,0.6982,-2.50,28.60,-1.95
391,68146622,0.4995,0.4990,0.6899,1.34,27.62,-3.17
392,68152105,0.5083,0.4844,0.6938,5.61,26.22,-4.51
393,68156622,0.5073,0.4824,0.7017,8.35,25.24,-5.30
394,68161622,0.5078,0.4897,0.6924,11.46,23.96,-6.16
395,68166622,0.5083,0.4907,0.6934,14.21,22.44,-7.13
396,68172071,0.5083,0.4878,0.7021,16.65,20.73,-8.41
397,68176622,0.5098,0.4800,0.7002,17.87,19.63,-9.21
398,68181622,0.5078,0.4805,0.6934,19.27,17.74,-10.30
399,68186623,0.5132,0.4824,0.6875,19.88,16.46,-11.10
400,68191622,0.5112,0.4873,0.6885,20.30,14.94,-12.26
401,68197025,0.5098,0.4941,0.6841,20.43,13.23,-13.35
402,68201622,0.5171,0.4976,0.6846,20.43,11.46,-14.51
403,68206622,0.5220,0.5020,0.6851,20.49,9.88,-15.73
404,68211621,0.5269,0.5083,0.6904,20.73,8.29,-17.07
405,68216624,0.5303,0.5190,0.6973,21.10,6.77,-18.41
406,68221622,0.5317,0.5200,0.6973,21.83,5.12,-19.76
407,68227095,0.5405,0.5195,0.7007,22.99,3.54,-21.10
408,68231622,0.5444,0.5137,0.7114,24.63,2.01,-22.32
409,68236620,0.5479,0.5122,0.7129,27.01,0.61,-23.48
410,68241626,0.5542,0.5151,0.7178,30.43,-1.16,-24.82
411,68246622,0.5532,0.5195,0.7104,33.05,-2.20,-25.55
412,68251758,0.5508,0.5234,0.7119,36.95,-3.66,-26.59
413,68256622,0.5493,0.5259,0.7051,40.98,-5.12,-27.50
414,68261622,0.5449,0.5259,0.7021,45.49,-6.52,-28.35
415,68266950,0.5347,0.5254,0.7109,50.30,-7.74,-29.09
416,68271622,0.5278,0.5220,0.7031,55.18,-8.96,-29.88
417,68276624,0.5322,0.5132,0.7183,60.12,-9.94,-30.43
418,68281622,0.5386,0.5112,0.6938,64.82,-10.91,-31.10
419,68286994,0.5352,0.5254,0.7002,69.33,-11.83,-31.77
420,68291622,0.5317,0.5269,0.7065,73.48,-12.68,-32.50
421,68296622,0.5327,0.5352,0.6904,77.44,-13.35,-33.23
422,68301622,0.5356,0.5352,0.6846,80.85,-14.39,-34.02
423,68306622,0.5420,0.5371,0.6934,83.96,-15.12,-34.94
424,68311622,0.5596,0.5259,0.6777,86.52,-15.91,-35.67
425,68316624,0.5576,0.5479,0.6865,88.72,-16.89,-36.52
426,68321720,0.5596,0.5645,0.6899,90.49,-17.50,-37.38
427,68326622,0.5635,0.5796,0.6812,92.07,-18.23,-38.17
428,68331622,0.5640,0.5830,0.6899,93.41,-18.90,-38.84
429,68336621,0.5684,0.5884,0.6982,94.27,-19.51,-39.57
430,68341621,0.5903,0.5830,0.6836,94.39,-20.12,-40.24
431,68346620,0.5879,0.5933,0.6719,93.60,-20.67,-40.85
432,68351624,0.5898,0.6074,0.6597,92.07,-21.40,-41.34
433,68356621,0.5869,0.6255,0.6543,89.39,-22.01,-41.95
434,68361626,0.5781,0.6479,0.6475,85.67,-22.62,-42.62
435,68366621,0.5737,0.6519,0.6270,81.22,-23.17,-43.23
436,68371622,0.5620,0.6592,0.6172,76.22,-23.72,-43.66
437,68376678,0.5781,0.6621,0.6440,70.91,-24.21,-44.21
438,68381621,0.5845,0.6704,0.6274,65.37,-24.33,-44.57
439,68386622,0.5879,0.6567,0.6182,59.94,-24.57,-44.76
440,68391622,0.5962,0.6685,0.6416,54.39,-24.82,-45.00
441,68396622,0.5835,0.6899,0.6494,49.15,-24.63,-45.24
442,68401622,0.5522,0.7100,0.6167,44.88,-24.63,-45.43
443,68407079,0.5117,0.7241,0.6582,43.17,-25.12,-45.73
444,68411622,0.6030,0.6885,0.7651,42.07,-24.39,-45.79
445,68416622,0.6455,0.7168,0.7261,41.52,-23.11,-45.30
446,68421622,0.6562,0.7515,0.7285,41.59,-22.32,-44.88
447,68426622,0.6382,0.7500,0.6836,42.26,-21.83,-44.76
448,68431622,0.5659,0.7603,0.6567,44.21,-21.71,-44.39
449,68436622,0.6021,0.7759,0.8569,47.26,-20.73,-44.02
450,68441622,0.6675,0.7925,0.8457,49.39,-19.02,-43.60
451,68446623,0.6914,0.8154,0.7646,50.67,-17.62,-43.05
452,68451622,0.6655,0.8369,0.7686,51.34,-16.77,-42.44
453,68456622,0.6387,0.8569,0.7725,51.59,-16.40,-41.59
454,68461891,0.6348,0.8525,0.7593,51.59,-16.22,-40.73
455,68466622,0.6318,0.8745,0.7642,50.98,-16.34,-39.70
456,68471627,0.6167,0.8828,0.7729,50.06,-16.22,-38.78
457,68476621,0.6123,0.9019,0.7710,48.84,-16.04,-37.68
458,68481622,0.6147,0.9253,0.7646,47.13,-15.91,-36.40
459,68487042,0.6162,0.9365,0.7773,45.00,-16.16,-35.18
460,68491622,0.6147,0.9424,0.8018,42.32,-16.10,-33.84
461,68496622,0.6069,0.9453,0.7998,39.51,-16.34,-32.38
462,68502116,0.6025,0.9487,0.8169,36.04,-16.40,-30.98
463,68506622,0.6035,0.9463,0.8281,32.38,-16.71,-29.45
464,68511622,0.5952,0.9585,0.8340,28.29,-17.01,-27.99
465,68517085,0.5874,0.9604,0.8423,23.90,-17.56,-26.34
466,68521622,0.5815,0.9590,0.8555,19.21,-18.41,-24.70
467,68526622,0.5757,0.9556,0.8608,14.15,-19.27,-22.99
468,68532116,0.5649,0.9497,0.8677,8.60,-20.43,-21.22
469,68536622,0.5557,0.9482,0.8540,2.68,-21.40,-19.45
470,68541622,0.5454,0.9409,0.8584,-3.54,-22.62,-17.62
471,68546623,0.5430,0.9312,0.8564,-9.76,-23.96,-15.85
472,68551622,0.5410,0.9248,0.8530,-16.04,-25.18,-14.09
473,68556622,0.5347,0.9258,0.8525,-22.13,-26.52,-12.32
474,68561622,0.5249,0.9248,0.8477,-27.80,-27.93,-10.73
475,68566622,0.5142,0.9219,0.8418,-33.05,-29.39,-9.09
476,68571623,0.5142,0.9170,0.8369,-37.56,-30.73,-7.38
477,68576622,0.5151,0.9102,0.8345,-41.28,-32.44,-5.79
478,68581622,0.5078,0.9023,0.8394,-43.90,-34.21,-3.96
479,68586622,0.5078,0.8843,0.8364,-45.67,-35.73,-2.26
480,68592016,0.5000,0.8765,0.8340,-46.65,-37.50,-0.43
481,68596622,0.4951,0.8672,0.8369,-46.83,-39.09,1.46
482,68601622,0.4858,0.8540,0.8418,-46.40,-40.98,3.23
483,68606658,0.4834,0.8438,0.8433,-45.30,-42.62,5.00
484,68611622,0.4766,0.8335,0.8496,-43.78,-44.27,6.65
485,68616622,0.4736,0.8237,0.8447,-42.01,-46.16,8.11
486,68622091,0.4692,0.8081,0.8462,-40.12,-47.93,9.51
487,68626622,0.4614,0.8018,0.8462,-38.11,-49.39,10.79
488,68631622,0.4639,0.7866,0.8457,-36.28,-50.98,11.89
489,68636621,0.4619,0.7827,0.8311,-34.82,-52.50,12.93
490,68641623,0.4600,0.7754,0.8320,-33.72,-54.09,13.54
491,68646621,0.4629,0.7695,0.8193,-32.99,-55.55,14.09
492,68651621,0.4644,0.7632,0.8018,-32.62,-57.07,14.51
493,68656620,0.4668,0.7563,0.7915,-32.74,-58.66,14.70
494,68661620,0.4648,0.7505,0.7817,-33.17,-60.12,14.82
495,68666904,0.4663,0.7402,0.7710,-33.90,-61.46,14.82
496,68671622,0.4629,0.7295,0.7612,-34.88,-62.74,14.70
497,68676621,0.4653,0.7202,0.7520,-35.85,-64.09,14.51
498,68681622,0.4634,0.7104,0.7544,-37.20,-65.37,14.27
499,68687087,0.4658,0.7041,0.7524,-38.41,-66.46,13.96
500,68691622,0.4712,0.6934,0.7559,-39.82,-67.20,13.41
501,68696622,0.4736,0.6836,0.7510,-41.34,-68.17,12.74
502,68702033,0.4780,0.6802,0.7515,-42.80,-68.96,12.01
503,68706622,0.4795,0.6699,0.7529,-44.15,-69.45,11.22
504,68711622,0.4858,0.6646,0.7476,-45.24,-70.12,10.43
505,68717038,0.4849,0.6616,0.7476,-46.16,-70.37,9.63
506,68721622,0.4863,0.6626,0.7437,-46.65,-70.73,8.84
507,68726622,0.4941,0.6670,0.7344,-47.01,-70.91,7.93
508,68731622,0.5015,0.6719,0.7217,-46.89,-71.04,7.20
509,68736622,0.5063,0.6743,0.7202,-46.71,-71.04,6.40
510,68741622,0.5122,0.6772,0.7080,-46.16,-71.04,5.61
511,68746622,0.5088,0.6753,0.7012,-45.43,-70.91,5.06
512,68752018,0.5078,0.6851,0.6934,-44.70,-70.67,4.51
513,68756622,0.5137,0.6748,0.6919,-43.66,-70.30,4.09
514,68761622,0.5156,0.6729,0.6792,-42.62,-70.18,3.78
515,68766622,0.5171,0.6709,0.6733,-41.28,-69.76,3.66
516,68771622,0.5112,0.6787,0.6685,-40.06,-69.70,3.60
517,68776621,0.5132,0.6812,0.6631,-38.35,-69.33,3.54
518,68781622,0.5107,0.6880,0.6675,-36.71,-69.15,3.54
519,68786621,0.5117,0.6934,0.6719,-35.06,-68.72,3.60
520,68791753,0.5137,0.6978,0.6694,-33.29,-68.35,3.48
521,68796622,0.5146,0.7080,0.6670,-31.83,-67.80,3.48
522,68801622,0.5190,0.7104,0.6699,-30.61,-67.38,3.35
523,68807099,0.5181,0.7109,0.6714,-29.57,-66.83,3.29
524,68811622,0.5166,0.7139,0.6729,-28.96,-66.16,3.23
525,68816622,0.5195,0.7085,0.6748,-28.84,-65.73,3.29
526,68821622,0.5122,0.7183,0.6670,-29.15,-65.24,3.29
527,68826622,0.5078,0.7188,0.6616,-29.82,-64.63,3.23
528,68831622,0.5039,0.7178,0.6636,-30.85,-64.45,3.41
529,68836622,0.4932,0.7168,0.6621,-32.32,-64.02,3.66
530,68842039,0.4893,0.7114,0.6562,-34.15,-63.90,3.90
531,68846622,0.4819,0.7002,0.6572,-35.91,-63.78,4.33
532,68851622,0.4756,0.6943,0.6519,-37.93,-63.66,4.76
533,68856623,0.4722,0.6885,0.6587,-39.94,-63.54,5.37
534,68861622,0.4722,0.6855,0.6533,-41.95,-63.60,6.04
535,68866622,0.4722,0.6807,0.6494,-43.78,-63.54,6.77
536,68872042,0.4629,0.6719,0.6411,-45.55,-63.66,7.38
537,68876622,0.4624,0.6689,0.6484,-47.07,-63.78,8.23
538,68881621,0.4546,0.6597,0.6465,-48.35,-63.96,9.09
539,68886622,0.4429,0.6558,0.6416,-49.45,-64.15,10.06
540,68891622,0.4297,0.6450,0.6387,-50.00,-64.57,10.98
541,68896622,0.4248,0.6431,0.6323,-50.30,-65.06,12.13
542,68901622,0.4194,0.6387,0.6226,-50.37,-65.73,13.23
543,68906622,0.4204,0.6348,0.6157,-50.18,-66.34,14.33
544,68912109,0.4214,0.6294,0.6084,-49.94,-67.13,15.37
545,68916622,0.4185,0.6230,0.6016,-49.57,-67.68,16.28
546,68922102,0.4170,0.6108,0.6001,-49.45,-68.48,17.07
547,68926622,0.4111,0.5986,0.5854,-49.39,-69.21,17.87
548,68931622,0.4106,0.5913,0.5771,-49.39,-69.94,18.54
549,68936621,0.4121,0.5757,0.5708,-49.63,-70.73,19.09
550,68941620,0.4062,0.5698,0.5659,-50.12,-71.46,19.51
551,68946620,0.4023,0.5576,0.5464,-50.73,-72.20,19.82
552,68951620,0.3950,0.5415,0.5327,-51.34,-73.11,19.94
553,68956621,0.3867,0.5293,0.5249,-52.07,-74.15,20.18
554,68961620,0.3799,0.5151,0.5049,-52.62,-75.06,20.12
555,68966622,0.3799,0.5073,0.5010,-53.11,-76.22,20.06
556,68971621,0.3813,0.4927,0.4756,-53.60,-77.13,20.00
557,68976620,0.3813,0.4863,0.4575,-53.72,-78.23,19.82
558,68981620,0.3818,0.4814,0.4463,-53.90,-79.39,19.33
559,68986622,0.3848,0.4692,0.4258,-53.54,-80.49,18.96
560,68991621,0.3843,0.4648,0.4072,-53.05,-81.77,18.29
561,68996828,0.3857,0.4556,0.3926,-52.07,-82.80,17.62
562,69001622,0.3955,0.4556,0.3745,-50.91,-84.02,16.77
563,69006622,0.3965,0.4507,0.3594,-49.39,-85.24,15.85
564,69012053,0.3931,0.4482,0.3354,-47.62,-86.52,14.70
565,69016622,0.3872,0.4429,0.3301,-46.04,-87.50,13.66
566,69021622,0.3921,0.4341,0.3086,-43.48,-89.09,11.95
567,69026622,0.3979,0.4282,0.2842,-41.40,-90.49,10.30
568,69031622,0.3945,0.4194,0.2651,-39.15,-91.83,8.54
569,69037107,0.3945,0.4126,0.2432,-36.95,-93.17,6.77
570,69041622,0.3979,0.4194,0.2197,-35.06,-93.90,5.00
571,69046622,0.4033,0.4209,0.1943,-32.26,-95.49,2.26
572,69052094,0.4082,0.4233,0.1787,-29.88,-96.77,-0.12
573,69056622,0.4106,0.4229,0.1606,-27.93,-97.74,-2.32
574,69061623,0.4165,0.4243,0.1289,-24.39,-99.02,-5.73
575,69066622,0.4292,0.4209,0.1128,-22.13,-100.06,-7.99
576,69071750,0.4541,0.4321,0.0874,-18.48,-101.34,-11.65
577,69076622,0.4717,0.4390,0.0801,-15.73,-102.20,-14.27
578,69081622,0.4858,0.4487,0.0425,-12.62,-103.17,-17.68
579,69086621,0.4863,0.4604,0.0132,-9.63,-104.33,-20.98
580,69091622,0.5005,0.4648,-0.0098,-6.28,-105.49,-25.43
581,69096622,0.4971,0.4653,-0.0181,-4.27,-106.22,-28.35
582,69101622,0.4736,0.4844,-0.0454,-0.24,-106.89,-32.68
583,69106622,0.5234,0.4912,-0.0776,2.68,-107.20,-35.55
584,69111622,0.5596,0.4976,-0.1187,6.77,-107.93,-40.18
585,69116624,0.5586,0.5122,-0.1499,9.21,-108.41,-43.17
586,69121622,0.5625,0.5215,-0.1733,12.01,-108.96,-47.20
587,69126622,0.5654,0.5396,-0.2075,15.00,-109.21,-52.07
588,69131622,0.5742,0.5649,-0.2246,16.89,-109.15,-55.43
589,69136622,0.5811,0.5938,-0.2539,19.39,-108.90,-59.82
590,69142081,0.5859,0.6245,-0.3037,22.87,-108.54,-65.24
591,69146622,0.6050,0.6401,-0.3267,25.49,-108.17,-68.96
592,69151622,0.6265,0.6646,-0.3423,29.27,-107.32,-73.54
593,69157082,0.6572,0.7012,-0.4048,33.72,-105.91,-78.96
594,69161622,0.6494,0.7261,-0.3594,36.77,-104.45,-82.56
595,69166622,0.6411,0.7329,-0.3896,41.04,-102.32,-87.26
596,69172052,0.6475,0.7349,-0.4648,46.10,-99.63,-92.44
597,69176622,0.6333,0.7510,-0.4580,49.76,-97.80,-95.79
598,69181622,0.6318,0.7583,-0.4302,54.45,-94.45,-99.76
599,69186945,0.6567,0.7524,-0.4834,60.18,-90.49,-104.45
600,69191622,0.6753,0.7563,-0.6055,63.84,-87.93,-107.26
601,69196624,0.6504,0.8003,-0.5850,68.72,-84.15,-110.73
602,69201901,0.6528,0.8154,-0.6123,74.51,-79.51,-114.88
603,69206622,0.6636,0.8516,-0.6831,78.11,-76.04,-117.56
604,69211622,0.6504,0.8789,-0.7383,82.38,-71.89,-121.04
605,69216622,0.6592,0.9126,-0.7656,87.20,-66.34,-124.76
606,69221622,0.6655,0.9385,-0.7720,90.30,-61.95,-127.26
607,69226622,0.6597,0.9604,-0.8652,93.84,-57.01,-130.18
608,69231622,0.6587,0.9971,-0.9004,97.56,-51.89,-132.74
609,69236621,0.6377,1.0327,-0.8862,101.34,-45.85,-135.24
610,69241620,0.6260,1.0713,-0.9155,105.00,-39.39,-137.20
611,69246622,0.6050,1.1118,-0.9668,108.66,-32.62,-138.72
612,69251621,0.5864,1.1465,-0.9858,112.32,-25.24,-139.94
613,69256621,0.5669,1.1768,-1.0029,116.28,-17.26,-140.61
614,69261620,0.5664,1.1812,-1.0483,120.24,-9.51,-140.73
615,69266623,0.5889,1.2144,-1.1040,123.96,-1.46,-140.24
616,69271622,0.5400,1.2715,-1.1079,127.93,6.89,-139.57
617,69276622,0.5098,1.3032,-1.1255,131.10,15.61,-138.41
618,69281621,0.5156,1.3555,-1.1997,134.51,24.45,-136.77
619,69286622,0.4917,1.3979,-1.2476,138.17,35.06,-134.82
620,69291622,0.4863,1.4409,-1.2573,140.98,44.33,-132.80
621,69296622,0.4595,1.4897,-1.3096,142.68,51.65,-130.98
622,69301621,0.3833,1.5381,-1.3589,145.30,60.91,-128.60
623,69306966,0.3604,1.5732,-1.3770,148.78,72.26,-125.18
624,69311622,0.3501,1.6064,-1.3599,151.28,80.18,-122.56
625,69316622,0.3081,1.6396,-1.3989,153.84,90.12,-118.84
626,69321622,0.2681,1.6641,-1.4316,156.77,102.74,-113.90
627,69326622,0.2432,1.6826,-1.4277,158.41,111.22,-110.49
628,69331622,0.2290,1.7070,-1.4429,160.30,122.26,-105.98
629,69336622,0.2051,1.7559,-1.4517,162.38,135.67,-100.67
630,69341622,0.1753,1.7837,-1.4590,163.72,144.88,-97.13
631,69346622,0.1421,1.8228,-1.4429,165.49,156.52,-92.99
632,69351898,0.1035,1.8584,-1.4424,168.17,170.98,-88.23
633,69356622,0.0767,1.8789,-1.4409,170.06,180.67,-85.37
634,69361622,0.0249,1.9180,-1.4302,173.41,195.43,-80.79
635,69366622,-0.0073,1.9272,-1.4307,175.61,205.30,-77.87
636,69371622,-0.0654,1.9736,-1.4355,178.90,219.82,-72.99
637,69376622,-0.1675,1.9883,-1.4233,180.91,229.45,-69.76
638,69381622,-0.2153,1.9980,-1.4146,183.60,241.71,-65.24
639,69386622,-0.2627,2.0210,-1.4214,185.98,253.90,-60.61
640,69392092,-0.3218,2.0503,-1.3916,188.66,268.23,-54.88
641,69396622,-0.3394,2.0527,-1.3389,190.24,277.93,-51.04
642,69401621,-0.4077,2.0796,-1.3467,192.68,290.00,-46.16
643,69406859,-0.5195,2.0845,-1.3374,194.39,304.09,-40.73
644,69411622,-0.5483,2.1011,-1.3267,194.76,313.54,-37.38
645,69416622,-0.5869,2.1035,-1.2812,194.94,325.37,-33.41
646,69422117,-0.6494,2.1235,-1.2363,195.30,339.45,-29.45
647,69426622,-0.6934,2.1206,-1.2036,195.79,348.78,-27.38
648,69431622,-0.7568,2.1226,-1.1543,196.34,360.30,-25.30
649,69436622,-0.8291,2.1182,-1.1050,195.79,373.54,-23.54
650,69441622,-0.8716,2.1060,-1.0820,194.33,381.89,-22.93
651,69446622,-0.9062,2.0659,-1.0400,191.22,391.95,-22.13
652,69451624,-0.9541,2.0498,-0.9888,187.13,401.28,-21.65
653,69456621,-1.0239,2.0386,-0.8975,182.87,410.30,-21.40
654,69461812,-1.0723,2.0317,-0.8306,178.48,418.84,-21.10
655,69466622,-1.0991,2.0000,-0.7510,173.48,426.95,-20.98
656,69471623,-1.1167,1.9746,-0.6787,167.68,434.45,-20.73
657,69476622,-1.1616,1.9409,-0.6255,161.04,441.04,-20.37
658,69481622,-1.2139,1.9199,-0.5522,153.90,446.89,-19.94
659,69486624,-1.2485,1.9038,-0.4692,146.46,452.07,-19.15
660,69491622,-1.2720,1.8936,-0.3882,138.78,456.59,-18.23
661,69496622,-1.2715,1.8843,-0.2847,131.40,460.18,-17.01
662,69501622,-1.3003,1.8823,-0.1826,123.72,462.93,-15.37
663,69506622,-1.2983,1.8945,-0.0933,116.34,464.27,-13.35
664,69511996,-1.2788,1.8198,-0.0015,109.39,463.23,-10.30
665,69516622,-1.2856,1.7944,0.0103,106.28,460.24,-7.13
666,69521622,-1.3682,1.7251,0.0664,104.15,453.54,-1.77
667,69527033,-1.3994,1.8608,0.1968,104.21,442.56,6.10
668,69531622,-1.3940,1.7964,0.4722,106.34,434.94,10.61
669,69536621,-1.3789,1.7510,0.6646,110.37,426.34,17.07
670,69541620,-1.3789,1.7661,0.7314,114.51,417.01,22.87
671,69546620,-1.3481,1.7598,0.8101,117.87,406.95,28.29
672,69551620,-1.3281,1.7559,0.9092,120.00,395.79,33.54
673,69556620,-1.3135,1.7642,0.9951,121.10,383.96,38.90
674,69562713,-1.2881,1.7520,1.1050,121.28,368.66,45.30
675,69566622,-1.2617,1.7466,1.1699,120.49,358.05,49.70
676,69571621,-1.2236,1.7505,1.2456,118.29,343.96,55.18
677,69576622,-1.1743,1.7451,1.3032,114.82,329.21,60.61
678,69581622,-1.1201,1.7339,1.3574,109.94,314.15,65.73
679,69587041,-1.0483,1.7227,1.4194,102.74,295.73,71.95
680,69591622,-0.9946,1.6992,1.4517,97.13,283.23,75.91
681,69597047,-0.9248,1.6562,1.5024,87.87,264.39,81.77
682,69601622,-0.8750,1.6245,1.5176,81.04,251.95,85.73
683,69606621,-0.8164,1.5859,1.5332,72.50,236.46,89.51
684,69611865,-0.7720,1.5454,1.5347,64.33,221.10,93.54
685,69616622,-0.7246,1.4961,1.5283,57.07,206.04,97.13
686,69621622,-0.6738,1.4468,1.5146,51.22,191.46,100.49
687,69626622,-0.6230,1.3994,1.5029,47.62,177.62,103.41
688,69632083,-0.5679,1.3438,1.4937,46.28,161.40,106.65
689,69636622,-0.5396,1.3018,1.4775,47.20,150.98,108.66
690,69641621,-0.4932,1.2559,1.4590,50.12,138.66,110.98
691,69646883,-0.4590,1.2104,1.4546,54.63,126.83,112.93
692,69651622,-0.4243,1.1729,1.4409,59.94,115.79,114.45
693,69656622,-0.3818,1.1294,1.4175,65.61,105.55,115.55
694,69662106,-0.3423,1.0796,1.3911,72.26,93.84,116.34
695,69666622,-0.3159,1.0449,1.3760,76.16,87.32,116.46
696,69671623,-0.2749,1.0117,1.3486,80.12,78.90,116.40
697,69676622,-0.2461,0.9790,1.3257,82.99,71.28,115.73
698,69681621,-0.2090,0.9434,1.3032,84.63,64.21,115.00
699,69686958,-0.1724,0.9111,1.2646,85.12,57.93,113.96
700,69691622,-0.1392,0.8843,1.2349,84.27,52.07,112.62
701,69696622,-0.0903,0.8569,1.2056,82.13,46.46,111.16
702,69701621,-0.0566,0.8320,1.1606,79.09,41.16,109.51
703,69706622,-0.0254,0.8154,1.1270,75.12,36.28,107.80
704,69711621,0.0073,0.7881,1.0918,70.43,31.40,105.91
705,69716622,0.0396,0.7725,1.0542,65.18,26.95,103.78
706,69721993,0.0664,0.7529,1.0151,60.00,22.68,101.59
707,69726622,0.0933,0.7383,0.9927,54.76,18.66,99.27
708,69731622,0.1226,0.7183,0.9570,48.96,14.15,96.46
709,69736622,0.1450,0.7056,0.9321,45.37,11.16,94.45
710,69741622,0.1694,0.6860,0.9028,40.85,7.26,91.59
711,69746622,0.1914,0.6719,0.8853,38.60,4.88,89.70
712,69751622,0.2139,0.6562,0.8667,36.22,2.13,86.83
713,69756805,0.2324,0.6416,0.8486,34.39,-0.18,84.57
714,69761622,0.2583,0.6265,0.8203,33.41,-2.20,82.01
715,69766622,0.2764,0.6211,0.8018,32.62,-4.02,79.39
716,69771622,0.3008,0.6045,0.7759,32.38,-5.61,76.77
717,69776621,0.3154,0.6006,0.7544,32.13,-7.01,74.15
718,69782095,0.3379,0.5923,0.7256,31.59,-8.29,71.04
719,69786622,0.3540,0.5903,0.6958,31.34,-9.27,68.84
720,69791622,0.3711,0.5752,0.6621,30.61,-10.30,66.16
721,69796622,0.3911,0.5640,0.6460,30.06,-11.34,63.41
722,69801621,0.3960,0.5571,0.6230,29.39,-12.20,60.79
723,69806622,0.4106,0.5415,0.5981,28.54,-12.99,58.23
724,69811620,0.4229,0.5264,0.5869,27.56,-13.90,55.67
725,69816882,0.4473,0.5283,0.5737,26.65,-14.76,53.11
726,69821622,0.4683,0.5215,0.5601,25.49,-15.43,50.37
727,69826621,0.4883,0.5161,0.5469,24.27,-16.16,47.62
728,69831622,0.5024,0.5156,0.5396,22.87,-16.89,44.94
729,69836620,0.5122,0.5107,0.5254,21.40,-17.62,42.26
730,69841620,0.5181,0.5107,0.5078,20.12,-18.11,39.57
731,69846622,0.5234,0.5093,0.4941,18.90,-18.35,36.89
732,69851621,0.5474,0.5122,0.4761,17.68,-18.66,34.21
733,69856620,0.5659,0.5088,0.4614,16.71,-18.96,31.65
734,69861621,0.5713,0.5049,0.4404,15.73,-18.96,29.15
735,69866622,0.5762,0.5054,0.4180,14.76,-18.72,26.71
736,69871622,0.5815,0.5093,0.4111,13.90,-18.54,24.39
737,69876918,0.5889,0.5166,0.3926,12.87,-18.17,22.07
738,69881622,0.5967,0.5151,0.3755,11.77,-17.62,19.76
739,69886621,0.6055,0.5273,0.3794,10.91,-17.01,17.50
740,69891899,0.6152,0.5366,0.3682,9.94,-16.40,15.12
741,69896622,0.6191,0.5356,0.3560,8.84,-15.55,12.87
742,69901622,0.6284,0.5332,0.3457,7.62,-14.88,10.61
743,69907131,0.6348,0.5327,0.3330,6.22,-13.96,8.41
744,69911622,0.6382,0.5376,0.3252,4.76,-13.23,6.16
745,69916621,0.6465,0.5410,0.3252,3.23,-12.38,4.15
746,69921870,0.6597,0.5488,0.3306,1.59,-11.52,2.01
747,69926622,0.6699,0.5537,0.3296,0.00,-10.55,-0.24
748,69931622,0.6787,0.5601,0.3247,-1.77,-9.57,-2.38
749,69936622,0.6826,0.5615,0.3257,-3.72,-8.66,-4.51
750,69941998,0.6880,0.5605,0.3252,-5.61,-7.80,-6.46
751,69946622,0.6987,0.5640,0.3223,-7.62,-6.89,-8.60
752,69951622,0.7026,0.5659,0.3247,-9.51,-5.91,-10.43
753,69956623,0.7070,0.5669,0.3149,-11.22,-5.12,-12.26
754,69961624,0.7075,0.5747,0.3223,-12.87,-4.21,-13.90
755,69966621,0.7129,0.5825,0.3242,-14.45,-3.35,-15.61
756,69971908,0.7114,0.5889,0.3154,-15.85,-2.44,-17.26
757,69976622,0.7124,0.5962,0.3203,-17.38,-1.40,-18.78
758,69981623,0.7173,0.6050,0.3203,-18.90,-0.55,-20.18
759,69987102,0.7148,0.6128,0.3149,-20.37,0.30,-21.52
760,69991622,0.7119,0.6152,0.3174,-21.95,1.10,-22.87
761,69996622,0.7080,0.6255,0.3120,-23.54,1.89,-24.09
762,70001622,0.7031,0.6313,0.3262,-24.94,2.68,-25.12
763,70006625,0.7007,0.6382,0.3193,-26.40,3.23,-26.22
764,70011622,0.6948,0.6460,0.3232,-27.74,3.72,-27.01
765,70016621,0.6890,0.6426,0.3208,-28.72,4.02,-27.99
766,70021820,0.6934,0.6436,0.3257,-29.57,4.21,-28.66
767,70026622,0.6953,0.6489,0.3208,-30.24,4.33,-29.09
768,70031758,0.6973,0.6538,0.3320,-30.73,4.45,-29.45
769,70036622,0.6973,0.6553,0.3354,-30.91,4.39,-29.88
770,70041622,0.6943,0.6577,0.3447,-30.91,4.21,-30.06
771,70047130,0.6929,0.6655,0.3594,-30.73,4.02,-30.37
772,70051622,0.6899,0.6670,0.3613,-30.37,3.78,-30.55
773,70056622,0.6792,0.6724,0.3638,-30.06,3.66,-30.85
774,70061622,0.6753,0.6792,0.3687,-29.82,3.48,-31.16
775,70066622,0.6729,0.6880,0.3691,-29.57,2.93,-31.28
776,70071622,0.6606,0.6919,0.3672,-29.51,2.38,-31.65
777,70076622,0.6577,0.6982,0.3657,-29.63,1.95,-31.89
778,70081623,0.6484,0.7012,0.3691,-30.00,1.04,-32.07
779,70086622,0.6382,0.7041,0.3716,-30.43,0.30,-32.26
780,70091621,0.6294,0.7080,0.3721,-31.10,-0.79,-32.56
781,70096792,0.6221,0.7056,0.3857,-31.65,-1.83,-32.68
782,70101622,0.6206,0.7129,0.3955,-32.62,-2.93,-32.87
783,70106622,0.6177,0.7158,0.4014,-33.90,-4.02,-33.23
784,70111621,0.6172,0.7012,0.4194,-35.49,-4.88,-33.60
785,70116622,0.6333,0.7109,0.4297,-37.07,-5.91,-33.84
786,70121622,0.6426,0.7188,0.4502,-38.90,-6.71,-34.45
787,70126749,0.6338,0.7280,0.4551,-40.79,-7.56,-35.18
788,70131622,0.6221,0.7441,0.4478,-42.99,-8.35,-35.85
789,70136621,0.6064,0.7500,0.4487,-45.24,-9.21,-36.71
790,70141620,0.6001,0.7471,0.4468,-47.68,-10.12,-37.56
791,70146620,0.5918,0.7417,0.4526,-49.82,-10.91,-38.35
792,70151620,0.5854,0.7407,0.4463,-51.40,-11.83,-39.15
793,70156620,0.5776,0.7358,0.4492,-52.32,-12.68,-39.70
794,70161620,0.5615,0.7568,0.4639,-52.50,-13.29,-40.37
795,70166882,0.5513,0.7500,0.4585,-51.65,-14.09,-40.98
796,70171622,0.5503,0.7495,0.4448,-50.12,-14.88,-41.28
797,70176622,0.5400,0.7559,0.4551,-47.99,-15.67,-41.46
798,70182029,0.5269,0.7681,0.4731,-45.49,-16.65,-41.65
799,70186622,0.5259,0.7734,0.4692,-41.83,-17.56,-41.77
800,70191622,0.4893,0.7617,0.4707,-37.13,-18.54,-41.77
801,70196624,0.4966,0.7793,0.4595,-32.32,-19.51,-41.77
802,70201622,0.5234,0.8145,0.4297,-27.68,-20.49,-41.95
803,70206624,0.5059,0.7837,0.4346,-23.35,-21.46,-42.20
804,70211620,0.4766,0.7666,0.4409,-19.02,-22.13,-42.26
805,70216620,0.4741,0.7549,0.4517,-15.06,-22.80,-42.56
806,70221620,0.4868,0.7539,0.4346,-11.59,-23.23,-42.93
807,70226796,0.4741,0.7603,0.4399,-9.21,-23.78,-43.35
808,70231622,0.4106,0.7925,0.4512,-7.38,-24.15,-44.09
809,70236621,0.4214,0.8887,0.4727,-7.07,-24.33,-45.24
810,70242388,0.4507,0.8584,0.4614,-10.98,-24.76,-47.07
811,70246622,0.4673,0.8169,0.4409,-14.51,-25.30,-47.99
812,70251621,0.4707,0.7915,0.4712,-19.33,-26.16,-48.84
813,70256622,0.4136,0.7925,0.4639,-24.33,-26.77,-49.57
814,70261622,0.4053,0.7905,0.4253,-29.09,-27.62,-50.24
815,70266622,0.4023,0.7842,0.4058,-33.78,-28.48,-50.67
816,70271622,0.4023,0.7842,0.4155,-38.05,-29.27,-51.04
817,70277024,0.4004,0.7817,0.4146,-42.26,-30.06,-51.34
818,70281622,0.3921,0.7803,0.3960,-46.34,-30.91,-51.77
819,70286622,0.3813,0.7837,0.4062,-50.12,-31.89,-52.26
820,70292061,0.3706,0.7842,0.4268,-53.60,-32.62,-52.80
821,70296622,0.3594,0.7896,0.4272,-56.65,-33.35,-53.17
822,70301622,0.3613,0.8022,0.4224,-59.39,-34.02,-53.54
823,70306626,0.3623,0.8071,0.4346,-61.83,-34.76,-53.90
824,70311622,0.3638,0.8013,0.4507,-63.78,-35.24,-54.09
825,70316622,0.3511,0.7798,0.4507,-65.49,-35.85,-54.27
826,70321620,0.3364,0.7642,0.4448,-66.95,-36.52,-54.39
827,70326622,0.3252,0.7598,0.4556,-68.29,-37.20,-54.63
828,70331735,0.3145,0.7588,0.4600,-69.63,-37.74,-54.82
829,70336622,0.3066,0.7573,0.4463,-70.98,-38.48,-55.06
830,70341622,0.3013,0.7637,0.4468,-72.56,-39.09,-55.43
831,70346622,0.2969,0.7637,0.4570,-74.09,-39.88,-55.85
832,70351622,0.2896,0.7651,0.4478,-75.67,-40.55,-56.16
833,70357026,0.2856,0.7612,0.4453,-77.62,-41.40,-56.59
834,70361622,0.2744,0.7559,0.4341,-79.63,-42.38,-57.07
835,70366622,0.2803,0.7461,0.4365,-81.83,-43.29,-57.50
836,70372103,0.2808,0.7520,0.4292,-84.27,-44.33,-58.05
837,70376622,0.2856,0.7510,0.4185,-87.13,-45.43,-58.96
838,70381622,0.2939,0.7520,0.4131,-90.12,-46.22,-59.82
839,70386838,0.3037,0.7505,0.4238,-93.35,-47.13,-60.85
840,70391622,0.3105,0.7529,0.4189,-96.59,-48.17,-62.01
841,70396620,0.3164,0.7432,0.4136,-99.82,-48.84,-63.29
842,70401622,0.3164,0.7417,0.4165,-103.11,-49.63,-64.63
843,70406622,0.3164,0.7378,0.4160,-106.59,-50.24,-66.22
844,70411621,0.3193,0.7427,0.4146,-110.24,-50.98,-67.68
845,70416622,0.3159,0.7397,0.4048,-113.96,-51.34,-69.45
846,70421622,0.3135,0.7441,0.4082,-118.05,-51.83,-71.40
847,70426622,0.3101,0.7480,0.4082,-122.07,-52.38,-73.23
848,70431622,0.3062,0.7480,0.4082,-126.28,-52.93,-75.24
849,70436621,0.3022,0.7476,0.3999,-130.61,-53.23,-77.32
850,70441620,0.2891,0.7495,0.4067,-135.00,-53.66,-79.45
851,70446620,0.2832,0.7466,0.3999,-139.33,-53.96,-81.59
852,70451620,0.2852,0.7476,0.3911,-143.41,-54.45,-83.78
853,70456620,0.2754,0.7490,0.3867,-147.26,-54.94,-85.98
854,70461620,0.2705,0.7451,0.3843,-150.79,-55.18,-88.11
855,70466832,0.2632,0.7446,0.3901,-153.84,-55.55,-90.24
856,70471622,0.2573,0.7437,0.3940,-156.52,-55.79,-92.26
857,70476622,0.2529,0.7402,0.3916,-158.66,-55.73,-94.39
858,70481622,0.2510,0.7344,0.3965,-160.12,-55.61,-96.22
859,70486622,0.2466,0.7295,0.3999,-161.16,-55.30,-98.05
860,70491622,0.2422,0.7280,0.4106,-161.65,-54.88,-99.82
861,70497099,0.2363,0.7275,0.4067,-161.59,-54.21,-101.52
862,70501622,0.2339,0.7354,0.4175,-161.34,-53.35,-103.35
863,70506622,0.2261,0.7397,0.4175,-160.79,-52.44,-105.30
864,70511626,0.2129,0.7388,0.4272,-159.94,-51.52,-107.13
865,70516622,0.2085,0.7427,0.4229,-158.96,-50.43,-109.02
866,70521624,0.2007,0.7505,0.4302,-157.80,-49.15,-110.91
867,70526622,0.2026,0.7671,0.4438,-156.59,-48.05,-113.17
868,70531763,0.1997,0.7886,0.4497,-155.55,-46.59,-115.49
869,70536620,0.1992,0.8096,0.4565,-154.82,-45.30,-118.29
870,70541622,0.2017,0.8301,0.4614,-154.21,-43.90,-121.22
871,70546622,0.1997,0.8477,0.4644,-153.72,-42.56,-124.57
872,70551622,0.1997,0.8628,0.4678,-153.41,-41.28,-127.99
873,70556621,0.1973,0.8687,0.4692,-153.35,-40.18,-131.34
874,70561802,0.1890,0.8662,0.4756,-153.23,-39.21,-134.70
875,70566622,0.1860,0.8657,0.4844,-152.74,-38.29,-137.38
876,70571622,0.1758,0.8623,0.4873,-151.83,-37.20,-141.10
877,70577064,0.1577,0.8560,0.4951,-150.79,-36.28,-143.96
878,70581622,0.1484,0.8491,0.5039,-149.57,-35.61,-146.10
879,70587077,0.1240,0.8442,0.5205,-147.56,-34.39,-149.09
880,70591622,0.1104,0.8384,0.5234,-145.85,-33.60,-150.98
881,70596623,0.0869,0.8315,0.5264,-143.11,-32.68,-153.54
882,70601622,0.0757,0.8306,0.5381,-140.49,-31.83,-155.37
883,70606621,0.0684,0.8286,0.5425,-138.29,-31.22,-156.83
884,70611847,0.0503,0.8213,0.5459,-134.76,-30.06,-158.72
885,70616622,0.0449,0.8174,0.5527,-131.95,-29.51,-160.06
886,70621620,0.0352,0.8242,0.5542,-128.41,-28.72,-161.59
887,70626622,0.0254,0.8267,0.5640,-124.63,-28.05,-163.29
888,70631682,0.0137,0.8330,0.5718,-119.70,-27.07,-165.43
889,70636622,0.0078,0.8320,0.5767,-116.28,-26.46,-166.89
890,70641622,0.0063,0.8218,0.5864,-110.85,-25.61,-169.21
891,70646622,0.0005,0.8179,0.5854,-106.89,-25.06,-170.73
892,70651622,-0.0049,0.8105,0.5972,-100.85,-24.21,-172.87
893,70656622,-0.0107,0.7974,0.6006,-96.77,-23.78,-174.21
894,70661622,-0.0220,0.7930,0.6045,-91.59,-23.11,-175.98
895,70666622,-0.0444,0.7812,0.6157,-85.49,-22.62,-177.74
896,70671622,-0.0503,0.7773,0.6196,-81.34,-22.26,-178.90
897,70676622,-0.0581,0.7690,0.6172,-76.40,-21.83,-180.24
898,70681622,-0.0659,0.7661,0.6279,-71.77,-21.52,-181.52
899,70686857,-0.0791,0.7681,0.6367,-66.34,-21.16,-183.11
900,70691622,-0.0830,0.7842,0.6465,-63.11,-20.79,-184.33
901,70696623,-0.0869,0.8013,0.6582,-59.51,-20.37,-186.04
902,70701622,-0.0913,0.8193,0.6587,-56.34,-19.76,-188.17
903,70706622,-0.0942,0.8306,0.6694,-53.54,-19.21,-190.49
904,70712075,-0.1016,0.8384,0.6772,-50.24,-18.54,-193.48
905,70716622,-0.1069,0.8501,0.6890,-48.11,-17.87,-195.55
906,70721622,-0.1089,0.8594,0.7046,-45.43,-16.95,-198.29
907,70726624,-0.1069,0.8691,0.7124,-42.68,-16.10,-201.22
908,70731623,-0.1128,0.8726,0.7183,-39.82,-15.00,-204.02
909,70736620,-0.1118,0.8735,0.7251,-36.83,-13.90,-206.83
910,70741622,-0.1216,0.8765,0.7295,-33.54,-12.74,-209.45
911,70746621,-0.1294,0.8701,0.7339,-30.00,-11.77,-211.89
912,70751620,-0.1465,0.8633,0.7407,-26.04,-10.98,-213.96
913,70756620,-0.1650,0.8535,0.7451,-21.89,-10.30,-215.79
914,70762219,-0.1895,0.8452,0.7524,-16.40,-9.82,-217.56
915,70766622,-0.2095,0.8389,0.7539,-12.68,-9.57,-218.66
916,70771659,-0.2295,0.8340,0.7651,-7.99,-9.39,-219.57
917,70776622,-0.2515,0.8301,0.7617,-3.11,-9.39,-220.49
918,70781622,-0.2715,0.8218,0.7676,2.62,-9.94,-221.34
919,70786622,-0.2969,0.8159,0.7661,6.34,-10.18,-221.95
920,70791622,-0.3184,0.8154,0.7681,11.95,-10.67,-222.68
921,70796622,-0.3237,0.8140,0.7778,15.61,-10.98,-223.17
922,70801622,-0.3335,0.8164,0.7773,19.94,-11.28,-223.96
923,70807150,-0.3477,0.8193,0.7896,24.76,-11.59,-224.88
924,70811622,-0.3506,0.8281,0.7891,27.68,-11.77,-225.73
925,70816622,-0.3574,0.8296,0.7881,31.22,-11.83,-226.83
926,70821621,-0.3604,0.8345,0.7910,34.27,-11.83,-227.93
927,70826666,-0.3677,0.8423,0.7905,37.32,-12.07,-229.21
928,70831620,-0.3799,0.8418,0.8027,40.30,-12.26,-230.30
929,70836623,-0.3984,0.8418,0.7974,43.23,-12.68,-231.34
930,70841626,-0.4180,0.8359,0.8027,47.01,-13.35,-232.44
931,70846622,-0.4409,0.8306,0.7988,49.76,-13.96,-232.93
932,70851622,-0.4639,0.8228,0.7959,54.15,-14.70,-233.66
933,70856622,-0.4722,0.8208,0.7979,57.32,-15.30,-234.02
934,70861622,-0.4868,0.8110,0.7979,61.46,-16.16,-234.51
935,70867039,-0.5029,0.8120,0.7925,66.52,-17.13,-234.94
936,70871622,-0.5137,0.8130,0.7856,69.94,-17.68,-235.06
937,70876622,-0.5366,0.8164,0.7812,74.82,-19.15,-235.43
938,70881622,-0.5483,0.8228,0.7852,78.17,-20.12,-235.49
939,70886622,-0.5757,0.8228,0.7910,82.93,-22.01,-235.49
940,70891622,-0.5962,0.8330,0.7905,86.40,-23.54,-235.37
941,70896622,-0.6279,0.8394,0.7939,90.79,-25.73,-235.00
942,70901622,-0.6543,0.8403,0.7988,95.55,-28.17,-234.45
943,70906622,-0.6733,0.8438,0.8042,100.55,-30.61,-233.90
944,70911622,-0.7021,0.8481,0.8115,105.67,-33.17,-233.17
945,70916622,-0.7246,0.8623,0.8022,111.46,-36.40,-232.13
946,70921622,-0.7344,0.8608,0.8037,115.00,-38.78,-231.46
947,70926621,-0.7524,0.8716,0.7998,118.96,-41.52,-230.61
948,70931622,-0.7646,0.8784,0.7964,122.20,-44.33,-229.82
949,70936622,-0.7739,0.8794,0.7847,124.82,-47.07,-228.90
950,70941747,-0.7837,0.8877,0.7837,126.46,-49.94,-228.05
951,70946622,-0.7949,0.8843,0.7749,127.93,-52.62,-227.07
952,70951622,-0.8066,0.8901,0.7637,128.60,-55.24,-226.04
953,70956625,-0.8169,0.8848,0.7510,128.90,-58.11,-224.70
954,70961622,-0.8281,0.8838,0.7568,128.05,-59.94,-223.66
955,70966622,-0.8335,0.8843,0.7461,127.80,-62.38,-222.32
956,70972077,-0.8447,0.8848,0.7349,126.52,-64.88,-220.37
957,70976622,-0.8506,0.8931,0.7441,125.79,-66.71,-218.90
958,70981622,-0.8564,0.8867,0.7437,125.30,-69.02,-216.89
959,70986622,-0.8701,0.8828,0.7368,124.94,-71.77,-213.96
960,70991622,-0.8755,0.8726,0.7329,125.06,-73.54,-212.01
961,70996622,-0.8896,0.8652,0.7344,125.37,-75.85,-209.15
962,71001624,-0.9019,0.8618,0.7339,126.16,-78.29,-206.04
963,71006622,-0.9111,0.8647,0.7188,126.83,-80.61,-202.87
964,71011622,-0.9194,0.8652,0.7129,127.32,-82.74,-199.63
965,71016621,-0.9199,0.8662,0.7075,127.62,-84.88,-196.22
966,71021767,-0.9111,0.8677,0.6948,127.38,-87.01,-192.80
967,71026622,-0.9004,0.8613,0.6938,126.95,-88.90,-189.27
968,71031622,-0.8931,0.8569,0.6851,126.28,-90.61,-185.73
969,71036620,-0.8804,0.8525,0.6812,125.67,-91.89,-182.20
970,71041620,-0.8774,0.8467,0.6724,125.06,-93.23,-178.41
971,71046622,-0.8760,0.8418,0.6699,124.63,-94.76,-174.63
972,71051621,-0.8735,0.8364,0.6597,124.33,-95.85,-170.73
973,71056620,-0.8677,0.8286,0.6548,124.57,-96.83,-166.59
974,71062523,-0.8647,0.8140,0.6489,125.61,-98.17,-161.52
975,71066622,-0.8652,0.8145,0.6455,126.52,-98.90,-158.05
976,71071622,-0.8691,0.8047,0.6401,129.02,-99.76,-153.60
977,71077038,-0.8750,0.8052,0.6294,130.18,-100.61,-148.29
978,71081622,-0.8770,0.8081,0.6235,131.89,-101.22,-144.63
979,71086622,-0.8789,0.8110,0.6128,132.68,-102.13,-139.33
980,71091622,-0.8794,0.8135,0.6113,133.11,-102.50,-135.91
981,71096622,-0.8652,0.8149,0.6025,132.74,-103.05,-130.79
982,71101622,-0.8535,0.8135,0.5928,132.13,-103.23,-127.44
983,71106836,-0.8501,0.8105,0.5850,131.46,-103.23,-123.29
984,71111622,-0.8398,0.8086,0.5801,130.24,-102.99,-119.21
985,71116624,-0.8247,0.8071,0.5801,129.02,-102.56,-115.12
986,71121622,-0.8213,0.8018,0.5747,129.09,-101.89,-111.10
987,71126846,-0.8135,0.7979,0.5645,128.48,-101.22,-107.32
988,71131622,-0.8042,0.7871,0.5596,127.13,-100.37,-103.35
989,71136620,-0.8022,0.7817,0.5527,126.46,-99.27,-99.51
990,71141622,-0.8008,0.7759,0.5435,125.61,-98.05,-95.73
991,71146621,-0.7993,0.7744,0.5356,125.12,-97.07,-92.13
992,71151808,-0.7910,0.7686,0.5303,124.51,-95.55,-88.60
993,71156622,-0.7900,0.7637,0.5278,123.66,-94.39,-85.06
994,71161622,-0.7832,0.7549,0.5078,122.38,-92.56,-81.04
995,71166622,-0.7798,0.7524,0.4985,121.34,-91.40,-78.35
996,71171626,-0.7705,0.7456,0.4888,119.76,-89.39,-74.63
997,71176624,-0.7656,0.7422,0.4858,118.29,-88.17,-72.26
998,71181622,-0.7554,0.7407,0.4854,116.46,-86.40,-69.45
999,71186622,-0.7480,0.7339,0.4741,113.66,-84.33,-66.16
1000,71191622,-0.7441,0.7310,0.4653,111.40,-82.80,-64.15
1001,71196625,-0.7334,0.7295,0.4580,108.48,-80.79,-61.77
1002,71201622,-0.7314,0.7251,0.4521,104.45,-78.54,-59.09
1003,71206622,-0.7280,0.7173,0.4497,101.40,-76.83,-57.38
1004,71211622,-0.7231,0.7173,0.4517,97.68,-74.63,-55.30
1005,71216621,-0.7207,0.7119,0.4482,93.72,-72.38,-53.41
1006,71221839,-0.7168,0.7090,0.4365,89.70,-70.00,-51.71
1007,71226622,-0.7065,0.7070,0.4351,85.55,-67.56,-50.12
1008,71231622,-0.7026,0.7041,0.4326,81.34,-65.30,-48.54
1009,71236621,-0.6895,0.7012,0.4219,76.28,-62.44,-46.83
1010,71241622,-0.6865,0.7002,0.4238,72.80,-60.61,-45.73
1011,71246621,-0.6812,0.6987,0.4224,68.48,-58.11,-44.39
1012,71251623,-0.6777,0.6943,0.4175,64.21,-55.79,-43.05
1013,71256622,-0.6772,0.6914,0.4121,60.06,-53.35,-41.89
1014,71261875,-0.6782,0.6851,0.4116,56.16,-50.98,-40.61
1015,71266622,-0.6704,0.6841,0.4150,52.32,-48.48,-39.45
1016,71271622,-0.6616,0.6860,0.4097,48.23,-45.55,-37.99
1017,71276622,-0.6582,0.6821,0.4072,45.73,-43.72,-37.07
1018,71281622,-0.6582,0.6763,0.4058,42.80,-41.16,-35.91
1019,71286947,-0.6577,0.6772,0.4092,40.06,-38.84,-34.88
1020,71291622,-0.6567,0.6812,0.4067,37.68,-36.40,-33.84
1021,71296622,-0.6597,0.6787,0.4121,35.43,-33.96,-32.93
1022,71301622,-0.6592,0.6768,0.4116,33.60,-31.71,-31.89
1023,71306622,-0.6567,0.6768,0.4087,32.01,-29.21,-31.10
1024,71311621,-0.6562,0.6782,0.4121,30.61,-26.71,-30.06
1025,71316622,-0.6567,0.6758,0.4116,29.70,-24.27,-29.21
1026,71321622,-0.6519,0.6724,0.4224,28.84,-22.01,-28.41
