# skilleye imu stream v1
# device=xiao_esp32c6 imu=mpu6050 addr=0x68
# rate_hz=200 accel_range_g=16 gyro_range_dps=2000 dlpf_hz=94
# units: accel in g, gyro in deg/s, t_us in microseconds since boot (monotonic)
# no shared clock with the camera -- tap the racket once before each take
# so both recordings share a spike to align on
seq,t_us,ax,ay,az,gx,gy,gz
0,38687982,0.2290,1.0049,-0.0303,29.27,-6.10,2.26
1,38692984,0.2256,1.0054,-0.0381,30.24,-5.91,2.32
2,38697981,0.2295,1.0034,-0.0371,30.73,-5.85,2.56
3,38702982,0.2300,1.0049,-0.0430,30.91,-5.73,2.68
4,38707981,0.2256,1.0073,-0.0493,30.98,-5.79,2.80
5,38712984,0.2241,1.0146,-0.0464,30.67,-5.61,2.93
6,38717981,0.2271,1.0063,-0.0459,29.88,-5.61,2.93
7,38722982,0.2241,1.0093,-0.0435,29.21,-5.55,2.87
8,38727981,0.2222,1.0103,-0.0542,27.99,-5.43,2.93
9,38732984,0.2173,1.0093,-0.0522,26.71,-5.43,2.93
10,38737981,0.2197,1.0132,-0.0576,25.30,-5.30,2.87
11,38742980,0.2163,1.0117,-0.0581,23.60,-5.00,2.87
12,38748679,0.2134,1.0112,-0.0586,21.89,-5.12,2.74
13,38752982,0.2168,1.0068,-0.0562,20.06,-4.94,2.62
14,38757984,0.2168,1.0059,-0.0576,18.41,-5.00,2.68
15,38762981,0.2144,1.0020,-0.0596,16.28,-4.94,2.62
16,38767982,0.2158,1.0063,-0.0615,14.33,-4.88,2.50
17,38772983,0.2134,1.0000,-0.0601,12.38,-4.76,2.44
18,38777982,0.2124,0.9980,-0.0610,10.49,-4.70,2.32
19,38782982,0.2114,0.9985,-0.0581,8.48,-4.63,2.32
20,38787982,0.2163,0.9990,-0.0586,6.71,-4.63,2.20
21,38793005,0.2129,0.9932,-0.0615,5.18,-4.39,2.13
22,38797982,0.2153,0.9893,-0.0605,3.72,-4.33,2.20
23,38803321,0.2168,0.9819,-0.0605,2.26,-4.33,2.20
24,38807982,0.2197,0.9834,-0.0620,1.34,-4.27,2.13
25,38812982,0.2183,0.9873,-0.0601,0.37,-4.02,2.20
26,38817982,0.2183,0.9790,-0.0571,-0.43,-4.02,2.26
27,38823235,0.2188,0.9785,-0.0640,-1.22,-3.72,2.26
28,38827982,0.2236,0.9756,-0.0645,-1.46,-3.84,2.26
29,38833270,0.2212,0.9741,-0.0615,-1.77,-3.72,2.07
30,38837982,0.2231,0.9761,-0.0620,-1.89,-3.72,2.13
31,38842981,0.2222,0.9761,-0.0557,-1.95,-3.60,2.07
32,38848016,0.2256,0.9717,-0.0586,-1.77,-3.54,2.01
33,38852984,0.2222,0.9697,-0.0615,-1.52,-3.48,2.07
34,38857981,0.2212,0.9697,-0.0674,-1.16,-3.41,2.07
35,38862983,0.2168,0.9683,-0.0664,-0.67,-3.35,2.13
36,38867981,0.2148,0.9673,-0.0601,-0.43,-3.35,2.07
37,38872982,0.2222,0.9614,-0.0615,0.00,-3.29,2.01
38,38877981,0.2158,0.9619,-0.0635,0.43,-3.11,2.20
39,38882980,0.2222,0.9648,-0.0620,0.55,-3.11,2.32
40,38887983,0.2231,0.9648,-0.0654,1.10,-3.23,2.26
41,38892982,0.2202,0.9639,-0.0654,1.34,-3.11,2.32
42,38897983,0.2207,0.9702,-0.0649,1.52,-3.17,2.13
43,38902982,0.2246,0.9653,-0.0635,1.77,-2.93,2.01
44,38907982,0.2197,0.9678,-0.0630,1.83,-2.99,2.07
45,38912980,0.2227,0.9697,-0.0688,1.83,-3.05,1.83
46,38917982,0.2222,0.9683,-0.0630,1.83,-3.05,1.65
47,38922982,0.2275,0.9717,-0.0581,1.71,-2.87,1.46
48,38927982,0.2227,0.9673,-0.0625,1.46,-2.87,1.22
49,38932982,0.2227,0.9692,-0.0601,1.22,-2.87,1.10
50,38937982,0.2212,0.9702,-0.0659,0.67,-2.68,1.04
51,38942982,0.2124,0.9663,-0.0610,0.24,-2.50,0.85
52,38947983,0.2148,0.9634,-0.0571,-0.43,-2.44,0.67
53,38953015,0.2158,0.9609,-0.0601,-1.16,-2.32,0.61
54,38957982,0.2129,0.9595,-0.0620,-1.89,-2.38,0.61
55,38962982,0.2114,0.9600,-0.0659,-2.74,-2.26,0.61
56,38967982,0.2075,0.9604,-0.0645,-3.41,-2.20,0.55
57,38972982,0.2104,0.9595,-0.0601,-4.09,-1.95,0.55
58,38977982,0.2070,0.9600,-0.0586,-4.70,-2.07,0.67
59,38982982,0.2095,0.9644,-0.0605,-5.37,-1.71,0.67
60,38987983,0.2085,0.9658,-0.0630,-5.73,-1.65,0.73
61,38992983,0.2085,0.9688,-0.0596,-6.10,-1.46,0.79
62,38997981,0.2100,0.9683,-0.0576,-6.46,-1.46,0.79
63,39003211,0.2036,0.9683,-0.0562,-6.52,-1.28,0.85
64,39007982,0.2085,0.9736,-0.0581,-6.71,-1.16,0.85
65,39012981,0.2065,0.9717,-0.0537,-6.77,-1.16,0.91
66,39017982,0.2017,0.9819,-0.0552,-6.71,-0.98,0.91
67,39022981,0.2046,0.9834,-0.0518,-6.65,-0.91,1.10
68,39027982,0.2002,0.9839,-0.0552,-6.52,-0.79,1.04
69,39032981,0.1997,0.9819,-0.0513,-6.40,-0.67,1.16
70,39037983,0.1963,0.9888,-0.0483,-6.22,-0.61,1.22
71,39042981,0.1924,0.9893,-0.0488,-6.04,-0.55,1.22
72,39047982,0.1924,0.9897,-0.0474,-5.85,-0.55,1.22
73,39052981,0.1924,0.9902,-0.0522,-5.79,-0.37,1.40
74,39057983,0.1885,0.9985,-0.0439,-5.49,-0.24,1.46
75,39062982,0.1865,0.9985,-0.0464,-5.43,-0.18,1.52
76,39067981,0.1855,1.0059,-0.0430,-5.30,0.06,1.65
77,39072982,0.1802,1.0107,-0.0449,-5.00,0.12,1.71
78,39077981,0.1841,1.0093,-0.0396,-5.06,0.18,1.77
79,39082983,0.1777,1.0117,-0.0435,-4.82,0.30,2.07
80,39087981,0.1802,1.0132,-0.0371,-4.76,0.55,2.20
81,39092982,0.1748,1.0176,-0.0337,-4.88,0.67,2.44
82,39097981,0.1704,1.0171,-0.0361,-5.00,0.79,2.62
83,39102983,0.1719,1.0166,-0.0352,-5.30,0.91,2.93
84,39107981,0.1729,1.0132,-0.0356,-5.61,1.04,3.11
85,39112982,0.1729,1.0112,-0.0396,-6.04,0.98,3.35
86,39117982,0.1763,1.0093,-0.0308,-6.40,1.10,3.60
87,39122984,0.1763,1.0146,-0.0278,-6.89,1.10,3.96
88,39127981,0.1753,1.0156,-0.0293,-7.56,1.28,4.15
89,39132982,0.1738,1.0176,-0.0264,-7.99,1.28,4.45
90,39137981,0.1772,1.0171,-0.0229,-8.35,1.40,4.45
91,39142984,0.1763,1.0254,-0.0210,-8.90,1.46,4.70
92,39147981,0.1792,1.0278,-0.0127,-9.15,1.65,4.70
93,39152984,0.1802,1.0249,-0.0181,-9.45,1.71,4.88
94,39157981,0.1763,1.0288,-0.0181,-9.70,2.01,5.06
95,39162984,0.1812,1.0312,-0.0122,-10.00,1.95,5.12
96,39167982,0.1826,1.0332,-0.0059,-10.24,2.32,5.30
97,39172984,0.1826,1.0342,0.0000,-10.49,2.44,5.37
98,39177981,0.1851,1.0332,0.0098,-10.79,2.50,5.61
99,39182984,0.1836,1.0293,0.0127,-11.22,2.74,5.67
100,39187982,0.1890,1.0254,0.0151,-11.83,2.80,5.98
101,39192983,0.1914,1.0215,0.0171,-12.50,2.80,6.10
102,39197983,0.1885,1.0166,0.0200,-13.23,2.93,6.34
103,39202984,0.1914,1.0117,0.0249,-14.21,2.99,6.52
104,39207981,0.1938,1.0107,0.0259,-15.18,2.93,6.83
105,39212982,0.2036,1.0127,0.0278,-16.40,2.80,6.89
106,39217981,0.2061,1.0122,0.0391,-17.56,2.74,6.89
107,39222982,0.2148,1.0107,0.0371,-18.48,2.56,7.13
108,39227981,0.2158,1.0146,0.0391,-19.39,2.20,7.07
109,39232982,0.2246,1.0117,0.0386,-20.30,1.95,6.95
110,39237981,0.2295,1.0112,0.0474,-20.91,1.77,6.77
111,39242984,0.2271,1.0107,0.0576,-21.34,1.52,6.59
112,39247981,0.2271,1.0093,0.0630,-21.77,1.34,6.40
113,39252982,0.2314,1.0024,0.0605,-22.20,0.85,5.98
114,39257981,0.2354,0.9995,0.0723,-22.50,0.67,5.91
115,39262984,0.2358,0.9956,0.0747,-22.99,0.24,5.61
116,39267983,0.2402,0.9927,0.0688,-23.29,-0.18,5.37
117,39272983,0.2397,0.9990,0.0791,-23.66,-0.61,5.06
118,39277982,0.2368,0.9907,0.0732,-24.33,-0.98,4.76
119,39282983,0.2368,0.9907,0.0830,-25.00,-1.52,4.45
120,39287982,0.2368,0.9863,0.0859,-25.67,-2.07,4.21
121,39292983,0.2339,0.9863,0.0908,-26.59,-2.56,4.02
122,39297982,0.2319,0.9883,0.0864,-27.44,-2.87,3.78
123,39302982,0.2266,0.9878,0.0903,-28.48,-3.35,3.66
124,39307982,0.2280,0.9834,0.1011,-29.63,-3.78,3.54
125,39312982,0.2266,0.9893,0.1099,-30.79,-4.09,3.54
126,39317982,0.2261,0.9902,0.1089,-32.07,-4.45,3.48
127,39322982,0.2266,0.9878,0.1128,-33.35,-4.70,3.48
128,39327982,0.2217,0.9897,0.1226,-34.70,-5.12,3.41
129,39332982,0.2222,0.9912,0.1353,-36.04,-5.49,3.54
130,39337982,0.2207,0.9893,0.1299,-37.32,-5.79,3.48
131,39342982,0.2236,0.9932,0.1313,-38.60,-6.22,3.41
132,39347982,0.2217,0.9980,0.1362,-39.88,-6.46,3.35
133,39353288,0.2285,1.0039,0.1294,-41.04,-6.95,3.23
134,39357983,0.2280,1.0044,0.1348,-42.20,-7.50,3.05
135,39363206,0.2251,1.0073,0.1396,-43.23,-7.87,2.87
136,39367982,0.2354,1.0161,0.1450,-44.45,-8.35,2.80
137,39372982,0.2368,1.0244,0.1431,-45.37,-8.90,2.74
138,39377982,0.2251,1.0283,0.1470,-46.16,-9.21,2.50
139,39382980,0.2173,1.0391,0.1465,-47.01,-9.51,2.26
140,39387983,0.2144,1.0527,0.1470,-47.93,-10.00,2.07
141,39392982,0.2085,1.0625,0.1504,-48.72,-10.24,1.77
142,39397982,0.2065,1.0762,0.1445,-49.82,-10.55,1.34
143,39402983,0.2012,1.0898,0.1548,-50.67,-10.79,1.16
144,39407984,0.2036,1.1035,0.1436,-51.34,-11.04,0.73
145,39412982,0.2002,1.1147,0.1440,-52.56,-11.34,0.43
146,39417982,0.1992,1.1255,0.1489,-53.54,-11.52,0.06
147,39422984,0.2041,1.1387,0.1553,-54.63,-11.83,-0.18
148,39427982,0.2070,1.1504,0.1572,-55.79,-12.07,-0.49
149,39432982,0.2109,1.1641,0.1626,-57.13,-12.56,-0.73
150,39437982,0.2168,1.1851,0.1528,-58.35,-12.93,-1.04
151,39442982,0.2144,1.2051,0.1406,-59.39,-13.60,-1.22
152,39447982,0.2144,1.2148,0.1499,-60.49,-13.90,-1.40
153,39452983,0.2075,1.2261,0.1523,-61.34,-14.57,-1.59
154,39457982,0.1978,1.2300,0.1528,-61.95,-15.00,-1.71
155,39462981,0.1836,1.2422,0.1504,-62.26,-15.49,-1.89
156,39467982,0.1714,1.2476,0.1484,-62.38,-15.85,-1.89
157,39472983,0.1587,1.2446,0.1499,-62.38,-16.28,-1.83
158,39477982,0.1411,1.2319,0.1411,-62.38,-16.65,-1.52
159,39482982,0.1235,1.2173,0.1396,-62.32,-16.95,-1.10
160,39487982,0.1055,1.2061,0.1387,-62.38,-17.32,-0.43
161,39492982,0.0884,1.1919,0.1377,-62.20,-17.44,0.49
162,39497982,0.0703,1.1724,0.1323,-62.44,-17.74,1.52
163,39502982,0.0527,1.1572,0.1299,-62.68,-17.93,2.80
164,39507982,0.0420,1.1445,0.1411,-62.99,-18.17,4.27
165,39512983,0.0293,1.1191,0.1294,-63.23,-18.48,5.85
166,39517982,0.0229,1.1011,0.1289,-63.54,-18.48,7.62
167,39522982,0.0122,1.0854,0.1299,-63.96,-18.90,9.33
168,39527982,0.0083,1.0659,0.1333,-64.39,-19.45,11.22
169,39532982,0.0044,1.0557,0.1348,-64.70,-19.76,13.29
170,39537982,0.0112,1.0435,0.1348,-65.12,-20.24,15.24
171,39542982,0.0083,1.0327,0.1279,-65.12,-20.91,17.20
172,39547982,0.0132,1.0220,0.1362,-65.18,-21.59,19.15
173,39552982,0.0171,1.0127,0.1411,-65.06,-22.32,21.04
174,39557982,0.0273,1.0059,0.1406,-64.63,-22.93,22.80
175,39562982,0.0337,0.9990,0.1436,-64.15,-23.84,24.57
176,39567982,0.0410,0.9956,0.1543,-63.48,-24.63,26.22
177,39572984,0.0508,0.9907,0.1650,-62.80,-25.43,27.68
178,39577982,0.0562,0.9868,0.1606,-61.71,-26.71,29.15
179,39582980,0.0669,0.9814,0.1660,-60.67,-27.56,30.43
180,39587983,0.0698,0.9785,0.1763,-59.33,-28.54,31.59
181,39592984,0.0767,0.9751,0.1841,-57.56,-29.51,32.68
182,39597981,0.0830,0.9722,0.1963,-55.67,-30.49,33.72
183,39602980,0.0903,0.9741,0.1992,-53.72,-31.40,34.57
184,39607980,0.1064,0.9873,0.2036,-51.52,-32.26,35.49
185,39612980,0.2080,1.1855,0.0190,-48.66,-34.76,34.45
186,39617983,0.2983,0.9663,0.2485,-46.22,-36.89,34.45
187,39622983,0.3447,0.9902,0.2529,-43.54,-37.74,35.49
188,39627982,0.4194,1.0776,-0.0684,-40.85,-41.46,34.82
189,39632981,0.5288,1.0137,-0.0532,-38.66,-47.20,32.62
190,39637982,0.4922,0.8403,0.2998,-36.22,-50.55,32.50
191,39642982,0.3267,0.9243,0.3511,-33.48,-50.85,33.96
192,39647982,0.1816,1.0171,0.1729,-30.43,-51.52,35.30
193,39652982,0.1309,1.0278,0.1553,-28.48,-52.32,36.46
194,39657981,0.1650,0.9917,0.2842,-28.05,-51.95,37.80
195,39662980,0.2046,0.9717,0.2734,-29.33,-51.59,39.21
196,39667985,0.2075,0.9639,0.1465,-31.77,-51.95,40.67
197,39672981,0.1777,0.9844,0.1660,-35.37,-52.32,42.01
198,39677984,0.1440,1.0059,0.2769,-39.51,-52.32,43.35
199,39682982,0.1255,1.0254,0.2017,-42.99,-52.13,44.39
200,39687982,0.1162,1.0059,0.1978,-47.44,-52.26,45.91
201,39692980,0.1182,0.9956,0.2969,-51.95,-51.89,47.50
202,39697983,0.1313,0.9795,0.3057,-56.22,-51.16,49.33
203,39702982,0.1631,0.9707,0.2197,-60.55,-51.10,51.16
204,39707981,0.1768,0.9883,0.2271,-64.70,-51.52,52.93
205,39713006,0.1895,1.0020,0.3169,-68.17,-51.22,54.57
206,39717983,0.1948,0.9883,0.3398,-70.98,-50.85,56.10
207,39722982,0.2046,0.9585,0.3125,-73.11,-50.79,57.80
208,39727982,0.1782,0.8892,0.3706,-73.78,-50.37,60.43
209,39732981,0.1514,0.9146,0.4102,-72.44,-49.21,63.54
210,39737982,0.1382,0.9541,0.3936,-69.94,-48.48,66.40
211,39742983,0.1543,0.9092,0.3691,-66.77,-47.99,69.09
212,39747982,0.1816,0.9141,0.3965,-63.23,-47.50,71.95
213,39753055,0.1948,0.9312,0.4355,-59.63,-47.07,74.63
214,39757982,0.2119,0.9482,0.4326,-56.04,-46.71,76.65
215,39762982,0.2388,0.9619,0.4175,-52.50,-46.71,77.80
216,39767982,0.2817,0.9727,0.4482,-49.27,-46.59,78.23
217,39772980,0.3188,0.9795,0.4800,-46.71,-46.22,77.80
218,39777984,0.3486,0.9570,0.4785,-44.76,-45.91,76.71
219,39783480,0.3496,0.9351,0.4565,-43.29,-45.37,75.00
220,39787983,0.3599,0.9155,0.4604,-42.50,-45.24,73.78
221,39792982,0.3740,0.8828,0.4780,-41.95,-45.06,72.26
222,39797982,0.3809,0.9038,0.4624,-40.73,-45.30,70.67
223,39802983,0.3364,0.8970,0.4712,-39.15,-45.06,68.66
224,39807982,0.3511,0.8750,0.4878,-36.89,-44.57,66.28
225,39812980,0.4272,0.7974,0.4624,-34.21,-44.45,64.33
226,39817981,0.4565,0.7695,0.4243,-31.40,-44.27,62.74
227,39822984,0.4434,0.7612,0.3940,-28.54,-44.33,60.98
228,39827981,0.4175,0.7734,0.4131,-25.98,-44.09,58.96
229,39832982,0.4009,0.7720,0.4336,-23.23,-43.66,56.89
230,39837981,0.3843,0.7627,0.4048,-20.91,-43.05,54.51
231,39842982,0.3770,0.7471,0.4038,-18.96,-42.56,52.44
232,39847981,0.3677,0.7339,0.4194,-17.32,-41.83,50.30
233,39852982,0.3750,0.7319,0.4009,-15.79,-41.28,48.35
234,39857981,0.3994,0.7402,0.3745,-14.82,-41.04,46.22
235,39862982,0.4165,0.7603,0.3677,-14.57,-40.79,44.02
236,39867981,0.4263,0.7803,0.3760,-15.00,-40.61,41.65
237,39873393,0.4336,0.7959,0.3628,-16.16,-40.24,39.09
238,39877982,0.4258,0.7954,0.3481,-18.41,-40.00,36.40
239,39882984,0.4189,0.8013,0.3511,-21.40,-39.88,33.72
240,39887982,0.4307,0.7925,0.3687,-25.18,-39.70,30.98
241,39892982,0.4443,0.7729,0.3691,-29.63,-39.70,28.23
242,39897981,0.4473,0.7520,0.3726,-34.63,-39.76,25.49
243,39902983,0.4292,0.7275,0.4004,-39.82,-39.76,22.93
244,39907981,0.4341,0.7231,0.4023,-45.30,-39.82,20.37
245,39912982,0.4253,0.7124,0.4287,-50.79,-40.00,17.93
246,39917981,0.4482,0.7036,0.4233,-56.77,-40.06,15.49
247,39922980,0.4575,0.7061,0.4351,-62.44,-40.18,13.17
248,39927984,0.4429,0.6875,0.4292,-67.68,-40.43,10.91
249,39933051,0.4321,0.6782,0.4312,-72.01,-40.30,8.60
250,39937982,0.4346,0.6885,0.4458,-75.61,-40.30,6.28
251,39943443,0.3745,0.6660,0.5117,-78.96,-39.94,3.84
252,39947982,0.4102,0.6475,0.4429,-82.93,-39.45,1.40
253,39952982,0.4868,0.6567,0.3931,-85.67,-39.45,-1.04
254,39957981,0.5210,0.6479,0.3936,-87.68,-39.63,-3.35
255,39963079,0.5117,0.6562,0.3960,-88.84,-39.63,-5.49
256,39968109,0.5674,0.6558,0.3838,-89.15,-39.33,-7.62
257,39972983,0.5767,0.6299,0.3833,-87.74,-39.21,-9.39
258,39977981,0.5649,0.6089,0.4243,-84.76,-38.90,-11.04
259,39982984,0.5542,0.6538,0.3862,-80.30,-38.29,-12.62
260,39987981,0.5742,0.6729,0.4019,-75.85,-38.05,-13.90
261,39992982,0.5942,0.6997,0.4468,-70.61,-37.62,-15.98
262,39997981,0.6143,0.6436,0.4141,-66.34,-37.44,-17.50
263,40002982,0.6104,0.6802,0.4590,-61.59,-37.38,-18.60
264,40007981,0.5762,0.6670,0.4941,-56.52,-36.89,-19.82
265,40013247,0.5156,0.6328,0.4785,-50.55,-36.71,-20.61
266,40017982,0.5415,0.6294,0.4497,-46.22,-36.77,-21.16
267,40023251,0.5552,0.6699,0.4780,-40.18,-36.10,-22.32
268,40027982,0.5181,0.5864,0.4673,-36.89,-35.06,-23.11
269,40032981,0.5371,0.5610,0.4287,-33.05,-33.72,-23.54
270,40037983,0.5610,0.5625,0.4150,-28.72,-32.56,-23.78
271,40042982,0.5664,0.5820,0.4131,-23.96,-31.28,-23.60
272,40047984,0.5752,0.5884,0.4072,-18.66,-29.88,-23.35
273,40052982,0.5747,0.5947,0.4067,-13.05,-28.35,-22.87
274,40057982,0.5703,0.6143,0.4097,-7.07,-26.77,-22.44
275,40062981,0.5723,0.6040,0.3955,-1.04,-25.12,-21.71
276,40067982,0.5786,0.5972,0.3867,5.43,-23.54,-20.91
277,40072981,0.5781,0.6094,0.3867,11.83,-21.95,-19.94
278,40077984,0.5688,0.6172,0.3799,18.17,-20.37,-18.84
279,40083383,0.5674,0.6270,0.3652,25.30,-18.17,-17.93
280,40087983,0.5664,0.6323,0.3706,29.39,-16.83,-17.26
281,40092982,0.5728,0.6426,0.3608,33.72,-15.00,-16.28
282,40097982,0.5850,0.6484,0.3530,36.95,-13.23,-15.61
283,40102981,0.5942,0.6709,0.3447,39.02,-11.34,-15.00
284,40107982,0.5981,0.6846,0.3496,39.94,-9.63,-14.76
285,40113386,0.5908,0.6982,0.3525,40.18,-7.74,-14.70
286,40117982,0.5791,0.7427,0.3472,40.61,-5.85,-14.70
287,40122984,0.5879,0.7310,0.3130,41.65,-4.33,-14.57
288,40127981,0.6255,0.7529,0.3208,43.17,-3.05,-14.45
289,40132982,0.6426,0.7729,0.3315,45.37,-1.65,-14.57
290,40137981,0.6401,0.7817,0.3232,47.87,-0.37,-14.76
291,40142982,0.6318,0.7896,0.3247,51.04,0.91,-14.82
292,40147981,0.6196,0.8013,0.3271,54.39,2.13,-15.00
293,40152984,0.6230,0.8115,0.3320,58.05,3.11,-15.12
294,40157981,0.6260,0.8188,0.3213,61.40,3.72,-15.55
295,40162982,0.6245,0.8228,0.3145,64.76,4.33,-15.79
296,40167981,0.6157,0.8140,0.3091,68.11,4.88,-16.16
297,40172982,0.6064,0.8120,0.3076,70.91,4.88,-16.52
298,40177981,0.6016,0.8169,0.3184,73.11,5.24,-16.83
299,40182983,0.5986,0.8257,0.2925,74.94,5.49,-17.32
300,40187982,0.6074,0.8379,0.2837,76.34,5.49,-17.80
301,40192985,0.6133,0.8506,0.2891,77.20,5.37,-18.54
302,40197982,0.6089,0.8594,0.2729,77.20,5.43,-19.21
303,40202982,0.6030,0.8662,0.2559,76.77,5.18,-19.82
304,40207981,0.5977,0.8623,0.2500,75.98,4.82,-20.49
305,40212982,0.6274,0.8672,0.1719,75.18,4.09,-21.04
306,40217981,0.5029,0.8101,0.5112,74.02,4.21,-22.01
307,40222980,0.5142,0.8486,0.1807,72.62,4.70,-22.13
308,40227982,0.5771,0.8901,0.1489,71.28,4.02,-22.74
309,40232983,0.5674,0.8223,0.3555,69.82,3.90,-23.23
310,40237983,0.5645,0.7842,0.3193,68.48,4.21,-23.48
311,40242982,0.5610,0.7710,0.2148,67.20,3.90,-23.54
312,40247980,0.5527,0.7764,0.2627,65.98,3.78,-23.72
313,40252982,0.5474,0.7803,0.3071,64.57,4.09,-23.66
314,40257982,0.5415,0.7705,0.2764,63.05,4.27,-23.60
315,40262982,0.5386,0.7632,0.2598,61.65,4.27,-23.54
316,40267982,0.5347,0.7549,0.2866,60.00,4.51,-23.48
317,40272982,0.5254,0.7397,0.3022,58.48,4.88,-23.23
318,40277980,0.5205,0.7329,0.2866,56.65,5.30,-23.11
319,40282983,0.5225,0.7310,0.2949,54.82,5.73,-22.80
320,40287981,0.5225,0.7310,0.3154,53.35,5.98,-22.62
321,40292984,0.5269,0.7031,0.3223,51.10,6.40,-22.38
322,40297982,0.5283,0.7070,0.3184,49.70,6.71,-22.07
323,40302982,0.5254,0.7227,0.3232,48.05,7.01,-21.89
324,40307980,0.4971,0.6963,0.3218,46.40,7.38,-21.77
325,40312982,0.5293,0.7017,0.3423,44.82,7.74,-21.52
326,40317982,0.5581,0.7173,0.3555,43.11,8.05,-21.40
327,40322985,0.5889,0.7368,0.3799,40.98,8.29,-21.22
328,40327980,0.6099,0.7510,0.3901,38.41,8.35,-21.04
329,40332982,0.6343,0.7578,0.4165,35.43,8.23,-20.79
330,40337983,0.6533,0.7676,0.4336,31.83,8.29,-20.43
331,40342982,0.6733,0.7686,0.4619,27.74,7.99,-20.12
332,40347982,0.6934,0.7617,0.5083,22.93,8.05,-19.76
333,40352982,0.6909,0.7554,0.5005,17.38,8.23,-19.45
334,40357982,0.6646,0.7446,0.5024,11.77,7.93,-19.21
335,40362982,0.6089,0.7280,0.5146,6.22,7.80,-18.84
336,40367982,0.5464,0.7192,0.4839,1.22,7.68,-18.90
337,40372982,0.4893,0.7261,0.4248,-3.29,7.80,-18.96
338,40377982,0.4536,0.7310,0.3848,-7.07,7.99,-18.84
339,40382982,0.4360,0.7305,0.3540,-10.49,8.41,-19.09
340,40387982,0.4243,0.7354,0.3164,-13.41,8.84,-19.09
341,40392982,0.4326,0.7388,0.2876,-15.85,9.57,-18.90
342,40397983,0.4395,0.7598,0.2700,-18.35,10.00,-18.72
343,40402982,0.4336,0.7656,0.2778,-20.43,10.61,-18.41
344,40407982,0.4253,0.7749,0.2842,-21.95,11.34,-18.23
345,40412983,0.4512,0.7651,0.3018,-23.17,12.07,-17.74
346,40417983,0.4600,0.7798,0.2959,-24.21,12.80,-17.20
347,40422982,0.4531,0.8086,0.3145,-25.00,13.41,-16.89
348,40427982,0.4849,0.9180,0.3506,-25.91,14.39,-17.62
349,40432982,0.5103,0.8882,0.3569,-27.50,15.73,-19.63
350,40437982,0.5122,0.7729,0.4014,-27.80,17.07,-22.20
351,40442982,0.4849,0.7251,0.3770,-27.68,18.35,-24.15
352,40447983,0.4658,0.7139,0.3906,-27.87,19.51,-25.24
353,40453052,0.4355,0.6987,0.4165,-27.99,20.79,-25.37
354,40457983,0.4082,0.6733,0.4424,-28.29,22.20,-24.45
355,40462982,0.3872,0.6431,0.4561,-28.60,23.41,-22.74
356,40467980,0.3726,0.6299,0.4727,-28.84,24.88,-20.85
357,40472984,0.3550,0.6401,0.5034,-29.21,26.71,-18.96
358,40477982,0.3384,0.6685,0.5073,-29.94,28.48,-17.50
359,40482982,0.3579,0.7202,0.4600,-30.91,30.06,-16.46
360,40487981,0.3506,0.7310,0.4678,-32.56,31.46,-16.16
361,40492982,0.3184,0.7593,0.5005,-34.63,32.87,-15.98
362,40497983,0.3003,0.7583,0.5254,-37.32,34.33,-16.04
363,40502981,0.2964,0.7344,0.5464,-40.37,35.98,-16.28
364,40507980,0.2925,0.6973,0.5605,-43.66,37.56,-16.40
365,40512982,0.2773,0.6699,0.5728,-47.20,38.78,-16.71
366,40517982,0.2700,0.6611,0.5669,-51.10,39.51,-17.13
367,40522981,0.2734,0.6665,0.5449,-55.18,39.82,-17.87
368,40527982,0.2769,0.6401,0.5820,-59.51,38.90,-19.02
369,40532981,0.2695,0.6318,0.5918,-64.76,37.38,-20.30
370,40537982,0.2729,0.6548,0.5874,-70.37,34.94,-22.20
371,40542981,0.2954,0.6597,0.6221,-75.98,31.89,-24.39
372,40547980,0.3096,0.6650,0.7007,-81.65,29.09,-26.65
373,40552984,0.3213,0.6699,0.7632,-86.59,27.01,-28.78
374,40557982,0.3135,0.6787,0.8159,-90.73,25.43,-30.98
375,40562981,0.2783,0.6436,0.8506,-93.78,24.27,-33.29
376,40567980,0.2656,0.6333,0.8369,-96.52,22.99,-35.24
377,40572980,0.2407,0.6289,0.8340,-99.02,21.28,-37.20
378,40578097,0.2285,0.6226,0.8276,-102.13,19.09,-39.15
379,40582981,0.2007,0.6143,0.8438,-105.55,16.95,-41.04
380,40587984,0.1704,0.6021,0.8594,-109.27,14.39,-43.17
381,40592981,0.1562,0.5884,0.8564,-112.13,12.26,-44.82
382,40597980,0.1377,0.5547,0.8521,-117.01,9.09,-47.74
383,40602984,0.1191,0.5322,0.8462,-121.34,6.16,-50.06
384,40607982,0.1089,0.5186,0.8677,-124.94,4.09,-52.20
385,40612982,0.0767,0.5425,0.9097,-130.61,1.59,-55.85
386,40617982,0.0562,0.5664,0.9258,-134.63,0.30,-58.96
387,40622982,0.0352,0.5698,0.9609,-139.70,-0.43,-63.54
388,40627983,0.0142,0.5332,0.9834,-144.63,-0.49,-68.41
389,40632982,-0.0249,0.5000,0.9761,-148.96,-0.12,-73.05
390,40637980,-0.0552,0.4907,0.9106,-152.26,-0.18,-77.44
391,40642984,-0.0557,0.4780,0.8940,-154.94,-0.79,-81.71
392,40647984,-0.0239,0.4385,0.9028,-156.83,-1.95,-85.49
393,40653546,0.0283,0.4204,0.9336,-158.66,-3.54,-89.33
394,40657985,0.0659,0.4214,0.9473,-159.51,-4.39,-91.77
395,40662980,0.1035,0.4326,0.9736,-160.49,-5.49,-94.63
396,40667984,0.1255,0.4370,0.9854,-161.46,-6.52,-97.38
397,40672980,0.1196,0.4307,0.9985,-162.13,-7.62,-99.82
398,40677984,0.1274,0.4531,1.0303,-162.93,-8.84,-102.13
399,40682980,0.1035,0.4824,1.0288,-163.60,-10.24,-104.15
400,40687980,0.0361,0.5386,1.0454,-163.90,-11.59,-106.16
401,40692984,-0.0195,0.5854,1.0591,-163.90,-12.62,-108.05
402,40697983,-0.0376,0.6528,1.0850,-163.66,-13.41,-109.82
403,40702982,-0.0640,0.7524,1.1069,-162.50,-13.90,-111.59
404,40708053,-0.0962,0.8564,1.1665,-159.33,-14.39,-112.93
405,40712984,-0.0796,0.8975,1.1978,-152.56,-14.82,-113.72
406,40718044,-0.0005,0.8550,1.2417,-140.24,-15.55,-113.66
407,40722982,0.0576,0.8228,1.2837,-130.85,-16.28,-112.99
408,40727982,0.0972,0.7891,1.3262,-119.45,-17.50,-112.20
409,40733016,0.1045,0.7671,1.3696,-109.76,-18.66,-111.59
410,40737982,0.0752,0.7510,1.4199,-102.13,-19.94,-111.16
411,40742982,0.0435,0.7783,1.4546,-97.44,-21.34,-111.16
412,40747982,0.0151,0.8340,1.4878,-95.30,-23.11,-111.71
413,40752982,0.0200,0.8823,1.5322,-95.73,-25.18,-112.20
414,40757982,0.0112,0.9106,1.5830,-97.62,-27.68,-112.62
415,40762983,-0.0063,0.9136,1.6436,-100.30,-30.43,-112.68
416,40767982,-0.0215,0.9268,1.6938,-103.48,-33.41,-112.20
417,40772982,-0.0264,0.9316,1.7334,-107.32,-36.65,-111.40
418,40777983,-0.0244,0.9390,1.7812,-111.40,-40.30,-110.30
419,40782982,-0.0278,0.9556,1.8164,-115.55,-44.27,-108.72
420,40787986,-0.0400,0.9707,1.8477,-120.06,-48.54,-107.07
421,40792982,-0.0605,0.9897,1.8794,-124.70,-52.99,-105.18
422,40797982,-0.0854,1.0210,1.8965,-129.76,-57.50,-103.41
423,40802982,-0.1177,1.0327,1.9067,-135.00,-62.38,-101.59
424,40807982,-0.1548,1.0400,1.9121,-140.67,-67.38,-99.63
425,40812983,-0.1782,1.0596,1.9146,-146.40,-72.68,-97.62
426,40817982,-0.1953,1.0522,1.9199,-151.89,-78.23,-95.67
427,40822982,-0.1982,1.0396,1.9185,-156.52,-83.84,-93.66
428,40827982,-0.2012,1.0156,1.9355,-160.43,-89.63,-91.46
429,40833024,-0.2056,1.0063,1.9512,-163.48,-95.55,-89.02
430,40837980,-0.2134,0.9927,1.9775,-165.85,-101.59,-86.65
431,40842984,-0.2183,0.9829,2.0254,-167.26,-107.50,-84.39
432,40847982,-0.2192,0.9629,2.0557,-167.93,-113.29,-82.32
433,40852982,-0.2183,0.9434,2.0806,-167.68,-119.15,-80.55
434,40857982,-0.2222,0.9126,2.0933,-167.20,-124.63,-78.72
435,40862982,-0.2129,0.8770,2.1001,-166.22,-130.12,-77.26
436,40868287,-0.2207,0.8394,2.0889,-165.06,-135.24,-75.73
437,40872982,-0.2329,0.8066,2.0635,-163.96,-140.18,-74.27
438,40877981,-0.2598,0.7847,2.0342,-163.35,-145.00,-72.99
439,40882984,-0.2705,0.7720,1.9771,-163.05,-149.70,-71.89
440,40887980,-0.2793,0.7622,1.9521,-163.17,-153.29,-71.10
441,40892980,-0.2788,0.7524,1.9189,-163.78,-157.62,-70.43
442,40897982,-0.2803,0.7407,1.8691,-165.18,-162.50,-69.88
443,40902982,-0.2891,0.7339,1.8359,-166.71,-166.40,-69.57
444,40907983,-0.2959,0.7231,1.8140,-168.11,-169.45,-69.39
445,40912982,-0.3081,0.7104,1.7866,-170.18,-172.87,-69.21
446,40917982,-0.3081,0.7192,1.7603,-172.44,-176.34,-69.21
447,40922982,-0.2993,0.7212,1.7305,-174.45,-179.51,-69.33
448,40927982,-0.2856,0.7173,1.6875,-176.34,-182.50,-69.51
449,40932982,-0.2837,0.6831,1.6416,-178.11,-185.30,-69.82
450,40937982,-0.2705,0.6997,1.6055,-180.79,-187.87,-70.06
451,40942983,-0.2661,0.7612,1.5928,-183.90,-190.06,-70.73
452,40947980,-0.2739,0.7798,1.5410,-186.28,-191.83,-71.34
453,40952980,-0.2783,0.7812,1.5054,-188.05,-193.84,-71.89
454,40957982,-0.2485,0.7930,1.4780,-188.90,-195.30,-72.20
455,40962982,-0.2202,0.7886,1.4429,-189.21,-196.77,-72.50
456,40967982,-0.1997,0.7935,1.3911,-189.15,-198.05,-72.80
457,40972982,-0.1919,0.8042,1.3877,-188.84,-199.21,-72.93
458,40977982,-0.1875,0.8154,1.3564,-188.23,-199.88,-73.17
459,40982982,-0.1733,0.8257,1.3354,-187.44,-200.55,-73.29
460,40987982,-0.1606,0.8286,1.3149,-186.34,-201.10,-73.41
461,40992981,-0.1421,0.8257,1.2930,-185.24,-201.16,-73.29
462,40997982,-0.1289,0.8179,1.2666,-184.27,-201.40,-73.29
463,41002982,-0.1113,0.8169,1.2393,-183.41,-201.40,-73.17
464,41007982,-0.0928,0.8140,1.2124,-182.62,-201.28,-73.05
465,41012981,-0.0762,0.8013,1.1909,-182.01,-200.91,-72.93
466,41017982,-0.0649,0.8008,1.1631,-181.52,-200.55,-72.62
467,41022982,-0.0586,0.7954,1.1382,-180.91,-200.06,-72.26
468,41027982,-0.0488,0.7861,1.1104,-180.61,-199.45,-71.95
469,41032983,-0.0454,0.7793,1.0908,-180.37,-199.02,-71.40
470,41037980,-0.0347,0.7812,1.0688,-180.37,-198.29,-70.73
471,41043050,-0.0142,0.7705,1.0420,-180.55,-197.62,-70.24
472,41047982,0.0034,0.7744,1.0215,-180.91,-196.71,-69.70
473,41052982,0.0171,0.7676,1.0049,-181.65,-195.79,-69.02
474,41057982,0.0391,0.7480,0.9663,-182.62,-194.82,-68.41
475,41062982,0.0498,0.7295,0.9609,-183.84,-193.72,-67.87
476,41067982,0.0649,0.6958,0.9497,-185.49,-192.44,-67.44
477,41072983,0.0947,0.6943,0.9287,-187.01,-191.10,-67.01
478,41077982,0.1040,0.7007,0.8926,-188.84,-189.70,-66.40
479,41082983,0.1211,0.6938,0.8623,-190.67,-188.29,-66.04
480,41087982,0.1235,0.6763,0.8545,-192.74,-186.89,-65.55
481,41092982,0.1377,0.6289,0.8286,-195.12,-184.94,-65.12
482,41097980,0.1587,0.6167,0.8193,-197.50,-183.54,-64.70
483,41102983,0.1611,0.6123,0.7910,-200.18,-181.71,-64.45
484,41107981,0.1670,0.5996,0.7690,-203.11,-180.06,-64.15
485,41112982,0.1782,0.5679,0.7544,-206.16,-177.99,-63.84
486,41117984,0.1987,0.5317,0.7393,-209.15,-176.04,-63.60
487,41122981,0.2021,0.4868,0.7202,-212.32,-174.15,-63.29
488,41127982,0.2007,0.4492,0.7227,-215.49,-172.26,-63.11
489,41132981,0.1973,0.4116,0.7310,-218.29,-170.18,-62.93
490,41137982,0.2075,0.3853,0.7163,-221.46,-168.23,-63.05
491,41142981,0.2163,0.3472,0.7070,-224.39,-166.46,-63.17
492,41148054,0.2065,0.3076,0.7314,-227.62,-164.27,-63.41
493,41152982,0.1484,0.3242,0.7197,-230.73,-162.01,-64.09
494,41157982,0.1963,0.2412,0.6616,-232.99,-160.12,-64.82
495,41162983,0.2041,0.1904,0.7134,-234.57,-157.93,-65.37
496,41167982,0.2744,0.1914,0.6606,-235.67,-155.61,-66.04
497,41172982,0.3618,0.1909,0.6372,-236.10,-153.60,-66.71
498,41177982,0.4062,0.1865,0.6167,-235.61,-151.46,-67.50
499,41182983,0.4551,0.1860,0.5967,-233.90,-149.33,-67.93
500,41187982,0.4336,0.0483,0.4819,-231.89,-147.20,-68.29
501,41192985,0.4282,0.0068,0.4756,-231.46,-144.63,-68.41
502,41197983,0.4258,0.0913,0.4868,-230.91,-141.59,-68.96
503,41202982,0.4297,0.1064,0.4043,-230.49,-137.99,-70.06
504,41207980,0.5044,-0.0317,0.4907,-230.06,-133.66,-71.10
505,41212982,0.5718,-0.0596,0.5000,-231.04,-128.96,-71.40
506,41217982,0.5811,-0.0259,0.4575,-232.44,-124.45,-72.20
507,41222982,0.6016,-0.0122,0.4604,-234.02,-119.82,-72.87
508,41227982,0.6309,-0.0137,0.4717,-235.85,-114.94,-73.84
509,41232982,0.6621,-0.0171,0.4517,-238.23,-109.82,-74.57
510,41238021,0.6836,-0.0176,0.4175,-240.49,-105.06,-75.49
511,41242982,0.6987,-0.0186,0.4258,-242.87,-100.18,-76.22
512,41247980,0.7095,-0.0186,0.4209,-245.30,-95.18,-77.13
513,41252982,0.7202,0.0015,0.4131,-247.62,-90.24,-77.99
514,41257982,0.7363,0.0161,0.4048,-249.76,-85.61,-79.09
515,41262981,0.7524,0.0225,0.4048,-251.52,-80.79,-80.12
516,41267982,0.7588,0.0317,0.4009,-253.05,-76.16,-81.10
517,41272981,0.7637,0.0420,0.3945,-254.27,-71.65,-82.26
518,41277984,0.7578,0.0571,0.3999,-254.94,-67.32,-83.66
519,41282981,0.7598,0.0620,0.3984,-255.12,-62.87,-84.94
520,41287980,0.7656,0.0679,0.3887,-254.57,-58.72,-86.22
521,41292982,0.7661,0.0762,0.3999,-253.48,-54.39,-87.50
522,41297982,0.7690,0.0825,0.4097,-251.77,-50.00,-88.72
523,41302982,0.7788,0.0781,0.4067,-249.45,-45.85,-89.82
524,41307982,0.7900,0.0703,0.3979,-246.34,-41.83,-91.10
525,41312982,0.7959,0.0615,0.3970,-242.80,-37.99,-91.71
526,41317982,0.7983,0.0620,0.3984,-238.90,-33.96,-92.26
527,41322982,0.7812,0.0625,0.3921,-234.57,-30.43,-92.56
528,41327982,0.7646,0.0552,0.4043,-229.88,-27.01,-92.93
529,41332982,0.7544,0.0620,0.3926,-225.18,-23.66,-93.17
530,41337982,0.7358,0.0713,0.3950,-220.43,-20.73,-93.60
531,41342983,0.7256,0.0791,0.3843,-215.67,-18.17,-94.02
532,41347980,0.7100,0.0850,0.3857,-211.16,-15.61,-94.70
533,41352984,0.6982,0.0938,0.3936,-206.65,-13.35,-95.61
534,41357982,0.6865,0.1074,0.3911,-202.38,-11.16,-96.46
535,41362981,0.6860,0.1167,0.4028,-198.29,-8.90,-97.62
536,41367982,0.6851,0.1211,0.3979,-194.15,-6.71,-98.78
537,41372981,0.6860,0.1226,0.3970,-189.94,-4.88,-100.06
538,41377982,0.6826,0.1167,0.3896,-185.79,-3.29,-101.34
539,41382981,0.6826,0.1147,0.3892,-181.46,-1.65,-102.32
540,41387982,0.6768,0.1094,0.3950,-177.26,-0.43,-103.35
541,41392982,0.6665,0.1123,0.3994,-173.17,1.04,-104.15
542,41397982,0.6631,0.1177,0.4082,-169.51,2.32,-105.06
543,41402981,0.6514,0.1299,0.4106,-166.10,3.48,-105.98
544,41407981,0.6484,0.1445,0.4058,-163.11,4.63,-107.20
545,41412982,0.6377,0.1636,0.4058,-160.49,5.55,-108.48
546,41417982,0.6396,0.1743,0.3965,-157.87,6.46,-109.88
547,41422982,0.6377,0.1855,0.3921,-155.37,7.20,-111.46
548,41427982,0.6353,0.2007,0.3892,-152.93,7.93,-113.17
549,41432981,0.6328,0.2119,0.3892,-150.61,8.90,-115.06
550,41437982,0.6343,0.2241,0.3936,-148.17,9.76,-116.89
551,41442981,0.6387,0.2329,0.3838,-145.67,10.73,-118.78
552,41447980,0.6411,0.2461,0.3813,-143.29,11.65,-120.73
553,41452980,0.6533,0.2554,0.3809,-140.79,12.93,-122.74
554,41457980,0.6641,0.2588,0.3804,-138.23,13.90,-124.57
555,41462983,0.6641,0.2651,0.3809,-135.67,15.12,-126.46
556,41467982,0.6606,0.2744,0.3838,-133.11,16.52,-128.23
557,41472982,0.6592,0.2935,0.3813,-130.67,17.74,-130.06
558,41477981,0.6538,0.3130,0.3965,-128.05,19.15,-132.07
559,41482982,0.6460,0.3340,0.4023,-125.55,20.79,-134.09
560,41487981,0.6426,0.3452,0.4009,-123.48,21.95,-135.85
561,41492982,0.6284,0.3623,0.3994,-120.30,23.84,-138.29
562,41497983,0.6172,0.3779,0.3965,-118.05,24.82,-139.88
563,41502982,0.5869,0.3853,0.3872,-114.82,26.16,-141.77
564,41507980,0.5630,0.3887,0.3770,-111.34,26.95,-143.35
565,41512983,0.5396,0.3994,0.3784,-107.32,27.74,-144.88
566,41517982,0.5249,0.4067,0.3892,-102.87,28.41,-146.22
567,41522981,0.5151,0.4092,0.3843,-98.11,28.84,-147.26
568,41527982,0.5054,0.4131,0.3882,-92.93,29.45,-148.11
569,41532981,0.4961,0.4238,0.3867,-87.56,30.00,-149.15
570,41537982,0.4805,0.4355,0.3901,-81.89,30.18,-149.76
571,41542981,0.4639,0.4404,0.3916,-76.59,30.49,-150.61
572,41547982,0.4521,0.4521,0.3984,-71.22,30.85,-151.34
573,41552981,0.4419,0.4565,0.3848,-66.04,30.73,-152.13
574,41557982,0.4351,0.4683,0.3916,-60.85,30.85,-152.93
575,41562982,0.4312,0.4800,0.4019,-56.16,30.85,-153.78
576,41567999,0.4224,0.4912,0.4131,-51.83,31.04,-154.63
577,41572981,0.4121,0.5044,0.4014,-47.93,30.98,-155.79
578,41577980,0.3940,0.5122,0.3950,-44.39,30.79,-156.83
579,41582982,0.3760,0.5205,0.3989,-41.28,30.55,-158.05
580,41587982,0.3638,0.5293,0.3848,-38.41,30.24,-159.33
581,41592982,0.3521,0.5356,0.3921,-35.91,30.00,-160.73
582,41597982,0.3359,0.5449,0.3911,-33.41,29.82,-161.95
583,41602982,0.3281,0.5527,0.3711,-31.04,29.45,-163.54
584,41607984,0.3267,0.5508,0.3569,-28.66,29.27,-165.06
585,41612981,0.3296,0.5601,0.3589,-25.98,28.96,-166.65
586,41617982,0.3354,0.5708,0.3706,-23.41,29.09,-168.41
587,41622981,0.3467,0.5952,0.3765,-20.61,29.15,-170.24
588,41627982,0.3525,0.6216,0.3872,-18.05,29.76,-172.32
589,41632980,0.3516,0.6411,0.3872,-15.49,30.37,-174.45
590,41637980,0.3335,0.6621,0.3809,-12.87,30.98,-176.59
591,41642981,0.3218,0.6611,0.3599,-10.24,31.77,-178.66
592,41647980,0.3071,0.6641,0.3672,-6.77,32.32,-180.85
593,41652982,0.2930,0.6660,0.3672,-4.21,32.93,-182.26
594,41657980,0.2822,0.6782,0.3569,-0.85,33.66,-183.66
595,41663041,0.2764,0.6870,0.3623,2.32,34.51,-185.06
596,41667982,0.2632,0.6943,0.3418,5.49,35.18,-186.34
597,41672984,0.2495,0.6934,0.3262,8.96,35.91,-187.50
598,41677980,0.2412,0.7163,0.3291,12.01,36.65,-188.54
599,41682984,0.2339,0.7383,0.3428,14.88,37.50,-189.70
600,41687981,0.2339,0.7573,0.3330,16.95,38.84,-191.28
601,41692980,0.2261,0.7739,0.3159,18.66,39.94,-192.56
602,41697980,0.2021,0.7842,0.3110,19.45,41.10,-193.78
603,41702982,0.1753,0.7935,0.3057,19.82,42.26,-194.82
604,41707984,0.1665,0.8052,0.3042,19.33,43.48,-195.61
605,41712981,0.1606,0.8330,0.3081,17.93,44.94,-196.34
606,41717980,0.1558,0.8550,0.3140,15.67,46.65,-197.13
607,41722982,0.1362,0.8867,0.3149,12.32,48.84,-197.80
608,41727982,0.1191,0.9277,0.3208,8.05,51.10,-198.78
609,41732981,0.1084,0.9243,0.2891,3.23,53.41,-199.39
610,41737980,0.0918,0.9287,0.2827,-1.77,55.55,-199.76
611,41742985,0.0630,0.9448,0.2959,-6.83,58.23,-199.88
612,41747981,0.0571,0.9746,0.3008,-11.34,60.98,-199.82
613,41752983,0.0513,1.0044,0.2983,-15.43,64.02,-199.88
614,41757980,0.0464,1.0298,0.3037,-18.72,67.32,-199.88
615,41763407,0.0278,1.0552,0.3096,-21.04,70.85,-199.82
616,41767985,0.0107,1.0771,0.2993,-22.20,74.15,-199.45
617,41772983,-0.0146,1.0923,0.2954,-22.26,77.62,-199.02
618,41777982,-0.0405,1.1006,0.2969,-21.04,80.91,-198.41
619,41782982,-0.0679,1.1133,0.3022,-18.72,85.06,-197.50
620,41787982,-0.0913,1.1411,0.3022,-15.30,86.40,-196.34
621,41792982,-0.1353,1.1694,0.3198,-11.22,89.21,-195.37
622,41797983,-0.1694,1.1899,0.3257,-6.52,92.07,-194.51
623,41802982,-0.1982,1.2061,0.3223,-2.44,94.15,-193.60
624,41807980,-0.2344,1.2168,0.3218,2.87,96.28,-192.38
625,41812982,-0.2690,1.2256,0.3354,8.17,98.48,-190.73
626,41817981,-0.3066,1.2339,0.3374,13.54,100.49,-188.90
627,41822982,-0.3398,1.2412,0.3457,18.48,102.26,-186.83
628,41827982,-0.3726,1.2466,0.3491,22.99,103.84,-184.57
629,41832982,-0.4170,1.2544,0.3423,27.01,105.37,-181.95
630,41837983,-0.4580,1.2739,0.3398,30.55,106.71,-179.15
631,41842982,-0.5073,1.2842,0.3369,33.48,107.87,-176.46
632,41848027,-0.5435,1.2988,0.3330,35.67,108.96,-173.60
633,41852983,-0.5747,1.3159,0.3477,37.20,110.18,-170.67
634,41857980,-0.5967,1.3335,0.3452,37.87,111.65,-167.74
635,41862981,-0.6147,1.3564,0.3564,37.50,113.17,-164.82
636,41867983,-0.6362,1.3926,0.3716,36.10,115.12,-161.95
637,41872982,-0.6353,1.4106,0.3716,33.05,117.38,-159.15
638,41877983,-0.6499,1.4268,0.3643,28.96,120.18,-156.04
639,41882982,-0.6899,1.4453,0.3608,24.76,122.68,-152.38
640,41888012,-0.7236,1.4692,0.3613,20.18,125.61,-148.72
641,41892982,-0.7573,1.4946,0.3804,15.49,128.78,-144.57
642,41897982,-0.8042,1.5068,0.3604,11.22,132.32,-140.24
643,41902981,-0.8511,1.5273,0.3467,7.32,135.55,-135.61
644,41907982,-0.8867,1.5435,0.3408,4.09,139.39,-130.73
645,41913380,-0.9092,1.5518,0.3320,0.85,144.21,-124.39
646,41917982,-0.9302,1.5483,0.3252,-0.73,147.68,-119.76
647,41922981,-0.9453,1.5645,0.3213,-2.62,152.50,-113.90
648,41927980,-0.9517,1.5835,0.3242,-3.90,157.80,-107.80
649,41932982,-0.9634,1.5957,0.3105,-5.43,163.29,-101.83
650,41937982,-0.9800,1.6113,0.3125,-6.77,169.21,-95.73
651,41942982,-0.9907,1.6235,0.3228,-8.05,175.67,-89.27
652,41947982,-0.9951,1.6362,0.3354,-9.39,182.44,-82.87
653,41952982,-1.0161,1.6626,0.3320,-10.49,189.57,-76.40
654,41957981,-1.0420,1.6904,0.3306,-11.16,196.89,-69.82
655,41962982,-1.0708,1.7007,0.3262,-11.59,204.51,-63.11
656,41968090,-1.0977,1.7061,0.3301,-11.46,211.95,-56.10
657,41972982,-1.1328,1.7095,0.3198,-11.28,219.27,-49.02
658,41977982,-1.1895,1.6943,0.3320,-11.34,226.95,-41.46
659,41982982,-1.2163,1.6855,0.3403,-11.46,234.51,-33.29
660,41987982,-1.2417,1.6777,0.3398,-11.34,242.01,-25.00
661,41992981,-1.2920,1.6792,0.3374,-11.52,249.51,-16.40
662,41997982,-1.3374,1.6812,0.3496,-12.01,256.89,-7.68
663,42002981,-1.3823,1.6836,0.3711,-12.80,264.27,0.85
664,42007982,-1.4326,1.6792,0.3926,-14.09,271.22,9.21
665,42012981,-1.4810,1.6797,0.4097,-15.98,278.48,17.68
666,42017982,-1.5327,1.6748,0.4346,-18.11,285.67,26.10
667,42022983,-1.5649,1.6733,0.4600,-20.49,292.68,34.70
668,42027982,-1.6006,1.6699,0.4961,-22.93,299.57,43.17
669,42032981,-1.6328,1.6616,0.5303,-25.55,306.77,51.89
670,42037982,-1.6670,1.6626,0.5601,-28.05,313.60,60.30
671,42042981,-1.7114,1.6558,0.5859,-30.12,320.55,69.02
672,42047982,-1.7666,1.6455,0.6299,-31.71,327.01,77.74
673,42052981,-1.8242,1.6313,0.6548,-32.80,333.35,87.32
674,42057982,-1.8867,1.6182,0.6846,-33.41,339.21,95.30
675,42062982,-1.9434,1.6006,0.7109,-33.60,344.70,104.27
676,42067982,-2.0171,1.5869,0.7559,-33.41,350.30,112.99
677,42072982,-2.1016,1.5771,0.7886,-32.62,355.49,121.65
678,42077982,-2.1787,1.5703,0.8052,-31.95,360.37,130.24
679,42082981,-2.2505,1.5562,0.8354,-31.10,364.88,138.54
680,42087982,-2.3135,1.5420,0.8662,-29.88,369.39,146.77
681,42092981,-2.3652,1.5347,0.9199,-28.90,373.84,154.94
682,42097982,-2.3975,1.5308,0.9526,-27.80,378.17,162.74
683,42102981,-2.4204,1.5283,0.9814,-27.38,381.59,168.96
684,42107982,-2.4053,1.5352,1.0024,-27.07,385.91,176.52
685,42112981,-2.4878,1.5122,1.0786,-27.44,390.18,183.48
686,42117984,-2.4946,1.4961,1.0991,-27.50,394.82,190.61
687,42122982,-2.4741,1.4902,1.1113,-26.83,398.84,197.74
688,42127982,-2.5142,1.4868,1.1562,-24.88,402.68,204.45
689,42132981,-2.5542,1.4810,1.1836,-21.83,406.28,210.98
690,42137982,-2.6025,1.4761,1.2017,-17.38,409.15,217.07
691,42142981,-2.6704,1.4648,1.2236,-11.77,412.01,222.93
692,42147982,-2.7734,1.4639,1.2637,-5.61,414.02,228.29
693,42152981,-2.8496,1.4482,1.2891,0.98,416.10,233.54
694,42157982,-2.8623,1.4517,1.3315,7.87,418.35,238.48
695,42162981,-2.8955,1.4507,1.3613,14.94,420.30,243.11
696,42168031,-2.9468,1.4580,1.3989,22.13,422.07,247.07
697,42172984,-2.9727,1.4712,1.4253,29.15,423.96,250.67
698,42177982,-2.9893,1.4717,1.4419,35.73,425.55,253.90
699,42182981,-3.0059,1.4683,1.4668,41.77,427.26,256.71
700,42187983,-3.0337,1.4731,1.4995,47.07,428.78,259.57
701,42192982,-3.0303,1.4824,1.5288,51.34,430.37,262.32
702,42197983,-3.0234,1.4922,1.5352,55.49,431.89,265.00
703,42202981,-3.0249,1.4961,1.5518,59.21,433.23,267.44
704,42207980,-3.0332,1.5151,1.5669,63.05,434.39,269.76
705,42212984,-3.0522,1.5327,1.5791,66.40,435.18,272.01
706,42217982,-3.1006,1.5356,1.5889,70.37,435.85,274.15
707,42222982,-3.1733,1.5581,1.6089,74.21,436.22,276.04
708,42227982,-3.2671,1.5767,1.6338,77.80,436.52,277.93
709,42232981,-3.3682,1.5903,1.6577,81.95,436.71,279.63
710,42237982,-3.4717,1.6138,1.6665,86.77,437.07,281.46
711,42242981,-3.5669,1.6323,1.6899,91.77,437.68,283.41
712,42247982,-3.6265,1.6367,1.7129,96.95,438.60,285.79
713,42252981,-3.6401,1.6523,1.7222,102.50,440.06,288.48
714,42257988,-3.6128,1.6641,1.7231,107.99,441.95,291.83
715,42262983,-3.5635,1.6782,1.7300,112.99,444.33,295.49
716,42267980,-3.5039,1.6904,1.7280,117.56,447.32,299.76
717,42272982,-3.4609,1.7085,1.7422,120.91,450.85,304.33
718,42277982,-3.4199,1.7275,1.7534,123.17,454.51,309.02
719,42282981,-3.3857,1.7515,1.7817,124.27,458.72,313.90
720,42287982,-3.3770,1.7739,1.8037,124.45,462.87,318.78
721,42292981,-3.3740,1.7822,1.8188,123.84,466.83,323.72
722,42297982,-3.3672,1.7812,1.8633,123.35,470.67,328.78
723,42302981,-3.3608,1.7832,1.8896,123.05,474.21,334.02
724,42307982,-3.3608,1.7808,1.9072,122.74,477.13,339.51
725,42312981,-3.3481,1.7642,1.9395,122.87,479.88,345.30
726,42317982,-3.3354,1.7480,1.9824,123.05,482.20,351.34
727,42322981,-3.3408,1.7261,2.0151,122.80,484.21,357.56
728,42327983,-3.3130,1.6885,2.0337,121.83,485.49,364.15
729,42332981,-3.3433,1.6528,2.1191,119.39,486.04,370.85
730,42337982,-3.3506,1.6313,2.1650,115.06,485.55,377.87
731,42342981,-3.3550,1.6025,2.1904,109.39,483.60,385.37
732,42347982,-3.3726,1.5601,2.2891,102.62,480.79,393.11
733,42352981,-3.4019,1.5137,2.3555,94.51,476.46,401.22
734,42357980,-3.4365,1.4795,2.4443,85.49,470.30,409.51
735,42362984,-3.4775,1.4199,2.5156,75.79,462.99,418.17
736,42368000,-3.5039,1.3784,2.5913,65.37,453.72,426.77
737,42372980,-3.5186,1.3364,2.6592,54.76,442.80,435.73
738,42377984,-3.5400,1.2827,2.7002,42.56,430.73,444.82
739,42382981,-3.5415,1.2378,2.7632,29.09,416.83,453.96
740,42387980,-3.5630,1.1758,2.7954,15.00,401.34,463.35
741,42392982,-3.5615,1.1055,2.8096,-0.18,384.51,472.62
742,42397982,-3.5474,1.0610,2.8457,-12.93,370.06,480.18
743,42402982,-3.5181,0.9590,2.8623,-31.65,346.77,491.46
744,42407982,-3.4609,0.8892,2.8501,-44.33,330.73,499.09
745,42412982,-3.3623,0.8130,2.8599,-59.21,309.88,508.41
746,42418000,-3.2524,0.7139,2.8433,-74.94,284.27,519.39
747,42422982,-3.1816,0.6426,2.8315,-84.33,267.13,526.52
748,42427980,-3.0933,0.5513,2.8032,-95.18,245.61,535.12
749,42432984,-3.0000,0.4614,2.7725,-104.82,224.09,543.05
750,42437980,-2.9194,0.3696,2.7437,-113.35,203.05,550.61
751,42442984,-2.8394,0.2861,2.6885,-120.91,182.38,557.38
752,42447982,-2.7749,0.1987,2.6353,-128.05,161.83,563.48
753,42452982,-2.7310,0.1162,2.5859,-134.02,141.83,568.66
754,42457981,-2.6665,0.0400,2.5376,-139.33,122.20,573.35
755,42462982,-2.1074,-0.8647,3.6929,-142.68,105.00,578.54
756,42467982,-0.8218,-1.5820,3.5674,-148.78,83.96,584.02
757,42472982,-1.0728,-1.8911,4.5576,-167.07,57.32,587.07
758,42477982,-2.0249,-1.1201,4.0605,-188.78,32.68,584.94
759,42482981,-2.1040,-0.6748,3.0718,-202.26,6.83,580.37
760,42488250,-1.9292,-0.5229,2.6709,-206.83,-16.77,577.20
761,42492982,-2.1602,-0.4980,2.2852,-206.40,-38.72,575.06
762,42497981,-2.3018,-0.4536,2.1108,-206.28,-60.12,572.44
763,42502981,-2.2529,-0.4741,2.0151,-208.41,-79.94,568.60
764,42507980,-2.1943,-0.5396,1.8979,-211.40,-98.78,564.51
765,42512982,-2.1816,-0.5957,1.8027,-213.35,-116.77,560.37
766,42517982,-2.1606,-0.6353,1.7388,-213.90,-133.60,555.85
767,42522982,-2.1104,-0.6792,1.6885,-212.44,-149.27,550.85
768,42527981,-2.0688,-0.7529,1.6465,-209.27,-163.96,545.73
769,42532982,-2.0952,-0.8066,1.6157,-204.57,-177.62,540.43
770,42537982,-2.1094,-0.8413,1.5801,-199.51,-190.18,534.88
771,42542982,-2.0425,-0.9312,1.4878,-194.39,-201.95,528.96
772,42547981,-1.9526,-1.0996,1.3867,-189.27,-213.17,522.93
773,42552982,-1.9092,-1.2021,1.2656,-183.78,-223.54,516.46
774,42557982,-1.9292,-1.2300,1.2095,-178.96,-232.38,508.78
775,42562982,-1.8984,-1.2749,1.1187,-174.82,-239.88,499.63
776,42567981,-1.7842,-1.3457,0.9922,-170.61,-246.89,489.02
777,42572983,-1.6997,-1.3867,0.9702,-165.43,-252.74,477.07
778,42577982,-1.6523,-1.4214,0.8774,-159.27,-257.38,464.02
779,42582982,-1.5566,-1.4917,0.8921,-152.26,-261.40,449.82
780,42587980,-1.4756,-1.5210,0.8311,-144.51,-264.45,434.63
781,42592981,-1.4473,-1.5259,0.8101,-135.98,-267.26,418.66
782,42597982,-1.3423,-1.5166,0.7773,-126.52,-269.33,401.95
783,42603159,-1.2446,-1.5073,0.7427,-116.52,-270.85,385.00
784,42607984,-1.2222,-1.5063,0.7095,-106.22,-272.01,367.87
785,42612981,-1.1914,-1.4893,0.6558,-96.52,-272.99,351.28
786,42617982,-1.1504,-1.4321,0.6133,-87.80,-273.90,334.70
787,42622981,-1.1138,-1.3823,0.5469,-80.49,-274.33,318.23
788,42627982,-1.1006,-1.3438,0.4868,-75.06,-274.39,302.07
789,42632981,-1.1318,-1.3076,0.4229,-71.71,-274.15,286.22
790,42637981,-1.1401,-1.2734,0.3374,-70.85,-273.60,271.10
791,42642980,-1.1680,-1.2251,0.2480,-72.32,-273.41,256.34
792,42647982,-1.2397,-1.1904,0.1436,-75.79,-272.93,242.50
793,42653074,-1.3247,-1.1577,0.0352,-80.85,-272.87,229.27
794,42657982,-1.3901,-1.1523,-0.0811,-86.71,-272.56,216.95
795,42662982,-1.4780,-1.2065,-0.2046,-93.17,-272.07,205.43
796,42667982,-1.5591,-1.2803,-0.3608,-100.30,-271.71,194.94
797,42672981,-1.6543,-1.3916,-0.4756,-108.17,-270.85,185.06
798,42677982,-1.7734,-1.5269,-0.5952,-116.40,-269.57,175.61
799,42682981,-1.8779,-1.6870,-0.6821,-125.37,-267.13,165.98
800,42687982,-1.9150,-1.8481,-0.8511,-135.79,-264.39,156.22
801,42692981,-1.8970,-1.9844,-0.8931,-147.01,-260.98,146.22
802,42697984,-1.8643,-2.0527,-0.9429,-158.29,-256.52,135.79
803,42702981,-1.8374,-2.1050,-0.9751,-167.26,-252.26,127.13
804,42707982,-1.7500,-2.1172,-0.9702,-176.89,-246.59,116.28
805,42712981,-1.6182,-2.1001,-0.9507,-184.57,-239.82,104.88
806,42717980,-1.4673,-2.0918,-0.9487,-189.82,-232.38,92.87
807,42722982,-1.3281,-2.0796,-0.9434,-191.89,-224.15,81.40
808,42727980,-1.2085,-2.0371,-0.9170,-190.06,-215.18,69.82
809,42733179,-1.0791,-1.9917,-0.8750,-182.99,-203.48,56.10
810,42737990,-0.9902,-1.9497,-0.8643,-175.61,-195.55,47.38
811,42742982,-0.8730,-1.8647,-0.8311,-163.60,-185.00,36.77
812,42747982,-0.7544,-1.7925,-0.8086,-149.09,-174.27,26.28
813,42753065,-0.6665,-1.7158,-0.7681,-132.32,-163.29,16.46
814,42758253,-0.6030,-1.5977,-0.7217,-110.24,-150.06,5.12
815,42762982,-0.5396,-1.5303,-0.6792,-94.27,-141.16,-2.13
816,42767982,-0.4609,-1.4502,-0.6523,-74.02,-129.94,-10.49
817,42772981,-0.4053,-1.3691,-0.6099,-54.21,-119.02,-18.60
818,42777984,-0.3628,-1.2886,-0.5669,-35.12,-108.35,-26.16
819,42782981,-0.3340,-1.2207,-0.5317,-17.44,-98.35,-33.23
820,42787982,-0.3193,-1.1582,-0.5015,-2.13,-88.54,-40.06
821,42792982,-0.2979,-1.1069,-0.4834,10.43,-79.21,-46.71
822,42797982,-0.2773,-1.0635,-0.4492,19.88,-70.43,-52.93
823,42802982,-0.2734,-1.0288,-0.4136,26.10,-62.56,-58.90
824,42807982,-0.2729,-1.0000,-0.3936,29.33,-54.94,-64.51
825,42812981,-0.2827,-0.9741,-0.3721,30.06,-48.23,-70.06
826,42817982,-0.2891,-0.9541,-0.3408,28.78,-42.01,-75.12
827,42822981,-0.2988,-0.9385,-0.3154,26.34,-36.34,-79.94
828,42827980,-0.3091,-0.9297,-0.2915,23.29,-30.91,-84.51
829,42832982,-0.3218,-0.9243,-0.2769,20.43,-26.34,-88.78
830,42838252,-0.3286,-0.9082,-0.2632,17.93,-22.13,-92.50
831,42842983,-0.3364,-0.9102,-0.2295,16.04,-18.11,-95.91
832,42847981,-0.3423,-0.9233,-0.2168,15.06,-14.45,-99.02
833,42852982,-0.3506,-0.9307,-0.2104,15.00,-11.28,-101.71
834,42858035,-0.3521,-0.9321,-0.2036,15.98,-8.54,-104.02
835,42862982,-0.3511,-0.9248,-0.1816,17.93,-5.98,-106.04
836,42867982,-0.3540,-0.9224,-0.1860,21.04,-3.78,-107.87
837,42873553,-0.3501,-0.9438,-0.1855,25.06,-2.01,-109.33
838,42878933,-0.3330,-0.9600,-0.1685,30.49,-0.12,-110.67
839,42882982,-0.3237,-0.9717,-0.1543,34.15,1.04,-111.46
840,42887980,-0.3154,-0.9785,-0.1577,38.48,2.56,-112.38
841,42892982,-0.3027,-0.9878,-0.1519,42.32,3.48,-113.05
842,42897982,-0.2891,-1.0029,-0.1475,45.43,4.45,-113.72
843,42902981,-0.2759,-1.0142,-0.1465,48.23,5.06,-114.15
844,42907982,-0.2661,-1.0195,-0.1445,50.18,5.67,-114.76
845,42912982,-0.2441,-1.0229,-0.1382,51.34,6.22,-115.18
846,42917982,-0.2251,-1.0190,-0.1333,51.95,6.59,-115.61
847,42922981,-0.2051,-1.0234,-0.1338,52.01,6.83,-115.98
848,42927980,-0.1929,-1.0210,-0.1270,51.83,7.13,-116.28
849,42932980,-0.1738,-1.0161,-0.1211,51.71,7.26,-116.59
850,42937982,-0.1597,-1.0098,-0.1104,51.40,7.62,-116.71
851,42942981,-0.1436,-1.0034,-0.1064,51.40,7.80,-116.89
852,42947980,-0.1240,-0.9912,-0.1021,51.46,8.23,-116.95
853,42952982,-0.1045,-0.9902,-0.1006,51.71,8.66,-117.01
854,42957981,-0.0854,-0.9790,-0.0918,52.20,8.96,-117.32
855,42962982,-0.0688,-0.9751,-0.0781,52.99,9.51,-117.44
856,42967982,-0.0498,-0.9741,-0.0615,53.66,10.24,-117.80
857,42972982,-0.0298,-0.9712,-0.0508,54.63,10.85,-118.29
858,42978246,-0.0024,-0.9673,-0.0386,55.85,11.77,-118.78
859,42982982,0.0142,-0.9600,-0.0337,56.71,12.56,-119.39
860,42987982,0.0283,-0.9521,-0.0293,57.87,13.60,-120.12
861,42993330,0.0430,-0.9409,-0.0195,58.41,14.57,-121.22
862,42997983,0.0620,-0.9287,-0.0161,58.72,15.49,-122.44
863,43002984,0.0649,-0.9194,-0.0049,59.09,16.40,-123.96
864,43007982,0.0654,-0.9189,0.0107,59.39,17.07,-125.37
865,43012982,0.0664,-0.9126,0.0288,60.43,18.05,-127.56
866,43017982,0.0693,-0.9141,0.0361,61.46,18.66,-129.09
867,43022981,0.0703,-0.9116,0.0474,63.41,19.57,-131.16
868,43027982,0.0713,-0.9062,0.0513,66.16,20.24,-133.23
869,43032981,0.0728,-0.9033,0.0576,69.33,21.22,-135.37
870,43037982,0.0669,-0.9033,0.0635,73.29,22.01,-137.50
871,43042981,0.0654,-0.8979,0.0713,77.80,22.68,-139.76
872,43048487,0.0654,-0.8940,0.0791,83.78,23.60,-142.32
873,43052982,0.0674,-0.8906,0.0845,87.93,24.02,-144.02
874,43057982,0.0664,-0.8877,0.1055,92.99,24.76,-146.22
875,43062982,0.0732,-0.8882,0.1069,98.41,25.43,-148.48
876,43067981,0.0854,-0.8877,0.1113,103.78,25.91,-150.67
877,43072982,0.0913,-0.8833,0.1240,108.84,26.40,-152.68
878,43077982,0.0938,-0.8809,0.1284,113.96,26.71,-154.70
879,43082982,0.0972,-0.8711,0.1343,118.78,27.20,-156.59
880,43087981,0.1055,-0.8613,0.1382,123.23,27.50,-158.29
881,43092982,0.1050,-0.8506,0.1377,127.56,27.68,-159.88
882,43097982,0.1152,-0.8345,0.1260,129.82,28.05,-161.52
883,43102982,0.1187,-0.8174,0.1245,133.17,28.05,-163.05
884,43107981,0.1318,-0.8091,0.1230,135.06,28.35,-164.63
885,43112982,0.1484,-0.7949,0.1147,135.98,28.60,-166.22
886,43117983,0.1641,-0.7798,0.1226,135.73,28.90,-167.68
887,43122982,0.1846,-0.7759,0.1221,134.63,29.39,-169.39
888,43127982,0.2051,-0.7661,0.1221,132.44,29.88,-171.04
889,43132981,0.2314,-0.7578,0.1289,129.02,30.49,-172.62
890,43137982,0.2485,-0.7568,0.1289,125.79,31.40,-174.27
891,43142981,0.2686,-0.7573,0.1382,121.04,32.13,-175.79
892,43147981,0.2827,-0.7417,0.1494,116.16,33.23,-177.20
893,43152982,0.3022,-0.7344,0.1489,111.46,34.15,-178.60
894,43157982,0.3130,-0.7212,0.1689,106.77,35.30,-179.57
895,43162981,0.3101,-0.7051,0.1709,102.13,36.52,-180.61
896,43168375,0.3057,-0.6895,0.1782,98.05,37.74,-181.52
897,43172984,0.3359,-0.6729,0.1719,94.57,38.84,-182.01
898,43177982,0.3564,-0.6484,0.1885,91.16,40.18,-182.68
899,43182983,0.3560,-0.6206,0.1841,88.11,41.52,-183.17
900,43187981,0.3682,-0.5991,0.1929,85.12,42.87,-183.66
901,43192985,0.3911,-0.5732,0.1890,82.32,44.09,-184.21
902,43197983,0.4150,-0.5415,0.1938,79.82,45.61,-184.76
903,43202981,0.4580,-0.5161,0.2031,76.95,46.89,-185.18
904,43208336,0.4658,-0.4824,0.2241,74.02,48.35,-185.79
905,43212982,0.4922,-0.4653,0.2056,70.79,49.94,-186.40
906,43218488,0.5400,-0.4307,0.2241,66.95,51.10,-187.01
907,43222982,0.5112,-0.4009,0.2900,62.44,52.56,-187.93
908,43227982,0.5054,-0.3608,0.3066,56.95,53.96,-188.60
909,43232982,0.5425,-0.3682,0.2827,51.34,55.06,-189.21
910,43237981,0.5601,-0.3618,0.2769,46.04,55.61,-189.51
911,43242982,0.5537,-0.3477,0.3022,41.34,56.46,-189.63
912,43247981,0.5347,-0.3228,0.3315,37.32,57.56,-189.70
913,43252981,0.5283,-0.2842,0.3325,34.21,58.60,-189.82
914,43257982,0.5156,-0.2412,0.3408,31.95,59.45,-189.82
915,43262982,0.4873,-0.2090,0.3491,30.61,60.61,-189.82
916,43267982,0.3887,-0.1899,0.3325,30.18,61.34,-189.63
917,43272982,0.3965,-0.1528,0.3286,30.06,61.83,-189.15
918,43277980,0.3960,-0.1279,0.3203,30.37,62.20,-188.60
919,43282982,0.3940,-0.1147,0.3218,30.79,62.32,-187.68
920,43287982,0.3979,-0.1089,0.3213,31.34,62.44,-186.71
921,43292982,0.4058,-0.1128,0.3271,32.07,62.62,-185.24
922,43297980,0.4116,-0.1025,0.3228,32.80,62.44,-183.96
923,43302984,0.4248,-0.0767,0.3271,33.11,62.38,-182.56
924,43307982,0.4668,-0.0200,0.3428,33.17,62.56,-181.04
925,43312982,0.4976,0.0264,0.3564,33.05,62.32,-179.45
926,43317981,0.5352,0.1099,0.3911,32.38,62.26,-177.50
927,43322982,0.6558,0.2363,0.4863,31.22,62.32,-175.43
928,43327982,0.7061,0.2788,0.5435,29.15,62.20,-173.60
929,43332983,0.7310,0.3013,0.6309,26.28,61.52,-170.67
930,43337981,0.7827,0.2979,0.7056,23.05,60.55,-167.56
931,43342982,0.7817,0.2515,0.7280,19.57,59.09,-163.96
932,43347981,0.7368,0.2168,0.7251,16.28,57.38,-159.94
933,43352982,0.6968,0.1992,0.7041,12.68,55.67,-156.46
934,43357982,0.7109,0.2070,0.7026,9.45,54.45,-153.17
935,43362982,0.7700,0.1919,0.7041,6.04,53.78,-150.30
936,43367982,0.8438,0.1436,0.7344,2.87,53.17,-147.50
937,43372982,0.9673,0.0215,0.8071,-0.61,53.05,-144.76
938,43377981,1.1172,-0.1353,0.9238,-4.76,52.87,-141.83
939,43382983,1.2300,-0.2749,1.0259,-9.70,52.50,-138.96
940,43387982,1.1455,-0.2930,1.0547,-15.49,51.71,-136.65
941,43392983,0.8608,-0.2134,1.0249,-20.49,50.79,-134.88
942,43397981,0.5825,-0.0996,0.9448,-23.35,50.24,-133.60
943,43402983,0.4556,0.0156,0.8271,-24.09,50.18,-132.50
944,43407982,0.4434,0.1318,0.6807,-23.05,50.30,-131.04
945,43412983,0.4810,0.1885,0.6260,-20.37,51.04,-129.27
946,43417981,0.5181,0.2856,0.6104,-16.83,51.95,-127.01
947,43422998,0.5757,0.3232,0.6538,-12.74,53.17,-124.39
948,43427981,0.6230,0.3306,0.6431,-8.96,54.27,-121.40
949,43432982,0.6841,0.3389,0.6416,-5.18,55.43,-117.74
950,43437997,0.7495,0.3687,0.6763,-1.65,56.71,-113.78
951,43442982,0.7974,0.4092,0.7231,1.59,58.17,-109.76
952,43448070,0.8145,0.4468,0.7300,4.70,59.63,-105.61
953,43452982,0.8096,0.4526,0.7563,8.72,61.22,-102.32
954,43457981,0.8047,0.3936,0.7612,13.66,63.05,-97.56
955,43462982,0.7974,0.5918,0.8145,17.56,64.39,-95.43
956,43467982,0.8423,0.4229,0.7671,24.63,66.34,-93.96
957,43472982,0.9072,0.3818,0.7837,31.83,67.44,-92.50
958,43477981,0.9453,0.3403,0.7910,38.66,67.07,-90.98
959,43482982,1.0376,0.4058,0.6577,44.51,65.18,-89.63
960,43487982,1.1011,0.4097,0.7373,49.39,61.95,-88.60
961,43492981,1.0542,0.4209,0.8262,53.66,59.09,-87.44
962,43497982,1.0303,0.4380,0.8203,57.13,56.22,-86.46
963,43502982,1.0430,0.4526,0.8203,60.18,53.48,-85.49
964,43507982,1.0547,0.4595,0.8745,62.32,50.55,-84.51
965,43512981,1.0566,0.4795,0.8838,63.60,48.29,-83.35
966,43517982,1.0415,0.4941,0.8491,64.15,45.55,-82.13
967,43522981,1.0239,0.5020,0.8374,63.90,42.87,-80.73
968,43527982,1.0029,0.5200,0.8428,62.99,40.37,-79.15
969,43532981,0.9888,0.5293,0.8379,61.65,37.74,-77.50
970,43538018,0.9766,0.5312,0.8281,59.88,35.37,-75.85
971,43542981,0.9609,0.5264,0.8403,57.74,33.17,-73.78
972,43547984,0.9478,0.5259,0.8467,55.37,31.10,-71.65
973,43552981,0.9316,0.5244,0.8423,52.74,29.15,-69.39
974,43557981,0.9194,0.5273,0.8291,50.12,27.50,-66.83
975,43562982,0.9111,0.5249,0.8301,47.68,26.04,-64.33
976,43567981,0.9019,0.5225,0.8315,45.37,24.57,-61.71
977,43572983,0.8994,0.5239,0.8237,43.41,23.35,-58.96
978,43577981,0.8936,0.5151,0.8276,41.83,22.20,-56.16
979,43582984,0.8872,0.5132,0.8306,40.49,21.46,-53.35
980,43587982,0.8755,0.5098,0.8306,39.51,20.91,-50.37
981,43592982,0.8721,0.5083,0.8252,38.90,20.30,-47.44
982,43597980,0.8618,0.5054,0.8345,38.78,19.88,-44.39
983,43603095,0.8540,0.5044,0.8354,38.78,19.76,-41.52
984,43607984,0.8506,0.4995,0.8320,39.21,19.45,-38.48
985,43612982,0.8462,0.4868,0.8325,39.63,19.27,-35.43
986,43617982,0.8442,0.4771,0.8291,40.37,19.15,-32.32
987,43622982,0.8486,0.4741,0.8242,40.91,19.21,-29.27
988,43627980,0.8467,0.4644,0.8149,41.65,18.96,-26.28
989,43632982,0.8574,0.4580,0.8018,42.32,18.72,-23.17
990,43637982,0.8643,0.4507,0.8057,42.74,18.41,-20.24
991,43642981,0.8643,0.4424,0.8101,42.99,18.29,-18.11
992,43647982,0.8730,0.4434,0.8013,43.23,17.99,-15.37
993,43652981,0.8818,0.4355,0.8027,43.29,17.80,-12.62
994,43657980,0.8901,0.4360,0.7998,43.35,17.44,-10.12
995,43663041,0.8989,0.4307,0.8013,42.93,17.20,-7.32
996,43667981,0.9136,0.4302,0.8037,42.74,16.77,-5.06
997,43672984,0.9224,0.4321,0.8110,42.26,16.40,-3.48
998,43677980,0.9321,0.4307,0.8062,41.65,16.10,-1.46
999,43682982,0.9375,0.4277,0.8091,40.85,15.61,0.24
1000,43687982,0.9463,0.4302,0.8052,39.94,15.12,2.07
1001,43692982,0.9487,0.4331,0.8091,39.02,14.70,3.60
1002,43697981,0.9570,0.4370,0.8037,37.99,14.27,4.94
1003,43703039,0.9629,0.4414,0.7974,37.13,13.35,6.28
1004,43707982,0.9727,0.4434,0.8003,36.04,12.80,7.50
1005,43712982,0.9697,0.4424,0.7925,34.88,11.95,8.54
1006,43717981,0.9683,0.4458,0.7896,33.72,11.04,9.51
1007,43722982,0.9624,0.4458,0.7871,32.38,10.24,10.43
1008,43727982,0.9609,0.4414,0.7827,31.28,9.27,11.28
1009,43732982,0.9546,0.4414,0.7808,30.06,8.17,12.01
1010,43738495,0.9380,0.4375,0.7832,28.78,7.01,12.87
1011,43742982,0.9370,0.4346,0.7773,28.17,6.28,13.54
1012,43747982,0.9307,0.4292,0.7812,27.38,5.00,14.09
1013,43752982,0.9229,0.4253,0.7808,26.95,3.90,14.88
1014,43757981,0.9194,0.4253,0.7827,26.65,2.74,15.61
1015,43762982,0.9053,0.4233,0.7842,26.52,1.71,16.28
1016,43767981,0.8945,0.4224,0.7832,26.71,0.61,16.89
1017,43772982,0.8877,0.4175,0.7856,27.01,-0.37,17.56
1018,43777982,0.8770,0.4224,0.7876,27.80,-1.52,18.17
1019,43782983,0.8682,0.4214,0.7915,28.84,-2.44,18.90
1020,43787981,0.8647,0.4214,0.7964,30.06,-3.48,19.39
1021,43792982,0.8828,0.4268,0.8086,31.46,-4.15,20.12
1022,43797982,0.8623,0.4248,0.8188,32.74,-4.57,20.73
1023,43802982,0.8027,0.4185,0.7949,33.96,-5.43,21.34
1024,43807982,0.7642,0.4175,0.7837,35.73,-6.04,22.13
1025,43812982,0.7676,0.4253,0.7925,37.07,-6.77,22.68
1026,43817982,0.7817,0.4077,0.7925,38.54,-7.38,23.48
1027,43822982,0.7842,0.3979,0.7915,39.82,-7.87,24.45
1028,43827981,0.7671,0.3955,0.7920,41.10,-8.29,25.37
1029,43832982,0.7505,0.3955,0.7974,42.32,-8.84,26.22
1030,43837982,0.7373,0.3965,0.7866,43.48,-9.45,27.01
1031,43842982,0.7295,0.4009,0.7847,44.63,-9.82,27.93
1032,43848033,0.7231,0.3926,0.7798,45.61,-10.49,28.66
1033,43852982,0.7153,0.3853,0.7803,46.28,-10.79,29.51
1034,43857982,0.7061,0.3799,0.7715,46.83,-11.52,30.37
1035,43862983,0.6948,0.3726,0.7676,47.01,-11.95,31.28
1036,43868083,0.6924,0.3657,0.7515,47.01,-12.38,32.26
1037,43872981,0.6890,0.3579,0.7554,46.83,-12.93,33.11
1038,43877982,0.6895,0.3516,0.7441,46.59,-13.48,34.09
1039,43882981,0.6880,0.3496,0.7363,46.10,-13.96,34.94
1040,43887984,0.6919,0.3472,0.7446,45.79,-14.51,36.04
1041,43893496,0.6899,0.3389,0.7344,45.06,-15.06,37.01
1042,43897983,0.6929,0.3364,0.7261,44.57,-15.61,37.93
1043,43902980,0.6934,0.3345,0.7261,44.15,-16.22,38.78
1044,43907984,0.6992,0.3306,0.7280,43.54,-16.65,39.63
1045,43912980,0.6978,0.3315,0.7256,43.29,-17.01,40.43
1046,43917982,0.6987,0.3340,0.7246,43.23,-17.44,41.22
1047,43922980,0.6992,0.3389,0.7241,43.17,-17.68,41.89
1048,43927984,0.7036,0.3364,0.7202,43.29,-17.87,42.62
1049,43932980,0.7026,0.3311,0.7212,43.35,-17.99,43.11
1050,43937984,0.7095,0.3281,0.7231,43.66,-18.23,43.66
1051,43942982,0.7153,0.3232,0.7217,43.72,-18.29,44.21
1052,43947980,0.7192,0.3149,0.7188,43.90,-18.35,44.57
1053,43952982,0.7275,0.3062,0.7158,44.09,-18.17,45.00
1054,43957982,0.7295,0.2998,0.7178,44.21,-18.29,45.43
1055,43962982,0.7339,0.2979,0.7173,44.21,-18.11,45.73
1056,43967982,0.7354,0.2959,0.7227,44.39,-17.99,46.04
1057,43973021,0.7417,0.2959,0.7173,44.57,-17.87,46.40
1058,43977982,0.7510,0.2900,0.7207,44.63,-17.80,46.40
1059,43982983,0.7549,0.2852,0.7139,44.76,-17.62,46.65
1060,43987981,0.7607,0.2861,0.7129,44.94,-17.44,46.71
1061,43992982,0.7642,0.2827,0.7100,45.06,-17.32,46.59
1062,43997982,0.7725,0.2793,0.7085,45.12,-17.20,46.65
1063,44002982,0.7739,0.2812,0.7012,45.12,-16.95,46.71
1064,44007981,0.7778,0.2739,0.7012,45.30,-16.89,46.46
1065,44012982,0.7856,0.2666,0.7061,45.00,-16.77,46.22
1066,44017982,0.7905,0.2666,0.7012,44.82,-16.65,46.04
1067,44022983,0.7959,0.2607,0.7021,44.63,-16.52,45.79
1068,44027981,0.7964,0.2573,0.7021,44.33,-16.46,45.43
1069,44032982,0.8042,0.2563,0.6982,43.96,-16.34,45.18
1070,44037982,0.8071,0.2515,0.6987,43.48,-16.16,44.82
1071,44042982,0.8105,0.2529,0.7007,43.11,-16.04,44.33
1072,44047981,0.8149,0.2471,0.7031,42.50,-15.98,43.90
1073,44052982,0.8198,0.2417,0.7017,42.01,-15.79,43.29
1074,44057982,0.8247,0.2412,0.7012,41.34,-15.67,42.80
1075,44062983,0.8301,0.2446,0.7046,40.67,-15.55,42.26
1076,44068267,0.8315,0.2510,0.6982,39.82,-15.49,41.59
1077,44073161,0.8374,0.2520,0.7021,39.09,-15.30,40.79
1078,44077981,0.8374,0.2549,0.7056,38.23,-15.18,40.12
1079,44082982,0.8423,0.2549,0.6948,37.13,-15.12,39.27
1080,44087982,0.8428,0.2559,0.6899,36.16,-15.12,38.35
1081,44092983,0.8418,0.2578,0.6904,35.00,-15.12,37.44
1082,44097981,0.8413,0.2544,0.6841,33.78,-15.00,36.52
1083,44102982,0.8472,0.2510,0.6929,32.50,-15.12,35.67
1084,44107983,0.8442,0.2505,0.6855,31.04,-14.94,34.57
1085,44112982,0.8398,0.2505,0.6836,29.63,-15.06,33.66
1086,44117983,0.8413,0.2524,0.6777,28.05,-15.00,32.74
1087,44122982,0.8428,0.2529,0.6816,26.52,-15.00,31.77
1088,44127982,0.8374,0.2554,0.6724,25.00,-15.00,30.67
1089,44132982,0.8413,0.2529,0.6616,23.35,-14.94,29.63
1090,44137981,0.8389,0.2534,0.6704,21.71,-15.00,28.72
1091,44142982,0.8394,0.2534,0.6621,20.06,-15.12,27.68
1092,44147982,0.8359,0.2524,0.6514,18.41,-15.12,26.65
1093,44152983,0.8340,0.2612,0.6489,16.95,-15.18,25.67
1094,44157980,0.8291,0.2607,0.6499,15.55,-15.30,24.70
1095,44162984,0.8247,0.2578,0.6450,14.21,-15.24,23.66
1096,44167982,0.8228,0.2603,0.6367,12.87,-15.37,22.74
1097,44172983,0.8208,0.2544,0.6343,11.65,-15.43,21.89
1098,44177981,0.8159,0.2480,0.6255,10.30,-15.43,21.04
1099,44182982,0.8149,0.2456,0.6240,9.15,-15.55,20.24
1100,44187983,0.8096,0.2422,0.6245,8.05,-15.67,19.39
1101,44192983,0.8110,0.2358,0.6206,7.20,-15.79,18.72
1102,44197983,0.8052,0.2334,0.6118,6.59,-15.85,17.99
1103,44202981,0.8062,0.2305,0.6157,5.98,-15.79,17.44
1104,44207982,0.8042,0.2305,0.6089,5.55,-15.98,16.83
1105,44212981,0.7998,0.2300,0.6123,5.37,-16.16,16.22
1106,44217982,0.8027,0.2300,0.6069,5.30,-15.98,15.61
1107,44222983,0.7969,0.2231,0.6040,5.49,-16.04,15.24
1108,44227982,0.7983,0.2271,0.5972,5.67,-15.98,14.63
1109,44232982,0.7959,0.2290,0.5977,6.22,-15.98,14.09
1110,44237982,0.7930,0.2256,0.5962,6.89,-15.91,13.72
1111,44242982,0.7930,0.2266,0.5879,7.38,-15.79,13.29
1112,44247982,0.7939,0.2285,0.5947,8.29,-15.79,12.80
1113,44252982,0.7959,0.2295,0.5859,8.84,-15.73,12.32
1114,44257982,0.7974,0.2295,0.5894,9.51,-15.55,11.95
1115,44262982,0.8008,0.2275,0.5928,10.12,-15.49,11.46
1116,44267982,0.8008,0.2295,0.5874,10.73,-15.12,11.04
1117,44272982,0.7988,0.2280,0.5796,11.22,-15.06,10.67
1118,44277980,0.8052,0.2212,0.5796,11.46,-14.82,10.43
1119,44282982,0.8018,0.2246,0.5820,11.83,-14.51,9.88
1120,44287984,0.8071,0.2241,0.5815,12.01,-14.33,9.57
1121,44292981,0.8081,0.2275,0.5757,12.26,-14.27,9.33
1122,44297982,0.8101,0.2231,0.5747,12.26,-14.09,8.90
1123,44302981,0.8140,0.2271,0.5674,12.20,-13.78,8.54
1124,44307982,0.8184,0.2295,0.5684,12.07,-13.60,8.29
1125,44312981,0.8228,0.2329,0.5630,12.01,-13.54,7.87
1126,44317982,0.8223,0.2310,0.5625,11.89,-13.23,7.50
1127,44322982,0.8252,0.2319,0.5571,11.83,-12.99,7.01
1128,44327984,0.8267,0.2344,0.5547,11.65,-12.87,6.59
1129,44332981,0.8315,0.2344,0.5566,11.40,-12.74,6.16
1130,44337984,0.8291,0.2378,0.5581,11.28,-12.38,5.73
1131,44342981,0.8345,0.2358,0.5552,11.16,-12.07,5.30
1132,44347982,0.8345,0.2422,0.5596,11.04,-11.89,4.88
1133,44352981,0.8369,0.2402,0.5586,10.79,-11.46,4.39
1134,44357982,0.8428,0.2451,0.5571,10.61,-11.16,4.02
1135,44362981,0.8467,0.2427,0.5562,10.30,-10.79,3.66
1136,44367982,0.8472,0.2412,0.5566,9.94,-10.49,3.29
1137,44372981,0.8525,0.2422,0.5439,9.63,-10.18,2.87
1138,44377981,0.8550,0.2407,0.5522,9.15,-10.00,2.44
1139,44382982,0.8545,0.2407,0.5493,8.84,-9.63,2.07
1140,44387982,0.8589,0.2471,0.5479,8.35,-9.45,1.71
1141,44392982,0.8608,0.2451,0.5513,7.93,-8.96,1.40
1142,44397983,0.8623,0.2480,0.5498,7.44,-8.72,1.10
1143,44402982,0.8628,0.2490,0.5488,7.07,-8.48,0.73
1144,44407982,0.8623,0.2480,0.5459,6.65,-8.17,0.43
1145,44412981,0.8623,0.2505,0.5420,6.40,-7.74,0.00
1146,44418010,0.8672,0.2544,0.5454,6.10,-7.38,-0.24
1147,44422986,0.8652,0.2520,0.5469,5.98,-7.26,-0.55
1148,44427983,0.8633,0.2510,0.5493,5.73,-6.77,-0.91
1149,44432983,0.8657,0.2529,0.5488,5.73,-6.46,-1.22
1150,44437982,0.8682,0.2588,0.5508,5.49,-6.22,-1.59
1151,44442982,0.8652,0.2578,0.5547,5.43,-5.67,-1.83
1152,44447982,0.8716,0.2593,0.5435,5.37,-5.30,-2.07
1153,44452984,0.8696,0.2612,0.5557,5.12,-4.94,-2.38
1154,44457982,0.8687,0.2646,0.5508,5.06,-4.63,-2.68
1155,44462982,0.8726,0.2671,0.5522,4.76,-4.15,-2.93
1156,44467982,0.8701,0.2661,0.5469,4.57,-3.84,-3.23
1157,44472983,0.8735,0.2622,0.5464,4.27,-3.48,-3.60
1158,44477981,0.8755,0.2666,0.5425,4.02,-3.17,-3.72
1159,44482980,0.8735,0.2661,0.5474,3.78,-2.80,-4.02
1160,44487982,0.8726,0.2700,0.5435,3.54,-2.44,-4.21
1161,44492982,0.8730,0.2686,0.5400,3.60,-2.20,-4.51
1162,44497982,0.8716,0.2754,0.5464,3.41,-1.65,-4.70
1163,44502983,0.8691,0.2739,0.5488,3.23,-1.46,-4.88
1164,44508028,0.8696,0.2749,0.5469,3.11,-0.98,-5.00
1165,44512982,0.8691,0.2744,0.5493,3.23,-0.67,-5.18
1166,44518130,0.8691,0.2759,0.5493,3.23,-0.18,-5.30
1167,44522982,0.8687,0.2798,0.5537,3.11,0.24,-5.30
1168,44527984,0.8647,0.2808,0.5581,3.05,0.73,-5.55
1169,44532982,0.8677,0.2832,0.5557,2.93,1.10,-5.73
1170,44537982,0.8647,0.2832,0.5571,2.74,1.65,-5.79
1171,44542982,0.8618,0.2832,0.5591,2.50,2.13,-5.85
1172,44548051,0.8672,0.2881,0.5503,2.26,2.50,-5.91
1173,44552982,0.8628,0.2861,0.5527,2.13,3.05,-6.10
1174,44557982,0.8589,0.2812,0.5601,1.65,3.35,-6.10
1175,44562982,0.8604,0.2842,0.5557,1.22,3.78,-6.16
1176,44567982,0.8589,0.2842,0.5566,0.85,4.27,-6.28
1177,44572982,0.8569,0.2793,0.5562,0.43,4.63,-6.22
1178,44577980,0.8584,0.2847,0.5547,0.00,5.12,-6.28
1179,44582982,0.8589,0.2798,0.5537,-0.49,5.55,-6.10
1180,44588349,0.8604,0.2798,0.5522,-0.85,5.85,-6.10
1181,44592982,0.8589,0.2822,0.5601,-1.28,6.10,-6.10
1182,44598060,0.8589,0.2891,0.5557,-1.71,6.40,-6.10
1183,44602982,0.8608,0.2881,0.5601,-2.01,6.95,-6.04
1184,44607982,0.8604,0.2886,0.5596,-2.20,7.20,-6.16
1185,44612982,0.8594,0.2876,0.5527,-2.62,7.62,-6.10
1186,44617982,0.8638,0.2896,0.5542,-2.68,7.87,-6.10
1187,44622981,0.8574,0.2905,0.5552,-3.17,8.17,-6.04
1188,44627982,0.8608,0.2910,0.5508,-3.35,8.41,-6.04
1189,44632981,0.8696,0.2856,0.5488,-3.66,8.72,-5.98
1190,44637982,0.8672,0.2881,0.5566,-3.96,8.78,-6.04
1191,44642981,0.8638,0.2886,0.5552,-4.15,9.21,-6.04
1192,44647985,0.8691,0.2881,0.5513,-4.27,9.21,-5.91
1193,44652981,0.8633,0.2871,0.5562,-4.39,9.45,-5.73
1194,44657982,0.8667,0.2856,0.5513,-4.51,9.63,-5.67
1195,44662981,0.8628,0.2837,0.5537,-4.51,9.63,-5.73
1196,44667982,0.8618,0.2837,0.5518,-4.39,9.82,-5.49
1197,44672981,0.8599,0.2876,0.5557,-4.39,10.00,-5.43
1198,44677982,0.8618,0.2856,0.5552,-4.27,10.06,-5.24
1199,44682981,0.8579,0.2866,0.5601,-4.09,10.12,-5.18
1200,44687982,0.8604,0.2871,0.5552,-3.78,10.30,-5.00
1201,44692981,0.8618,0.2886,0.5615,-3.41,10.24,-4.82
1202,44697983,0.8589,0.2886,0.5610,-3.05,10.37,-4.70
1203,44702981,0.8589,0.2944,0.5645,-2.62,10.67,-4.57
1204,44707982,0.8574,0.2910,0.5625,-2.26,10.49,-4.51
1205,44712981,0.8579,0.2915,0.5698,-1.83,10.79,-4.27
1206,44717982,0.8599,0.2891,0.5713,-1.40,10.85,-4.09
1207,44722981,0.8550,0.2935,0.5654,-1.16,10.79,-3.90
1208,44727982,0.8579,0.2939,0.5708,-0.79,10.85,-3.78
1209,44732981,0.8555,0.2920,0.5728,-0.49,11.22,-3.60
1210,44737982,0.8501,0.2920,0.5781,-0.18,11.16,-3.48
1211,44742981,0.8550,0.2949,0.5786,0.12,11.22,-3.35
1212,44747982,0.8535,0.2964,0.5776,0.43,11.28,-3.11
1213,44752981,0.8506,0.2935,0.5796,0.55,11.28,-2.99
1214,44757982,0.8540,0.3003,0.5811,0.79,11.28,-2.74
1215,44762982,0.8491,0.3037,0.5854,0.79,11.34,-2.62
1216,44767982,0.8467,0.3027,0.5840,0.98,11.40,-2.50
1217,44772982,0.8472,0.3037,0.5903,1.04,11.40,-2.38
1218,44777981,0.8491,0.3057,0.5913,0.98,11.52,-2.38
1219,44782982,0.8486,0.3066,0.5908,1.04,11.52,-2.26
1220,44788508,0.8423,0.3071,0.5928,0.91,11.40,-2.13
1221,44792982,0.8413,0.3071,0.5996,0.79,11.52,-1.95
1222,44797982,0.8374,0.3062,0.5991,0.73,11.40,-1.71
1223,44802981,0.8428,0.3057,0.5952,0.61,11.52,-1.83
1224,44808470,0.8369,0.3062,0.5991,0.55,11.46,-1.59
1225,44814509,0.8398,0.3066,0.5991,0.37,11.34,-1.34
1226,44817983,0.8359,0.3091,0.5972,0.30,11.16,-1.34
1227,44823236,0.8354,0.3105,0.5991,0.30,11.28,-1.16
1228,44828507,0.8394,0.3076,0.6040,0.06,11.04,-1.10
1229,44832982,0.8320,0.3159,0.6104,-0.12,11.10,-1.04
1230,44837982,0.8359,0.3169,0.6108,-0.24,11.10,-0.79
1231,44842982,0.8330,0.3110,0.6123,-0.24,10.91,-0.73
1232,44847981,0.8335,0.3091,0.6147,-0.24,10.79,-0.67
1233,44852983,0.8330,0.3071,0.6050,-0.49,10.91,-0.61
1234,44857982,0.8325,0.3047,0.6143,-0.61,10.79,-0.37
1235,44862982,0.8320,0.3027,0.6182,-0.61,10.61,-0.30
1236,44867981,0.8311,0.3062,0.6152,-0.67,10.43,-0.12
1237,44872982,0.8301,0.3047,0.6255,-0.67,10.43,-0.06
1238,44877982,0.8247,0.3037,0.6182,-0.67,10.24,0.12
1239,44882982,0.8252,0.3071,0.6157,-0.61,9.88,0.24
1240,44887981,0.8242,0.3037,0.6255,-0.61,9.82,0.43
1241,44892981,0.8242,0.3027,0.6289,-0.55,9.76,0.49
1242,44897982,0.8213,0.3018,0.6265,-0.37,9.51,0.61
1243,44902981,0.8228,0.3076,0.6260,-0.06,9.27,0.73
1244,44907982,0.8252,0.2998,0.6304,0.00,9.02,0.85
1245,44912981,0.8223,0.3013,0.6299,0.24,8.78,1.16
1246,44917982,0.8232,0.3066,0.6279,0.49,8.48,1.28
1247,44922981,0.8228,0.3013,0.6333,0.73,8.29,1.34
1248,44927982,0.8174,0.3018,0.6270,0.98,8.05,1.52
1249,44932982,0.8193,0.2979,0.6279,1.22,7.68,1.65
1250,44937982,0.8193,0.3022,0.6294,1.59,7.56,1.77
1251,44942981,0.8184,0.3037,0.6309,1.71,7.07,2.01
1252,44947984,0.8198,0.3052,0.6406,1.95,6.83,2.13
1253,44952981,0.8193,0.3047,0.6362,2.32,6.65,2.13
1254,44957982,0.8164,0.3042,0.6377,2.68,6.34,2.38
1255,44962981,0.8154,0.3013,0.6387,2.80,5.98,2.50
1256,44967982,0.8154,0.3008,0.6411,2.99,5.61,2.56
1257,44972981,0.8135,0.3018,0.6411,3.11,5.49,2.62
1258,44977982,0.8115,0.2983,0.6401,3.41,5.06,2.74
1259,44982981,0.8120,0.3008,0.6460,3.60,4.70,2.99
1260,44987980,0.8105,0.3027,0.6479,3.78,4.21,3.11
1261,44992982,0.8120,0.3013,0.6479,3.96,4.09,3.23
1262,44997984,0.8057,0.2998,0.6494,4.15,3.48,3.35
1263,45002982,0.8027,0.2983,0.6548,4.27,3.23,3.48
1264,45007982,0.8105,0.3008,0.6455,4.51,2.87,3.72
1265,45012981,0.8135,0.3003,0.6523,4.76,2.50,3.84
1266,45017984,0.8125,0.2998,0.6514,4.70,2.20,4.09
1267,45022981,0.8091,0.3008,0.6528,4.94,1.65,4.15
1268,45027980,0.8120,0.3003,0.6562,5.00,1.40,4.33
1269,45032982,0.8110,0.3013,0.6602,5.18,1.04,4.45
1270,45037982,0.8096,0.3008,0.6523,5.24,0.67,4.63
1271,45042982,0.8101,0.3003,0.6592,5.43,0.18,4.82
1272,45047981,0.8135,0.3013,0.6582,5.43,-0.06,5.00
1273,45052982,0.8159,0.3032,0.6611,5.55,-0.55,5.12
1274,45058383,0.8154,0.2983,0.6582,5.61,-0.73,5.24
1275,45062983,0.8086,0.3018,0.6567,5.55,-1.22,5.18
1276,45067982,0.8145,0.2959,0.6606,5.55,-1.65,5.30
1277,45072982,0.8179,0.2983,0.6562,5.49,-1.89,5.43
1278,45077982,0.8188,0.2964,0.6562,5.30,-2.44,5.67
1279,45082982,0.8193,0.2964,0.6582,5.12,-2.74,5.61
1280,45087982,0.8213,0.2969,0.6582,4.94,-3.23,5.73
1281,45092983,0.8228,0.3008,0.6528,4.76,-3.54,5.73
1282,45097981,0.8242,0.2998,0.6533,4.57,-3.78,5.85
1283,45102982,0.8286,0.2925,0.6519,4.51,-4.27,5.79
1284,45107982,0.8281,0.2930,0.6519,4.33,-4.70,5.85
1285,45112982,0.8276,0.2900,0.6519,3.96,-5.18,5.91
1286,45117983,0.8257,0.2891,0.6509,3.84,-5.55,5.91
1287,45122982,0.8247,0.2876,0.6499,3.54,-5.85,5.91
1288,45127982,0.8169,0.2900,0.6489,3.41,-6.34,6.10
1289,45132983,0.8262,0.2827,0.6460,3.29,-6.46,6.04
1290,45137981,0.8242,0.2866,0.6514,3.17,-6.83,6.10
1291,45142982,0.8237,0.2905,0.6455,3.29,-7.01,6.04
1292,45147982,0.8247,0.2920,0.6528,3.29,-7.13,6.10
1293,45152983,0.8223,0.2915,0.6538,3.48,-7.62,5.98
1294,45157981,0.8247,0.2905,0.6465,3.60,-7.93,5.91
1295,45162983,0.8223,0.2891,0.6455,3.72,-8.11,5.91
1296,45167982,0.8252,0.2842,0.6440,3.84,-8.29,5.91
1297,45172981,0.8267,0.2837,0.6484,3.96,-8.54,6.10
1298,45178059,0.8228,0.2837,0.6465,3.96,-8.84,6.04
1299,45182982,0.8257,0.2827,0.6348,4.15,-8.96,5.98
1300,45188532,0.8281,0.2861,0.6362,4.27,-9.21,6.04
1301,45192986,0.8306,0.2852,0.6362,4.45,-9.57,5.91
1302,45198155,0.8315,0.2837,0.6338,4.57,-9.63,6.10
1303,45202982,0.8315,0.2876,0.6304,4.57,-10.06,6.04
1304,45207982,0.8276,0.2876,0.6353,4.70,-10.12,5.91
1305,45212982,0.8291,0.2871,0.6309,4.82,-10.37,5.85
1306,45217983,0.8276,0.2900,0.6357,4.94,-10.55,5.91
1307,45222982,0.8291,0.2915,0.6348,5.06,-10.49,5.91
1308,45227981,0.8286,0.2910,0.6357,5.12,-10.67,5.85
1309,45233012,0.8301,0.2886,0.6294,5.37,-10.79,5.85
1310,45237982,0.8291,0.2910,0.6265,5.49,-10.91,5.79
1311,45242982,0.8306,0.2959,0.6323,5.55,-10.98,5.79
1312,45247982,0.8340,0.2939,0.6333,5.85,-10.98,5.85
1313,45252982,0.8335,0.2930,0.6250,5.91,-10.91,5.79
1314,45257982,0.8330,0.2959,0.6343,6.16,-11.16,5.79
1315,45262981,0.8335,0.2974,0.6284,6.10,-11.22,5.79
1316,45267984,0.8320,0.2974,0.6206,6.10,-11.22,5.79
1317,45272981,0.8350,0.2935,0.6191,6.10,-11.40,5.79
1318,45277982,0.8335,0.2949,0.6152,6.04,-11.40,5.73
1319,45282981,0.8369,0.2959,0.6147,6.10,-11.59,5.73
1320,45287984,0.8359,0.2930,0.6128,5.79,-11.65,5.91
1321,45292981,0.8364,0.2930,0.6089,5.67,-11.89,5.98
1322,45297981,0.8345,0.2925,0.6060,5.49,-11.89,5.98
1323,45302982,0.8364,0.2920,0.6079,5.49,-12.07,6.16
1324,45307982,0.8384,0.2939,0.6074,5.24,-12.07,6.16
