# skilleye imu stream v1
# device=xiao_esp32c6 imu=mpu6050 addr=0x68
# rate_hz=200 accel_range_g=16 gyro_range_dps=2000 dlpf_hz=94
# units: accel in g, gyro in deg/s, t_us in microseconds since boot (monotonic)
# no shared clock with the camera -- tap the racket once before each take
# so both recordings share a spike to align on
seq,t_us,ax,ay,az,gx,gy,gz
0,1263526291,0.7207,-0.4346,0.5718,-32.56,-28.35,-13.41
1,1263530991,0.7139,-0.4395,0.5659,-32.07,-29.02,-12.74
2,1263535987,0.7036,-0.4385,0.5503,-30.91,-29.70,-11.95
3,1263540987,0.7080,-0.4409,0.5596,-29.33,-30.37,-11.16
4,1263545987,0.6963,-0.4365,0.5620,-27.50,-30.85,-10.37
5,1263550985,0.6929,-0.4341,0.5557,-25.55,-31.59,-9.51
6,1263555987,0.7163,-0.4380,0.5444,-23.78,-32.13,-8.72
7,1263560989,0.7217,-0.4424,0.5464,-22.07,-32.87,-7.99
8,1263565986,0.6694,-0.4346,0.5425,-20.37,-33.41,-7.44
9,1263570987,0.7261,-0.4448,0.5435,-19.15,-34.27,-6.83
10,1263575987,0.7646,-0.4404,0.5283,-18.23,-34.70,-6.16
11,1263580985,0.7583,-0.4355,0.5269,-17.62,-35.12,-5.55
12,1263585987,0.7393,-0.4370,0.5278,-17.20,-35.61,-5.06
13,1263590987,0.7217,-0.4395,0.5210,-17.13,-35.98,-4.57
14,1263595988,0.7227,-0.4404,0.5103,-17.38,-35.98,-4.21
15,1263600985,0.7266,-0.4468,0.5103,-17.99,-36.10,-3.72
16,1263605987,0.7383,-0.4478,0.5044,-19.27,-35.98,-3.41
17,1263610988,0.7432,-0.4434,0.4946,-20.55,-35.79,-3.11
18,1263615987,0.7495,-0.4482,0.5015,-22.62,-35.30,-2.87
19,1263620986,0.7578,-0.4531,0.5063,-25.12,-35.06,-2.68
20,1263625988,0.7593,-0.4585,0.5010,-27.74,-34.39,-2.38
21,1263630987,0.7627,-0.4683,0.4917,-30.49,-33.60,-2.13
22,1263635986,0.7632,-0.4697,0.4893,-33.48,-32.99,-1.71
23,1263640989,0.7598,-0.4673,0.4839,-36.22,-32.13,-1.34
24,1263645985,0.7480,-0.4751,0.4790,-38.96,-31.22,-0.91
25,1263650985,0.7197,-0.4927,0.4766,-41.40,-30.24,-0.18
26,1263655987,0.6914,-0.4888,0.4702,-43.35,-29.39,0.43
27,1263660988,0.7520,-0.4795,0.4780,-44.94,-28.66,1.28
28,1263665987,0.7754,-0.4839,0.4775,-46.40,-27.74,1.95
29,1263670985,0.7832,-0.4907,0.4692,-47.62,-26.77,2.68
30,1263675987,0.7720,-0.4961,0.4741,-48.60,-25.85,3.48
31,1263680987,0.7520,-0.5059,0.4668,-49.45,-25.12,4.51
32,1263685987,0.7383,-0.5044,0.4590,-50.06,-24.02,5.43
33,1263690989,0.7319,-0.5103,0.4473,-50.37,-23.29,6.59
34,1263695987,0.7432,-0.5137,0.4458,-50.79,-22.38,7.74
35,1263700985,0.7515,-0.5132,0.4448,-51.04,-21.59,8.84
36,1263705987,0.7466,-0.5146,0.4468,-51.16,-20.67,10.06
37,1263710987,0.7412,-0.5176,0.4385,-51.34,-19.82,11.28
38,1263715987,0.7319,-0.5205,0.4380,-51.46,-18.72,12.50
39,1263720987,0.7241,-0.5254,0.4351,-51.46,-17.87,13.78
40,1263725988,0.7124,-0.5269,0.4375,-51.28,-17.01,15.12
41,1263730985,0.7188,-0.5269,0.4243,-51.16,-16.04,16.46
42,1263735987,0.7104,-0.5215,0.4097,-51.10,-14.94,17.87
43,1263740987,0.6943,-0.5220,0.4038,-51.10,-14.21,19.21
44,1263745987,0.7012,-0.5117,0.3936,-50.98,-13.11,20.49
45,1263750989,0.6694,-0.5166,0.3916,-51.04,-12.56,21.83
46,1263755985,0.6816,-0.5122,0.3804,-50.73,-11.65,23.29
47,1263760987,0.6641,-0.5171,0.3677,-50.61,-10.79,24.63
48,1263765988,0.6777,-0.5117,0.3696,-50.37,-10.00,25.98
49,1263771069,0.6685,-0.5054,0.3623,-50.18,-9.15,27.44
50,1263775987,0.6748,-0.4990,0.3486,-50.18,-8.23,28.90
51,1263780987,0.6772,-0.5078,0.3428,-50.12,-7.44,30.30
52,1263785988,0.6753,-0.5107,0.3472,-50.24,-6.52,31.83
53,1263791048,0.6685,-0.5166,0.3574,-50.67,-5.61,33.17
54,1263795987,0.6733,-0.5234,0.3555,-51.34,-4.63,34.94
55,1263801001,0.6831,-0.5269,0.3569,-52.68,-3.60,36.46
56,1263805987,0.7002,-0.5342,0.3657,-54.21,-2.32,38.05
57,1263810987,0.7334,-0.5493,0.3643,-56.16,-1.04,39.57
58,1263815988,0.7412,-0.5703,0.3677,-58.35,0.30,41.16
59,1263820986,0.7397,-0.5894,0.3711,-60.73,1.65,42.99
60,1263825988,0.7524,-0.5903,0.3701,-62.87,2.99,44.51
61,1263831491,0.7686,-0.5923,0.3755,-65.18,4.39,46.16
62,1263835987,0.7622,-0.5957,0.3911,-67.32,5.79,47.38
63,1263840987,0.7588,-0.5781,0.4155,-69.27,7.56,48.11
64,1263845987,0.7759,-0.5200,0.4482,-71.28,9.45,47.56
65,1263850987,0.7896,-0.5098,0.4614,-73.17,11.71,45.43
66,1263855987,0.8003,-0.5347,0.4844,-74.70,14.15,41.71
67,1263860986,0.8198,-0.5850,0.5220,-75.85,16.77,37.20
68,1263865987,0.8369,-0.6357,0.5552,-76.34,19.51,32.01
69,1263870985,0.8657,-0.6904,0.5659,-76.40,22.50,26.65
70,1263875987,0.8882,-0.7490,0.5664,-76.04,25.30,21.22
71,1263880987,0.9146,-0.7964,0.5596,-75.24,27.68,15.79
72,1263885988,0.9287,-0.8540,0.4927,-73.90,29.33,10.98
73,1263890986,0.9316,-0.9004,0.4214,-71.77,29.82,6.77
74,1263895985,0.9355,-0.9312,0.3965,-68.66,29.33,3.35
75,1263900986,0.9346,-0.9370,0.3892,-65.18,28.11,0.24
76,1263905987,0.9248,-0.9204,0.3833,-61.89,26.83,-2.87
77,1263910985,0.9106,-0.9019,0.3711,-59.09,25.55,-6.16
78,1263915989,0.8926,-0.8887,0.3457,-57.20,24.70,-9.51
79,1263920987,0.8647,-0.8882,0.3105,-56.77,23.84,-12.99
80,1263926010,0.8335,-0.8999,0.2549,-57.74,23.35,-16.28
81,1263930985,0.8223,-0.9185,0.1904,-60.67,23.29,-19.27
82,1263935987,0.8354,-0.9268,0.1211,-64.88,23.05,-21.65
83,1263940989,0.8599,-0.9312,0.0518,-70.67,22.87,-23.48
84,1263945986,0.8994,-0.9492,-0.0054,-77.44,22.32,-24.63
85,1263950987,0.9067,-0.9502,-0.0459,-84.88,22.01,-24.88
86,1263955985,0.8896,-0.9346,-0.0830,-92.87,21.83,-24.76
87,1263960989,0.8589,-0.9038,-0.1064,-101.22,21.52,-24.63
88,1263965986,0.8193,-0.8823,-0.1157,-109.88,21.40,-24.45
89,1263970988,0.7798,-0.8843,-0.0986,-118.78,21.16,-24.51
90,1263976030,0.7661,-0.8887,-0.0952,-128.11,21.40,-24.63
91,1263980985,0.7686,-0.9126,-0.0933,-138.17,21.89,-25.06
92,1263986033,0.7754,-0.9253,-0.1030,-148.90,22.50,-25.24
93,1263990987,0.7837,-0.9341,-0.1274,-160.37,23.11,-25.67
94,1263995987,0.7871,-0.9463,-0.1538,-172.44,23.90,-25.79
95,1264000987,0.7769,-0.9438,-0.1689,-185.18,24.27,-26.10
96,1264005985,0.7573,-0.9370,-0.1821,-198.41,24.88,-26.22
97,1264010987,0.7383,-0.9307,-0.1909,-212.26,25.55,-26.65
98,1264015987,0.7222,-0.9272,-0.1870,-226.71,26.52,-27.38
99,1264021043,0.7070,-0.9233,-0.1753,-241.52,27.80,-28.11
100,1264025987,0.6968,-0.9136,-0.1899,-256.52,29.02,-29.02
101,1264030987,0.6787,-0.9028,-0.2012,-271.52,30.67,-29.88
102,1264035987,0.6670,-0.8901,-0.2100,-286.04,32.44,-30.91
103,1264040989,0.6543,-0.8799,-0.2275,-300.18,34.27,-31.71
104,1264045985,0.6431,-0.8740,-0.2432,-313.60,36.22,-32.44
105,1264050987,0.6309,-0.8638,-0.2695,-326.10,38.05,-32.99
106,1264055987,0.6211,-0.8530,-0.2842,-337.44,40.00,-33.54
107,1264060987,0.6255,-0.8208,-0.3164,-347.74,41.83,-33.78
108,1264065987,0.6143,-0.8218,-0.3335,-357.07,43.66,-34.27
109,1264070987,0.5781,-0.8613,-0.3389,-365.30,45.61,-34.15
110,1264075986,0.5674,-0.8770,-0.3579,-371.71,47.38,-33.48
111,1264080987,0.5669,-0.8726,-0.3750,-376.83,49.02,-32.38
112,1264085985,0.5586,-0.8672,-0.3774,-380.12,50.98,-31.04
113,1264090987,0.5571,-0.8691,-0.3960,-381.71,52.93,-29.33
114,1264095987,0.5498,-0.8901,-0.4048,-381.77,54.70,-27.26
115,1264100988,0.5449,-0.8989,-0.4194,-380.55,56.52,-24.76
116,1264105987,0.5493,-0.9077,-0.4390,-378.05,58.41,-21.89
117,1264111158,0.5449,-0.9180,-0.4297,-374.02,60.24,-18.72
118,1264115987,0.5547,-0.9238,-0.4712,-368.84,62.26,-15.12
119,1264120985,0.5469,-0.9102,-0.4585,-363.05,63.78,-11.34
120,1264125989,0.5537,-0.9165,-0.4790,-355.73,65.55,-7.62
121,1264130987,0.5586,-0.9058,-0.4844,-347.56,67.07,-3.66
122,1264135986,0.5469,-0.9111,-0.5312,-338.48,68.35,0.61
123,1264140989,0.5312,-0.8950,-0.5649,-329.15,69.45,4.76
124,1264145985,0.5298,-0.9028,-0.5933,-319.02,70.06,9.02
125,1264150987,0.5264,-0.8867,-0.6147,-308.78,70.67,13.29
126,1264155986,0.5181,-0.8906,-0.6216,-298.11,71.10,17.56
127,1264160987,0.5015,-0.8931,-0.6177,-287.93,71.34,21.89
128,1264165987,0.5259,-0.9033,-0.6226,-277.62,71.95,26.16
129,1264170987,0.5381,-0.8950,-0.6494,-267.80,72.50,30.55
130,1264175987,0.5420,-0.9019,-0.6460,-258.48,72.93,34.63
131,1264180987,0.5542,-0.9170,-0.6426,-249.70,73.41,38.96
132,1264185986,0.5625,-0.9219,-0.6553,-241.22,74.15,43.29
133,1264190989,0.5664,-0.9238,-0.6782,-233.66,74.76,47.68
134,1264195985,0.5640,-0.9165,-0.7007,-227.01,74.94,51.71
135,1264201537,0.5454,-0.9072,-0.7100,-220.00,75.18,56.34
136,1264205987,0.5381,-0.9033,-0.7236,-216.16,75.37,59.27
137,1264210987,0.4810,-0.9663,-0.6489,-211.95,75.73,62.99
138,1264215987,0.5044,-0.9155,-0.6733,-207.87,78.54,67.68
139,1264220986,0.5308,-0.8628,-0.6670,-204.76,81.04,71.83
140,1264225987,0.5156,-0.8369,-0.6562,-202.38,85.06,75.67
141,1264230987,0.4780,-0.8008,-0.5830,-200.43,89.15,79.09
142,1264235987,0.4321,-0.7349,-0.5347,-198.60,97.50,81.95
143,1264240987,0.4678,-0.6636,-0.7217,-197.38,105.73,84.33
144,1264245986,0.4419,-0.6719,-0.8721,-198.48,110.85,85.30
145,1264250987,0.3691,-0.7441,-0.9209,-201.34,113.41,86.71
146,1264255986,0.3037,-0.7910,-0.8804,-205.85,113.96,87.56
147,1264260987,0.2603,-0.5054,-0.6470,-211.89,115.43,85.49
148,1264265987,0.3071,-0.8169,-0.7588,-219.45,119.82,78.78
149,1264270987,0.3052,-0.8501,-0.5684,-226.95,123.66,75.06
150,1264275986,0.3535,-0.7632,-0.7114,-234.15,126.95,72.20
151,1264280985,0.4048,-0.7070,-0.9121,-241.10,129.45,69.63
152,1264285994,0.3608,-0.7358,-0.8652,-247.13,130.43,66.89
153,1264290987,0.2710,-0.8257,-0.7637,-252.44,130.67,64.39
154,1264295986,0.2246,-0.8887,-0.8047,-257.13,131.52,62.13
155,1264300987,0.2412,-0.8975,-0.8442,-261.77,132.62,60.12
156,1264305988,0.2896,-0.8623,-0.8037,-265.98,133.78,58.29
157,1264311130,0.3447,-0.8408,-0.8013,-269.70,134.94,56.40
158,1264315987,0.3813,-0.8398,-0.8174,-272.93,136.46,54.21
159,1264320987,0.4023,-0.8589,-0.7749,-275.73,138.17,52.07
160,1264325988,0.4370,-0.8794,-0.7095,-278.29,140.55,49.88
161,1264330986,0.4819,-0.8784,-0.6987,-280.37,143.17,47.74
162,1264335987,0.5239,-0.9404,-0.7329,-282.20,146.10,45.67
163,1264340987,0.5781,-0.9512,-0.8296,-285.79,148.60,43.78
164,1264345988,0.5596,-0.8398,-0.8604,-292.26,150.91,41.28
165,1264350986,0.4355,-0.6875,-0.8789,-300.43,153.17,37.99
166,1264355987,0.3687,-0.7305,-0.7168,-309.70,156.46,34.63
167,1264360987,0.3730,-0.8335,-0.6123,-319.27,160.18,32.62
168,1264365985,0.3877,-0.9287,-0.6382,-328.35,163.84,31.71
169,1264370987,0.3984,-0.9175,-0.6748,-336.83,166.71,31.10
170,1264376060,0.4155,-0.8774,-0.7202,-344.09,168.96,29.88
171,1264380986,0.4214,-0.9023,-0.7153,-349.33,170.30,29.09
172,1264385987,0.4497,-0.8633,-0.7070,-351.77,171.83,28.78
173,1264390987,0.4604,-0.8452,-0.6909,-351.40,173.17,28.54
174,1264395987,0.4824,-0.8379,-0.6470,-348.11,174.21,28.96
175,1264400986,0.5190,-0.8296,-0.6240,-342.44,175.30,29.82
176,1264405987,0.5557,-0.8267,-0.6016,-334.57,175.85,31.28
177,1264410987,0.5957,-0.7915,-0.5571,-324.88,175.79,33.17
178,1264415988,0.6289,-0.7671,-0.5249,-313.84,175.30,35.30
179,1264420986,0.6890,-0.7456,-0.4893,-302.20,174.21,37.68
180,1264425987,0.6929,-0.6831,-0.4253,-290.06,172.56,40.12
181,1264431204,0.7041,-0.6489,-0.3906,-274.63,169.82,42.80
182,1264435987,0.7085,-0.6260,-0.3721,-264.02,167.87,44.33
183,1264440991,0.7124,-0.6348,-0.3320,-251.04,165.30,46.34
184,1264445985,0.7402,-0.6455,-0.3159,-238.72,162.56,47.93
185,1264450986,0.7334,-0.5918,-0.2896,-227.80,159.63,49.27
186,1264455987,0.7280,-0.5557,-0.2593,-218.35,156.83,49.94
187,1264460987,0.7310,-0.5654,-0.2339,-210.30,153.78,50.55
188,1264465987,0.7490,-0.5815,-0.2168,-204.33,150.98,50.73
189,1264470986,0.7710,-0.5986,-0.2017,-200.06,147.87,50.79
190,1264475987,0.7803,-0.6089,-0.1992,-197.44,144.76,50.55
191,1264480987,0.7734,-0.6299,-0.1895,-196.83,141.71,50.24
192,1264486026,0.7612,-0.6626,-0.1724,-197.74,138.54,49.63
193,1264490986,0.7520,-0.7036,-0.1587,-200.00,135.73,48.90
194,1264495987,0.7456,-0.7520,-0.1704,-203.23,133.05,48.17
195,1264500987,0.7280,-0.7783,-0.1787,-207.38,130.55,47.07
196,1264506006,0.7148,-0.7881,-0.1655,-211.95,127.99,45.67
197,1264510985,0.7056,-0.7617,-0.1777,-216.89,125.91,44.21
198,1264515986,0.6670,-0.7471,-0.1519,-222.20,124.21,42.50
199,1264520987,0.6509,-0.7368,-0.1260,-228.17,122.38,40.85
200,1264525985,0.6069,-0.7285,-0.1201,-235.79,120.00,39.21
201,1264530988,0.6284,-0.6636,-0.1030,-241.10,118.54,37.99
202,1264535989,0.6602,-0.6152,-0.0918,-248.05,116.52,36.46
203,1264540987,0.6968,-0.5898,-0.0654,-255.55,114.27,35.37
204,1264545987,0.6714,-0.5537,-0.0532,-263.35,112.01,34.27
205,1264550987,0.6567,-0.5537,-0.1025,-271.22,109.45,33.29
206,1264555987,0.6665,-0.5278,-0.0786,-278.96,106.71,32.56
207,1264560987,0.6382,-0.5356,-0.0879,-286.22,104.33,32.01
208,1264565987,0.6216,-0.5762,-0.1094,-292.50,101.59,31.65
209,1264570985,0.5088,-0.6353,-0.0952,-297.26,99.63,31.77
210,1264575986,0.4736,-0.6011,-0.1348,-300.12,97.93,31.59
211,1264580987,0.5391,-0.5952,-0.1733,-301.34,96.10,31.40
212,1264585986,0.6348,-0.5552,-0.1826,-302.13,94.02,31.16
213,1264590987,0.6343,-0.4780,-0.1572,-302.38,91.95,31.22
214,1264595985,0.6895,-0.5078,-0.1567,-302.56,89.63,30.79
215,1264601034,0.7568,-0.4692,-0.1685,-302.99,87.44,31.04
216,1264605987,0.8008,-0.4370,-0.1748,-303.78,85.18,31.22
217,1264610987,0.8188,-0.4224,-0.1973,-304.70,82.20,31.59
218,1264616051,0.8252,-0.4272,-0.2085,-305.37,78.78,31.95
219,1264620987,0.7476,-0.4805,-0.2412,-305.91,75.12,32.50
220,1264625985,0.6465,-0.4468,-0.3091,-306.22,71.46,33.60
221,1264630985,0.7061,-0.5059,-0.2983,-306.04,66.59,34.63
222,1264635987,0.8130,-0.5259,-0.2974,-305.37,61.89,36.10
223,1264640987,0.9395,-0.5010,-0.2363,-304.21,58.29,37.74
224,1264645987,1.0327,-0.4673,-0.1606,-302.56,55.12,39.45
225,1264650985,1.0234,-0.4404,-0.1216,-300.79,52.80,41.10
226,1264655986,0.9600,-0.4058,-0.1802,-298.60,50.43,42.62
227,1264660987,0.8779,-0.3833,-0.2207,-295.79,47.80,44.09
228,1264665986,0.7764,-0.3716,-0.2148,-292.01,44.70,45.12
229,1264670987,0.7607,-0.3696,-0.2119,-287.62,41.71,46.10
230,1264675987,0.7554,-0.3467,-0.1973,-282.32,39.09,46.77
231,1264680987,0.7427,-0.3350,-0.1670,-276.77,37.07,47.44
232,1264685986,0.7236,-0.3311,-0.1602,-270.79,35.30,47.87
233,1264690987,0.6968,-0.3047,-0.1821,-263.78,33.60,48.48
234,1264695985,0.6831,-0.2764,-0.1919,-258.84,32.32,48.60
235,1264700987,0.7036,-0.2339,-0.1719,-252.74,30.73,48.66
236,1264705986,0.7236,-0.1914,-0.1929,-246.46,29.15,48.60
237,1264710987,0.7422,-0.1528,-0.1836,-239.76,27.20,48.78
238,1264715987,0.7651,-0.1309,-0.1138,-232.20,25.49,48.72
239,1264720987,0.7954,-0.1479,-0.0693,-223.72,24.39,48.84
240,1264725986,0.8159,-0.1631,-0.0508,-213.96,23.54,49.15
241,1264730985,0.8096,-0.1758,-0.0293,-203.11,22.68,49.88
242,1264735987,0.7856,-0.1924,-0.0181,-190.79,21.95,50.73
243,1264740987,0.7461,-0.2031,-0.0020,-177.50,21.34,51.77
244,1264745986,0.7129,-0.2134,-0.0029,-163.66,20.79,52.99
245,1264750985,0.6924,-0.1802,-0.0225,-149.15,20.30,54.09
246,1264755987,0.7065,-0.1147,-0.0151,-132.20,19.76,54.70
247,1264760987,0.7061,-0.1147,0.0190,-121.40,19.76,55.18
248,1264765987,0.7090,-0.0859,0.0103,-108.72,19.76,55.55
249,1264770986,0.6768,-0.0942,0.0073,-96.83,20.00,56.16
250,1264775987,0.6567,-0.0952,0.0229,-85.91,20.24,57.13
251,1264780987,0.6860,-0.0903,0.0688,-75.85,20.49,58.23
252,1264785987,0.7241,-0.0952,0.0610,-66.83,21.22,59.51
253,1264790986,0.7681,-0.1035,0.0596,-57.56,21.89,61.28
254,1264795987,0.8032,-0.1123,0.0723,-50.98,22.38,62.74
255,1264800987,0.8379,-0.1274,0.0669,-45.73,22.62,64.57
256,1264805987,0.8467,-0.1538,0.0513,-41.83,22.62,66.52
257,1264810986,0.8418,-0.1753,0.0405,-39.33,22.44,68.78
258,1264815987,0.8174,-0.1904,0.0264,-38.17,21.83,71.16
259,1264820987,0.7803,-0.2056,0.0283,-38.11,21.28,73.78
260,1264825987,0.7402,-0.2207,0.0195,-39.21,20.79,76.59
261,1264830987,0.7227,-0.2310,0.0215,-41.10,20.24,79.45
262,1264836022,0.7212,-0.2432,0.0181,-43.96,19.57,82.13
263,1264840986,0.7275,-0.2534,0.0171,-47.38,19.09,84.63
264,1264845987,0.7354,-0.2671,0.0186,-51.22,18.48,87.20
265,1264850987,0.7295,-0.2827,0.0259,-55.49,18.05,90.18
266,1264855987,0.7148,-0.2988,0.0249,-60.30,17.50,93.17
267,1264860986,0.6992,-0.3101,0.0303,-65.43,17.07,96.16
268,1264865987,0.6816,-0.3159,0.0352,-70.55,16.71,99.15
269,1264870988,0.6689,-0.3296,0.0366,-75.67,16.16,102.01
270,1264875987,0.6553,-0.3374,0.0425,-80.49,15.30,104.82
271,1264880986,0.6372,-0.3462,0.0542,-85.00,14.82,107.68
272,1264885988,0.6235,-0.3545,0.0649,-88.96,14.33,110.43
273,1264890987,0.6089,-0.3545,0.0835,-92.26,14.09,112.93
274,1264896017,0.5913,-0.3540,0.0894,-95.12,13.54,115.43
275,1264900986,0.5815,-0.3569,0.0923,-97.13,13.11,117.68
276,1264905987,0.5679,-0.3618,0.1050,-98.41,12.56,119.82
277,1264910987,0.5601,-0.3623,0.1064,-99.27,11.83,121.95
278,1264916101,0.5547,-0.3647,0.1113,-99.76,11.34,123.84
279,1264920987,0.5488,-0.3657,0.1167,-99.70,10.67,125.79
280,1264925985,0.5420,-0.3706,0.1240,-99.45,9.88,127.44
281,1264930987,0.5479,-0.3740,0.1230,-98.72,8.96,129.21
282,1264935986,0.5488,-0.3877,0.1147,-98.29,7.87,130.79
283,1264940987,0.5513,-0.4072,0.1152,-97.99,6.65,132.26
284,1264945985,0.5479,-0.4229,0.1177,-98.05,5.49,133.90
285,1264950987,0.5439,-0.4282,0.1157,-98.23,4.27,135.55
286,1264955986,0.5391,-0.4434,0.1187,-98.66,2.80,137.13
287,1264960985,0.5259,-0.4478,0.1152,-99.45,1.40,138.54
288,1264965987,0.5151,-0.4604,0.1094,-100.61,0.00,140.12
289,1264970985,0.5029,-0.4697,0.1113,-101.77,-1.52,141.83
290,1264975987,0.4985,-0.4912,0.1025,-103.23,-3.23,143.54
291,1264980988,0.4976,-0.5112,0.0957,-104.70,-5.00,145.55
292,1264985987,0.4922,-0.5308,0.0908,-106.34,-7.01,147.74
293,1264990986,0.4795,-0.5454,0.0854,-107.74,-9.09,150.12
294,1264996181,0.4526,-0.5601,0.0898,-108.96,-11.16,152.50
295,1265000987,0.4248,-0.5601,0.0679,-109.76,-12.87,154.82
296,1265005987,0.4038,-0.5630,0.0659,-110.24,-14.82,157.20
297,1265010986,0.3784,-0.5723,0.0527,-110.18,-16.77,159.45
298,1265015987,0.3491,-0.5728,0.0474,-109.76,-18.72,161.59
299,1265020987,0.3228,-0.5781,0.0488,-108.90,-20.43,163.54
300,1265025987,0.3047,-0.5859,0.0356,-107.32,-22.13,165.61
301,1265030987,0.2910,-0.5972,0.0303,-105.43,-23.90,167.80
302,1265035987,0.2681,-0.6016,0.0244,-103.23,-25.37,169.94
303,1265040987,0.2378,-0.6104,0.0220,-100.98,-26.59,172.20
304,1265045989,0.2021,-0.6030,0.0112,-98.72,-27.93,174.27
305,1265050985,0.1719,-0.6108,0.0239,-96.34,-29.21,176.16
306,1265055987,0.1606,-0.6392,0.0068,-93.84,-29.94,178.29
307,1265060988,0.1567,-0.6636,-0.0122,-91.83,-30.85,180.43
308,1265065985,0.1338,-0.6816,-0.0161,-90.18,-31.95,182.56
309,1265070989,0.0996,-0.6899,-0.0137,-88.48,-32.44,184.70
310,1265075986,0.0654,-0.6929,-0.0249,-86.89,-33.11,186.46
311,1265080987,0.0303,-0.6929,-0.0430,-85.30,-33.41,187.68
312,1265085985,-0.0063,-0.7056,-0.0601,-84.02,-33.90,188.72
313,1265090987,-0.0308,-0.7285,-0.0698,-82.80,-34.33,189.70
314,1265095987,-0.0469,-0.7534,-0.0801,-81.83,-34.82,190.49
315,1265100985,-0.0659,-0.7720,-0.0762,-81.52,-35.37,191.34
316,1265105987,-0.0889,-0.7988,-0.0952,-81.40,-36.10,192.01
317,1265110987,-0.1099,-0.8271,-0.1064,-82.01,-36.89,192.87
318,1265115988,-0.1265,-0.8486,-0.1108,-83.11,-38.23,193.54
319,1265120987,-0.1685,-0.8643,-0.1255,-84.63,-39.33,194.15
320,1265125987,-0.2236,-0.8911,-0.1387,-86.77,-40.55,194.57
321,1265130985,-0.2681,-0.9268,-0.1641,-88.96,-42.07,195.06
322,1265135988,-0.3120,-0.9639,-0.1855,-91.34,-43.60,195.61
323,1265140986,-0.3594,-1.0049,-0.2104,-93.66,-45.55,196.22
324,1265145986,-0.4097,-1.0352,-0.2236,-95.67,-47.50,197.07
325,1265150987,-0.4507,-1.0610,-0.2344,-97.38,-49.70,197.62
326,1265155986,-0.4883,-1.0781,-0.2554,-98.60,-52.13,198.23
327,1265160987,-0.5293,-1.0913,-0.2720,-98.90,-54.76,198.60
328,1265165985,-0.5737,-1.0991,-0.2832,-98.41,-57.50,198.48
329,1265170987,-0.6167,-1.1245,-0.3052,-97.13,-60.30,198.29
330,1265175986,-0.6689,-1.1475,-0.3193,-95.49,-63.23,197.99
331,1265180995,-0.7119,-1.1787,-0.3394,-93.72,-66.52,197.62
332,1265185987,-0.7583,-1.1904,-0.3350,-92.26,-69.45,196.89
333,1265190987,-0.8237,-1.2480,-0.3945,-91.28,-72.87,196.22
334,1265195987,-0.8569,-1.2251,-0.3423,-90.85,-76.52,194.94
335,1265200987,-0.8730,-1.2490,-0.3691,-90.98,-80.00,193.29
336,1265205987,-1.0566,-1.2427,-0.4482,-91.71,-83.78,191.40
337,1265210987,-1.1191,-1.2749,-0.4731,-92.44,-88.29,189.02
338,1265215987,-1.1484,-1.3091,-0.4487,-92.56,-92.56,186.28
339,1265220987,-1.1982,-1.3394,-0.4702,-91.89,-96.65,183.29
340,1265225989,-1.2495,-1.3691,-0.5039,-90.67,-100.98,180.30
341,1265230987,-1.3076,-1.3804,-0.5269,-89.57,-105.73,177.13
342,1265235988,-1.3076,-1.3984,-0.5366,-87.68,-110.61,173.60
343,1265240987,-1.3101,-1.4116,-0.5259,-84.94,-115.55,169.76
344,1265245985,-1.3379,-1.4194,-0.5249,-81.40,-120.67,165.37
345,1265250987,-1.3652,-1.4409,-0.5264,-77.07,-125.79,160.37
346,1265255986,-1.3755,-1.4409,-0.5249,-72.13,-131.22,154.88
347,1265260987,-1.3984,-1.4482,-0.5195,-66.28,-136.46,149.09
348,1265265985,-1.4272,-1.4536,-0.5273,-59.76,-141.95,142.62
349,1265270989,-1.4531,-1.4561,-0.5225,-52.68,-147.44,135.79
350,1265275986,-1.4854,-1.4604,-0.5283,-45.24,-153.17,128.48
351,1265280987,-1.5225,-1.4600,-0.5308,-38.11,-158.78,120.73
352,1265285985,-1.5547,-1.4688,-0.5361,-31.34,-164.76,112.68
353,1265290987,-1.5796,-1.4775,-0.5273,-25.67,-170.73,104.09
354,1265295987,-1.5889,-1.4766,-0.5303,-21.16,-176.89,95.30
355,1265300987,-1.6123,-1.4819,-0.5425,-17.93,-183.17,86.71
356,1265305987,-1.6274,-1.4917,-0.5464,-16.28,-189.94,76.83
357,1265310986,-1.6353,-1.4922,-0.5366,-15.79,-196.95,67.07
358,1265315987,-1.6357,-1.4976,-0.5356,-16.34,-203.84,56.89
359,1265320987,-1.6377,-1.5034,-0.5410,-18.11,-211.22,46.46
360,1265325988,-1.6392,-1.4976,-0.5352,-20.43,-218.78,35.67
361,1265330986,-1.6299,-1.4873,-0.5298,-23.41,-226.52,24.27
362,1265335987,-1.6245,-1.4775,-0.5269,-26.65,-234.09,12.68
363,1265340987,-1.6187,-1.4663,-0.5317,-29.94,-241.83,0.61
364,1265345987,-1.6182,-1.4629,-0.5337,-33.35,-249.94,-11.77
365,1265350986,-1.6147,-1.4585,-0.5508,-37.07,-257.87,-24.21
366,1265355987,-1.6211,-1.4585,-0.5737,-41.04,-266.16,-36.65
367,1265360987,-1.6235,-1.4497,-0.5991,-44.88,-274.21,-49.39
368,1265365987,-1.6338,-1.4404,-0.6216,-48.54,-282.56,-62.13
369,1265370986,-1.6548,-1.4307,-0.6445,-52.07,-290.55,-74.88
370,1265375987,-1.6724,-1.4219,-0.6729,-55.12,-298.54,-87.68
371,1265380987,-1.6973,-1.4097,-0.7114,-57.68,-306.22,-100.18
372,1265385987,-1.7354,-1.3979,-0.7422,-59.63,-313.84,-112.74
373,1265391040,-1.7666,-1.3784,-0.7803,-60.98,-321.22,-125.12
374,1265395987,-1.8135,-1.3638,-0.8169,-61.59,-328.29,-137.38
375,1265400987,-1.8706,-1.3472,-0.8599,-61.52,-334.76,-149.57
376,1265405988,-1.9316,-1.3276,-0.9023,-61.04,-341.28,-161.52
377,1265410986,-1.9951,-1.3052,-0.9614,-60.12,-347.32,-173.35
378,1265416020,-2.0767,-1.2817,-1.0181,-59.02,-353.11,-185.12
379,1265420987,-2.1587,-1.2642,-1.0776,-58.05,-358.60,-196.59
380,1265425987,-2.2310,-1.2495,-1.1279,-57.32,-364.09,-207.93
381,1265430986,-2.2988,-1.2354,-1.1875,-56.65,-369.09,-218.96
382,1265435988,-2.3477,-1.2236,-1.2354,-55.98,-373.78,-229.63
383,1265440987,-2.3970,-1.2134,-1.2778,-55.37,-378.48,-239.94
384,1265445988,-2.4282,-1.2007,-1.3350,-54.27,-382.62,-249.94
385,1265450986,-2.4600,-1.1899,-1.3989,-52.50,-386.34,-259.39
386,1265455987,-2.4907,-1.1821,-1.4497,-50.12,-390.24,-268.54
387,1265460987,-2.5205,-1.1709,-1.4897,-46.77,-394.02,-277.20
388,1265465987,-2.5542,-1.1538,-1.5269,-42.38,-397.38,-285.43
389,1265470985,-2.6001,-1.1416,-1.5552,-37.26,-399.82,-293.29
390,1265475986,-2.6431,-1.1313,-1.5991,-31.22,-401.95,-300.73
391,1265480987,-2.6865,-1.1240,-1.6479,-24.94,-404.21,-307.62
392,1265485987,-2.7324,-1.1211,-1.7007,-18.29,-405.73,-314.15
393,1265490987,-2.7744,-1.1118,-1.7393,-10.91,-407.50,-320.24
394,1265495985,-2.8101,-1.1143,-1.7949,-3.60,-409.21,-325.91
395,1265500987,-2.8364,-1.1074,-1.8359,3.35,-410.79,-331.59
396,1265505987,-2.8560,-1.0962,-1.8750,10.30,-412.26,-336.77
397,1265510987,-2.8711,-1.1094,-1.9233,17.20,-413.90,-341.59
398,1265515987,-2.8857,-1.1064,-1.9688,23.05,-414.88,-346.22
399,1265520987,-2.9062,-1.0947,-2.0073,28.84,-415.91,-350.49
400,1265525986,-2.9229,-1.0889,-2.0532,34.88,-416.40,-354.51
401,1265530987,-2.9370,-1.0923,-2.0903,40.43,-416.52,-358.17
402,1265535985,-2.9424,-1.0874,-2.1206,46.16,-415.49,-361.71
403,1265540987,-2.9526,-1.0840,-2.1489,52.01,-414.33,-364.94
404,1265545986,-2.9614,-1.0825,-2.1987,58.11,-412.20,-368.05
405,1265550987,-2.9722,-1.0732,-2.2236,64.39,-409.70,-371.16
406,1265556441,-2.9810,-1.0669,-2.2520,70.73,-406.34,-373.96
407,1265560987,-2.9922,-1.0640,-2.2881,77.32,-402.80,-377.13
408,1265565986,-3.0005,-1.0737,-2.3149,83.78,-398.66,-379.94
409,1265570985,-3.0161,-1.0820,-2.3408,89.70,-394.33,-382.68
410,1265575987,-3.0239,-1.0981,-2.3706,95.18,-389.39,-385.55
411,1265580987,-3.0337,-1.1182,-2.3887,101.04,-384.21,-388.17
412,1265585987,-3.0420,-1.1470,-2.4121,106.95,-378.84,-390.67
413,1265590986,-3.0195,-1.1768,-2.4233,113.05,-373.54,-393.48
414,1265595987,-3.0029,-1.2002,-2.4395,118.90,-368.11,-395.98
415,1265600987,-2.9712,-1.2324,-2.4297,125.00,-362.87,-398.60
416,1265605987,-2.9336,-1.2549,-2.4155,130.55,-357.93,-401.28
417,1265610987,-2.8774,-1.2881,-2.3994,136.16,-353.35,-403.96
418,1265615987,-2.8149,-1.3188,-2.3936,140.43,-349.09,-406.71
419,1265620987,-2.7642,-1.3374,-2.3838,144.63,-345.18,-409.45
420,1265625986,-2.7212,-1.3599,-2.3584,148.11,-341.46,-412.20
421,1265630987,-2.6836,-1.3647,-2.3511,151.10,-337.13,-414.82
422,1265635986,-2.6479,-1.3691,-2.3359,153.60,-332.56,-417.50
423,1265640987,-2.6069,-1.3672,-2.3286,156.52,-327.20,-420.55
424,1265645987,-2.5718,-1.3618,-2.3076,159.76,-321.46,-423.78
425,1265650987,-2.5278,-1.3628,-2.3032,162.93,-315.55,-427.07
426,1265655987,-2.4771,-1.3657,-2.2930,166.22,-309.51,-430.73
427,1265660986,-2.4170,-1.3628,-2.2896,169.09,-303.66,-434.70
428,1265665987,-2.3613,-1.3525,-2.2661,171.65,-298.11,-439.02
429,1265670987,-2.3052,-1.3276,-2.2354,173.35,-292.93,-443.48
430,1265675988,-2.2471,-1.2983,-2.1968,174.51,-288.05,-448.66
431,1265680986,-2.1860,-1.2690,-2.1562,174.82,-283.60,-454.57
432,1265685987,-2.1392,-1.2246,-2.1089,172.99,-279.63,-461.10
433,1265690990,-2.1050,-1.1694,-2.0640,169.21,-275.98,-468.23
434,1265695986,-2.0850,-1.1226,-2.0190,161.95,-272.20,-476.04
435,1265700987,-2.0698,-1.0718,-1.9736,150.73,-267.99,-484.51
436,1265705986,-2.0684,-1.0195,-1.9370,135.30,-263.29,-493.48
437,1265710988,-2.0771,-0.9634,-1.9023,117.74,-257.87,-502.80
438,1265715986,-2.0835,-0.8984,-1.8726,96.10,-251.40,-512.56
439,1265720987,-2.0977,-0.8354,-1.8311,71.89,-244.09,-522.62
440,1265725986,-2.1138,-0.7739,-1.7974,46.16,-235.30,-533.17
441,1265730985,-2.1304,-0.6982,-1.7676,19.27,-225.18,-543.96
442,1265735987,-2.1250,-0.6260,-1.7271,-7.80,-213.78,-555.12
443,1265740987,-2.0361,-0.4194,-1.8359,-35.00,-201.16,-566.40
444,1265745987,-1.9219,-0.4692,-1.5801,-57.44,-188.60,-577.50
445,1265750985,-2.0195,-0.2227,-2.2280,-79.57,-170.85,-587.01
446,1265755989,-2.0854,-0.0610,-1.6572,-101.40,-154.21,-596.95
447,1265761424,-1.9614,0.0947,-1.6694,-122.38,-137.74,-606.34
448,1265766068,-1.8677,0.1812,-1.8110,-141.46,-118.66,-614.88
449,1265770987,-1.7402,0.3276,-1.8940,-157.26,-99.76,-622.26
450,1265775987,-1.0039,0.5503,-2.4106,-164.02,-81.34,-627.26
451,1265780985,-1.0293,0.7290,-2.8086,-160.18,-58.23,-628.35
452,1265785989,-1.4448,0.7212,-2.4438,-155.06,-38.90,-627.13
453,1265790987,-1.5874,0.6875,-2.4956,-151.89,-17.50,-623.96
454,1265795986,-1.6030,0.5918,-2.1260,-151.28,2.26,-619.57
455,1265800987,-1.6191,0.5522,-1.7764,-152.26,21.16,-614.09
456,1265806023,-1.6567,0.5454,-1.5308,-153.17,39.76,-607.93
457,1265810988,-1.7173,0.5415,-1.2993,-152.68,57.50,-601.04
458,1265815986,-1.7417,0.5371,-1.1021,-150.24,74.02,-593.23
459,1265820987,-1.7227,0.5054,-0.9453,-145.24,89.63,-584.63
460,1265825986,-1.6821,0.4966,-0.8477,-137.87,104.51,-575.06
461,1265830989,-1.6611,0.4888,-0.7324,-128.11,118.11,-564.51
462,1265835986,-1.6304,0.4897,-0.6221,-116.40,130.67,-553.54
463,1265840995,-1.5698,0.4888,-0.5298,-103.54,142.13,-541.83
464,1265845987,-1.5029,0.4829,-0.4536,-89.76,152.50,-529.70
465,1265850987,-1.4492,0.2959,-0.3481,-76.40,161.52,-517.07
466,1265855986,-1.3760,0.3550,-0.2964,-66.65,169.82,-503.05
467,1265860987,-1.3057,0.3369,-0.0850,-57.38,177.01,-490.30
468,1265865986,-1.2236,0.3955,-0.1577,-47.87,183.29,-477.01
469,1265870987,-1.1807,0.4009,-0.1167,-39.02,189.09,-464.27
470,1265875987,-1.1406,0.4834,-0.1660,-31.52,193.78,-451.34
471,1265880985,-1.1611,0.6284,-0.2095,-25.79,197.74,-438.66
472,1265885987,-1.1719,0.8252,-0.3081,-21.22,201.16,-425.85
473,1265890987,-1.1895,1.0234,-0.3525,-18.90,204.45,-413.11
474,1265895988,-1.2139,1.1841,-0.3481,-20.00,207.32,-400.43
475,1265900987,-1.2471,1.2744,-0.3335,-24.51,210.06,-387.68
476,1265905987,-1.2783,1.3164,-0.2915,-32.74,212.62,-375.06
477,1265910987,-1.2866,1.3667,-0.2314,-42.99,214.63,-362.68
478,1265915987,-1.2842,1.3867,-0.1738,-53.84,216.59,-350.61
479,1265920987,-1.2656,1.3906,-0.1294,-63.84,218.17,-338.84
480,1265925987,-1.2529,1.3892,-0.0942,-72.20,219.27,-326.89
481,1265930987,-1.2485,1.3940,-0.0620,-78.23,219.94,-315.00
482,1265935987,-1.2358,1.4131,-0.0234,-81.52,220.18,-302.93
483,1265940987,-1.2178,1.4326,0.0190,-81.83,220.00,-291.22
484,1265945987,-1.2056,1.4551,0.0449,-80.06,219.45,-279.76
485,1265950986,-1.2061,1.4902,0.0806,-77.01,218.48,-268.84
486,1265955985,-1.2334,1.5449,0.1055,-73.84,217.20,-258.11
487,1265960987,-1.2583,1.6313,0.1216,-71.28,215.91,-248.35
488,1265965987,-1.3276,1.6987,0.1001,-70.12,213.90,-239.02
489,1265970987,-1.3887,1.8242,0.1245,-71.04,211.77,-230.18
490,1265975987,-1.4097,1.8833,0.1914,-73.78,208.78,-221.83
491,1265980985,-1.4204,1.9331,0.2363,-78.29,205.98,-213.17
492,1265985987,-1.4443,1.9951,0.2729,-83.54,202.80,-204.88
493,1265990987,-1.4458,2.0586,0.3262,-89.88,199.21,-196.34
494,1265995987,-1.3994,2.0889,0.3877,-96.71,195.18,-187.62
495,1266000987,-1.3525,2.1035,0.4414,-103.78,190.98,-178.41
496,1266005987,-1.2930,2.1255,0.4858,-110.18,186.59,-168.78
497,1266010987,-1.2144,2.1421,0.5303,-115.73,181.89,-158.72
498,1266015987,-1.1372,2.1440,0.5537,-120.12,177.32,-147.93
499,1266020985,-1.0640,2.1558,0.5952,-122.74,172.62,-136.71
500,1266025987,-0.9688,2.1128,0.5884,-123.66,167.80,-125.00
501,1266030987,-0.8999,2.0493,0.6133,-122.68,162.50,-112.56
502,1266035986,-0.8110,1.9653,0.6250,-119.09,157.26,-99.45
503,1266041052,-0.7373,1.8911,0.6152,-113.54,151.59,-85.49
504,1266045986,-0.6758,1.8032,0.6162,-105.67,145.73,-71.04
505,1266050987,-0.6064,1.7383,0.6255,-95.61,139.63,-56.28
506,1266055986,-0.5386,1.6812,0.6479,-83.11,133.84,-41.52
507,1266060985,-0.4795,1.6094,0.6445,-68.11,128.72,-26.77
508,1266065987,-0.4478,1.5762,0.6279,-52.20,123.35,-12.20
509,1266070987,-0.4243,1.5166,0.6294,-36.34,118.23,2.01
510,1266075986,-0.3623,1.4595,0.6572,-20.98,113.23,15.98
511,1266080987,-0.3042,1.4365,0.6606,-7.56,108.48,29.39
512,1266085986,-0.2852,1.4136,0.6504,3.23,104.15,42.01
513,1266090987,-0.2549,1.3940,0.6680,11.16,100.12,54.21
514,1266095987,-0.2539,1.3799,0.6504,15.85,96.34,65.98
515,1266100987,-0.2480,1.3711,0.6353,17.62,92.50,76.83
516,1266105986,-0.2578,1.3589,0.6270,16.46,87.93,87.26
517,1266110987,-0.2715,1.3447,0.6162,13.29,86.46,96.28
518,1266116024,-0.2876,1.3345,0.6089,8.78,82.26,105.00
519,1266121369,-0.2998,1.3237,0.6035,2.50,78.23,114.82
520,1266125987,-0.3110,1.3062,0.5977,-1.65,75.67,120.79
521,1266130987,-0.3237,1.2891,0.5933,-6.59,72.50,127.74
522,1266135986,-0.3379,1.2686,0.5903,-11.10,69.51,134.27
523,1266140985,-0.3413,1.2505,0.5952,-14.70,66.65,140.43
524,1266145988,-0.3589,1.2305,0.5967,-17.07,63.78,146.28
525,1266150987,-0.3784,1.2173,0.5972,-18.17,60.98,151.59
526,1266155987,-0.3867,1.2104,0.6069,-17.26,58.48,156.40
527,1266160987,-0.4048,1.2446,0.6660,-14.63,56.16,160.18
528,1266165987,-0.4282,1.2095,0.6445,-10.98,54.82,163.54
529,1266170987,-0.4053,1.1792,0.6436,-6.77,53.96,166.46
530,1266175987,-0.3423,1.1826,0.6440,-2.87,53.05,168.72
531,1266180987,-0.3325,1.1152,0.6416,1.65,51.52,170.79
532,1266185987,-0.3247,1.0654,0.6284,5.85,50.55,172.93
533,1266190987,-0.2271,1.0742,0.6113,10.73,49.51,174.70
534,1266195987,-0.2998,1.0269,0.6772,17.50,47.93,175.79
535,1266200989,-0.2979,0.9858,0.6904,25.06,47.50,176.40
536,1266205987,-0.2339,0.9775,0.7119,34.45,48.35,175.79
537,1266210987,-0.1567,0.9463,0.6787,46.28,50.00,174.09
538,1266215986,-0.1089,0.8911,0.7510,60.61,52.56,172.32
539,1266220988,-0.0518,0.8501,0.7383,76.28,55.85,170.67
540,1266225986,0.0005,0.8281,0.6733,92.87,60.12,168.66
541,1266230987,0.0439,0.7852,0.6650,110.18,64.51,166.59
542,1266235986,0.0747,0.7275,0.6553,128.05,68.78,164.63
543,1266240987,0.1147,0.6880,0.5981,143.48,72.99,162.93
544,1266245986,0.1660,0.6538,0.5249,158.72,77.01,161.04
545,1266250987,0.2070,0.6377,0.5176,172.44,80.98,159.15
546,1266255986,0.2471,0.6235,0.5200,184.57,84.57,157.01
547,1266260985,0.2769,0.6074,0.4565,194.82,86.16,154.51
548,1266265985,0.3013,0.5830,0.3936,203.29,89.88,152.07
549,1266270989,0.3101,0.5566,0.3892,209.88,92.50,149.21
550,1266275986,0.3169,0.5322,0.3765,214.82,94.57,146.16
551,1266280987,0.3267,0.5181,0.3013,217.62,96.34,143.17
552,1266285986,0.3306,0.4976,0.2593,218.84,97.68,139.63
553,1266290985,0.3330,0.4937,0.2749,218.11,98.48,136.10
554,1266295987,0.3384,0.5000,0.2451,215.91,99.02,132.38
555,1266300987,0.3486,0.4990,0.1875,211.83,99.27,128.17
556,1266305987,0.3584,0.5000,0.1748,206.34,99.33,123.84
557,1266310987,0.3594,0.5063,0.1855,199.70,98.84,119.51
558,1266315987,0.3696,0.5146,0.1660,191.83,98.23,114.94
559,1266320987,0.3750,0.5215,0.1226,183.11,97.44,110.30
560,1266325987,0.3740,0.5317,0.1299,173.66,96.46,105.67
561,1266330985,0.3750,0.5352,0.1426,163.90,95.18,101.04
562,1266335987,0.3872,0.5391,0.1191,153.66,93.90,96.59
563,1266340987,0.3940,0.5435,0.1113,143.35,92.68,92.01
564,1266345987,0.3906,0.5576,0.1182,132.99,91.04,87.01
565,1266351076,0.3975,0.5664,0.1167,123.11,89.21,84.33
566,1266355987,0.4116,0.5767,0.0996,112.99,86.95,80.30
567,1266360985,0.4287,0.5903,0.0869,103.05,85.18,76.59
568,1266365985,0.4531,0.6206,0.1045,93.41,85.12,73.05
569,1266370987,0.4736,0.6484,0.1104,83.96,82.87,69.76
570,1266375987,0.4966,0.6729,0.0972,74.76,80.98,66.65
571,1266380985,0.5225,0.6958,0.1196,63.84,78.48,63.23
572,1266385987,0.5352,0.7095,0.1484,56.95,76.83,61.28
573,1266390986,0.5483,0.7275,0.1562,48.60,75.00,58.96
574,1266395987,0.5698,0.7417,0.1499,41.28,73.17,57.13
575,1266400987,0.5791,0.7563,0.1714,34.70,71.22,55.67
576,1266405986,0.5928,0.7764,0.1836,29.09,69.27,54.70
577,1266410987,0.6006,0.7861,0.1875,24.45,67.26,53.90
578,1266415987,0.6108,0.7964,0.1860,21.10,65.12,53.66
579,1266420987,0.6182,0.8086,0.1997,18.78,63.17,53.72
580,1266425987,0.6191,0.8228,0.2139,17.13,60.91,54.02
581,1266430987,0.6289,0.8379,0.2231,16.22,58.60,54.94
582,1266435987,0.6328,0.8589,0.2363,15.73,56.16,56.04
583,1266440987,0.6377,0.8809,0.2808,15.37,53.78,57.13
584,1266445987,0.6514,0.9038,0.2983,15.12,51.22,58.66
585,1266450996,0.6587,0.9326,0.3101,15.24,48.96,60.24
586,1266455987,0.6675,0.9507,0.3237,15.24,46.40,61.89
587,1266460987,0.6729,0.9668,0.3521,15.73,44.02,63.72
588,1266465987,0.6797,0.9780,0.3652,16.40,41.28,65.61
589,1266470985,0.6851,0.9873,0.3599,17.50,38.72,67.87
590,1266475989,0.6846,0.9985,0.3696,18.78,36.16,69.88
591,1266480985,0.6899,1.0039,0.3843,20.37,33.48,72.01
592,1266485985,0.6899,1.0054,0.3857,22.26,30.79,74.39
593,1266490987,0.6904,1.0015,0.3779,24.51,27.99,76.65
594,1266495987,0.6948,0.9946,0.3833,26.59,25.30,78.96
595,1266500987,0.6904,0.9868,0.3813,29.02,22.26,81.22
596,1266505987,0.6870,0.9702,0.3765,31.40,19.45,83.41
597,1266510987,0.6836,0.9565,0.3735,33.60,16.46,86.65
598,1266515988,0.6821,0.9370,0.3745,35.61,13.66,87.62
599,1266520985,0.6782,0.9277,0.3774,37.07,10.91,89.51
600,1266525987,0.6758,0.9150,0.3687,38.17,8.17,91.34
601,1266530985,0.6782,0.9009,0.3638,38.66,5.49,92.68
602,1266535985,0.6763,0.8838,0.3550,38.35,2.80,93.84
603,1266540987,0.6719,0.8677,0.3462,37.56,0.18,94.88
604,1266545987,0.6753,0.8525,0.3389,36.22,-2.38,95.43
605,1266550987,0.6758,0.8462,0.3271,34.21,-4.76,95.73
606,1266555987,0.6699,0.8281,0.3169,31.95,-7.32,95.85
607,1266560987,0.6665,0.8149,0.3081,29.33,-9.39,95.67
608,1266565986,0.6738,0.7974,0.2979,27.01,-11.71,95.18
609,1266570985,0.6807,0.7773,0.2773,24.94,-13.96,94.82
610,1266575987,0.6831,0.7529,0.2656,22.87,-15.98,94.21
611,1266580987,0.6895,0.7305,0.2441,21.40,-17.87,93.60
612,1266585986,0.7041,0.7104,0.2295,20.18,-19.76,92.87
613,1266590987,0.7212,0.6816,0.2183,19.88,-21.59,92.07
614,1266595987,0.7339,0.6621,0.1968,19.76,-23.11,91.40
615,1266600987,0.7490,0.6396,0.1890,19.88,-24.63,90.67
616,1266605986,0.7681,0.6182,0.1724,20.73,-25.73,90.00
617,1266610987,0.7764,0.5981,0.1616,21.89,-27.07,89.02
618,1266615987,0.7881,0.5806,0.1519,22.62,-27.62,87.32
619,1266620987,0.7998,0.5688,0.1343,23.60,-28.66,86.52
620,1266625988,0.8091,0.5684,0.1191,24.76,-29.27,86.52
621,1266630987,0.8120,0.5508,0.1138,25.55,-29.82,85.61
622,1266635987,0.8242,0.5347,0.1167,26.22,-30.24,83.66
623,1266640987,0.8311,0.5278,0.1094,26.71,-30.49,82.07
624,1266645986,0.8340,0.5195,0.1006,27.01,-30.49,80.49
625,1266650987,0.8354,0.5068,0.1011,27.01,-30.43,78.54
626,1266655987,0.8398,0.5005,0.0894,26.71,-30.55,76.59
627,1266661102,0.8428,0.4956,0.0781,26.10,-30.24,74.02
628,1266665987,0.8389,0.4907,0.0728,25.55,-30.06,72.20
629,1266670985,0.8398,0.4839,0.0737,24.70,-29.88,70.06
630,1266675985,0.8403,0.4780,0.0625,23.17,-29.39,67.26
631,1266680989,0.8486,0.4736,0.0640,22.13,-29.15,65.37
632,1266685986,0.8511,0.4746,0.0562,20.49,-28.84,63.23
633,1266690987,0.8511,0.4663,0.0439,19.09,-28.41,60.91
634,1266695986,0.8569,0.4561,0.0508,17.62,-27.93,58.60
635,1266700987,0.8535,0.4531,0.0410,16.46,-27.50,56.52
636,1266705986,0.8628,0.4443,0.0308,15.61,-26.89,54.63
637,1266710987,0.8662,0.4326,0.0190,15.00,-26.52,52.68
638,1266715986,0.8618,0.4238,0.0093,14.88,-26.04,50.85
639,1266720987,0.8599,0.4136,0.0034,15.06,-25.61,49.15
640,1266725987,0.8584,0.4097,-0.0034,15.49,-25.12,47.56
641,1266730987,0.8667,0.4087,-0.0137,16.04,-24.76,45.98
642,1266735986,0.8643,0.4102,-0.0210,16.95,-24.33,44.39
643,1266740987,0.8662,0.4033,-0.0254,17.80,-23.78,42.87
644,1266745986,0.8667,0.4038,-0.0298,18.78,-23.17,41.34
645,1266750987,0.8721,0.4009,-0.0361,19.88,-22.56,39.94
646,1266755986,0.8721,0.3960,-0.0420,20.98,-22.13,38.48
647,1266761386,0.8682,0.3975,-0.0469,22.38,-21.40,36.77
648,1266765987,0.8633,0.4038,-0.0586,23.48,-20.91,35.67
649,1266770986,0.8701,0.4062,-0.0679,24.76,-20.24,34.15
650,1266775985,0.8779,0.4019,-0.0825,26.22,-19.51,32.99
651,1266780987,0.8711,0.3970,-0.0879,27.74,-18.84,31.65
652,1266785987,0.8774,0.3887,-0.0962,29.57,-18.23,30.24
653,1266790987,0.8755,0.3872,-0.0967,30.67,-17.56,29.33
654,1266795987,0.8765,0.3823,-0.1040,32.26,-16.52,28.11
655,1266801006,0.8799,0.3857,-0.1069,33.35,-15.61,27.07
656,1266805988,0.8765,0.3887,-0.1040,34.21,-14.76,25.79
657,1266810987,0.8740,0.3926,-0.1089,34.70,-13.84,24.51
658,1266815987,0.8784,0.3911,-0.1177,35.06,-13.05,23.23
659,1266820987,0.8799,0.3916,-0.1128,34.94,-12.07,21.71
660,1266825987,0.8760,0.3911,-0.1152,34.63,-10.85,20.37
661,1266830987,0.8823,0.3892,-0.1196,33.96,-9.94,19.02
662,1266835987,0.8833,0.3882,-0.1226,33.29,-8.96,17.62
663,1266840985,0.8853,0.3853,-0.1177,32.20,-7.93,16.22
664,1266845987,0.8911,0.3813,-0.1187,30.91,-6.77,14.94
665,1266850987,0.8936,0.3843,-0.1162,29.57,-5.61,13.60
666,1266855987,0.8975,0.3818,-0.1162,27.68,-4.63,12.38
667,1266860985,0.9004,0.3813,-0.1138,26.10,-3.48,10.91
668,1266865987,0.9028,0.3853,-0.1187,24.39,-2.50,9.76
669,1266870987,0.8994,0.3843,-0.1211,22.68,-1.46,8.48
670,1266875985,0.8984,0.3838,-0.1226,21.22,-0.61,7.38
671,1266880985,0.8975,0.3789,-0.1157,19.45,0.49,6.10
672,1266885988,0.8965,0.3867,-0.1157,17.93,1.40,4.94
673,1266890987,0.8965,0.3896,-0.1138,16.65,2.50,3.84
674,1266895987,0.8945,0.3892,-0.1147,15.49,3.29,2.80
675,1266900987,0.8940,0.3896,-0.1104,14.39,4.39,1.71
676,1266905987,0.8901,0.3926,-0.1040,13.60,5.18,0.73
677,1266910987,0.8906,0.3960,-0.1025,12.99,6.10,-0.24
678,1266915987,0.8901,0.3984,-0.1040,12.38,6.95,-1.22
679,1266920987,0.8916,0.4009,-0.1099,12.07,7.80,-2.01
680,1266925987,0.8901,0.4033,-0.0991,11.89,8.54,-2.93
681,1266930987,0.8892,0.4038,-0.1021,11.89,9.27,-3.84
682,1266935987,0.8848,0.4087,-0.1040,12.13,9.94,-4.63
683,1266940987,0.8848,0.4106,-0.1021,12.44,10.67,-5.30
684,1266945987,0.8843,0.4146,-0.1035,12.74,11.22,-5.98
685,1266951200,0.8794,0.4209,-0.1001,13.23,11.89,-6.71
686,1266956084,0.8794,0.4194,-0.0996,13.96,12.74,-7.38
687,1266960987,0.8789,0.4277,-0.0903,14.63,13.11,-7.99
688,1266965987,0.8794,0.4282,-0.0952,15.37,13.84,-8.66
689,1266970987,0.8765,0.4272,-0.0923,16.34,14.27,-9.33
690,1266975987,0.8726,0.4312,-0.0967,17.20,14.82,-9.76
691,1266980985,0.8735,0.4307,-0.0908,18.05,15.30,-10.49
692,1266985987,0.8721,0.4287,-0.0903,18.84,15.73,-10.91
693,1266990987,0.8706,0.4307,-0.0923,19.70,16.22,-11.46
694,1266995986,0.8691,0.4351,-0.0913,20.43,16.52,-12.01
695,1267000987,0.8687,0.4438,-0.0825,20.98,17.01,-12.44
696,1267005986,0.8706,0.4404,-0.0869,21.34,17.13,-13.05
697,1267010987,0.8726,0.4429,-0.0864,21.59,17.26,-13.48
698,1267015986,0.8726,0.4478,-0.0854,21.71,17.62,-14.09
699,1267020987,0.8716,0.4492,-0.0879,21.59,17.68,-14.63
700,1267025986,0.8711,0.4473,-0.0830,21.46,17.80,-15.18
701,1267030987,0.8711,0.4478,-0.0796,21.22,17.87,-15.49
702,1267035987,0.8740,0.4414,-0.0742,20.73,18.11,-15.91
703,1267040988,0.8730,0.4453,-0.0767,20.30,18.11,-16.28
704,1267045986,0.8760,0.4478,-0.0698,19.70,18.17,-16.89
705,1267050987,0.8794,0.4497,-0.0703,18.90,18.54,-17.07
706,1267055986,0.8784,0.4492,-0.0679,18.17,18.54,-17.32
707,1267060987,0.8784,0.4526,-0.0659,17.20,18.48,-17.68
708,1267065986,0.8735,0.4546,-0.0605,16.28,18.60,-17.93
709,1267070987,0.8813,0.4570,-0.0601,15.43,18.60,-18.23
710,1267075986,0.8784,0.4556,-0.0625,14.27,18.48,-18.35
711,1267080985,0.8721,0.4570,-0.0576,13.35,18.54,-18.60
712,1267085985,0.8784,0.4585,-0.0503,12.26,18.48,-18.72
713,1267090989,0.8789,0.4639,-0.0503,11.28,18.29,-18.84
714,1267095987,0.8789,0.4658,-0.0503,10.12,18.29,-18.90
715,1267100987,0.8818,0.4717,-0.0444,8.96,18.17,-18.96
716,1267105987,0.8779,0.4692,-0.0376,8.17,18.17,-19.02
717,1267110987,0.8750,0.4780,-0.0322,7.07,18.17,-18.96
718,1267115988,0.8726,0.4780,-0.0254,6.22,18.11,-18.96
719,1267120987,0.8726,0.4819,-0.0283,5.43,17.99,-18.96
720,1267125987,0.8662,0.4858,-0.0215,4.70,17.93,-18.78
721,1267130987,0.8628,0.4893,-0.0225,3.96,17.62,-18.72
722,1267135993,0.8599,0.4927,-0.0151,3.48,17.56,-18.66
723,1267140995,0.8608,0.5005,-0.0210,3.05,17.32,-18.48
724,1267145990,0.8569,0.5024,-0.0137,2.74,17.07,-18.23
725,1267150987,0.8569,0.5063,-0.0088,2.44,16.71,-18.05
726,1267155987,0.8477,0.5059,-0.0034,2.20,16.65,-17.87
727,1267160985,0.8433,0.5117,-0.0083,1.95,16.22,-17.62
728,1267165987,0.8433,0.5171,0.0054,1.77,15.79,-17.38
729,1267170987,0.8398,0.5200,0.0073,1.65,15.61,-17.07
730,1267175986,0.8384,0.5200,0.0132,1.52,15.00,-16.77
731,1267180985,0.8350,0.5264,0.0186,1.65,14.70,-16.59
732,1267185986,0.8340,0.5298,0.0103,1.77,14.21,-16.10
733,1267190988,0.8276,0.5352,0.0142,1.83,13.66,-15.85
734,1267196079,0.8276,0.5420,0.0259,2.20,13.23,-15.43
735,1267200989,0.8286,0.5410,0.0200,2.50,12.44,-15.12
736,1267205986,0.8306,0.5459,0.0186,2.99,11.95,-14.63
737,1267210987,0.8281,0.5488,0.0220,3.54,11.28,-14.27
738,1267215986,0.8281,0.5542,0.0205,4.09,10.67,-13.84
739,1267220987,0.8286,0.5532,0.0234,4.88,10.12,-13.35
740,1267225986,0.8271,0.5581,0.0229,5.49,9.51,-12.80
741,1267230987,0.8247,0.5542,0.0254,6.52,8.66,-12.32
742,1267235986,0.8247,0.5596,0.0322,7.44,8.11,-11.77
743,1267240987,0.8291,0.5620,0.0298,8.35,7.44,-11.22
744,1267245986,0.8247,0.5640,0.0312,9.33,6.89,-10.79
745,1267250985,0.8232,0.5649,0.0303,10.30,6.28,-10.12
746,1267255987,0.8237,0.5659,0.0327,11.16,5.61,-9.70
747,1267260987,0.8213,0.5698,0.0278,11.95,4.88,-9.21
748,1267265987,0.8179,0.5698,0.0293,12.68,4.21,-8.90
749,1267270987,0.8135,0.5747,0.0303,13.35,3.66,-8.41
750,1267275987,0.8140,0.5771,0.0269,13.96,3.05,-7.99
751,1267280987,0.8140,0.5776,0.0293,14.45,2.38,-7.68
752,1267285987,0.8071,0.5752,0.0298,15.00,1.89,-7.38
753,1267290986,0.8115,0.5757,0.0347,15.30,1.34,-7.07
754,1267295989,0.8086,0.5757,0.0303,15.67,0.91,-6.77
755,1267301267,0.8071,0.5771,0.0259,15.98,0.61,-6.71
756,1267305987,0.8110,0.5786,0.0342,16.22,0.12,-6.40
757,1267310988,0.8086,0.5801,0.0205,16.52,-0.37,-6.22
758,1267315987,0.8062,0.5825,0.0195,16.77,-0.73,-5.98
759,1267320987,0.8081,0.5771,0.0254,17.01,-1.22,-5.79
760,1267325986,0.8096,0.5806,0.0142,17.13,-1.46,-5.67
761,1267330987,0.8081,0.5786,0.0132,17.62,-1.77,-5.37
762,1267335986,0.8101,0.5757,0.0112,17.87,-2.20,-5.24
763,1267341512,0.8115,0.5757,0.0015,18.23,-2.56,-5.00
764,1267345987,0.8140,0.5767,0.0068,18.54,-2.80,-4.82
765,1267350987,0.8125,0.5742,0.0005,18.84,-3.11,-4.63
766,1267355987,0.8096,0.5708,-0.0024,19.09,-3.54,-4.33
767,1267360987,0.8096,0.5688,-0.0132,19.33,-3.78,-4.02
768,1267365987,0.8096,0.5659,-0.0117,19.33,-4.21,-3.84
769,1267370987,0.8149,0.5688,-0.0132,19.70,-4.63,-3.60
770,1267375987,0.8125,0.5630,-0.0161,19.76,-4.88,-3.41
771,1267380987,0.8115,0.5654,-0.0273,19.70,-5.24,-3.05
772,1267385987,0.8140,0.5591,-0.0249,19.76,-5.61,-2.80
773,1267390985,0.8169,0.5605,-0.0259,19.82,-5.85,-2.62
774,1267396071,0.8218,0.5571,-0.0312,19.94,-6.22,-2.20
775,1267401037,0.8242,0.5571,-0.0405,19.82,-6.46,-1.77
776,1267405986,0.8232,0.5532,-0.0415,19.70,-6.77,-1.52
777,1267410985,0.8242,0.5576,-0.0474,19.51,-7.07,-1.04
778,1267416344,0.8237,0.5571,-0.0508,19.33,-7.32,-0.79
779,1267420987,0.8237,0.5566,-0.0479,19.02,-7.50,-0.43
780,1267425986,0.8242,0.5542,-0.0527,18.78,-7.93,-0.12
781,1267430987,0.8252,0.5596,-0.0547,18.41,-8.11,0.12
782,1267435986,0.8247,0.5566,-0.0596,18.11,-8.48,0.55
783,1267440987,0.8267,0.5547,-0.0674,17.62,-8.78,0.73
784,1267445986,0.8252,0.5503,-0.0708,17.20,-9.15,1.16
785,1267450988,0.8247,0.5518,-0.0630,16.65,-9.33,1.34
786,1267455986,0.8252,0.5518,-0.0776,16.16,-9.57,1.77
787,1267460987,0.8228,0.5518,-0.0874,15.73,-10.06,2.07
788,1267465986,0.8252,0.5469,-0.0815,15.12,-10.24,2.38
789,1267470987,0.8213,0.5410,-0.0815,14.45,-10.43,2.68
790,1267475987,0.8208,0.5444,-0.0884,13.72,-10.79,3.05
791,1267480987,0.8169,0.5420,-0.0981,13.17,-11.10,3.48
792,1267485986,0.8115,0.5439,-0.0908,12.32,-11.34,3.78
793,1267490985,0.8047,0.5376,-0.0938,11.59,-11.59,4.21
794,1267496006,0.8091,0.5415,-0.0977,10.85,-11.77,4.63
795,1267500987,0.8120,0.5366,-0.1030,9.82,-11.95,5.06
796,1267506004,0.8101,0.5396,-0.0967,8.96,-12.01,5.37
797,1267510985,0.8071,0.5386,-0.0898,7.99,-12.20,5.79
798,1267515987,0.8115,0.5454,-0.0952,6.89,-12.20,6.04
799,1267520987,0.8086,0.5474,-0.0962,5.55,-12.26,6.46
800,1267525986,0.8169,0.5532,-0.0947,4.45,-12.26,6.77
801,1267530987,0.8149,0.5586,-0.0874,3.29,-12.26,6.89
802,1267535987,0.8154,0.5615,-0.0903,2.26,-12.07,7.07
803,1267541001,0.8164,0.5605,-0.0894,1.10,-11.83,7.32
804,1267545985,0.8174,0.5610,-0.0928,0.06,-11.52,7.56
805,1267550989,0.8169,0.5640,-0.0864,-0.73,-11.52,7.74
806,1267556051,0.8252,0.5679,-0.0894,-1.46,-11.10,7.80
807,1267560987,0.8232,0.5688,-0.0864,-2.01,-10.79,7.99
808,1267565987,0.8237,0.5762,-0.0845,-2.32,-10.43,8.11
809,1267570989,0.8252,0.5771,-0.0830,-2.62,-10.24,8.17
810,1267575987,0.8262,0.5791,-0.0908,-2.74,-9.76,8.41
811,1267581532,0.8262,0.5742,-0.0830,-2.62,-9.27,8.54
812,1267585987,0.8291,0.5806,-0.0898,-2.38,-9.02,8.60
813,1267590986,0.8276,0.5752,-0.0898,-1.95,-8.66,8.84
814,1267595986,0.8276,0.5747,-0.0918,-1.34,-8.23,9.02
815,1267600987,0.8296,0.5723,-0.0894,-0.79,-7.87,9.27
816,1267605987,0.8276,0.5757,-0.0869,0.06,-7.32,9.51
817,1267610987,0.8296,0.5718,-0.0874,0.91,-6.77,9.70
818,1267615986,0.8296,0.5737,-0.0869,1.77,-6.46,9.82
819,1267620989,0.8306,0.5767,-0.0908,2.74,-6.04,10.18
820,1267625986,0.8257,0.5732,-0.0879,3.72,-5.61,10.43
821,1267630987,0.8267,0.5679,-0.0889,4.70,-5.06,10.61
822,1267635986,0.8301,0.5659,-0.0894,5.61,-4.76,10.85
823,1267640987,0.8281,0.5615,-0.0928,6.59,-4.45,10.98
824,1267645986,0.8252,0.5605,-0.0942,7.50,-4.15,11.28
825,1267650987,0.8213,0.5566,-0.0967,8.41,-3.78,11.40
826,1267655986,0.8203,0.5562,-0.0996,9.21,-3.66,11.59
827,1267661214,0.8174,0.5552,-0.1045,9.70,-3.29,11.65
828,1267665987,0.8203,0.5508,-0.1060,10.18,-3.23,11.77
829,1267670986,0.8213,0.5508,-0.1074,10.55,-3.17,11.77
830,1267675987,0.8193,0.5454,-0.1055,10.73,-2.87,11.83
831,1267680987,0.8145,0.5430,-0.1104,10.85,-2.93,11.77
832,1267685988,0.8159,0.5435,-0.1084,10.73,-2.87,11.77
833,1267690985,0.8169,0.5420,-0.1147,10.61,-2.68,11.65
834,1267695985,0.8174,0.5376,-0.1079,10.30,-2.50,11.52
835,1267701338,0.8198,0.5303,-0.1060,9.94,-2.44,11.52
836,1267705987,0.8179,0.5293,-0.1079,9.76,-2.38,11.52
837,1267710987,0.8169,0.5269,-0.1167,9.33,-2.38,11.40
838,1267715987,0.8203,0.5239,-0.1104,8.90,-2.32,11.28
839,1267720987,0.8208,0.5205,-0.1123,8.60,-2.44,11.28
840,1267725989,0.8228,0.5239,-0.1138,7.99,-2.32,11.16
841,1267730986,0.8198,0.5195,-0.1108,7.62,-2.26,11.22
842,1267735987,0.8193,0.5181,-0.1113,7.20,-2.13,11.04
843,1267740987,0.8223,0.5195,-0.1133,6.83,-2.07,10.98
844,1267745987,0.8247,0.5171,-0.1118,6.28,-2.13,10.73
845,1267750987,0.8228,0.5112,-0.1196,5.98,-2.13,10.49
846,1267755986,0.8267,0.5137,-0.1113,5.67,-2.07,10.37
847,1267760992,0.8252,0.5127,-0.1069,5.30,-2.07,10.12
848,1267765987,0.8262,0.5137,-0.1064,5.12,-2.01,9.88
849,1267770987,0.8296,0.5093,-0.1104,4.94,-1.95,9.82
850,1267775986,0.8330,0.5107,-0.1045,4.94,-2.01,9.63
851,1267780987,0.8330,0.5068,-0.1069,4.82,-1.95,9.39
852,1267785988,0.8311,0.5063,-0.1104,4.88,-1.77,9.15
853,1267790987,0.8345,0.5068,-0.1069,5.12,-1.83,9.02
854,1267795987,0.8379,0.5044,-0.1060,5.18,-1.65,8.90
855,1267800985,0.8398,0.4966,-0.1021,5.30,-1.59,8.78
856,1267805987,0.8398,0.4995,-0.0972,5.55,-1.65,8.66
857,1267810989,0.8438,0.5015,-0.0991,5.67,-1.46,8.35
858,1267815986,0.8481,0.4990,-0.1011,5.85,-1.28,8.23
859,1267820987,0.8423,0.4985,-0.1050,6.10,-1.28,8.11
860,1267825986,0.8481,0.4990,-0.0991,6.16,-1.10,7.87
861,1267830987,0.8501,0.4917,-0.0957,6.22,-0.91,7.68
862,1267835986,0.8521,0.4922,-0.1035,6.28,-0.85,7.50
863,1267840987,0.8472,0.4912,-0.0991,6.34,-0.73,7.32
864,1267845987,0.8511,0.4922,-0.0967,6.46,-0.49,7.01
865,1267850987,0.8521,0.4922,-0.0972,6.46,-0.55,6.71
866,1267855986,0.8540,0.4922,-0.0884,6.40,-0.30,6.46
867,1267860988,0.8550,0.4902,-0.0962,6.46,-0.24,6.16
868,1267865986,0.8540,0.4922,-0.0967,6.52,-0.12,5.98
869,1267870987,0.8550,0.4927,-0.1011,6.52,0.00,5.67
870,1267875987,0.8555,0.4888,-0.0957,6.65,0.06,5.43
871,1267880987,0.8579,0.4883,-0.0874,6.40,0.06,5.18
872,1267885987,0.8555,0.4888,-0.0903,6.46,0.30,5.00
873,1267890987,0.8613,0.4897,-0.0918,6.46,0.37,4.88
874,1267895986,0.8613,0.4907,-0.0947,6.46,0.49,4.57
875,1267900985,0.8633,0.4932,-0.0850,6.46,0.61,4.27
876,1267905986,0.8623,0.4858,-0.0923,6.52,0.67,4.21
877,1267910989,0.8613,0.4893,-0.0918,6.59,0.73,4.02
878,1267915986,0.8633,0.4932,-0.0933,6.77,0.91,3.72
879,1267920987,0.8608,0.4922,-0.0928,6.95,0.91,3.78
880,1267925986,0.8584,0.4980,-0.0923,6.95,1.04,3.48
881,1267930987,0.8560,0.4937,-0.0894,7.07,1.22,3.29
882,1267935987,0.8555,0.4966,-0.0918,7.20,1.16,3.05
883,1267940990,0.8555,0.4951,-0.0913,7.32,1.28,2.87
884,1267945987,0.8491,0.4990,-0.0991,7.32,1.28,2.68
885,1267950987,0.8535,0.4941,-0.0918,7.44,1.46,2.44
886,1267955987,0.8501,0.4961,-0.0889,7.44,1.34,2.32
887,1267960985,0.8486,0.4961,-0.0947,7.38,1.34,2.20
888,1267965986,0.8452,0.4990,-0.0962,7.32,1.46,1.89
889,1267970985,0.8428,0.4966,-0.0913,7.26,1.46,1.77
890,1267975985,0.8457,0.4990,-0.0923,7.13,1.52,1.65
891,1267980985,0.8438,0.4985,-0.0977,6.95,1.52,1.40
892,1267985989,0.8408,0.5010,-0.0938,6.77,1.59,1.28
893,1267990987,0.8389,0.5034,-0.0967,6.59,1.71,1.04
894,1267996084,0.8369,0.5049,-0.0942,6.52,1.59,0.85
895,1268000985,0.8369,0.5015,-0.1016,6.34,1.65,0.61
896,1268005985,0.8364,0.5073,-0.1045,6.10,1.59,0.37
897,1268010985,0.8311,0.5063,-0.1035,5.98,1.65,0.18
898,1268015985,0.8340,0.5068,-0.0996,5.79,1.52,-0.06
899,1268020985,0.8345,0.5073,-0.0972,5.85,1.77,-0.24
900,1268025987,0.8320,0.5068,-0.1006,5.85,1.77,-0.43
901,1268030987,0.8320,0.5083,-0.0991,5.91,1.83,-0.55
902,1268035986,0.8320,0.5078,-0.1064,5.98,1.95,-0.61
903,1268040987,0.8340,0.5098,-0.0991,6.22,1.83,-0.79
904,1268045987,0.8335,0.5049,-0.1084,6.28,1.89,-0.91
905,1268050987,0.8335,0.5063,-0.1064,6.46,1.77,-0.98
906,1268055987,0.8301,0.5083,-0.0972,6.65,1.71,-1.10
907,1268061071,0.8276,0.5063,-0.1113,6.71,2.13,-1.28
908,1268065988,0.8340,0.5063,-0.1064,6.89,2.20,-1.28
909,1268070987,0.8354,0.5005,-0.1069,7.07,2.13,-1.34
910,1268075987,0.8335,0.5024,-0.1074,7.20,2.20,-1.40
911,1268080987,0.8350,0.5059,-0.1011,7.32,2.20,-1.52
912,1268085987,0.8345,0.5015,-0.1099,7.32,2.32,-1.52
913,1268090987,0.8354,0.5044,-0.1133,7.50,2.44,-1.65
914,1268095987,0.8325,0.5049,-0.1060,7.44,2.56,-1.59
915,1268100987,0.8335,0.5015,-0.1035,7.38,2.62,-1.77
916,1268105987,0.8340,0.5059,-0.1108,7.26,2.62,-1.77
917,1268111024,0.8325,0.5083,-0.1099,7.13,2.80,-1.83
918,1268115988,0.8325,0.5039,-0.1128,6.95,2.80,-1.83
919,1268120986,0.8359,0.5034,-0.1069,6.52,2.93,-1.95
920,1268125987,0.8364,0.5044,-0.1108,6.46,3.11,-1.83
921,1268130987,0.8369,0.5093,-0.1152,6.16,3.17,-1.89
922,1268135987,0.8389,0.5049,-0.1157,5.85,3.17,-2.13
923,1268140987,0.8354,0.5078,-0.1074,5.55,3.23,-2.13
924,1268145986,0.8359,0.5088,-0.1060,5.30,3.35,-2.26
925,1268150987,0.8384,0.5068,-0.1045,5.18,3.54,-2.20
926,1268155986,0.8379,0.5073,-0.1050,5.00,3.60,-2.26
927,1268160987,0.8379,0.5103,-0.1001,4.88,3.66,-2.32
928,1268165986,0.8418,0.5088,-0.1089,4.76,3.84,-2.26
929,1268171131,0.8423,0.5107,-0.1079,4.57,3.84,-2.32
930,1268175986,0.8428,0.5112,-0.1021,4.57,3.90,-2.26
931,1268180987,0.8398,0.5093,-0.0991,4.39,4.09,-2.13
932,1268185986,0.8428,0.5083,-0.1084,4.27,4.27,-2.20
933,1268190988,0.8418,0.5093,-0.1079,4.15,4.33,-2.20
934,1268195986,0.8418,0.5093,-0.1030,4.09,4.51,-2.07
935,1268200989,0.8394,0.5049,-0.1084,3.84,4.70,-1.89
936,1268205986,0.8423,0.5039,-0.1084,3.72,4.82,-1.83
937,1268210985,0.8413,0.5098,-0.1030,3.54,4.82,-1.65
938,1268215989,0.8452,0.5098,-0.1001,3.35,5.18,-1.77
939,1268220987,0.8413,0.5122,-0.1021,3.05,5.06,-1.65
940,1268225987,0.8389,0.5107,-0.0957,2.80,5.24,-1.52
941,1268230987,0.8335,0.5132,-0.0981,2.44,5.18,-1.46
942,1268235988,0.8330,0.5107,-0.0938,2.13,5.49,-1.46
943,1268240987,0.8320,0.5122,-0.0938,1.89,5.73,-1.46
944,1268245987,0.8320,0.5073,-0.0913,1.52,5.79,-1.40
945,1268250987,0.8330,0.5117,-0.0928,1.22,5.91,-1.40
946,1268255987,0.8306,0.5132,-0.0889,0.91,5.98,-1.40
947,1268260987,0.8315,0.5166,-0.0913,0.73,6.16,-1.40
948,1268265987,0.8257,0.5171,-0.0874,0.49,6.34,-1.40
949,1268270987,0.8286,0.5156,-0.0913,0.37,6.40,-1.34
950,1268275987,0.8276,0.5190,-0.0908,0.30,6.52,-1.40
951,1268280987,0.8223,0.5176,-0.0889,0.18,6.65,-1.34
952,1268285987,0.8262,0.5181,-0.0889,0.30,6.71,-1.34
953,1268290987,0.8237,0.5215,-0.0850,0.37,6.71,-1.34
954,1268295988,0.8267,0.5229,-0.0908,0.49,6.77,-1.28
955,1268300987,0.8276,0.5229,-0.0806,0.61,6.95,-1.22
956,1268305987,0.8286,0.5220,-0.0820,0.91,6.95,-1.22
957,1268310985,0.8252,0.5229,-0.0869,1.16,6.95,-1.10
958,1268315987,0.8267,0.5229,-0.0825,1.59,6.95,-1.04
959,1268320987,0.8306,0.5229,-0.0859,1.95,6.89,-0.98
960,1268325986,0.8276,0.5220,-0.0830,2.38,7.01,-0.91
961,1268330985,0.8301,0.5225,-0.0869,2.87,7.01,-0.85
962,1268335988,0.8296,0.5229,-0.0845,3.29,7.07,-0.73
963,1268340986,0.8286,0.5229,-0.0811,3.48,7.20,-0.67
964,1268345988,0.8262,0.5205,-0.0786,3.84,7.20,-0.43
965,1268350987,0.8281,0.5225,-0.0752,3.96,7.20,-0.30
966,1268355987,0.8330,0.5220,-0.0752,4.02,7.26,-0.37
967,1268360988,0.8296,0.5249,-0.0693,4.02,7.20,-0.18
968,1268365987,0.8354,0.5239,-0.0757,3.96,7.32,-0.18
969,1268370987,0.8330,0.5249,-0.0654,3.72,7.32,-0.12
970,1268375987,0.8330,0.5278,-0.0732,3.35,7.44,-0.12
971,1268380987,0.8311,0.5269,-0.0737,3.11,7.38,-0.12
972,1268385987,0.8325,0.5366,-0.0723,2.74,7.32,-0.24
973,1268390987,0.8325,0.5342,-0.0640,2.44,7.44,-0.37
974,1268395987,0.8330,0.5352,-0.0742,2.20,7.50,-0.37
975,1268400987,0.8374,0.5303,-0.0703,1.95,7.68,-0.43
976,1268405988,0.8340,0.5342,-0.0674,1.71,7.44,-0.43
977,1268410985,0.8403,0.5332,-0.0615,1.59,7.50,-0.30
978,1268415985,0.8374,0.5312,-0.0693,1.59,7.56,-0.24
979,1268420989,0.8374,0.5293,-0.0625,1.65,7.56,-0.18
980,1268425986,0.8403,0.5269,-0.0640,1.52,7.56,-0.12
981,1268430987,0.8403,0.5308,-0.0601,1.71,7.68,0.06
982,1268435986,0.8423,0.5298,-0.0645,1.83,7.80,0.24
983,1268441050,0.8428,0.5322,-0.0596,1.83,7.74,0.43
984,1268445985,0.8398,0.5298,-0.0591,2.01,7.80,0.49
985,1268450987,0.8394,0.5317,-0.0532,2.07,7.74,0.67
986,1268455986,0.8398,0.5317,-0.0562,2.20,7.62,0.73
987,1268460987,0.8408,0.5312,-0.0518,2.26,7.74,0.85
988,1268465986,0.8403,0.5356,-0.0532,2.20,7.62,0.91
989,1268470987,0.8384,0.5332,-0.0542,2.20,7.44,0.91
990,1268475987,0.8364,0.5303,-0.0552,2.26,7.44,0.85
991,1268481264,0.8350,0.5288,-0.0532,2.32,7.32,1.04
992,1268485987,0.8354,0.5303,-0.0557,2.50,7.26,1.04
993,1268490987,0.8364,0.5239,-0.0552,2.56,7.07,1.10
994,1268495988,0.8359,0.5283,-0.0469,2.80,7.07,1.10
995,1268500987,0.8345,0.5249,-0.0532,2.93,7.07,1.16
996,1268505987,0.8325,0.5254,-0.0488,3.17,7.13,1.28
997,1268510985,0.8359,0.5186,-0.0518,3.29,6.95,1.34
998,1268515985,0.8354,0.5190,-0.0518,3.54,6.95,1.40
999,1268520987,0.8315,0.5195,-0.0474,3.78,6.71,1.46
1000,1268525988,0.8384,0.5181,-0.0459,4.02,6.65,1.46
1001,1268530985,0.8335,0.5210,-0.0488,4.21,6.65,1.52
1002,1268535987,0.8335,0.5190,-0.0498,4.45,6.46,1.52
1003,1268540987,0.8354,0.5215,-0.0464,4.51,6.34,1.46
1004,1268545989,0.8340,0.5220,-0.0479,4.76,6.34,1.46
1005,1268550987,0.8340,0.5181,-0.0483,4.88,6.16,1.52
1006,1268555986,0.8398,0.5156,-0.0454,5.06,6.28,1.65
1007,1268560987,0.8335,0.5132,-0.0415,5.18,6.16,1.52
1008,1268565986,0.8379,0.5151,-0.0522,5.43,6.16,1.59
1009,1268570987,0.8403,0.5161,-0.0405,5.61,6.22,1.59
1010,1268575986,0.8369,0.5132,-0.0435,5.67,6.10,1.65
1011,1268581087,0.8325,0.5146,-0.0435,6.04,6.22,1.71
1012,1268585987,0.8325,0.5156,-0.0352,6.22,6.04,1.65
1013,1268590987,0.8384,0.5161,-0.0405,6.46,6.16,1.59
1014,1268595987,0.8350,0.5146,-0.0410,6.65,6.04,1.71
1015,1268600987,0.8364,0.5190,-0.0386,6.83,6.04,1.52
1016,1268605987,0.8350,0.5176,-0.0430,6.89,6.16,1.46
1017,1268610987,0.8364,0.5166,-0.0415,7.01,6.10,1.46
1018,1268615987,0.8384,0.5146,-0.0439,7.07,6.10,1.52
1019,1268620985,0.8418,0.5186,-0.0327,7.32,6.16,1.46
1020,1268625989,0.8408,0.5176,-0.0425,7.32,6.04,1.40
1021,1268630987,0.8428,0.5195,-0.0415,7.44,6.28,1.40
1022,1268635986,0.8447,0.5107,-0.0347,7.56,6.22,1.34
1023,1268640987,0.8428,0.5176,-0.0396,7.62,6.28,1.34
1024,1268645987,0.8447,0.5122,-0.0425,7.68,6.40,1.22
1025,1268650987,0.8447,0.5171,-0.0376,7.68,6.34,1.22
1026,1268655986,0.8481,0.5181,-0.0420,7.80,6.28,1.16
1027,1268660987,0.8477,0.5176,-0.0415,7.80,6.46,1.04
1028,1268665987,0.8481,0.5186,-0.0356,7.87,6.40,1.10
1029,1268670987,0.8506,0.5151,-0.0405,7.87,6.46,0.98
1030,1268675988,0.8521,0.5166,-0.0366,7.93,6.59,0.98
1031,1268680987,0.8506,0.5200,-0.0381,7.80,6.46,1.04
1032,1268685987,0.8535,0.5171,-0.0371,7.93,6.71,0.91
1033,1268690987,0.8516,0.5200,-0.0361,7.80,6.71,0.85
1034,1268695987,0.8530,0.5205,-0.0386,7.68,6.65,0.85
1035,1268700987,0.8550,0.5234,-0.0337,7.38,6.71,0.67
1036,1268705987,0.8555,0.5215,-0.0303,7.32,6.71,0.61
1037,1268710988,0.8525,0.5225,-0.0347,7.07,6.71,0.61
1038,1268715987,0.8521,0.5229,-0.0361,6.89,6.83,0.49
1039,1268720985,0.8491,0.5254,-0.0347,6.65,6.71,0.43
1040,1268725985,0.8511,0.5254,-0.0327,6.40,6.71,0.37
1041,1268730987,0.8462,0.5225,-0.0337,6.22,6.77,0.30
1042,1268735986,0.8481,0.5234,-0.0288,6.16,6.65,0.30
1043,1268740987,0.8477,0.5225,-0.0308,5.98,6.65,0.24
1044,1268745987,0.8467,0.5249,-0.0239,5.85,6.71,0.24
1045,1268750987,0.8433,0.5254,-0.0327,5.73,6.71,0.24
1046,1268755987,0.8477,0.5254,-0.0288,5.61,6.59,0.24
1047,1268760987,0.8462,0.5264,-0.0264,5.49,6.46,0.18
1048,1268765986,0.8457,0.5308,-0.0298,5.37,6.46,0.12
1049,1268770987,0.8462,0.5322,-0.0273,5.37,6.46,0.06
1050,1268775986,0.8418,0.5337,-0.0288,5.24,6.28,0.00
1051,1268780986,0.8428,0.5332,-0.0293,5.00,6.28,0.00
1052,1268786030,0.8452,0.5361,-0.0215,4.94,6.22,-0.12
1053,1268790987,0.8423,0.5356,-0.0273,4.94,6.10,-0.24
1054,1268796080,0.8428,0.5361,-0.0293,4.88,5.91,-0.18
1055,1268800987,0.8389,0.5342,-0.0254,5.00,5.98,-0.24
1056,1268805988,0.8423,0.5337,-0.0259,5.00,5.85,-0.24
1057,1268810985,0.8433,0.5322,-0.0288,5.06,5.73,-0.30
1058,1268815987,0.8447,0.5327,-0.0220,5.18,5.61,-0.24
1059,1268820986,0.8433,0.5327,-0.0269,5.37,5.43,-0.18
1060,1268825985,0.8413,0.5298,-0.0269,5.37,5.43,-0.18
1061,1268831064,0.8433,0.5303,-0.0244,5.49,5.24,-0.18
1062,1268835987,0.8442,0.5308,-0.0220,5.43,5.12,-0.06
1063,1268840987,0.8423,0.5317,-0.0225,5.43,5.12,-0.12
1064,1268845987,0.8442,0.5322,-0.0298,5.43,5.06,0.06
1065,1268850987,0.8457,0.5356,-0.0264,5.30,5.00,-0.06
1066,1268855987,0.8447,0.5327,-0.0220,5.18,4.82,0.00
1067,1268860987,0.8462,0.5352,-0.0220,4.94,4.57,0.06
1068,1268865987,0.8477,0.5342,-0.0239,4.88,4.45,-0.06
1069,1268870987,0.8467,0.5371,-0.0244,4.57,4.45,0.06
1070,1268875988,0.8462,0.5391,-0.0171,4.33,4.09,-0.06
1071,1268880987,0.8457,0.5371,-0.0171,4.15,4.15,0.06
1072,1268885987,0.8394,0.5342,-0.0234,4.15,3.96,0.06
1073,1268890987,0.8433,0.5342,-0.0239,4.02,3.90,-0.06
1074,1268895987,0.8433,0.5327,-0.0171,3.90,3.72,-0.06
1075,1268900987,0.8423,0.5366,-0.0137,3.90,3.60,0.06
1076,1268905987,0.8418,0.5312,-0.0171,3.78,3.48,0.18
1077,1268910988,0.8452,0.5332,-0.0200,3.90,3.23,0.18
1078,1268915986,0.8428,0.5337,-0.0176,3.72,3.11,0.18
1079,1268920985,0.8354,0.5317,-0.0166,3.78,3.05,0.18
1080,1268925985,0.8398,0.5337,-0.0146,3.78,2.74,0.30
1081,1268930985,0.8413,0.5337,-0.0112,3.78,2.56,0.37
1082,1268935989,0.8418,0.5293,-0.0117,3.66,2.62,0.43
1083,1268940987,0.8452,0.5298,-0.0137,3.72,2.44,0.43
1084,1268945987,0.8467,0.5308,-0.0166,3.60,2.26,0.49
1085,1268950987,0.8447,0.5322,-0.0151,3.66,2.20,0.67
1086,1268955988,0.8447,0.5352,-0.0073,3.60,2.07,0.67
1087,1268960987,0.8447,0.5347,-0.0083,3.54,1.89,0.73
1088,1268965987,0.8447,0.5322,-0.0068,3.41,1.83,0.73
1089,1268970987,0.8486,0.5337,-0.0083,3.41,1.71,0.85
1090,1268975987,0.8477,0.5293,-0.0005,3.35,1.71,0.79
1091,1268980987,0.8506,0.5322,-0.0103,3.35,1.65,0.98
1092,1268985987,0.8491,0.5312,-0.0103,3.29,1.65,1.16
1093,1268990987,0.8496,0.5312,-0.0078,3.35,1.59,1.22
1094,1268995987,0.8477,0.5288,-0.0005,3.48,1.65,1.34
1095,1269000987,0.8491,0.5269,-0.0005,3.54,1.59,1.40
1096,1269005986,0.8491,0.5273,-0.0054,3.60,1.77,1.65
1097,1269010987,0.8496,0.5312,-0.0034,3.78,1.59,1.65
1098,1269015986,0.8472,0.5327,-0.0029,3.78,1.46,1.77
1099,1269020985,0.8486,0.5283,-0.0020,3.84,1.65,1.95
1100,1269025987,0.8481,0.5298,-0.0015,3.96,1.59,1.83
1101,1269030987,0.8467,0.5288,-0.0107,4.02,1.46,2.07
1102,1269035987,0.8438,0.5298,-0.0083,3.96,1.52,2.07
1103,1269040987,0.8442,0.5312,-0.0044,4.09,1.59,2.26
1104,1269045986,0.8472,0.5337,-0.0039,4.15,1.77,2.26
1105,1269050987,0.8438,0.5352,-0.0103,4.09,1.71,2.26
1106,1269055986,0.8501,0.5312,-0.0005,4.33,1.40,2.32
1107,1269060987,0.8477,0.5376,-0.0098,4.33,1.52,2.32
1108,1269065987,0.8452,0.5371,-0.0098,4.27,1.46,2.44
1109,1269070987,0.8413,0.5342,-0.0103,4.27,1.40,2.38
1110,1269075987,0.8408,0.5371,-0.0088,4.21,1.22,2.56
1111,1269080987,0.8408,0.5332,-0.0093,4.51,1.34,2.68
1112,1269085986,0.8418,0.5342,-0.0132,4.57,1.34,2.68
1113,1269090988,0.8438,0.5376,-0.0122,4.76,1.22,2.80
1114,1269095986,0.8418,0.5386,-0.0142,4.88,1.16,2.87
1115,1269100987,0.8433,0.5356,-0.0122,4.88,1.22,2.93
1116,1269105986,0.8418,0.5337,-0.0229,5.12,0.91,3.11
1117,1269110987,0.8384,0.5347,-0.0161,5.00,0.91,3.23
1118,1269115989,0.8447,0.5337,-0.0171,5.12,0.91,3.23
1119,1269120987,0.8442,0.5288,-0.0176,5.18,0.61,3.41
1120,1269125986,0.8442,0.5303,-0.0210,5.24,0.67,3.48
1121,1269130985,0.8428,0.5298,-0.0200,5.18,0.73,3.54
1122,1269135987,0.8462,0.5308,-0.0205,5.12,0.49,3.66
1123,1269140989,0.8394,0.5244,-0.0200,5.12,0.30,3.72
1124,1269145986,0.8413,0.5298,-0.0210,4.94,0.12,3.78
1125,1269150987,0.8403,0.5288,-0.0259,4.63,0.12,3.90
1126,1269155986,0.8403,0.5298,-0.0156,4.33,0.06,3.96
1127,1269160987,0.8408,0.5298,-0.0132,4.09,0.06,4.09
1128,1269165986,0.8403,0.5293,-0.0171,3.66,-0.12,4.09
1129,1269170987,0.8403,0.5264,-0.0200,3.17,-0.18,4.09
1130,1269175986,0.8408,0.5278,-0.0205,2.56,-0.37,4.02
1131,1269180987,0.8379,0.5273,-0.0220,2.13,-0.55,4.15
1132,1269185986,0.8354,0.5254,-0.0176,1.59,-0.61,4.09
1133,1269190987,0.8369,0.5249,-0.0166,1.10,-0.67,4.09
1134,1269195986,0.8369,0.5273,-0.0137,0.73,-0.79,4.02
1135,1269200989,0.8350,0.5278,-0.0171,0.24,-1.04,4.02
1136,1269205987,0.8379,0.5298,-0.0103,0.06,-0.98,3.96
1137,1269210985,0.8315,0.5249,-0.0181,-0.37,-0.98,3.84
1138,1269215987,0.8335,0.5244,-0.0215,-0.55,-1.22,3.84
1139,1269220987,0.8369,0.5303,-0.0195,-0.55,-1.22,3.90
1140,1269225987,0.8398,0.5269,-0.0142,-0.73,-1.28,3.96
1141,1269230985,0.8408,0.5293,-0.0156,-0.73,-1.10,3.78
1142,1269235985,0.8438,0.5283,-0.0205,-0.49,-1.22,3.90
1143,1269240987,0.8442,0.5239,-0.0205,-0.49,-1.34,3.90
1144,1269245988,0.8442,0.5283,-0.0117,-0.24,-1.22,3.90
1145,1269250987,0.8457,0.5273,-0.0161,-0.12,-1.40,3.96
1146,1269255987,0.8501,0.5254,-0.0151,0.30,-1.40,3.84
1147,1269260987,0.8472,0.5259,-0.0161,0.49,-1.22,3.96
1148,1269265987,0.8540,0.5269,-0.0156,0.73,-1.16,3.90
1149,1269270986,0.8491,0.5288,-0.0073,1.04,-1.22,3.96
1150,1269275988,0.8511,0.5249,-0.0083,1.16,-0.98,3.90
1151,1269280987,0.8555,0.5264,-0.0088,1.22,-0.85,3.84
1152,1269285987,0.8521,0.5254,-0.0098,1.22,-0.91,3.96
1153,1269290987,0.8540,0.5283,-0.0068,1.34,-0.67,3.84
1154,1269295987,0.8516,0.5210,-0.0068,1.40,-0.67,3.66
1155,1269300985,0.8535,0.5210,-0.0098,1.40,-0.49,3.66
1156,1269305987,0.8506,0.5215,-0.0005,1.40,-0.37,3.66
1157,1269310987,0.8540,0.5205,-0.0044,1.46,-0.37,3.48
1158,1269315988,0.8496,0.5186,-0.0044,1.28,-0.30,3.41
1159,1269320987,0.8564,0.5186,0.0005,1.40,-0.06,3.35
1160,1269325987,0.8496,0.5195,-0.0034,1.28,-0.06,3.17
1161,1269330987,0.8555,0.5171,-0.0054,1.28,0.24,3.23
1162,1269335987,0.8555,0.5181,-0.0103,1.16,0.18,3.17
1163,1269340986,0.8574,0.5200,-0.0049,1.10,0.30,2.99
1164,1269345985,0.8579,0.5176,-0.0054,1.10,0.24,2.99
1165,1269350987,0.8550,0.5146,-0.0015,1.22,0.37,2.87
1166,1269355986,0.8589,0.5142,-0.0039,1.22,0.37,2.80
1167,1269360987,0.8589,0.5151,-0.0078,1.34,0.30,2.68
1168,1269365986,0.8555,0.5156,-0.0059,1.46,0.37,2.74
1169,1269370987,0.8545,0.5161,-0.0034,1.40,0.43,2.50
1170,1269375986,0.8550,0.5156,-0.0103,1.59,0.49,2.62
1171,1269380987,0.8511,0.5122,-0.0088,1.83,0.37,2.50
1172,1269385987,0.8511,0.5107,-0.0029,1.83,0.37,2.50
1173,1269390987,0.8506,0.5122,-0.0063,1.95,0.24,2.38
1174,1269395987,0.8521,0.5112,-0.0054,2.01,0.30,2.26
1175,1269400987,0.8477,0.5088,-0.0020,2.01,0.30,2.26
1176,1269405986,0.8452,0.5117,-0.0005,1.95,0.12,2.13
1177,1269410987,0.8472,0.5122,-0.0068,2.13,0.12,2.01
1178,1269415986,0.8521,0.5146,-0.0049,2.01,0.18,1.89
1179,1269420985,0.8481,0.5137,-0.0088,2.07,0.18,1.71
1180,1269425988,0.8486,0.5151,-0.0020,2.07,0.18,1.59
1181,1269430987,0.8457,0.5137,0.0015,2.01,0.18,1.52
1182,1269435987,0.8452,0.5132,-0.0078,1.95,0.00,1.46
1183,1269440985,0.8481,0.5166,-0.0054,2.01,-0.12,1.22
1184,1269446070,0.8462,0.5146,-0.0068,2.07,-0.12,1.10
1185,1269450987,0.8481,0.5156,-0.0117,2.13,-0.18,1.10
1186,1269455988,0.8501,0.5132,-0.0073,2.26,-0.30,0.91
1187,1269460987,0.8477,0.5112,-0.0073,2.44,-0.30,0.79
1188,1269465988,0.8535,0.5137,-0.0054,2.56,-0.43,0.73
1189,1269470987,0.8530,0.5132,-0.0107,2.74,-0.37,0.73
1190,1269475988,0.8501,0.5171,-0.0093,2.93,-0.37,0.55
1191,1269480987,0.8467,0.5142,-0.0073,3.17,-0.37,0.61
1192,1269485986,0.8481,0.5142,-0.0098,3.41,-0.30,0.43
1193,1269490987,0.8501,0.5146,-0.0083,3.66,-0.43,0.49
1194,1269495986,0.8447,0.5215,-0.0063,3.72,-0.61,0.30
1195,1269500989,0.8452,0.5151,-0.0088,3.84,-0.49,0.24
1196,1269505986,0.8447,0.5190,-0.0054,3.72,-0.49,0.12
1197,1269510987,0.8447,0.5195,-0.0049,3.84,-0.61,0.06
1198,1269515987,0.8433,0.5161,-0.0068,3.78,-0.55,0.00
1199,1269520985,0.8467,0.5186,-0.0093,3.84,-0.55,0.00
1200,1269525989,0.8452,0.5215,-0.0015,3.78,-0.49,-0.18
1201,1269530986,0.8457,0.5195,-0.0054,3.90,-0.49,-0.37
1202,1269535985,0.8438,0.5200,-0.0015,3.84,-0.43,-0.30
1203,1269540985,0.8452,0.5195,-0.0029,3.66,-0.37,-0.43
1204,1269545987,0.8462,0.5254,-0.0073,3.78,-0.30,-0.49
1205,1269550987,0.8442,0.5225,-0.0044,3.60,-0.12,-0.55
1206,1269555986,0.8477,0.5239,-0.0029,3.60,-0.06,-0.67
1207,1269560987,0.8472,0.5259,-0.0122,3.72,0.06,-0.67
1208,1269565986,0.8481,0.5254,-0.0068,3.66,0.06,-0.73
1209,1269570987,0.8467,0.5283,-0.0044,3.72,0.18,-0.73
1210,1269575987,0.8496,0.5264,-0.0078,3.78,0.30,-0.79
1211,1269580989,0.8511,0.5312,-0.0088,4.09,0.37,-0.85
1212,1269585986,0.8506,0.5259,-0.0098,4.09,0.43,-0.91
1213,1269590987,0.8486,0.5288,-0.0107,4.33,0.49,-0.79
1214,1269595986,0.8501,0.5298,-0.0103,4.57,0.55,-0.79
1215,1269600989,0.8501,0.5293,-0.0088,4.88,0.73,-0.85
1216,1269605986,0.8481,0.5254,-0.0044,5.12,0.85,-0.73
1217,1269610987,0.8525,0.5244,-0.0132,5.24,0.91,-0.67
1218,1269615986,0.8491,0.5269,-0.0078,5.55,1.04,-0.61
1219,1269620987,0.8467,0.5210,-0.0078,5.49,1.16,-0.49
1220,1269625986,0.8501,0.5264,-0.0063,5.67,1.28,-0.49
1221,1269630987,0.8447,0.5225,-0.0103,5.61,1.28,-0.37
1222,1269635986,0.8467,0.5239,-0.0122,5.67,1.46,-0.18
1223,1269640985,0.8477,0.5210,-0.0093,5.49,1.59,-0.18
1224,1269645985,0.8438,0.5234,-0.0122,5.43,1.46,-0.24
1225,1269650989,0.8442,0.5259,-0.0137,5.06,1.59,-0.06
1226,1269655986,0.8467,0.5239,-0.0132,4.70,1.71,-0.06
1227,1269661075,0.8408,0.5234,-0.0088,4.27,1.65,-0.12
1228,1269665987,0.8389,0.5273,-0.0103,3.90,1.77,-0.06
1229,1269670987,0.8394,0.5234,-0.0137,3.48,1.71,0.00
1230,1269675988,0.8398,0.5259,-0.0171,3.17,1.95,-0.18
1231,1269680986,0.8403,0.5278,-0.0083,2.74,1.83,-0.24
1232,1269685988,0.8374,0.5264,-0.0078,2.56,1.83,-0.24
1233,1269690987,0.8394,0.5269,-0.0122,2.38,1.89,-0.24
1234,1269695989,0.8452,0.5264,-0.0107,2.13,2.01,-0.24
1235,1269700987,0.8413,0.5273,-0.0093,2.13,1.83,-0.24
1236,1269705987,0.8413,0.5278,-0.0073,2.07,2.07,-0.24
1237,1269710985,0.8442,0.5264,-0.0068,2.26,2.13,-0.18
1238,1269715987,0.8438,0.5288,-0.0034,2.26,2.13,-0.12
1239,1269720987,0.8457,0.5303,-0.0034,2.56,2.20,-0.06
1240,1269725988,0.8462,0.5293,-0.0005,2.68,2.38,0.00
1241,1269730987,0.8462,0.5322,-0.0059,2.99,2.44,-0.06
1242,1269735987,0.8442,0.5352,-0.0020,3.35,2.68,-0.06
1243,1269740985,0.8438,0.5322,0.0020,3.54,2.62,-0.06
1244,1269745985,0.8447,0.5347,-0.0078,3.96,2.68,0.06
1245,1269750985,0.8403,0.5352,-0.0034,4.21,2.74,0.12
1246,1269755987,0.8433,0.5327,-0.0063,4.45,2.99,0.18
1247,1269760988,0.8438,0.5308,0.0005,4.76,2.93,0.12
1248,1269765987,0.8428,0.5342,0.0000,5.00,2.99,0.12
1249,1269770987,0.8423,0.5308,0.0029,5.24,3.05,0.12
1250,1269775988,0.8457,0.5327,-0.0005,5.43,3.05,0.30
1251,1269780987,0.8486,0.5308,0.0044,5.61,3.23,0.18
1252,1269785987,0.8477,0.5264,0.0020,5.73,3.23,0.37
1253,1269790987,0.8486,0.5303,0.0005,5.67,3.35,0.37
1254,1269795987,0.8521,0.5308,0.0054,5.55,3.60,0.55
1255,1269800987,0.8525,0.5293,0.0068,5.55,3.60,0.49
1256,1269805987,0.8486,0.5269,0.0112,5.24,3.78,0.43
1257,1269810987,0.8452,0.5317,0.0073,4.82,4.02,0.55
1258,1269815987,0.8472,0.5308,0.0093,4.51,4.27,0.55
1259,1269820987,0.8481,0.5327,0.0107,4.15,4.33,0.49
1260,1269825988,0.8423,0.5283,0.0107,3.78,4.45,0.49
1261,1269830985,0.8428,0.5322,0.0093,3.35,4.57,0.49
1262,1269835988,0.8442,0.5356,0.0083,2.93,4.63,0.43
1263,1269840987,0.8433,0.5366,0.0049,2.74,4.76,0.49
1264,1269845987,0.8428,0.5352,0.0049,2.50,4.63,0.49
1265,1269850985,0.8384,0.5356,0.0020,2.26,4.88,0.49
1266,1269855989,0.8403,0.5376,0.0049,2.26,4.82,0.37
1267,1269860987,0.8408,0.5405,0.0093,2.07,4.94,0.55
1268,1269865986,0.8423,0.5337,0.0083,2.13,5.06,0.61
1269,1269870987,0.8423,0.5347,0.0098,2.44,4.94,0.73
1270,1269875987,0.8438,0.5391,0.0044,2.74,5.06,0.85
1271,1269880987,0.8447,0.5381,0.0068,2.93,5.18,1.04
1272,1269885986,0.8408,0.5366,0.0059,3.41,5.30,1.16
1273,1269890987,0.8472,0.5347,0.0098,3.60,5.24,1.28
1274,1269895986,0.8447,0.5317,0.0151,4.02,5.18,1.59
1275,1269900989,0.8403,0.5308,0.0107,4.27,5.30,1.83
1276,1269905986,0.8428,0.5312,0.0098,4.51,5.37,2.01
1277,1269910988,0.8413,0.5278,0.0132,4.51,5.24,2.13
1278,1269915986,0.8398,0.5332,0.0098,4.57,5.37,2.26
1279,1269920987,0.8364,0.5273,0.0093,4.63,5.30,2.32
1280,1269925986,0.8413,0.5322,0.0107,4.51,5.24,2.50
1281,1269930987,0.8384,0.5322,0.0117,4.39,5.24,2.56
1282,1269935986,0.8364,0.5327,0.0127,4.15,5.12,2.50
1283,1269940987,0.8350,0.5308,0.0176,3.90,5.37,2.62
1284,1269945989,0.8384,0.5327,0.0181,3.66,5.12,2.62
1285,1269950985,0.8403,0.5361,0.0200,3.48,5.06,2.56
1286,1269956092,0.8394,0.5337,0.0210,3.29,5.06,2.62
1287,1269960985,0.8379,0.5312,0.0259,3.17,5.24,2.56
1288,1269965985,0.8408,0.5327,0.0234,2.93,5.12,2.62
1289,1269970987,0.8398,0.5278,0.0273,2.93,5.12,2.68
1290,1269975986,0.8418,0.5288,0.0288,2.93,5.37,2.74
1291,1269980985,0.8442,0.5303,0.0332,3.17,5.43,2.68
1292,1269985987,0.8389,0.5327,0.0303,3.23,5.43,2.74
1293,1269990987,0.8428,0.5322,0.0361,3.23,5.67,2.74
1294,1269995987,0.8418,0.5322,0.0342,3.54,5.55,2.87
1295,1270000987,0.8408,0.5264,0.0322,3.96,5.67,2.93
1296,1270006093,0.8398,0.5317,0.0347,4.15,5.85,2.99
1297,1270010986,0.8442,0.5278,0.0371,4.57,5.79,3.05
1298,1270015985,0.8418,0.5308,0.0312,4.94,5.85,3.11
1299,1270020985,0.8442,0.5332,0.0342,5.43,5.85,3.11
1300,1270026049,0.8398,0.5308,0.0352,5.73,5.79,3.11
1301,1270030987,0.8447,0.5303,0.0327,6.10,5.61,3.11
1302,1270035987,0.8452,0.5293,0.0386,6.46,5.79,2.99
1303,1270041505,0.8418,0.5322,0.0376,6.71,5.73,3.05
1304,1270045987,0.8433,0.5308,0.0303,6.95,5.73,2.93
1305,1270050985,0.8433,0.5308,0.0332,7.13,5.67,2.99
1306,1270055985,0.8467,0.5308,0.0273,7.38,5.73,2.93
1307,1270060985,0.8516,0.5337,0.0366,7.50,5.61,2.93
1308,1270065985,0.8462,0.5269,0.0347,7.44,5.61,2.87
1309,1270070987,0.8481,0.5337,0.0347,7.50,5.43,2.74
1310,1270075987,0.8477,0.5303,0.0317,7.56,5.43,2.62
1311,1270080987,0.8506,0.5303,0.0273,7.62,5.30,2.62
1312,1270085986,0.8467,0.5283,0.0283,7.56,5.24,2.56
1313,1270090987,0.8501,0.5273,0.0259,7.50,5.18,2.38
1314,1270095986,0.8521,0.5259,0.0278,7.38,4.94,2.50
1315,1270100987,0.8564,0.5264,0.0269,7.44,4.94,2.38
1316,1270105986,0.8525,0.5298,0.0322,7.13,4.63,2.32
1317,1270110987,0.8511,0.5308,0.0352,7.13,4.57,2.26
1318,1270115989,0.8496,0.5259,0.0269,7.20,4.45,2.20
1319,1270120987,0.8506,0.5249,0.0327,7.20,4.33,2.26
1320,1270125986,0.8550,0.5278,0.0269,7.13,4.02,2.32
1321,1270130987,0.8511,0.5254,0.0317,7.13,3.96,2.20
1322,1270135987,0.8555,0.5244,0.0303,7.01,3.84,2.20
1323,1270140987,0.8555,0.5239,0.0312,7.07,3.72,2.20
1324,1270145986,0.8564,0.5220,0.0288,7.07,3.41,2.20
1325,1270150985,0.8550,0.5239,0.0244,7.07,3.35,2.20
1326,1270155985,0.8540,0.5210,0.0303,6.95,3.17,2.26
1327,1270160989,0.8569,0.5225,0.0337,6.89,2.93,2.26
1328,1270165986,0.8521,0.5215,0.0283,6.77,2.62,2.32
1329,1270170987,0.8550,0.5210,0.0264,6.65,2.56,2.26
1330,1270175986,0.8521,0.5234,0.0254,6.34,2.32,2.20
1331,1270180987,0.8521,0.5220,0.0312,6.28,2.13,2.13
1332,1270185986,0.8521,0.5239,0.0264,6.10,1.89,2.13
1333,1270190988,0.8525,0.5225,0.0327,5.98,1.77,2.07
1334,1270195986,0.8535,0.5229,0.0298,5.73,1.46,2.07
1335,1270200989,0.8491,0.5210,0.0317,5.61,1.34,2.07
1336,1270205986,0.8511,0.5254,0.0337,5.37,1.16,1.83
1337,1270210987,0.8521,0.5225,0.0322,5.12,1.04,1.83
1338,1270215986,0.8511,0.5200,0.0386,5.00,0.67,1.83
1339,1270221341,0.8535,0.5215,0.0376,4.70,0.49,1.77
1340,1270225987,0.8555,0.5220,0.0347,4.70,0.43,1.77
1341,1270231390,0.8535,0.5273,0.0366,4.57,0.30,1.65
1342,1270235987,0.8569,0.5244,0.0342,4.39,0.12,1.59
1343,1270240987,0.8574,0.5205,0.0366,4.15,0.00,1.65
1344,1270245987,0.8530,0.5181,0.0332,4.15,-0.06,1.59
1345,1270250986,0.8550,0.5229,0.0386,4.09,-0.30,1.52
1346,1270255986,0.8545,0.5239,0.0386,4.09,-0.30,1.52
1347,1270260987,0.8535,0.5244,0.0396,4.02,-0.37,1.46
1348,1270265989,0.8540,0.5273,0.0376,3.96,-0.49,1.40
1349,1270270987,0.8491,0.5273,0.0352,3.84,-0.61,1.40
1350,1270275986,0.8481,0.5239,0.0396,3.84,-0.49,1.28
1351,1270280987,0.8521,0.5264,0.0405,3.90,-0.61,1.34
1352,1270285987,0.8540,0.5264,0.0415,3.84,-0.61,1.28
1353,1270290987,0.8535,0.5283,0.0361,3.90,-0.79,1.22
1354,1270295987,0.8511,0.5259,0.0371,4.15,-0.61,1.10
1355,1270300985,0.8506,0.5239,0.0371,4.33,-0.79,1.16
1356,1270305987,0.8491,0.5234,0.0391,4.39,-0.73,1.10
1357,1270310987,0.8491,0.5259,0.0371,4.70,-0.98,1.22
1358,1270315987,0.8530,0.5273,0.0405,5.00,-0.91,1.22
1359,1270320987,0.8525,0.5273,0.0342,5.24,-0.85,1.22
1360,1270325987,0.8530,0.5269,0.0352,5.49,-0.98,1.16
1361,1270330985,0.8550,0.5288,0.0410,5.67,-1.10,1.22
1362,1270335987,0.8599,0.5298,0.0317,5.85,-1.16,1.16
1363,1270340987,0.8555,0.5298,0.0269,6.04,-1.22,1.22
1364,1270345988,0.8560,0.5264,0.0366,6.28,-1.16,1.34
1365,1270351476,0.8564,0.5239,0.0298,6.59,-1.22,1.34
1366,1270355987,0.8608,0.5249,0.0322,6.59,-1.40,1.34
1367,1270360985,0.8579,0.5244,0.0283,6.89,-1.28,1.52
1368,1270365989,0.8540,0.5273,0.0347,7.01,-1.40,1.65
1369,1270370987,0.8555,0.5259,0.0259,6.95,-1.40,1.83
1370,1270375986,0.8560,0.5273,0.0278,6.95,-1.46,1.89
1371,1270380987,0.8579,0.5220,0.0288,6.89,-1.65,1.89
1372,1270385987,0.8545,0.5264,0.0264,6.77,-1.71,2.07
1373,1270390987,0.8564,0.5244,0.0195,6.34,-1.83,2.01
1374,1270395986,0.8560,0.5249,0.0249,6.22,-1.83,2.13
1375,1270400987,0.8560,0.5288,0.0210,5.98,-1.65,2.20
1376,1270405986,0.8560,0.5308,0.0195,5.55,-1.83,2.20
1377,1270410987,0.8555,0.5259,0.0278,5.06,-1.83,2.20
1378,1270415986,0.8530,0.5269,0.0225,4.88,-1.89,2.44
1379,1270420987,0.8564,0.5273,0.0215,4.45,-2.01,2.38
1380,1270425995,0.8540,0.5254,0.0234,4.21,-1.95,2.44
1381,1270430987,0.8525,0.5254,0.0205,3.78,-2.01,2.50
1382,1270435987,0.8530,0.5239,0.0176,3.48,-2.07,2.56
1383,1270440987,0.8569,0.5225,0.0186,3.23,-1.95,2.56
1384,1270445988,0.8545,0.5283,0.0239,3.11,-2.07,2.68
1385,1270450987,0.8486,0.5298,0.0244,3.05,-2.13,2.87
1386,1270455987,0.8521,0.5254,0.0220,2.87,-2.07,2.80
1387,1270460985,0.8506,0.5254,0.0166,2.80,-2.13,2.87
1388,1270465985,0.8511,0.5259,0.0195,2.68,-2.13,2.87
1389,1270470987,0.8506,0.5303,0.0205,2.68,-1.95,2.99
1390,1270475988,0.8525,0.5269,0.0151,2.74,-1.95,3.05
1391,1270480987,0.8491,0.5283,0.0176,2.87,-1.89,3.17
1392,1270485987,0.8481,0.5283,0.0132,2.99,-1.89,3.29
1393,1270490987,0.8496,0.5278,0.0190,3.11,-1.83,3.35
1394,1270495987,0.8501,0.5303,0.0190,3.23,-1.89,3.41
1395,1270500987,0.8535,0.5322,0.0107,3.35,-1.71,3.54
1396,1270505987,0.8525,0.5254,0.0171,3.48,-1.65,3.48
1397,1270510987,0.8521,0.5312,0.0112,3.72,-1.59,3.54
1398,1270515987,0.8530,0.5259,0.0166,3.84,-1.52,3.54
1399,1270520988,0.8525,0.5293,0.0117,4.09,-1.52,3.66
1400,1270525987,0.8506,0.5273,0.0137,4.15,-1.40,3.78
1401,1270530985,0.8491,0.5283,0.0107,4.27,-1.46,3.78
1402,1270535989,0.8496,0.5327,0.0117,4.45,-1.34,3.84
1403,1270540987,0.8496,0.5254,0.0117,4.57,-1.34,3.90
1404,1270545987,0.8501,0.5249,0.0107,4.45,-1.28,3.90
1405,1270550988,0.8521,0.5229,0.0112,4.45,-1.16,3.90
1406,1270555987,0.8506,0.5239,0.0073,4.27,-1.10,4.09
1407,1270560985,0.8540,0.5254,0.0088,4.15,-0.85,4.02
1408,1270565985,0.8511,0.5220,0.0098,4.09,-0.91,3.96
1409,1270570985,0.8511,0.5234,0.0122,3.90,-0.73,4.02
1410,1270575987,0.8530,0.5259,0.0146,3.78,-0.67,4.09
1411,1270580987,0.8550,0.5229,0.0137,3.66,-0.55,4.15
1412,1270585986,0.8555,0.5254,0.0088,3.41,-0.37,4.02
1413,1270591150,0.8540,0.5200,0.0142,3.35,-0.30,3.96
1414,1270595987,0.8530,0.5186,0.0093,3.11,-0.30,4.02
1415,1270600987,0.8550,0.5205,0.0137,2.99,0.06,3.90
1416,1270605987,0.8550,0.5200,0.0117,2.87,0.18,3.90
1417,1270610987,0.8584,0.5190,0.0146,2.68,0.30,3.84
1418,1270615987,0.8569,0.5186,0.0088,2.74,0.37,3.90
1419,1270620985,0.8594,0.5186,0.0103,2.56,0.49,3.84
1420,1270625987,0.8604,0.5186,0.0161,2.50,0.61,3.84
1421,1270630987,0.8633,0.5137,0.0107,2.44,0.67,3.84
1422,1270636101,0.8608,0.5161,0.0156,2.26,0.79,3.84
1423,1270640987,0.8613,0.5161,0.0151,2.38,0.79,3.84
1424,1270645987,0.8618,0.5171,0.0117,2.32,0.98,3.78
1425,1270650987,0.8594,0.5210,0.0205,2.38,1.04,3.78
1426,1270655987,0.8613,0.5146,0.0122,2.26,1.10,3.78
1427,1270660987,0.8604,0.5127,0.0225,2.26,1.28,3.72
1428,1270665987,0.8638,0.5137,0.0190,2.07,1.28,3.72
1429,1270671076,0.8613,0.5151,0.0239,2.20,1.40,3.60
1430,1270675987,0.8594,0.5151,0.0161,2.01,1.59,3.54
1431,1270680987,0.8569,0.5132,0.0215,1.89,1.77,3.48
1432,1270685987,0.8589,0.5151,0.0186,1.95,1.89,3.35
1433,1270691463,0.8569,0.5142,0.0161,1.65,1.89,3.29
1434,1270695987,0.8594,0.5166,0.0186,1.46,2.01,3.17
1435,1270700986,0.8545,0.5151,0.0225,1.40,2.01,3.17
1436,1270706080,0.8535,0.5142,0.0127,1.22,2.01,2.99
1437,1270710986,0.8604,0.5151,0.0171,1.04,2.01,2.99
1438,1270715987,0.8550,0.5142,0.0161,0.91,2.07,2.99
1439,1270720987,0.8584,0.5112,0.0161,0.91,2.26,2.80
1440,1270725986,0.8564,0.5093,0.0225,0.85,2.32,2.68
1441,1270731089,0.8555,0.5107,0.0220,0.79,2.32,2.62
1442,1270736064,0.8516,0.5068,0.0186,0.79,2.13,2.50
1443,1270740987,0.8555,0.5098,0.0132,0.79,2.26,2.44
1444,1270745987,0.8545,0.5078,0.0225,0.85,2.32,2.32
1445,1270750987,0.8569,0.5083,0.0210,0.85,1.95,2.44
1446,1270755988,0.8555,0.5078,0.0205,0.91,2.20,2.20
1447,1270760987,0.8545,0.5078,0.0156,0.91,2.07,2.26
1448,1270765986,0.8550,0.5073,0.0244,0.98,2.07,1.95
1449,1270770985,0.8579,0.5034,0.0234,1.10,1.95,1.95
1450,1270776992,0.8535,0.5059,0.0239,1.10,1.95,1.77
1451,1270780987,0.8511,0.5068,0.0288,1.04,1.95,1.71
1452,1270785986,0.8491,0.5078,0.0283,1.04,2.01,1.65
1453,1270790987,0.8481,0.5098,0.0259,1.28,2.01,1.52
1454,1270795987,0.8481,0.5078,0.0239,1.16,1.95,1.46
1455,1270800987,0.8491,0.5112,0.0278,1.16,1.71,1.34
1456,1270805986,0.8447,0.5098,0.0200,1.28,1.71,1.10
1457,1270810987,0.8452,0.5103,0.0249,1.46,1.65,1.04
1458,1270815986,0.8452,0.5127,0.0239,1.65,1.71,0.85
1459,1270820987,0.8438,0.5107,0.0234,1.77,1.52,0.85
1460,1270825986,0.8457,0.5078,0.0278,2.01,1.40,0.73
1461,1270830988,0.8462,0.5117,0.0239,2.26,1.34,0.61
1462,1270835986,0.8506,0.5078,0.0254,2.44,1.28,0.67
1463,1270840987,0.8506,0.5103,0.0288,2.80,1.22,0.61
1464,1270845987,0.8516,0.5103,0.0269,3.05,1.10,0.61
1465,1270850987,0.8530,0.5078,0.0273,3.29,1.16,0.61
1466,1270855987,0.8511,0.5068,0.0317,3.54,1.04,0.67
1467,1270860987,0.8491,0.5088,0.0303,3.66,1.04,0.79
1468,1270865986,0.8506,0.5146,0.0244,3.84,0.91,0.73
1469,1270870985,0.8506,0.5098,0.0352,3.84,0.91,0.79
1470,1270875986,0.8560,0.5093,0.0352,3.66,0.79,0.79
1471,1270880985,0.8545,0.5151,0.0273,3.60,0.73,0.85
1472,1270885987,0.8560,0.5137,0.0327,3.35,0.73,0.67
1473,1270890987,0.8564,0.5176,0.0312,3.05,0.79,0.73
1474,1270895988,0.8560,0.5132,0.0342,2.87,0.79,0.55
1475,1270900985,0.8521,0.5151,0.0332,2.50,0.73,0.61
1476,1270905987,0.8555,0.5132,0.0347,2.13,0.61,0.61
1477,1270910987,0.8579,0.5166,0.0312,1.89,0.79,0.67
1478,1270915985,0.8574,0.5176,0.0298,1.59,0.43,0.61
1479,1270920987,0.8569,0.5171,0.0337,1.28,0.55,0.67
1480,1270925987,0.8589,0.5195,0.0278,1.10,0.43,0.49
1481,1270930987,0.8584,0.5171,0.0298,1.04,0.24,0.49
1482,1270935987,0.8589,0.5186,0.0298,0.85,0.37,0.55
1483,1270940987,0.8594,0.5166,0.0327,0.98,0.30,0.67
1484,1270945987,0.8569,0.5176,0.0273,0.79,0.12,0.61
1485,1270950988,0.8599,0.5205,0.0288,0.91,0.06,0.67
1486,1270955987,0.8608,0.5190,0.0317,0.98,0.06,0.73
1487,1270960986,0.8657,0.5181,0.0308,1.16,-0.06,0.73
1488,1270965987,0.8623,0.5190,0.0264,1.28,-0.30,0.79
1489,1270970986,0.8623,0.5176,0.0278,1.28,-0.12,0.91
1490,1270975987,0.8599,0.5200,0.0361,1.46,-0.30,0.98
1491,1270980987,0.8584,0.5229,0.0332,1.59,-0.24,1.04
1492,1270986072,0.8564,0.5205,0.0303,1.77,-0.30,1.04
1493,1270990987,0.8584,0.5205,0.0308,1.71,-0.43,1.10
1494,1270995987,0.8584,0.5195,0.0239,1.77,-0.61,1.16
1495,1271000988,0.8594,0.5156,0.0239,1.65,-0.73,1.16
1496,1271005985,0.8560,0.5171,0.0273,1.77,-0.67,1.22
1497,1271010987,0.8521,0.5195,0.0298,1.65,-0.91,1.28
1498,1271015987,0.8511,0.5171,0.0229,1.65,-0.91,1.16
1499,1271020987,0.8516,0.5190,0.0322,1.52,-1.16,1.28
1500,1271025987,0.8584,0.5171,0.0337,1.28,-1.28,1.28
1501,1271030987,0.8530,0.5132,0.0303,1.22,-1.22,1.34
1502,1271035987,0.8486,0.5176,0.0308,1.16,-1.46,1.40
1503,1271040987,0.8530,0.5151,0.0317,0.85,-1.52,1.40
1504,1271045987,0.8535,0.5171,0.0288,0.73,-1.65,1.40
1505,1271050987,0.8501,0.5146,0.0273,0.61,-1.89,1.40
1506,1271055988,0.8491,0.5200,0.0269,0.49,-1.95,1.34
1507,1271060987,0.8481,0.5186,0.0312,0.30,-1.83,1.34
1508,1271065987,0.8481,0.5190,0.0259,0.18,-2.13,1.40
1509,1271070987,0.8472,0.5166,0.0317,0.24,-2.32,1.28
1510,1271075985,0.8452,0.5195,0.0259,0.24,-2.32,1.28
1511,1271081389,0.8467,0.5205,0.0269,0.24,-2.50,1.28
1512,1271085987,0.8423,0.5220,0.0273,0.37,-2.56,1.16
1513,1271090986,0.8457,0.5161,0.0342,0.49,-2.68,1.34
1514,1271095987,0.8491,0.5176,0.0337,0.73,-2.80,1.34
1515,1271100986,0.8438,0.5151,0.0249,0.98,-2.99,1.28
1516,1271105987,0.8491,0.5156,0.0327,1.16,-3.17,1.40
1517,1271110986,0.8457,0.5137,0.0342,1.40,-2.99,1.52
1518,1271116041,0.8486,0.5195,0.0342,1.46,-3.23,1.52
1519,1271120987,0.8423,0.5264,0.0337,1.52,-3.41,1.40
1520,1271125986,0.8442,0.5229,0.0405,1.59,-3.48,1.40
1521,1271130987,0.8472,0.5249,0.0308,1.40,-3.48,1.34
1522,1271135986,0.8452,0.5259,0.0308,1.22,-3.54,1.40
1523,1271140987,0.8481,0.5283,0.0322,1.22,-3.60,1.22
1524,1271145986,0.8438,0.5273,0.0332,1.10,-3.60,1.10
1525,1271150987,0.8472,0.5278,0.0312,0.85,-3.66,1.10
1526,1271155989,0.8477,0.5229,0.0371,0.61,-3.72,1.16
1527,1271160987,0.8462,0.5264,0.0396,0.73,-3.72,0.91
1528,1271165987,0.8501,0.5308,0.0386,0.67,-3.78,0.98
1529,1271170987,0.8501,0.5234,0.0396,0.73,-3.78,1.04
1530,1271175985,0.8560,0.5269,0.0410,0.73,-3.54,1.04
1531,1271180987,0.8535,0.5244,0.0400,0.85,-3.66,1.10
1532,1271185987,0.8579,0.5244,0.0435,0.98,-3.54,1.16
1533,1271190987,0.8560,0.5259,0.0415,1.04,-3.60,1.16
1534,1271195986,0.8516,0.5278,0.0508,1.10,-3.54,1.28
1535,1271200989,0.8521,0.5244,0.0483,1.22,-3.29,1.28
1536,1271205987,0.8564,0.5254,0.0464,1.22,-3.17,1.40
1537,1271210987,0.8511,0.5273,0.0425,1.28,-3.29,1.46
1538,1271215987,0.8496,0.5298,0.0459,1.28,-3.11,1.40
1539,1271220987,0.8545,0.5278,0.0483,1.16,-2.99,1.40
1540,1271225987,0.8511,0.5312,0.0527,0.85,-2.68,1.46
1541,1271230987,0.8501,0.5312,0.0532,0.73,-2.68,1.28
1542,1271235987,0.8501,0.5303,0.0527,0.37,-2.62,1.40
1543,1271240987,0.8447,0.5342,0.0581,0.12,-2.44,1.34
1544,1271245987,0.8486,0.5312,0.0586,-0.24,-2.26,1.34
1545,1271250987,0.8442,0.5332,0.0591,-0.61,-2.01,1.40
1546,1271255987,0.8447,0.5332,0.0586,-1.04,-1.83,1.40
1547,1271260987,0.8433,0.5347,0.0605,-1.22,-1.89,1.40
1548,1271266309,0.8423,0.5317,0.0620,-1.59,-1.59,1.40
1549,1271270987,0.8442,0.5361,0.0610,-1.83,-1.28,1.52
1550,1271275986,0.8413,0.5381,0.0630,-2.01,-1.28,1.34
1551,1271280985,0.8438,0.5381,0.0659,-2.07,-0.98,1.52
1552,1271285986,0.8403,0.5396,0.0688,-2.20,-0.73,1.46
1553,1271290987,0.8447,0.5410,0.0640,-2.07,-0.61,1.65
1554,1271295988,0.8442,0.5415,0.0645,-1.95,-0.30,1.52
1555,1271300987,0.8423,0.5425,0.0610,-1.83,-0.18,1.52
1556,1271305986,0.8438,0.5444,0.0654,-1.71,0.00,1.59
1557,1271310987,0.8418,0.5459,0.0684,-1.40,0.06,1.71
1558,1271315986,0.8438,0.5493,0.0654,-1.46,0.37,1.71
1559,1271320987,0.8447,0.5518,0.0601,-1.04,0.67,1.71
1560,1271325987,0.8413,0.5518,0.0645,-0.85,0.73,1.89
1561,1271330987,0.8413,0.5566,0.0630,-0.79,1.16,1.89
1562,1271335986,0.8423,0.5596,0.0586,-0.73,1.34,1.83
1563,1271340989,0.8423,0.5591,0.0669,-0.67,1.46,1.95
1564,1271345985,0.8403,0.5601,0.0693,-0.55,1.95,2.07
1565,1271350987,0.8394,0.5596,0.0713,-0.49,2.20,2.07
1566,1271355987,0.8359,0.5659,0.0640,-0.43,2.38,2.07
1567,1271360987,0.8350,0.5610,0.0649,-0.49,2.74,2.20
1568,1271365987,0.8320,0.5576,0.0659,-0.55,3.05,2.07
1569,1271370987,0.8301,0.5630,0.0576,-0.73,3.23,2.26
1570,1271375988,0.8208,0.5630,0.0601,-0.98,3.48,2.26
1571,1271380985,0.8188,0.5654,0.0557,-1.28,3.72,2.32
1572,1271385988,0.8198,0.5630,0.0537,-1.52,3.84,2.38
1573,1271390987,0.8174,0.5693,0.0474,-2.07,3.84,2.32
1574,1271396089,0.8101,0.5684,0.0498,-2.38,3.96,2.32
1575,1271400987,0.8071,0.5674,0.0435,-2.74,4.02,2.38
1576,1271405986,0.8032,0.5708,0.0352,-3.11,4.09,2.38
1577,1271410987,0.8022,0.5688,0.0381,-3.23,3.90,2.38
1578,1271415986,0.7993,0.5703,0.0332,-3.66,4.02,2.38
1579,1271420987,0.7988,0.5713,0.0317,-3.90,3.72,2.32
1580,1271425985,0.7993,0.5679,0.0312,-3.96,3.60,2.38
1581,1271430985,0.7959,0.5698,0.0249,-4.09,3.60,2.50
1582,1271435989,0.7969,0.5674,0.0303,-4.15,3.29,2.44
1583,1271440987,0.7935,0.5640,0.0249,-4.15,3.11,2.50
1584,1271445987,0.7939,0.5645,0.0376,-4.21,3.05,2.62
1585,1271450986,0.7964,0.5649,0.0371,-4.02,2.74,2.68
1586,1271455987,0.7920,0.5635,0.0352,-3.96,2.87,2.74
1587,1271460986,0.7910,0.5679,0.0356,-3.90,2.56,2.87
1588,1271466538,0.7954,0.5645,0.0347,-3.90,2.44,2.99
1589,1271470987,0.7944,0.5645,0.0391,-3.96,2.20,3.17
1590,1271475986,0.7939,0.5645,0.0415,-3.84,2.13,3.05
1591,1271480987,0.7910,0.5630,0.0405,-3.96,2.01,3.23
1592,1271485989,0.7930,0.5679,0.0469,-3.84,1.95,3.29
1593,1271490986,0.7925,0.5669,0.0425,-4.02,1.77,3.29
1594,1271495985,0.7944,0.5684,0.0420,-3.90,1.52,3.29
1595,1271500987,0.7915,0.5679,0.0464,-3.96,1.34,3.23
1596,1271506145,0.7925,0.5625,0.0503,-3.96,1.34,3.35
1597,1271510987,0.7925,0.5630,0.0601,-4.02,1.34,3.35
1598,1271515985,0.8013,0.5625,0.0625,-3.90,1.34,3.23
1599,1271520987,0.8032,0.5640,0.0679,-3.84,1.28,3.35
1600,1271525987,0.8037,0.5635,0.0718,-3.96,1.22,3.29
1601,1271530987,0.8071,0.5659,0.0732,-3.90,1.40,3.29
1602,1271535987,0.8081,0.5684,0.0703,-3.96,1.40,3.23
1603,1271540987,0.8130,0.5664,0.0801,-3.90,1.40,3.35
1604,1271545987,0.8071,0.5703,0.0762,-3.90,1.59,3.23
1605,1271550987,0.8096,0.5737,0.0762,-3.90,1.59,3.29
1606,1271555985,0.8047,0.5762,0.0801,-3.72,1.65,3.23
1607,1271560987,0.8071,0.5806,0.0698,-3.35,1.65,3.23
1608,1271565987,0.8052,0.5845,0.0767,-3.05,1.59,3.05
1609,1271570989,0.8120,0.5894,0.0801,-2.68,1.52,2.99
1610,1271575986,0.8086,0.5903,0.0811,-2.26,1.46,2.99
1611,1271580990,0.8086,0.5923,0.0762,-1.77,1.59,2.87
1612,1271585986,0.8145,0.5986,0.0796,-1.10,1.34,2.99
1613,1271590989,0.8115,0.5918,0.0801,-0.43,1.28,2.99
1614,1271595986,0.8130,0.5933,0.0757,0.12,1.28,2.93
1615,1271600987,0.8140,0.5938,0.0796,0.79,1.10,2.99
1616,1271606447,0.8096,0.5918,0.0771,1.71,0.98,2.99
1617,1271610987,0.8066,0.5903,0.0776,2.32,0.85,3.17
1618,1271615986,0.8057,0.5859,0.0791,2.99,0.61,3.35
1619,1271620987,0.8013,0.5874,0.0728,3.72,0.49,3.48
1620,1271625986,0.8052,0.5879,0.0732,4.27,0.18,3.60
1621,1271630987,0.8022,0.5825,0.0830,4.70,-0.06,3.78
1622,1271635986,0.8062,0.5811,0.0693,5.12,-0.49,3.84
1623,1271640987,0.8062,0.5815,0.0698,5.37,-0.79,4.02
1624,1271645986,0.8037,0.5840,0.0708,5.24,-1.22,4.15
1625,1271650987,0.8052,0.5845,0.0659,5.24,-1.71,4.21
1626,1271655986,0.8018,0.5874,0.0688,5.18,-2.13,4.33
1627,1271660987,0.8008,0.5840,0.0654,5.06,-2.74,4.33
1628,1271665986,0.8027,0.5859,0.0615,4.76,-3.23,4.33
1629,1271670987,0.8047,0.5825,0.0586,4.51,-3.72,4.45
1630,1271675993,0.8042,0.5845,0.0586,4.15,-4.27,4.45
1631,1271680987,0.8066,0.5811,0.0615,3.84,-4.94,4.63
1632,1271685986,0.8042,0.5811,0.0562,3.66,-5.37,4.63
1633,1271690985,0.8071,0.5791,0.0605,3.35,-5.91,4.76
1634,1271695986,0.8047,0.5820,0.0620,3.17,-6.46,4.88
1635,1271700989,0.8062,0.5806,0.0645,2.80,-6.95,5.00
1636,1271705986,0.8042,0.5840,0.0586,2.80,-7.38,5.12
1637,1271710989,0.8071,0.5835,0.0591,2.74,-7.93,5.24
1638,1271715986,0.8008,0.5864,0.0645,2.62,-8.23,5.24
1639,1271720987,0.8066,0.5864,0.0640,2.74,-8.66,5.43
1640,1271725986,0.8027,0.5884,0.0635,2.74,-9.21,5.43
1641,1271730987,0.8003,0.5923,0.0547,2.87,-9.57,5.49
1642,1271735986,0.8003,0.5928,0.0576,3.11,-9.94,5.55
1643,1271740987,0.8003,0.5938,0.0552,3.17,-10.30,5.61
1644,1271745987,0.7964,0.5967,0.0591,3.23,-10.67,5.67
1645,1271750988,0.7969,0.5967,0.0552,3.60,-10.98,5.73
1646,1271755986,0.7920,0.5957,0.0474,3.66,-11.28,5.55
1647,1271760987,0.7905,0.6030,0.0464,4.09,-11.65,5.55
1648,1271765986,0.7866,0.5972,0.0479,4.27,-11.89,5.55
1649,1271770987,0.7866,0.6050,0.0444,4.51,-12.07,5.49
1650,1271775986,0.7891,0.6040,0.0371,4.88,-12.38,5.43
1651,1271780989,0.7896,0.6030,0.0439,5.06,-12.56,5.30
1652,1271785985,0.7881,0.6094,0.0405,5.43,-12.80,5.06
1653,1271790985,0.7876,0.6074,0.0337,5.79,-12.93,5.06
1654,1271795985,0.7900,0.6055,0.0337,6.46,-13.29,4.94
1655,1271800989,0.7856,0.6050,0.0317,6.77,-13.29,5.00
1656,1271805986,0.7915,0.6030,0.0322,7.32,-13.41,4.94
1657,1271810989,0.7905,0.5967,0.0254,7.93,-13.66,5.00
1658,1271815986,0.7925,0.5947,0.0244,8.35,-13.60,4.94
1659,1271820987,0.7930,0.5894,0.0254,8.96,-13.66,5.06
1660,1271825986,0.7905,0.5913,0.0259,9.70,-13.54,5.12
1661,1271830987,0.7920,0.5898,0.0200,10.18,-13.66,5.24
1662,1271835986,0.7969,0.5913,0.0200,10.61,-13.66,5.12
1663,1271840987,0.7959,0.5938,0.0171,11.04,-13.66,5.24
1664,1271845986,0.8027,0.5947,0.0020,11.34,-13.78,5.18
1665,1271850987,0.8096,0.6030,-0.0039,11.71,-13.90,5.12
1666,1271855986,0.8159,0.6064,-0.0112,12.13,-13.90,4.94
1667,1271860991,0.8198,0.6079,-0.0181,12.38,-14.15,4.70
1668,1271865986,0.8213,0.6089,-0.0273,12.87,-14.15,4.45
1669,1271870987,0.8301,0.6108,-0.0322,13.35,-14.45,4.27
1670,1271875986,0.8350,0.6108,-0.0386,13.96,-14.63,4.09
1671,1271880989,0.8418,0.6055,-0.0483,14.63,-14.70,3.90
1672,1271885986,0.8535,0.6016,-0.0474,15.61,-14.88,3.90
1673,1271890987,0.8623,0.5903,-0.0547,16.83,-14.88,3.84
1674,1271895985,0.8765,0.5840,-0.0518,18.29,-14.94,3.90
1675,1271900989,0.8853,0.5728,-0.0596,19.94,-14.94,4.09
1676,1271905986,0.8940,0.5688,-0.0659,21.71,-14.88,4.39
1677,1271910987,0.8960,0.5591,-0.0679,23.60,-14.94,4.76
1678,1271915986,0.9067,0.5508,-0.0732,25.37,-14.70,5.12
1679,1271920987,0.9126,0.5469,-0.0742,27.07,-14.39,5.49
1680,1271925987,0.9121,0.5396,-0.0776,28.54,-14.27,5.85
1681,1271930989,0.9238,0.5337,-0.0776,29.57,-13.96,6.16
1682,1271935987,0.9331,0.5273,-0.0747,30.43,-13.66,6.46
1683,1271940988,0.9429,0.5220,-0.0757,30.91,-13.11,6.83
1684,1271945987,0.9512,0.5186,-0.0708,31.16,-12.62,7.20
1685,1271950987,0.9600,0.5156,-0.0713,30.98,-12.13,7.44
1686,1271955987,0.9688,0.5054,-0.0664,30.43,-11.40,7.62
1687,1271960987,0.9775,0.4985,-0.0625,29.70,-10.79,7.87
1688,1271966182,0.9834,0.4897,-0.0576,28.78,-9.76,8.11
1689,1271970987,0.9927,0.4780,-0.0566,27.68,-9.15,8.29
1690,1271976279,0.9966,0.4663,-0.0483,26.22,-8.11,8.54
1691,1271980987,1.0000,0.4614,-0.0425,25.12,-7.26,8.72
1692,1271985986,0.9985,0.4482,-0.0415,23.72,-6.34,9.02
1693,1271990987,0.9980,0.4404,-0.0327,22.20,-5.37,9.39
1694,1271995985,0.9980,0.4287,-0.0303,20.43,-4.27,9.57
1695,1272001159,0.9893,0.4180,-0.0283,18.78,-3.23,9.94
1696,1272005989,0.9834,0.4146,-0.0225,16.83,-2.07,10.06
1697,1272010987,0.9722,0.4160,-0.0269,14.82,-1.10,10.24
1698,1272015987,0.9546,0.4165,-0.0337,12.62,-0.24,10.24
1699,1272020987,0.9409,0.4131,-0.0288,10.61,0.61,10.18
1700,1272026043,0.9224,0.4131,-0.0308,8.23,1.16,10.00
1701,1272030987,0.9023,0.4077,-0.0347,5.85,1.89,9.82
1702,1272035987,0.8892,0.4067,-0.0396,3.72,2.50,9.45
1703,1272040986,0.8740,0.4092,-0.0400,1.52,2.93,9.21
1704,1272045987,0.8594,0.4077,-0.0366,-0.61,3.29,8.72
1705,1272051034,0.8467,0.4062,-0.0464,-2.56,3.72,8.41
1706,1272056217,0.8369,0.4106,-0.0410,-4.70,4.02,7.74
1707,1272060989,0.8281,0.4077,-0.0337,-6.16,4.21,7.44
1708,1272065986,0.8262,0.4077,-0.0381,-7.44,4.33,6.89
1709,1272070987,0.8213,0.4077,-0.0322,-8.60,4.57,6.65
1710,1272075985,0.8213,0.4038,-0.0376,-9.51,4.63,6.16
1711,1272080987,0.8198,0.4023,-0.0312,-10.18,4.63,5.73
1712,1272085986,0.8218,0.3999,-0.0420,-10.49,4.76,5.43
1713,1272090987,0.8203,0.4048,-0.0474,-10.73,4.88,5.06
1714,1272095987,0.8228,0.4019,-0.0537,-10.43,4.88,4.82
1715,1272100987,0.8228,0.3984,-0.0537,-9.76,4.76,4.63
1716,1272105986,0.8311,0.3989,-0.0625,-9.02,4.57,4.51
1717,1272110987,0.8354,0.4004,-0.0645,-8.05,4.45,4.39
1718,1272115988,0.8438,0.3984,-0.0674,-7.01,4.33,4.33
1719,1272120987,0.8516,0.3936,-0.0728,-5.91,3.96,4.33
1720,1272125985,0.8618,0.3926,-0.0654,-4.76,3.84,4.51
1721,1272130988,0.8774,0.3945,-0.0659,-3.78,3.78,4.51
1722,1272135987,0.8921,0.3926,-0.0615,-2.62,3.90,4.82
1723,1272140986,0.8989,0.3931,-0.0630,-1.89,3.84,4.94
1724,1272145987,0.9170,0.3872,-0.0537,-1.46,3.90,5.18
1725,1272150986,0.9282,0.3877,-0.0474,-1.34,4.02,5.43
1726,1272155987,0.9390,0.3867,-0.0513,-1.28,4.39,5.73
1727,1272160986,0.9507,0.3901,-0.0435,-1.52,4.63,5.98
1728,1272165987,0.9624,0.3872,-0.0469,-2.20,5.00,6.34
1729,1272170986,0.9697,0.3887,-0.0396,-3.05,5.43,6.59
1730,1272175987,0.9805,0.3892,-0.0293,-4.21,6.04,6.89
1731,1272180993,0.9868,0.3921,-0.0234,-5.67,6.40,7.26
1732,1272185987,0.9868,0.3896,-0.0195,-7.26,7.20,7.56
1733,1272190989,0.9932,0.3950,-0.0132,-9.09,7.74,7.87
1734,1272195986,0.9951,0.3931,-0.0122,-11.28,8.35,8.11
1735,1272200990,0.9961,0.3926,0.0059,-13.54,9.15,8.41
1736,1272205988,0.9917,0.4019,0.0078,-15.98,9.88,8.66
1737,1272210987,0.9849,0.4028,0.0103,-18.48,10.55,8.78
1738,1272215987,0.9805,0.3989,0.0142,-21.16,11.16,9.02
1739,1272221042,0.9702,0.3994,0.0195,-23.78,11.89,9.02
1740,1272225985,0.9673,0.4082,0.0234,-26.40,12.38,9.15
1741,1272230985,0.9541,0.4126,0.0317,-29.09,12.99,9.15
1742,1272235987,0.9463,0.4082,0.0366,-31.46,13.29,9.27
1743,1272240986,0.9321,0.4141,0.0493,-33.72,13.72,9.33
1744,1272245985,0.9268,0.4224,0.0542,-35.91,14.02,9.51
1745,1272250987,0.9185,0.4209,0.0605,-37.80,14.27,9.39
1746,1272255987,0.9131,0.4229,0.0625,-39.45,14.51,9.45
1747,1272260987,0.9033,0.4263,0.0776,-40.79,14.57,9.63
1748,1272265987,0.8931,0.4248,0.0791,-42.07,14.76,9.57
1749,1272270987,0.8848,0.4272,0.0884,-42.93,14.70,9.57
1750,1272275987,0.8813,0.4292,0.0913,-43.54,14.63,9.63
1751,1272280988,0.8765,0.4292,0.0938,-43.72,14.63,9.63
1752,1272286463,0.8682,0.4268,0.1045,-43.84,14.45,9.63
1753,1272290987,0.8633,0.4312,0.1118,-43.78,14.21,9.57
1754,1272296095,0.8594,0.4341,0.1089,-43.23,13.84,9.51
1755,1272301002,0.8604,0.4312,0.1143,-42.87,13.72,9.39
1756,1272305985,0.8555,0.4355,0.1221,-42.01,12.99,9.33
1757,1272310987,0.8589,0.4297,0.1221,-40.98,12.56,9.33
1758,1272315987,0.8564,0.4307,0.1304,-39.82,11.95,9.21
1759,1272320986,0.8579,0.4277,0.1323,-38.41,11.40,9.09
1760,1272325987,0.8604,0.4312,0.1338,-36.95,10.79,8.96
1761,1272330986,0.8643,0.4297,0.1289,-35.18,10.06,8.84
1762,1272335989,0.8687,0.4321,0.1362,-33.41,9.33,8.78
1763,1272340986,0.8735,0.4258,0.1416,-31.28,8.54,8.84
1764,1272345987,0.8813,0.4268,0.1377,-29.33,7.74,8.60
1765,1272350986,0.8823,0.4229,0.1479,-27.01,6.83,8.54
1766,1272355987,0.8862,0.4165,0.1489,-24.88,5.98,8.60
1767,1272360987,0.8921,0.4165,0.1558,-22.62,5.00,8.66
1768,1272365988,0.8955,0.4136,0.1587,-20.43,4.15,8.66
1769,1272370986,0.9038,0.4106,0.1602,-18.29,3.23,8.84
1770,1272375987,0.9146,0.4043,0.1636,-16.40,2.56,8.84
1771,1272380986,0.9194,0.4062,0.1743,-14.33,1.59,8.90
1772,1272385987,0.9243,0.4072,0.1729,-12.56,0.91,9.15
1773,1272390986,0.9297,0.4043,0.1802,-10.98,0.12,9.33
1774,1272395987,0.9355,0.4033,0.1831,-9.63,-0.43,9.39
1775,1272400986,0.9399,0.4023,0.1841,-8.29,-1.10,9.45
1776,1272405989,0.9399,0.4014,0.1797,-7.32,-1.77,9.57
1777,1272410986,0.9385,0.3960,0.1855,-6.52,-2.50,9.70
1778,1272415987,0.9434,0.4009,0.1831,-6.04,-3.23,9.63
1779,1272420986,0.9404,0.4053,0.1851,-5.73,-3.90,9.76
1780,1272425987,0.9448,0.4004,0.1812,-5.55,-4.33,9.70
1781,1272430986,0.9409,0.4043,0.1846,-5.67,-4.94,9.70
1782,1272435987,0.9409,0.4058,0.1812,-5.85,-5.67,9.70
1783,1272440987,0.9390,0.4062,0.1802,-6.40,-6.28,9.63
1784,1272445987,0.9429,0.4136,0.1807,-6.77,-6.89,9.63
1785,1272450986,0.9399,0.4150,0.1782,-7.44,-7.38,9.51
1786,1272455987,0.9438,0.4180,0.1782,-7.93,-8.05,9.45
1787,1272460986,0.9443,0.4170,0.1777,-8.48,-8.60,9.33
1788,1272465987,0.9404,0.4199,0.1719,-8.78,-8.90,9.39
1789,1272470987,0.9429,0.4219,0.1655,-9.09,-9.39,9.39
1790,1272475987,0.9370,0.4219,0.1670,-9.39,-9.94,9.45
1791,1272480986,0.9326,0.4248,0.1631,-9.39,-10.43,9.51
1792,1272485987,0.9341,0.4243,0.1597,-9.21,-10.73,9.51
1793,1272490986,0.9316,0.4302,0.1553,-9.02,-11.16,9.51
1794,1272495987,0.9297,0.4316,0.1543,-8.72,-11.77,9.51
1795,1272500986,0.9316,0.4326,0.1543,-8.17,-12.20,9.70
1796,1272505990,0.9321,0.4331,0.1519,-7.44,-12.56,9.88
1797,1272511044,0.9302,0.4380,0.1475,-6.89,-12.93,9.76
1798,1272515987,0.9316,0.4409,0.1406,-6.22,-13.17,9.88
1799,1272520987,0.9287,0.4419,0.1475,-5.55,-13.41,10.06
1800,1272525986,0.9302,0.4419,0.1445,-4.70,-13.66,10.06
1801,1272530987,0.9297,0.4458,0.1338,-3.96,-13.90,10.06
1802,1272535987,0.9336,0.4468,0.1299,-3.05,-14.21,10.06
1803,1272540987,0.9302,0.4526,0.1265,-2.44,-14.33,10.12
1804,1272545986,0.9307,0.4497,0.1245,-1.71,-14.63,10.06
1805,1272550987,0.9297,0.4497,0.1216,-1.16,-14.63,9.94
1806,1272555987,0.9307,0.4478,0.1226,-0.43,-14.76,9.82
1807,1272560987,0.9316,0.4478,0.1221,-0.06,-14.70,9.63
1808,1272566333,0.9307,0.4458,0.1201,0.79,-14.94,9.51
1809,1272570987,0.9341,0.4453,0.1167,1.10,-14.82,9.45
1810,1272575987,0.9258,0.4448,0.1123,1.65,-14.76,9.15
1811,1272580987,0.9229,0.4448,0.1089,1.83,-14.70,8.90
1812,1272585985,0.9185,0.4463,0.1011,1.95,-14.88,8.78
1813,1272590988,0.9136,0.4468,0.0947,2.26,-14.76,8.54
1814,1272596042,0.9126,0.4438,0.0884,2.13,-14.76,8.29
1815,1272600987,0.9141,0.4424,0.0879,2.13,-14.70,7.93
1816,1272605986,0.9092,0.4380,0.0898,1.89,-14.57,7.68
1817,1272610988,0.9087,0.4380,0.0845,1.71,-14.63,7.26
1818,1272615987,0.9067,0.4351,0.0889,1.28,-14.51,7.01
1819,1272620987,0.9023,0.4380,0.0757,1.04,-14.27,6.52
1820,1272625986,0.9014,0.4355,0.0762,0.73,-14.15,6.10
1821,1272630987,0.9004,0.4365,0.0815,0.24,-13.96,5.61
1822,1272635986,0.8979,0.4321,0.0737,-0.06,-13.84,5.18
1823,1272640989,0.8931,0.4326,0.0796,-0.49,-13.48,4.76
1824,1272645987,0.8940,0.4302,0.0732,-0.73,-13.23,4.21
1825,1272650988,0.8950,0.4341,0.0684,-1.16,-12.93,3.66
1826,1272655987,0.8950,0.4312,0.0649,-1.22,-12.56,3.23
1827,1272660986,0.8936,0.4360,0.0605,-1.59,-12.32,2.62
1828,1272665987,0.8916,0.4307,0.0664,-1.59,-11.95,2.20
1829,1272670986,0.8940,0.4307,0.0659,-1.59,-11.83,1.65
1830,1272675988,0.8940,0.4287,0.0552,-1.40,-11.34,1.04
1831,1272680986,0.8994,0.4243,0.0591,-1.16,-11.04,0.67
1832,1272685987,0.9028,0.4224,0.0469,-0.67,-10.79,0.30
1833,1272690986,0.9033,0.4233,0.0488,-0.24,-10.67,-0.12
1834,1272695987,0.9033,0.4199,0.0469,0.24,-10.30,-0.49
1835,1272700987,0.9077,0.4199,0.0439,0.91,-9.82,-0.85
1836,1272705987,0.9102,0.4204,0.0488,1.59,-9.82,-1.10
1837,1272710987,0.9160,0.4194,0.0430,2.38,-9.27,-1.28
1838,1272715987,0.9136,0.4136,0.0547,2.99,-8.90,-1.52
1839,1272720986,0.9185,0.4141,0.0474,3.66,-8.60,-1.83
1840,1272725987,0.9189,0.4111,0.0488,4.21,-8.41,-1.95
1841,1272730986,0.9263,0.4131,0.0464,4.88,-8.11,-2.13
1842,1272735987,0.9277,0.4092,0.0483,5.55,-7.50,-2.32
1843,1272740986,0.9316,0.4077,0.0488,6.04,-7.26,-2.44
1844,1272745989,0.9355,0.4053,0.0449,6.34,-6.89,-2.50
1845,1272750986,0.9341,0.4038,0.0542,6.77,-6.59,-2.80
1846,1272755985,0.9336,0.4033,0.0557,6.83,-6.10,-2.99
1847,1272760987,0.9355,0.4043,0.0693,6.71,-5.55,-3.05
1848,1272765987,0.9346,0.4033,0.0649,6.95,-5.18,-3.05
1849,1272770986,0.9395,0.4043,0.0654,6.83,-4.70,-3.11
1850,1272775988,0.9312,0.4062,0.0737,6.52,-4.39,-3.29
1851,1272780986,0.9292,0.4048,0.0742,6.22,-3.72,-3.41
1852,1272785987,0.9346,0.4038,0.0820,5.85,-3.35,-3.54
1853,1272790987,0.9297,0.4004,0.0889,5.37,-2.87,-3.54
1854,1272795987,0.9277,0.4038,0.0898,5.00,-2.38,-3.72
1855,1272800986,0.9263,0.4053,0.0913,4.39,-1.83,-3.84
