# skilleye imu stream v1
# device=xiao_esp32c6 imu=mpu6050 addr=0x68
# rate_hz=200 accel_range_g=16 gyro_range_dps=2000 dlpf_hz=94
# units: accel in g, gyro in deg/s, t_us in microseconds since boot (monotonic)
# no shared clock with the camera -- tap the racket once before each take
# so both recordings share a spike to align on
seq,t_us,ax,ay,az,gx,gy,gz
0,190589787,0.8506,-0.3530,-0.2607,3.29,10.06,-1.10
1,190594791,0.8506,-0.3491,-0.2607,2.87,10.12,-0.91
2,190599786,0.8481,-0.3521,-0.2598,2.56,10.00,-0.67
3,190604961,0.8540,-0.3545,-0.2583,2.38,10.12,-0.55
4,190609787,0.8569,-0.3511,-0.2559,1.95,10.00,-0.37
5,190614787,0.8604,-0.3506,-0.2573,1.71,9.88,-0.24
6,190619785,0.8662,-0.3545,-0.2495,1.52,9.94,-0.06
7,190624785,0.8613,-0.3550,-0.2490,1.46,9.82,0.12
8,190629785,0.8672,-0.3584,-0.2485,1.34,9.57,0.24
9,190634785,0.8691,-0.3574,-0.2471,1.34,9.57,0.37
10,190639785,0.8677,-0.3604,-0.2471,1.46,9.27,0.55
11,190644785,0.8633,-0.3608,-0.2363,1.65,9.15,0.73
12,190649786,0.8662,-0.3623,-0.2378,1.83,9.15,0.79
13,190654785,0.8691,-0.3638,-0.2344,1.95,8.78,0.98
14,190659785,0.8677,-0.3589,-0.2290,2.26,8.60,1.04
15,190664785,0.8687,-0.3604,-0.2266,2.44,8.41,1.22
16,190669785,0.8662,-0.3579,-0.2280,2.50,8.17,1.34
17,190674785,0.8691,-0.3569,-0.2285,2.68,7.80,1.46
18,190679785,0.8677,-0.3540,-0.2285,2.74,7.56,1.59
19,190684785,0.8682,-0.3555,-0.2183,2.80,7.44,1.65
20,190689785,0.8716,-0.3486,-0.2231,2.56,7.01,1.83
21,190694785,0.8716,-0.3462,-0.2158,2.44,6.77,1.95
22,190699785,0.8711,-0.3486,-0.2148,2.20,6.52,2.07
23,190704785,0.8716,-0.3442,-0.2144,2.01,6.40,2.13
24,190709785,0.8691,-0.3438,-0.2104,1.77,5.91,2.20
25,190714785,0.8711,-0.3423,-0.2104,1.52,5.79,2.26
26,190719785,0.8667,-0.3408,-0.2046,1.28,5.55,2.38
27,190724785,0.8638,-0.3403,-0.2036,1.22,5.30,2.50
28,190729787,0.8628,-0.3384,-0.2017,1.22,4.94,2.74
29,190734789,0.8628,-0.3408,-0.2046,1.22,4.76,2.74
30,190739787,0.8604,-0.3418,-0.1963,1.28,4.39,2.80
31,190744787,0.8662,-0.3398,-0.1958,1.52,4.21,2.99
32,190749787,0.8643,-0.3403,-0.1909,1.77,3.78,3.05
33,190754785,0.8638,-0.3447,-0.1934,1.95,3.60,3.17
34,190759785,0.8662,-0.3477,-0.1982,2.32,3.23,3.23
35,190764788,0.8716,-0.3457,-0.1934,2.68,2.87,3.35
36,190769834,0.8696,-0.3418,-0.1860,3.17,2.56,3.41
37,190774788,0.8750,-0.3477,-0.1851,3.48,2.32,3.54
38,190779787,0.8765,-0.3472,-0.1841,3.84,2.07,3.66
39,190784785,0.8687,-0.3467,-0.1846,4.33,1.77,3.66
40,190789785,0.8672,-0.3462,-0.1826,4.70,1.34,3.66
41,190794785,0.8672,-0.3452,-0.1826,5.00,1.22,3.72
42,190799785,0.8711,-0.3462,-0.1797,5.43,0.91,3.78
43,190804785,0.8701,-0.3477,-0.1841,5.91,0.55,3.84
44,190809785,0.8618,-0.3511,-0.1875,6.34,0.37,3.96
45,190814830,0.8647,-0.3540,-0.1826,6.83,-0.12,4.02
46,190819786,0.8608,-0.3530,-0.1821,7.26,-0.30,4.09
47,190824785,0.8667,-0.3564,-0.1929,7.62,-0.61,4.15
48,190829785,0.8672,-0.3579,-0.1909,7.93,-0.79,4.15
49,190834785,0.8657,-0.3608,-0.1855,8.23,-1.16,4.09
50,190839790,0.8721,-0.3628,-0.1885,8.35,-1.40,4.15
51,190844787,0.8735,-0.3613,-0.1885,8.35,-1.71,4.27
52,190849786,0.8770,-0.3657,-0.1875,8.48,-1.89,4.15
53,190854789,0.8774,-0.3662,-0.1943,8.54,-2.20,4.39
54,190859786,0.8755,-0.3691,-0.1904,8.60,-2.44,4.33
55,190864785,0.8755,-0.3735,-0.1909,8.66,-2.50,4.45
56,190869787,0.8735,-0.3770,-0.1890,8.54,-2.87,4.57
57,190874785,0.8750,-0.3799,-0.1851,8.60,-3.05,4.63
58,190879785,0.8726,-0.3784,-0.1973,8.54,-3.29,4.76
59,190884785,0.8745,-0.3799,-0.1948,8.60,-3.54,4.82
60,190889785,0.8784,-0.3833,-0.1963,8.60,-3.72,5.00
61,190894785,0.8755,-0.3867,-0.1963,8.66,-4.02,5.12
62,190899785,0.8716,-0.3862,-0.1987,8.60,-4.27,5.24
63,190904789,0.8760,-0.3926,-0.1934,8.48,-4.45,5.37
64,190909905,0.8677,-0.3892,-0.1958,8.54,-4.57,5.55
65,190914788,0.8696,-0.3901,-0.1978,8.54,-4.82,5.61
66,190919786,0.8745,-0.3921,-0.1929,8.41,-5.12,5.73
67,190924785,0.8667,-0.3906,-0.1919,8.41,-5.30,5.98
68,190929785,0.8652,-0.3926,-0.2021,8.05,-5.55,6.10
69,190934785,0.8652,-0.3950,-0.1958,7.93,-5.73,6.28
70,190939785,0.8638,-0.4009,-0.1982,7.62,-6.10,6.52
71,190944785,0.8652,-0.3989,-0.1919,7.20,-6.10,6.77
72,190949785,0.8652,-0.3975,-0.1963,6.77,-6.46,6.89
73,190954785,0.8647,-0.3984,-0.1919,6.28,-6.71,7.07
74,190959785,0.8584,-0.3936,-0.1909,5.79,-7.01,7.38
75,190964785,0.8564,-0.3970,-0.1963,5.18,-7.20,7.62
76,190969788,0.8599,-0.3916,-0.1943,4.51,-7.38,7.93
77,190974786,0.8618,-0.3901,-0.1909,3.90,-7.74,8.23
78,190979785,0.8633,-0.3901,-0.1875,2.99,-7.80,8.48
79,190984908,0.8652,-0.3916,-0.1875,2.20,-7.99,8.84
80,190989994,0.8696,-0.3979,-0.1865,1.46,-8.41,9.21
81,190994788,0.8701,-0.3896,-0.1816,0.91,-8.54,9.57
82,190999786,0.8730,-0.3896,-0.1846,0.30,-8.78,9.94
83,191004785,0.8818,-0.3931,-0.1797,-0.12,-8.96,10.61
84,191009787,0.8828,-0.3940,-0.1792,-0.43,-9.15,11.16
85,191014788,0.8867,-0.3950,-0.1724,-0.55,-9.33,11.83
86,191019787,0.8892,-0.3926,-0.1724,-0.79,-9.51,12.38
87,191024786,0.8950,-0.3926,-0.1699,-0.67,-9.88,13.11
88,191029785,0.8960,-0.3926,-0.1694,-0.37,-10.06,13.84
89,191034785,0.8926,-0.3975,-0.1758,0.06,-10.37,14.57
90,191039785,0.8979,-0.3989,-0.1680,0.67,-10.61,15.49
91,191044785,0.8960,-0.3999,-0.1631,1.65,-10.85,16.40
92,191049785,0.8984,-0.3979,-0.1587,2.80,-11.10,17.20
93,191054785,0.8950,-0.4004,-0.1519,4.15,-11.34,18.29
94,191059785,0.8867,-0.4033,-0.1548,5.61,-11.71,19.21
95,191064785,0.8901,-0.4058,-0.1528,7.56,-12.13,20.30
96,191070329,0.8823,-0.4097,-0.1597,10.00,-12.50,21.71
97,191074790,0.8809,-0.4092,-0.1558,12.01,-12.80,22.68
98,191079786,0.8823,-0.4160,-0.1694,14.15,-13.35,23.84
99,191084785,0.8770,-0.4185,-0.1743,16.59,-13.72,25.12
100,191089785,0.8828,-0.4194,-0.1743,18.90,-14.45,26.52
101,191094785,0.8828,-0.4180,-0.1787,20.91,-15.12,27.93
102,191099785,0.8823,-0.4185,-0.1719,22.62,-15.55,29.21
103,191104785,0.8735,-0.4233,-0.1714,23.90,-16.22,30.49
104,191109785,0.8716,-0.4199,-0.1675,24.70,-16.77,31.83
105,191114878,0.8623,-0.4297,-0.1655,25.06,-17.38,33.05
106,191119786,0.8564,-0.4331,-0.1626,24.88,-17.68,34.27
107,191124785,0.8491,-0.4390,-0.1641,24.39,-18.35,35.61
108,191129785,0.8354,-0.4404,-0.1665,23.48,-18.84,36.89
109,191134785,0.8252,-0.4424,-0.1631,22.26,-19.39,38.11
110,191139785,0.8203,-0.4546,-0.1606,20.73,-19.94,39.21
111,191144785,0.8091,-0.4512,-0.1562,18.84,-20.55,40.43
112,191149785,0.8052,-0.4585,-0.1567,16.77,-21.10,41.65
113,191154785,0.7969,-0.4639,-0.1606,14.51,-21.46,42.68
114,191159785,0.7866,-0.4634,-0.1685,12.07,-22.01,43.78
115,191164785,0.7842,-0.4595,-0.1729,9.45,-22.50,44.88
116,191169785,0.7739,-0.4614,-0.1772,6.71,-22.74,45.73
117,191174785,0.7573,-0.4683,-0.1851,3.78,-23.29,46.77
118,191179785,0.7422,-0.4907,-0.1719,0.91,-23.78,47.68
119,191184785,0.7480,-0.4995,-0.1567,-2.01,-24.15,48.66
120,191189786,0.7568,-0.4854,-0.1807,-4.63,-24.39,49.82
121,191194787,0.7637,-0.4780,-0.1958,-7.38,-24.82,50.85
122,191199785,0.7632,-0.4727,-0.2012,-10.18,-25.30,51.46
123,191204785,0.7554,-0.4697,-0.1865,-12.56,-25.79,52.13
124,191209789,0.7412,-0.4790,-0.1787,-15.00,-25.73,52.74
125,191214785,0.7373,-0.4814,-0.1758,-17.32,-25.98,53.35
126,191219789,0.7397,-0.4834,-0.1807,-19.45,-26.34,53.96
127,191224786,0.7368,-0.4858,-0.1982,-21.28,-26.59,54.51
128,191229788,0.7349,-0.4858,-0.2065,-22.80,-26.71,54.94
129,191234787,0.7212,-0.4956,-0.2046,-24.15,-26.89,55.37
130,191239785,0.7158,-0.5005,-0.1997,-24.94,-27.07,55.61
131,191244785,0.7124,-0.5107,-0.2046,-25.67,-27.44,56.10
132,191249785,0.7139,-0.5190,-0.2217,-26.16,-27.50,56.52
133,191254787,0.7104,-0.5210,-0.2344,-26.46,-27.87,56.65
134,191259787,0.7075,-0.5254,-0.2402,-26.71,-27.99,56.95
135,191264786,0.7104,-0.5361,-0.2490,-26.89,-28.17,57.01
136,191269785,0.7109,-0.5439,-0.2563,-26.95,-28.54,57.20
137,191274785,0.7173,-0.5547,-0.2612,-26.95,-28.66,57.26
138,191279787,0.7251,-0.5669,-0.2720,-27.07,-28.78,57.32
139,191284785,0.7295,-0.5815,-0.2778,-27.01,-28.96,57.38
140,191289785,0.7388,-0.5898,-0.2891,-27.07,-28.96,57.44
141,191294785,0.7441,-0.5972,-0.2964,-26.83,-28.84,57.26
142,191299785,0.7510,-0.6079,-0.3057,-26.65,-28.72,57.32
143,191304785,0.7573,-0.6182,-0.2998,-26.28,-28.66,57.26
144,191309785,0.7559,-0.6245,-0.3091,-25.73,-28.41,57.20
145,191314785,0.7651,-0.6382,-0.3198,-25.12,-28.17,57.20
146,191319785,0.7651,-0.6528,-0.3247,-24.33,-27.80,57.13
147,191324785,0.7705,-0.6665,-0.3350,-23.35,-27.44,57.07
148,191329785,0.7744,-0.6787,-0.3442,-22.13,-27.13,57.07
149,191334785,0.7778,-0.6885,-0.3550,-20.98,-26.71,57.13
150,191339785,0.7812,-0.7002,-0.3604,-20.00,-26.52,57.26
151,191344785,0.7803,-0.7085,-0.3682,-18.54,-26.04,57.26
152,191349785,0.7798,-0.7148,-0.3789,-17.01,-25.79,57.26
153,191354785,0.7725,-0.7520,-0.3618,-15.43,-25.30,57.38
154,191359785,0.7539,-0.7427,-0.3511,-14.02,-24.70,57.44
155,191364785,0.7485,-0.7114,-0.3867,-12.93,-24.15,57.44
156,191369785,0.7368,-0.6948,-0.4111,-11.71,-23.54,57.13
157,191374785,0.7197,-0.6895,-0.3926,-10.18,-23.05,56.77
158,191379785,0.6963,-0.7051,-0.3862,-8.60,-22.56,56.40
159,191384785,0.6826,-0.7119,-0.3882,-6.71,-21.95,56.04
160,191389785,0.6660,-0.7119,-0.3872,-4.57,-21.40,55.61
161,191394785,0.6562,-0.7129,-0.3896,-2.20,-20.85,55.24
162,191399785,0.6440,-0.7114,-0.3877,0.12,-20.30,54.82
163,191404785,0.6304,-0.7080,-0.3862,2.50,-19.70,54.51
164,191410055,0.6177,-0.6963,-0.3813,5.24,-19.02,53.96
165,191414789,0.5874,-0.6895,-0.3726,7.01,-18.35,53.54
166,191419809,0.4961,-0.6597,-0.0278,9.94,-13.90,53.23
167,191424789,0.5415,-0.5972,-0.3237,13.17,-9.09,52.07
168,191429786,0.5103,-0.5942,-0.5024,16.65,-6.52,50.37
169,191434785,0.3994,-0.5845,-0.2207,21.04,-1.28,48.84
170,191439785,0.3408,-0.5000,-0.1431,25.18,6.59,46.65
171,191444785,0.3174,-0.5400,-0.2988,29.51,13.78,44.21
172,191449785,0.3623,-0.6396,-0.5088,33.23,19.45,42.56
173,191454785,0.4204,-0.6763,-0.4438,36.16,23.41,41.77
174,191459785,0.4614,-0.7051,-0.2939,38.41,27.01,40.85
175,191464785,0.4883,-0.7261,-0.3252,39.70,29.51,40.00
176,191469791,0.5063,-0.7070,-0.3892,40.37,30.98,39.27
177,191474785,0.5171,-0.6841,-0.3384,40.30,32.38,38.66
178,191479982,0.5317,-0.6772,-0.3164,39.57,34.33,37.93
179,191484787,0.5361,-0.6836,-0.3560,38.78,35.24,37.44
180,191489788,0.5405,-0.6855,-0.3843,37.26,36.04,37.13
181,191494786,0.5347,-0.6792,-0.3384,35.67,36.65,37.01
182,191499785,0.5317,-0.6680,-0.3252,34.09,37.38,36.89
183,191504785,0.5283,-0.6670,-0.3823,32.56,37.68,37.01
184,191509785,0.5269,-0.6602,-0.3989,31.10,37.56,37.13
185,191514785,0.5225,-0.6548,-0.3677,29.94,37.68,37.20
186,191519785,0.5171,-0.6509,-0.3569,28.78,37.62,37.32
187,191524785,0.5112,-0.6484,-0.3916,27.74,37.38,37.44
188,191529785,0.5083,-0.6484,-0.3921,26.83,36.83,37.56
189,191534785,0.5083,-0.6455,-0.3638,25.79,36.46,37.93
190,191539785,0.5176,-0.6416,-0.3579,24.76,36.16,38.11
191,191544785,0.5190,-0.6440,-0.3848,23.54,35.67,38.35
192,191549785,0.5239,-0.6436,-0.3833,22.26,34.94,38.84
193,191554785,0.5288,-0.6416,-0.3521,20.61,34.70,39.27
194,191559785,0.5288,-0.6406,-0.3516,19.09,34.09,39.70
195,191564785,0.5371,-0.6372,-0.3735,17.50,33.66,40.12
196,191569785,0.5518,-0.6279,-0.3569,15.79,33.35,40.49
197,191574785,0.5610,-0.6255,-0.3350,14.39,33.05,40.98
198,191579785,0.5732,-0.6084,-0.3384,13.05,32.93,41.22
199,191584785,0.5767,-0.6006,-0.3496,11.89,33.05,41.22
200,191589785,0.5811,-0.5913,-0.3320,10.91,33.17,41.22
201,191594785,0.5874,-0.5801,-0.3188,10.24,33.72,40.85
202,191599785,0.5908,-0.5615,-0.3223,9.94,34.09,40.30
203,191604785,0.5952,-0.5469,-0.3364,10.00,34.88,39.33
204,191609785,0.5986,-0.5405,-0.3232,10.30,35.61,38.23
205,191614790,0.6064,-0.5371,-0.3203,10.85,36.34,36.71
206,191619787,0.6152,-0.5391,-0.3364,11.46,37.01,35.18
207,191624787,0.6255,-0.5532,-0.3442,12.07,37.32,33.29
208,191629786,0.6313,-0.5796,-0.3413,12.38,37.62,31.52
209,191634787,0.6382,-0.6167,-0.3516,12.44,37.74,30.06
210,191639785,0.6255,-0.6558,-0.3604,12.07,37.50,29.09
211,191644785,0.6050,-0.6880,-0.3682,11.46,37.20,28.60
212,191649785,0.5854,-0.6948,-0.3877,10.49,37.01,28.54
213,191654785,0.5742,-0.6895,-0.3901,9.27,37.01,28.90
214,191659785,0.5527,-0.6826,-0.4087,7.74,36.95,29.02
215,191664785,0.5459,-0.6826,-0.4229,5.91,36.89,29.21
216,191669785,0.5396,-0.6963,-0.4238,3.48,36.77,29.57
217,191674785,0.5371,-0.7051,-0.4229,0.67,36.77,30.00
218,191679785,0.5415,-0.7114,-0.4229,-2.38,36.83,30.49
219,191684785,0.5503,-0.7183,-0.4233,-5.79,36.65,31.16
220,191689785,0.5552,-0.7183,-0.4224,-9.33,36.52,31.95
221,191694785,0.5649,-0.7124,-0.4150,-13.17,36.40,32.74
222,191699785,0.5713,-0.6987,-0.4014,-16.77,36.40,33.48
223,191704785,0.5820,-0.6890,-0.4082,-20.00,36.46,34.09
224,191709785,0.5859,-0.6816,-0.4058,-22.87,36.52,34.57
225,191714785,0.5845,-0.6816,-0.3994,-25.18,36.83,34.94
226,191719785,0.5762,-0.6958,-0.4058,-26.77,37.07,35.30
227,191724785,0.5757,-0.6895,-0.3965,-27.74,37.20,35.55
228,191729785,0.5884,-0.6831,-0.3862,-27.68,37.50,35.49
229,191734785,0.5806,-0.6826,-0.4082,-27.13,37.93,35.43
230,191739785,0.5737,-0.6992,-0.4219,-25.98,38.11,35.24
231,191744785,0.5679,-0.7134,-0.3984,-24.33,38.60,34.94
232,191749785,0.5684,-0.7256,-0.3794,-22.20,39.02,34.63
233,191754785,0.5649,-0.7349,-0.3760,-19.15,39.57,33.96
234,191759789,0.5723,-0.7393,-0.3892,-16.71,39.88,33.48
235,191764787,0.5791,-0.7466,-0.3750,-13.41,40.30,32.80
236,191769786,0.5820,-0.7500,-0.3633,-9.88,40.79,32.07
237,191774789,0.5781,-0.7480,-0.3618,-6.59,41.28,31.28
238,191779785,0.5830,-0.7480,-0.3481,-3.29,42.01,30.49
239,191784785,0.5801,-0.7432,-0.3457,-0.12,42.74,29.70
240,191789788,0.5698,-0.7422,-0.3438,2.50,43.66,28.78
241,191794787,0.5615,-0.7500,-0.3394,5.30,44.76,27.99
242,191799786,0.5308,-0.7437,-0.3330,7.62,45.55,27.07
243,191804972,0.5010,-0.7373,-0.3345,9.76,46.71,26.22
244,191809787,0.4888,-0.7427,-0.3350,11.59,47.74,25.43
245,191814787,0.4663,-0.7412,-0.3237,13.05,48.72,24.63
246,191819787,0.4580,-0.7373,-0.3174,13.96,49.70,23.72
247,191824785,0.1611,-0.7695,-0.2842,13.84,50.61,23.17
248,191829787,0.3213,-0.7383,-0.1943,11.83,51.71,22.74
249,191834787,0.4697,-0.6777,-0.2510,10.00,52.56,21.95
250,191839787,0.5518,-0.6870,-0.2886,8.72,53.05,21.16
251,191844785,0.5786,-0.7124,-0.2734,7.93,53.90,20.43
252,191849785,0.5488,-0.7471,-0.2705,7.01,54.63,19.88
253,191854785,0.5039,-0.7305,-0.2900,6.34,55.49,19.45
254,191859785,0.5215,-0.7256,-0.2461,6.10,56.46,18.66
255,191864785,0.5654,-0.7676,-0.2227,6.34,57.07,18.05
256,191869785,0.5830,-0.7998,-0.2129,6.34,57.32,18.35
257,191874785,0.5718,-0.7896,-0.2148,6.59,57.50,18.84
258,191879785,0.5586,-0.7842,-0.2026,6.77,57.74,19.02
259,191884785,0.5425,-0.7798,-0.2095,7.07,58.05,19.21
260,191889785,0.5415,-0.7739,-0.2051,7.26,58.05,19.39
261,191894785,0.5361,-0.7729,-0.1987,7.74,57.99,19.51
262,191899785,0.5356,-0.7808,-0.1660,8.05,58.17,19.76
263,191904785,0.5156,-0.7388,-0.1650,9.21,58.41,19.94
264,191909785,0.5103,-0.7578,-0.2061,10.55,58.66,19.88
265,191914785,0.5137,-0.7725,-0.2017,11.71,58.17,19.94
266,191919785,0.5078,-0.7949,-0.1699,12.74,57.44,20.12
267,191924785,0.5049,-0.8018,-0.1436,13.41,56.83,20.85
268,191929785,0.5210,-0.7910,-0.1250,13.90,56.40,21.59
269,191934785,0.5444,-0.7856,-0.1665,14.27,55.91,22.50
270,191939785,0.5542,-0.7676,-0.1758,14.27,55.06,23.41
271,191944785,0.5479,-0.7520,-0.1509,13.90,54.21,24.09
272,191949785,0.5352,-0.7451,-0.1440,13.23,53.48,24.82
273,191954785,0.5195,-0.7349,-0.1440,12.38,52.44,25.18
274,191960043,0.4883,-0.7280,-0.1318,10.98,51.28,25.49
275,191964788,0.4800,-0.7271,-0.1113,9.70,50.24,25.49
276,191969786,0.4814,-0.7373,-0.1021,8.54,49.27,25.37
277,191974787,0.4741,-0.7441,-0.1138,6.89,48.11,25.37
278,191979786,0.4731,-0.7510,-0.1157,5.18,46.59,25.55
279,191984785,0.4727,-0.7534,-0.1006,3.17,45.49,25.61
280,191989785,0.4717,-0.7676,-0.0869,0.98,44.33,25.85
281,191994788,0.4673,-0.7700,-0.0903,-1.46,43.11,26.10
282,191999786,0.4688,-0.7725,-0.0811,-3.96,41.89,26.46
283,192005309,0.4658,-0.7715,-0.0684,-7.26,40.91,27.01
284,192009787,0.4639,-0.7759,-0.0693,-9.51,40.06,27.32
285,192014786,0.4614,-0.7729,-0.0747,-12.32,39.21,27.68
286,192019787,0.4497,-0.7700,-0.0708,-15.12,38.48,28.17
287,192024786,0.4292,-0.7573,-0.0513,-17.93,37.62,28.48
288,192029787,0.4321,-0.7715,-0.0659,-20.43,37.01,28.84
289,192034786,0.4360,-0.7822,-0.0708,-22.93,36.16,29.33
290,192040284,0.4209,-0.7720,-0.0728,-25.55,35.12,29.94
291,192044787,0.4106,-0.7822,-0.0684,-27.38,34.57,30.30
292,192049785,0.4072,-0.7837,-0.0630,-29.45,34.02,30.91
293,192054785,0.4146,-0.7798,-0.0601,-31.65,33.41,31.28
294,192059785,0.4199,-0.7793,-0.0640,-33.84,33.23,31.89
295,192064785,0.4326,-0.7803,-0.0649,-35.85,32.74,32.32
296,192069785,0.4482,-0.7754,-0.0703,-37.68,32.44,32.87
297,192074785,0.4556,-0.7798,-0.0718,-39.27,32.01,33.29
298,192079785,0.4336,-0.7710,-0.0986,-40.91,31.89,33.78
299,192084786,0.4624,-0.7700,-0.0752,-42.68,31.28,34.15
300,192089785,0.4443,-0.7554,-0.0361,-43.78,31.40,34.39
301,192094785,0.4102,-0.7793,-0.0137,-44.39,31.52,34.57
302,192099785,0.4458,-0.7749,-0.0708,-44.27,31.46,34.94
303,192104785,0.4658,-0.7744,-0.0649,-44.51,31.28,35.00
304,192109785,0.4902,-0.7905,-0.0078,-44.15,31.83,35.12
305,192114785,0.5059,-0.8203,-0.0234,-42.87,32.26,35.43
306,192119785,0.4956,-0.8438,-0.0757,-40.73,32.20,35.73
307,192124785,0.4751,-0.8364,-0.0693,-37.80,32.07,36.28
308,192129785,0.4590,-0.8350,-0.0312,-35.06,32.20,36.59
309,192134785,0.4956,-0.8564,-0.0308,-31.83,32.38,36.95
310,192139785,0.5151,-0.8643,-0.0679,-28.11,32.26,37.32
311,192144785,0.5176,-0.8696,-0.0356,-23.66,31.83,37.62
312,192149785,0.5088,-0.8823,-0.0181,-18.90,31.77,37.93
313,192154785,0.5010,-0.8872,-0.0317,-13.66,31.34,38.23
314,192159785,0.5010,-0.8804,-0.0376,-8.41,30.79,38.41
315,192166035,0.4976,-0.8804,-0.0308,-2.20,30.12,38.41
316,192169788,0.4956,-0.8838,-0.0137,1.52,29.70,38.54
317,192174785,0.4985,-0.8838,-0.0244,6.28,29.02,38.48
318,192179789,0.4922,-0.8755,-0.0200,10.43,28.11,38.23
319,192184785,0.4937,-0.8745,-0.0044,14.15,27.44,37.99
320,192189785,0.4956,-0.8784,-0.0029,17.32,26.52,37.68
321,192194785,0.4980,-0.8823,0.0010,19.88,25.61,37.32
322,192199792,0.5073,-0.8867,0.0107,21.77,24.88,37.01
323,192204786,0.5200,-0.8965,0.0303,23.29,24.02,36.77
324,192209877,0.5298,-0.8979,0.0449,24.15,23.35,36.46
325,192214786,0.5405,-0.8994,0.0415,24.57,22.56,36.04
326,192219787,0.5493,-0.9077,0.0503,24.70,21.77,35.49
327,192224786,0.5503,-0.9121,0.0479,24.27,21.22,35.06
328,192229785,0.5483,-0.9136,0.0601,23.60,20.30,34.33
329,192234788,0.5552,-0.9077,0.0659,22.99,19.76,33.72
330,192239788,0.5610,-0.9087,0.0718,21.95,19.21,32.80
331,192244787,0.5664,-0.9053,0.0737,20.98,18.54,31.71
332,192249848,0.5718,-0.9121,0.0825,20.12,17.68,30.67
333,192254785,0.5737,-0.9175,0.0918,19.21,17.01,29.51
334,192259785,0.5835,-0.9170,0.1001,18.60,16.16,28.48
335,192264785,0.5928,-0.9160,0.1030,18.23,15.37,27.26
336,192269785,0.5898,-0.9136,0.1025,18.05,14.45,25.85
337,192275073,0.5186,-0.9087,0.1079,18.96,13.41,24.45
338,192279787,0.5620,-0.9062,0.1089,20.85,12.56,22.80
339,192284786,0.6221,-0.8950,0.1147,23.29,11.40,21.10
340,192289786,0.6587,-0.8887,0.1602,25.91,10.55,19.33
341,192294785,0.6704,-0.8940,0.1787,28.72,9.70,17.62
342,192299785,0.6812,-0.9038,0.1621,31.22,8.72,15.91
343,192304785,0.6865,-0.9160,0.1572,33.35,7.99,14.33
344,192309785,0.6890,-0.9204,0.1602,35.00,6.83,12.87
345,192314785,0.6914,-0.9160,0.1523,35.91,6.10,11.16
346,192319785,0.6953,-0.9058,0.1377,36.65,4.94,9.45
347,192324786,0.7012,-0.8965,0.1440,36.83,4.02,7.74
348,192329785,0.7124,-0.8960,0.1602,36.71,3.11,5.98
349,192334788,0.7144,-0.8931,0.1626,36.22,2.01,4.09
350,192339793,0.7241,-0.8970,0.1787,35.79,0.98,2.20
351,192344786,0.7451,-0.8960,0.1992,35.30,-0.06,0.12
352,192349787,0.7520,-0.8931,0.2065,35.00,-0.98,-1.89
353,192354786,0.7676,-0.8955,0.2124,34.88,-2.13,-3.96
354,192359785,0.7729,-0.8896,0.2207,34.94,-3.23,-5.98
355,192364785,0.7783,-0.8896,0.2383,35.18,-4.27,-7.99
356,192369785,0.7822,-0.8833,0.2534,35.55,-5.73,-9.94
357,192374785,0.7852,-0.8809,0.2617,35.98,-7.07,-11.83
358,192379874,0.7925,-0.8721,0.2822,36.40,-8.35,-13.78
359,192384785,0.7939,-0.8711,0.2910,36.77,-9.76,-15.61
360,192390432,0.7944,-0.8770,0.2803,36.89,-11.28,-17.44
361,192394788,0.8091,-0.8760,0.2866,37.20,-12.99,-19.21
362,192399787,0.8237,-0.8730,0.2778,37.62,-14.70,-21.10
363,192404787,0.8315,-0.8701,0.2754,37.99,-16.77,-22.99
364,192409786,0.8428,-0.8721,0.2617,38.23,-18.72,-24.88
365,192414787,0.8447,-0.8706,0.2715,38.48,-21.04,-26.83
366,192419789,0.8521,-0.8750,0.2715,38.72,-23.05,-28.72
367,192424787,0.8584,-0.8750,0.2695,38.72,-25.43,-30.55
368,192429785,0.8716,-0.8828,0.2661,38.96,-27.87,-32.56
369,192434788,0.8823,-0.8857,0.2783,39.15,-30.06,-34.57
370,192439786,0.8945,-0.8921,0.2808,39.45,-32.50,-36.65
371,192444788,0.9048,-0.8931,0.2896,40.00,-34.94,-38.78
372,192449786,0.9092,-0.8950,0.2979,41.04,-37.32,-40.91
373,192454787,0.9189,-0.8936,0.3022,42.50,-39.76,-43.23
374,192459785,0.9233,-0.8979,0.3018,44.21,-42.20,-45.37
375,192464788,0.9390,-0.9019,0.2983,46.40,-44.76,-47.50
376,192469787,0.9497,-0.9111,0.2939,48.78,-47.32,-49.63
377,192474787,0.9658,-0.9155,0.2847,51.52,-50.12,-51.59
378,192479816,0.9868,-0.9219,0.2812,54.21,-52.99,-53.60
379,192484787,0.9985,-0.9375,0.2725,56.65,-55.85,-55.24
380,192489787,1.0312,-0.9409,0.2822,58.90,-59.15,-57.01
381,192494787,1.0327,-0.9321,0.2754,60.91,-62.13,-58.84
382,192499787,1.0469,-0.9351,0.2715,62.56,-65.43,-60.85
383,192504787,1.0566,-0.9512,0.2808,63.84,-68.60,-63.17
384,192509787,1.0449,-0.9287,0.2544,64.82,-72.01,-65.43
385,192514787,1.0288,-0.9419,0.2695,64.94,-75.30,-68.17
386,192519786,1.0303,-0.9653,0.2783,64.45,-78.66,-70.61
387,192524787,1.0303,-0.9604,0.2598,63.23,-81.89,-72.99
388,192529787,1.0625,-0.9399,0.2593,61.40,-85.18,-75.73
389,192534787,1.0625,-0.9746,0.2612,59.27,-88.35,-78.48
390,192539837,1.0698,-0.9814,0.2456,56.34,-91.65,-81.16
391,192544786,1.0703,-0.9873,0.2646,53.05,-94.82,-84.15
392,192549788,1.0747,-0.9800,0.2715,49.63,-97.62,-87.32
393,192554828,1.0581,-1.0122,0.2539,46.04,-100.30,-90.49
394,192559785,1.0391,-1.0366,0.2568,42.32,-102.87,-93.66
395,192564785,1.0288,-1.0552,0.2520,38.84,-105.18,-96.77
396,192569789,1.0142,-1.0679,0.2427,35.43,-107.20,-100.18
397,192574786,1.0103,-1.0820,0.2280,32.68,-108.84,-102.56
398,192579787,1.0059,-1.0952,0.2124,29.63,-110.55,-105.79
399,192584786,1.0195,-1.1040,0.1938,26.71,-111.83,-109.09
400,192589880,0.9985,-1.1104,0.1562,23.54,-113.54,-112.62
401,192594786,0.9902,-1.1128,0.1396,21.46,-114.63,-115.12
402,192599785,0.9634,-1.1157,0.1357,19.02,-115.91,-118.17
403,192604898,0.9395,-1.1123,0.1108,16.34,-117.26,-121.83
404,192609787,0.9272,-1.1108,0.1035,14.70,-117.68,-124.27
405,192614786,0.9194,-1.1128,0.0811,13.11,-118.60,-127.26
406,192619785,0.9155,-1.1079,0.0664,11.83,-119.02,-130.24
407,192624787,0.9204,-1.1094,0.0498,10.85,-119.33,-133.23
408,192629787,0.9272,-1.1025,0.0273,10.37,-119.27,-136.22
409,192634786,0.9297,-1.1084,0.0195,10.00,-119.39,-139.09
410,192639785,0.9204,-1.1045,0.0117,10.24,-119.15,-142.38
411,192644787,0.9102,-1.1016,0.0210,10.61,-118.78,-144.70
412,192649786,0.8926,-1.0840,0.0176,11.34,-118.35,-147.32
413,192654789,0.8667,-1.0786,0.0156,12.32,-117.56,-150.24
414,192659786,0.8462,-1.0825,0.0146,12.93,-116.40,-152.99
415,192664785,0.8330,-1.0815,0.0181,13.60,-114.94,-155.43
416,192669889,0.8247,-1.0771,0.0122,14.27,-112.68,-157.50
417,192674787,0.8296,-1.0659,-0.0142,14.94,-109.94,-159.33
418,192679787,0.8281,-1.0620,-0.0483,15.79,-107.26,-160.85
419,192684787,0.8369,-1.0454,-0.0757,17.07,-104.33,-162.26
420,192689785,0.8452,-1.0337,-0.0967,18.90,-101.46,-163.54
421,192694787,0.8447,-1.0327,-0.0869,21.46,-98.60,-164.33
422,192699787,0.8501,-1.0210,-0.0918,24.45,-95.79,-165.00
423,192704786,0.8521,-1.0020,-0.0830,28.17,-93.48,-165.61
424,192709871,0.8462,-0.9771,-0.0771,31.83,-90.85,-166.22
425,192714787,0.8291,-0.9595,-0.0732,35.85,-88.96,-166.83
426,192719786,0.8057,-0.9429,-0.0767,39.70,-87.26,-167.44
427,192724787,0.7798,-0.9307,-0.0742,43.41,-85.79,-167.93
428,192729786,0.7485,-0.9155,-0.0645,46.71,-84.63,-168.23
429,192734785,0.7251,-0.8965,-0.0698,49.57,-83.72,-168.48
430,192740233,0.7002,-0.8716,-0.0586,52.26,-82.44,-168.54
431,192744788,0.6855,-0.8511,-0.0649,53.54,-81.83,-168.60
432,192749787,0.6689,-0.8198,-0.0767,54.82,-80.91,-168.66
433,192754786,0.6567,-0.7974,-0.0991,55.61,-80.18,-168.54
434,192759785,0.6396,-0.7705,-0.0996,55.91,-79.39,-168.48
435,192764788,0.6270,-0.7510,-0.1064,56.22,-78.72,-168.17
436,192769786,0.6196,-0.7402,-0.1040,56.10,-77.99,-167.68
437,192774869,0.6182,-0.7261,-0.1230,55.85,-77.20,-166.77
438,192779786,0.6157,-0.7031,-0.1270,55.24,-76.46,-165.79
439,192784788,0.6143,-0.6831,-0.1313,54.82,-75.49,-164.70
440,192789787,0.6094,-0.6636,-0.1284,54.02,-74.51,-163.41
441,192794787,0.6050,-0.6538,-0.1416,53.35,-73.66,-162.01
442,192799785,0.6045,-0.6294,-0.1465,52.62,-72.50,-160.55
443,192804787,0.5981,-0.6216,-0.1406,51.52,-71.46,-159.02
444,192809785,0.6011,-0.6011,-0.1528,50.30,-70.30,-157.56
445,192814788,0.5967,-0.5918,-0.1553,48.96,-69.09,-155.98
446,192819787,0.5898,-0.5732,-0.1631,47.44,-67.93,-154.45
447,192824787,0.5835,-0.5508,-0.1650,45.67,-66.40,-152.74
448,192829787,0.5825,-0.5298,-0.1797,43.90,-65.06,-151.16
449,192834787,0.5762,-0.5054,-0.1880,42.44,-63.60,-149.45
450,192840101,0.5664,-0.4878,-0.1929,40.91,-62.32,-147.80
451,192844788,0.5459,-0.4658,-0.2070,39.51,-60.98,-146.04
452,192849904,0.5327,-0.4448,-0.2144,38.35,-59.76,-144.15
453,192854787,0.5229,-0.4131,-0.2227,37.20,-58.29,-142.20
454,192859788,0.5073,-0.3921,-0.2358,36.22,-56.77,-140.12
455,192864787,0.4985,-0.3672,-0.2485,35.49,-55.37,-137.99
456,192869786,0.4922,-0.3501,-0.2583,34.70,-53.60,-135.79
457,192874788,0.4912,-0.3242,-0.2739,34.45,-51.89,-133.54
458,192879787,0.4873,-0.3032,-0.2896,34.27,-49.88,-131.22
459,192884787,0.4746,-0.2900,-0.2969,34.51,-47.93,-128.96
460,192889785,0.4648,-0.2749,-0.3076,35.24,-45.61,-126.71
461,192894787,0.4644,-0.2681,-0.3174,36.46,-43.54,-124.33
462,192899787,0.4614,-0.2617,-0.3228,38.54,-41.40,-121.95
463,192904787,0.4565,-0.2549,-0.3291,41.04,-39.09,-119.70
464,192909785,0.4468,-0.2505,-0.3462,44.57,-37.26,-117.44
465,192914788,0.4302,-0.2378,-0.3623,48.78,-35.43,-115.37
466,192919787,0.4351,-0.2427,-0.3652,53.17,-34.09,-113.48
467,192924786,0.4189,-0.2271,-0.3755,57.74,-32.87,-111.40
468,192929785,0.4097,-0.2065,-0.3940,62.07,-32.01,-109.70
469,192934788,0.4014,-0.1973,-0.3989,65.67,-31.04,-108.05
470,192939787,0.4067,-0.1929,-0.4341,68.78,-30.24,-106.52
471,192944787,0.4141,-0.1792,-0.4351,71.16,-29.27,-105.12
472,192949787,0.4233,-0.1558,-0.4233,72.56,-28.11,-103.84
473,192954787,0.4258,-0.1313,-0.4326,72.93,-26.89,-102.74
474,192959787,0.4150,-0.1230,-0.4341,72.74,-25.55,-101.71
475,192964787,0.4077,-0.1060,-0.4336,71.95,-24.39,-100.67
476,192969785,0.3999,-0.0928,-0.4360,70.55,-23.05,-99.76
477,192974788,0.3862,-0.0830,-0.4546,68.78,-21.95,-98.96
478,192979787,0.3755,-0.0674,-0.4663,66.83,-20.85,-98.17
479,192984787,0.3677,-0.0576,-0.4790,64.70,-19.88,-97.32
480,192989785,0.3638,-0.0493,-0.4976,62.26,-18.96,-96.46
481,192994788,0.3730,-0.0288,-0.4980,59.76,-18.35,-95.61
482,192999787,0.3838,-0.0083,-0.5020,57.20,-17.62,-94.70
483,193004787,0.3911,0.0103,-0.5054,54.51,-16.89,-93.72
484,193009785,0.3999,0.0327,-0.5034,51.89,-16.46,-92.62
485,193014785,0.4141,0.0527,-0.5005,49.21,-15.91,-91.40
486,193019862,0.4282,0.0557,-0.4976,46.46,-15.67,-90.24
487,193024786,0.4258,0.0728,-0.5029,43.41,-15.24,-88.90
488,193029787,0.4277,0.0850,-0.5010,40.12,-14.94,-87.56
489,193034786,0.4346,0.0952,-0.4990,36.52,-14.39,-86.22
490,193039787,0.4316,0.1069,-0.4985,32.87,-13.96,-84.82
491,193044786,0.4302,0.1245,-0.4844,29.27,-13.48,-83.29
492,193049785,0.4297,0.1353,-0.4883,25.55,-13.05,-81.89
493,193054787,0.4282,0.1494,-0.4810,22.20,-12.56,-80.61
494,193059786,0.4292,0.1621,-0.4731,18.96,-12.13,-79.21
495,193064788,0.4253,0.1719,-0.4717,16.10,-11.65,-77.74
496,193069786,0.4170,0.1816,-0.4746,13.48,-11.16,-76.22
497,193074785,0.4097,0.1963,-0.4600,11.04,-10.67,-74.76
498,193079788,0.3999,0.2056,-0.4517,8.84,-10.00,-73.17
499,193084787,0.3872,0.2173,-0.4487,6.77,-9.57,-71.52
500,193089786,0.3770,0.2319,-0.4502,4.94,-9.09,-69.94
501,193094787,0.3726,0.2402,-0.4419,2.93,-8.35,-67.99
502,193099786,0.3521,0.2485,-0.4390,1.28,-7.74,-66.16
503,193104787,0.3369,0.2637,-0.4370,-0.67,-7.13,-64.09
504,193109786,0.3257,0.2783,-0.4316,-2.74,-6.16,-62.07
505,193114786,0.3169,0.2881,-0.4204,-4.88,-5.24,-59.94
506,193119788,0.3125,0.2959,-0.4126,-6.83,-4.15,-57.62
507,193124787,0.3052,0.3130,-0.4053,-8.84,-2.93,-55.12
508,193129788,0.2920,0.3232,-0.4014,-10.37,-1.46,-52.56
509,193134787,0.2739,0.3315,-0.3936,-11.59,-0.06,-49.94
510,193139788,0.2485,0.3481,-0.3892,-11.95,1.59,-46.95
511,193144787,0.2197,0.3638,-0.3989,-11.46,3.05,-44.15
512,193149787,0.1992,0.3804,-0.4067,-10.06,4.45,-41.04
513,193154787,0.1743,0.3960,-0.4243,-8.23,5.18,-38.41
514,193159786,0.1284,0.4194,-0.4355,-5.37,6.59,-34.63
515,193164787,0.1074,0.4341,-0.4419,-3.23,7.07,-32.07
516,193169907,0.0884,0.4531,-0.4458,-0.73,7.93,-28.17
517,193174787,0.0771,0.4663,-0.4429,0.24,8.66,-25.37
518,193179785,0.0693,0.4858,-0.4390,0.98,9.70,-21.95
519,193184789,0.0610,0.4990,-0.4380,1.04,10.61,-18.35
520,193189785,0.0518,0.5127,-0.4312,0.79,11.52,-14.70
521,193194788,0.0518,0.5254,-0.4233,0.00,12.44,-10.79
522,193199788,0.0405,0.5391,-0.4253,-0.73,13.41,-6.71
523,193204787,0.0361,0.5591,-0.4292,-1.77,14.15,-2.50
524,193209787,0.0400,0.5708,-0.4385,-2.62,15.06,1.89
525,193214787,0.0371,0.5649,-0.4399,-3.41,15.61,6.71
526,193219785,0.0557,0.5625,-0.4429,-4.15,16.46,13.05
527,193224788,0.0674,0.5684,-0.4531,-4.82,16.77,17.56
528,193229787,0.0786,0.5713,-0.4614,-5.67,17.07,23.54
529,193234787,0.0771,0.5684,-0.4600,-6.59,17.38,29.70
530,193239785,0.0830,0.5630,-0.4619,-7.44,17.44,36.16
531,193244785,0.0986,0.5591,-0.4668,-8.35,17.50,42.99
532,193249789,0.1099,0.5435,-0.4648,-9.27,17.44,50.00
533,193254785,0.1147,0.5337,-0.4639,-10.37,17.50,57.13
534,193259786,0.1221,0.5264,-0.4653,-11.10,17.38,64.27
535,193264787,0.1177,0.5054,-0.4600,-11.89,17.01,71.52
536,193269786,0.1211,0.4834,-0.4561,-12.32,17.01,78.90
537,193274786,0.1372,0.4531,-0.4658,-12.38,16.77,86.89
538,193279785,0.1533,0.4185,-0.4731,-11.95,16.34,94.33
539,193285382,0.1694,0.3911,-0.4673,-11.16,15.67,103.66
540,193289788,0.1831,0.3647,-0.4658,-11.10,15.37,109.88
541,193294788,0.1978,0.3301,-0.4653,-11.59,15.06,117.56
542,193299786,0.2002,0.2935,-0.4658,-13.11,14.45,125.06
543,193304789,0.2036,0.2671,-0.4692,-15.55,14.09,132.26
544,193309840,0.2075,0.2310,-0.4653,-19.02,13.84,139.15
545,193314788,0.2114,0.1919,-0.4697,-23.29,13.72,145.85
546,193319787,0.2183,0.1431,-0.4609,-27.93,13.48,152.74
547,193324787,0.2192,0.0972,-0.4731,-32.62,13.35,159.57
548,193329789,0.2271,0.0508,-0.4707,-36.71,13.05,166.46
549,193334786,0.2314,0.0073,-0.4683,-40.55,12.99,173.54
550,193339785,0.2236,-0.0376,-0.4727,-43.72,12.50,180.55
551,193344789,0.2163,-0.0854,-0.4644,-46.52,12.38,187.56
552,193349786,0.2202,-0.1348,-0.4673,-48.66,11.95,194.82
553,193354785,0.2261,-0.1953,-0.4702,-50.24,11.59,202.20
554,193359789,0.2373,-0.2417,-0.4712,-51.16,11.16,209.51
555,193364787,0.2402,-0.2808,-0.4697,-51.65,10.73,216.77
556,193369785,0.2495,-0.3369,-0.4639,-51.77,10.18,223.96
557,193374785,0.2798,-0.3867,-0.4526,-51.52,9.82,230.91
558,193379785,0.3037,-0.4370,-0.4502,-50.85,9.57,237.80
559,193384785,0.3369,-0.4780,-0.4434,-49.88,9.15,244.27
560,193389789,0.3540,-0.5249,-0.4351,-48.41,9.09,250.49
561,193394841,0.3643,-0.5576,-0.4243,-46.65,9.09,256.46
562,193399789,0.3721,-0.5981,-0.4209,-44.57,9.27,261.77
563,193404786,0.3687,-0.6396,-0.4233,-41.89,9.39,266.71
564,193409785,0.3594,-0.6846,-0.4243,-38.78,9.76,271.22
565,193414789,0.3486,-0.7192,-0.4302,-35.12,10.24,275.24
566,193419785,0.3218,-0.7656,-0.4414,-31.16,10.55,278.84
567,193424786,0.3057,-0.8135,-0.4258,-27.01,10.85,282.01
568,193429846,0.2930,-0.8662,-0.4180,-23.05,11.22,284.82
569,193434786,0.2793,-0.9102,-0.4233,-19.39,11.71,287.26
570,193439787,0.2578,-0.9487,-0.4009,-16.59,12.56,289.09
571,193444786,0.2368,-0.9858,-0.4097,-14.15,13.29,290.12
572,193449785,0.2095,-1.0190,-0.3809,-12.07,14.33,290.61
573,193454785,0.1909,-1.0527,-0.3745,-10.30,15.18,290.55
574,193459788,0.1768,-1.0811,-0.3672,-8.78,16.10,289.88
575,193464786,0.1636,-1.1152,-0.3589,-7.56,17.13,288.84
576,193469844,0.1533,-1.1426,-0.3447,-6.46,18.35,287.32
577,193474786,0.1523,-1.1665,-0.3345,-5.30,19.57,285.67
578,193479785,0.1660,-1.1978,-0.3228,-4.57,20.61,283.78
579,193484812,0.1953,-1.2217,-0.3032,-4.21,22.07,281.71
580,193489789,0.2305,-1.2393,-0.2900,-4.21,23.48,279.63
581,193494789,0.2651,-1.2695,-0.2593,-4.76,24.94,277.38
582,193499787,0.3037,-1.2964,-0.2383,-5.55,26.46,275.06
583,193504786,0.3369,-1.3203,-0.2178,-6.52,28.11,272.80
584,193509787,0.3818,-1.3560,-0.1943,-7.38,29.76,270.55
585,193514786,0.4272,-1.3853,-0.1836,-7.93,31.10,268.17
586,193519785,0.4595,-1.4170,-0.1689,-7.68,32.26,265.67
587,193524785,0.5015,-1.4385,-0.1597,-6.34,33.17,262.99
588,193529789,0.5254,-1.4609,-0.1362,-4.21,33.66,260.24
589,193534786,0.5352,-1.4927,-0.1221,-1.34,34.09,257.13
590,193539789,0.5576,-1.5137,-0.1045,1.95,34.39,253.90
591,193544786,0.5703,-1.5400,-0.0884,5.24,34.51,250.49
592,193549787,0.5928,-1.5688,-0.0781,8.17,35.06,246.77
593,193554786,0.6094,-1.6011,-0.0503,10.61,35.49,242.93
594,193560067,0.6270,-1.6245,-0.0239,12.32,36.16,238.66
595,193564787,0.6416,-1.6621,-0.0068,13.54,37.26,234.39
596,193569787,0.6636,-1.6899,0.0117,14.33,38.29,229.76
597,193574787,0.6753,-1.7207,0.0288,15.06,39.27,224.76
598,193579786,0.6758,-1.7520,0.0337,15.91,40.00,219.51
599,193584787,0.6714,-1.7749,0.0518,16.83,40.73,213.90
600,193589786,0.6655,-1.7886,0.0615,17.68,41.04,207.99
601,193594789,0.6455,-1.8115,0.0684,18.60,41.28,201.59
602,193599786,0.6294,-1.8267,0.0879,19.51,41.40,194.94
603,193604787,0.6226,-1.8418,0.0903,20.18,41.16,188.05
604,193609787,0.6167,-1.8467,0.1060,20.55,40.98,181.10
605,193614786,0.6118,-1.8633,0.1172,20.30,40.61,173.84
606,193619787,0.6123,-1.8667,0.1260,19.63,40.30,166.59
607,193624786,0.6113,-1.8647,0.1343,18.11,40.00,159.15
608,193629789,0.6099,-1.8667,0.1377,15.73,39.39,151.65
609,193634786,0.6113,-1.8657,0.1465,12.68,39.02,144.02
610,193639869,0.6108,-1.8652,0.1460,9.21,38.54,136.52
611,193644786,0.6030,-1.8623,0.1445,5.18,37.99,128.96
612,193649789,0.6025,-1.8491,0.1426,0.98,37.07,121.59
613,193654814,0.5981,-1.8350,0.1377,-3.17,36.22,113.96
614,193659787,0.5986,-1.8164,0.1372,-7.50,35.06,106.65
615,193664786,0.5977,-1.7949,0.1372,-11.65,34.15,99.45
616,193669787,0.5972,-1.7686,0.1260,-15.49,32.93,92.38
617,193674786,0.5977,-1.7432,0.1172,-18.78,31.89,86.89
618,193679789,0.6035,-1.7197,0.1157,-21.59,30.85,79.82
619,193684913,0.6118,-1.6914,0.1128,-23.60,29.76,73.66
620,193690008,0.6113,-1.6636,0.1025,-24.76,28.90,67.93
621,193694787,0.6074,-1.6377,0.0947,-24.94,27.93,62.44
622,193699786,0.5991,-1.6060,0.0820,-24.21,27.07,57.20
623,193704787,0.5938,-1.5767,0.0771,-22.62,26.16,52.26
624,193709787,0.5918,-1.5439,0.0708,-20.61,25.37,47.50
625,193714787,0.5874,-1.5161,0.0532,-18.48,24.63,43.05
626,193720072,0.5815,-1.4819,0.0537,-16.46,24.09,38.78
627,193724787,0.5737,-1.4531,0.0488,-14.33,23.29,35.00
628,193729785,0.5708,-1.4287,0.0439,-13.23,22.80,32.01
629,193734789,0.5635,-1.3911,0.0400,-11.89,22.13,27.62
630,193739787,0.5566,-1.3633,0.0288,-11.10,21.40,24.45
631,193744786,0.5449,-1.3379,0.0229,-10.73,20.91,21.28
632,193749785,0.5366,-1.3120,0.0132,-10.85,20.12,18.29
633,193754787,0.5278,-1.2896,0.0054,-11.10,19.51,15.61
634,193759787,0.5186,-1.2705,0.0044,-11.46,18.66,13.05
635,193764787,0.5063,-1.2490,-0.0010,-11.65,18.17,11.10
636,193769786,0.4976,-1.2305,-0.0029,-11.89,17.50,8.84
637,193774787,0.4810,-1.2124,-0.0142,-12.13,16.83,6.65
638,193779788,0.4668,-1.1948,-0.0200,-12.13,16.16,4.63
639,193784787,0.4614,-1.1729,-0.0176,-12.07,15.61,2.80
640,193789788,0.4478,-1.1514,-0.0210,-12.01,15.06,1.10
641,193794787,0.4424,-1.1387,-0.0220,-11.89,14.39,-0.61
642,193799787,0.4360,-1.1191,-0.0259,-11.71,13.84,-1.95
643,193804787,0.4277,-1.0986,-0.0278,-11.65,13.29,-3.29
644,193809786,0.4224,-1.0806,-0.0337,-11.71,12.87,-4.39
645,193814787,0.4199,-1.0640,-0.0415,-11.71,12.38,-5.37
646,193819787,0.4165,-1.0479,-0.0391,-11.95,11.83,-6.34
647,193824787,0.4131,-1.0303,-0.0425,-12.01,11.46,-7.07
648,193829788,0.4131,-1.0146,-0.0532,-12.07,11.10,-7.74
649,193834787,0.4136,-1.0024,-0.0488,-11.77,10.79,-8.23
650,193839787,0.4067,-0.9883,-0.0552,-11.34,10.37,-8.72
651,193844787,0.4028,-0.9785,-0.0552,-10.79,9.94,-9.09
652,193849786,0.3960,-0.9722,-0.0684,-10.06,9.63,-9.39
653,193854787,0.3853,-0.9595,-0.0664,-9.09,9.15,-9.51
654,193859786,0.3818,-0.9487,-0.0757,-7.93,8.78,-9.57
655,193864787,0.3745,-0.9453,-0.0791,-7.26,8.35,-9.51
656,193869787,0.3740,-0.9336,-0.0752,-6.28,7.87,-9.51
657,193874787,0.3711,-0.9219,-0.0771,-5.37,7.44,-9.33
658,193879788,0.3682,-0.9214,-0.0815,-4.51,7.07,-9.15
659,193884787,0.3667,-0.9155,-0.0815,-3.72,6.52,-8.96
660,193889786,0.3638,-0.9067,-0.0835,-3.11,6.22,-8.66
661,193894788,0.3574,-0.9033,-0.0908,-2.44,5.61,-8.35
662,193899787,0.3574,-0.9004,-0.0967,-2.07,5.12,-7.99
663,193904786,0.3530,-0.8979,-0.0962,-1.71,4.70,-7.74
664,193909789,0.3452,-0.8901,-0.1016,-1.77,4.21,-7.32
665,193914786,0.3374,-0.8896,-0.0991,-1.77,3.35,-7.13
666,193919789,0.3311,-0.8877,-0.1025,-2.13,2.87,-6.83
667,193924786,0.3301,-0.8838,-0.1074,-2.56,2.32,-6.59
668,193929785,0.3237,-0.8779,-0.1157,-2.93,1.71,-6.22
669,193934789,0.3247,-0.8784,-0.1162,-3.41,1.28,-6.16
670,193939787,0.3203,-0.8760,-0.1206,-3.90,0.67,-5.85
671,193944786,0.3198,-0.8740,-0.1187,-4.21,0.12,-5.67
672,193949785,0.3154,-0.8730,-0.1265,-4.33,-0.43,-5.49
673,193954789,0.3145,-0.8726,-0.1274,-4.33,-0.98,-5.12
674,193959786,0.3130,-0.8711,-0.1284,-4.27,-1.34,-4.88
675,193964787,0.3140,-0.8696,-0.1357,-3.66,-1.95,-4.57
676,193969788,0.3042,-0.8687,-0.1426,-3.23,-2.50,-4.33
677,193974787,0.3027,-0.8657,-0.1411,-2.38,-2.74,-4.02
678,193980109,0.3047,-0.8633,-0.1387,-1.46,-3.35,-3.66
679,193984787,0.2993,-0.8652,-0.1450,-0.79,-3.66,-3.54
680,193989786,0.2998,-0.8652,-0.1465,0.24,-4.27,-3.17
681,193994788,0.2993,-0.8677,-0.1543,1.28,-4.57,-2.87
682,193999787,0.2964,-0.8643,-0.1479,2.20,-4.82,-2.50
683,194004788,0.2959,-0.8691,-0.1489,3.23,-5.24,-2.26
684,194009788,0.2959,-0.8721,-0.1484,4.21,-5.61,-1.95
685,194014787,0.2939,-0.8696,-0.1562,5.12,-5.91,-1.71
686,194019785,0.2881,-0.8696,-0.1670,6.10,-6.46,-1.65
687,194024788,0.2866,-0.8638,-0.1685,6.95,-6.77,-1.46
688,194029787,0.2778,-0.8682,-0.1646,7.56,-7.07,-1.28
689,194034787,0.2783,-0.8706,-0.1655,8.17,-7.56,-1.22
690,194039785,0.2798,-0.8721,-0.1606,8.54,-7.93,-1.22
691,194044789,0.2808,-0.8721,-0.1675,8.66,-8.29,-1.10
692,194049786,0.2788,-0.8701,-0.1685,8.41,-8.54,-1.10
693,194054787,0.2783,-0.8740,-0.1699,8.17,-8.84,-1.04
694,194059786,0.2700,-0.8730,-0.1704,7.87,-9.39,-1.04
695,194064787,0.2749,-0.8730,-0.1675,7.44,-9.76,-1.10
696,194070026,0.2749,-0.8843,-0.1685,6.83,-9.88,-1.10
697,194074787,0.2778,-0.8862,-0.1704,6.28,-10.24,-0.98
698,194079788,0.2744,-0.8906,-0.1685,5.85,-10.61,-0.98
699,194084787,0.2754,-0.8940,-0.1719,5.37,-10.85,-0.98
700,194089788,0.2739,-0.8984,-0.1650,5.00,-11.10,-0.98
701,194094787,0.2734,-0.8984,-0.1724,4.94,-11.28,-0.98
702,194099788,0.2690,-0.8994,-0.1665,5.00,-11.46,-0.98
703,194104787,0.2671,-0.9082,-0.1689,5.18,-11.89,-0.91
704,194109786,0.2642,-0.9097,-0.1714,5.55,-12.07,-0.98
705,194114788,0.2651,-0.9141,-0.1685,6.04,-12.26,-0.98
706,194119787,0.2690,-0.9160,-0.1646,6.83,-12.44,-1.04
707,194124787,0.2671,-0.9175,-0.1631,7.50,-12.68,-0.85
708,194129786,0.2715,-0.9258,-0.1602,8.48,-12.93,-0.98
709,194134787,0.2676,-0.9258,-0.1504,9.21,-13.11,-0.91
710,194139786,0.2690,-0.9297,-0.1538,9.88,-13.41,-0.79
711,194144789,0.2661,-0.9331,-0.1523,10.37,-13.60,-0.73
712,194149786,0.2671,-0.9336,-0.1509,10.91,-13.90,-0.67
713,194154787,0.2671,-0.9404,-0.1509,11.16,-14.02,-0.67
714,194159786,0.2695,-0.9497,-0.1470,11.40,-14.21,-0.61
715,194164787,0.2729,-0.9561,-0.1382,11.34,-14.57,-0.61
716,194169787,0.2778,-0.9595,-0.1401,11.04,-14.88,-0.49
717,194174787,0.2749,-0.9619,-0.1372,10.73,-15.12,-0.49
718,194179785,0.2734,-0.9648,-0.1323,10.18,-15.49,-0.55
719,194184788,0.2676,-0.9609,-0.1270,9.27,-15.85,-0.61
720,194189801,0.2642,-0.9648,-0.1235,8.54,-16.22,-0.67
721,194194787,0.2559,-0.9609,-0.1196,7.44,-16.65,-0.91
722,194199789,0.2520,-0.9688,-0.1138,6.59,-16.95,-0.98
723,194204787,0.2451,-0.9707,-0.1011,5.67,-17.20,-1.10
724,194209788,0.2456,-0.9673,-0.1001,5.12,-17.56,-1.40
725,194214787,0.2480,-0.9683,-0.1084,4.63,-17.99,-1.46
726,194219788,0.2490,-0.9673,-0.1035,4.51,-18.05,-1.65
727,194224887,0.2534,-0.9702,-0.0864,4.57,-18.17,-1.77
728,194229787,0.2573,-0.9688,-0.0928,4.82,-18.35,-1.83
729,194234787,0.2632,-0.9614,-0.0952,5.24,-18.48,-1.95
730,194239785,0.2646,-0.9604,-0.0898,6.04,-18.66,-2.01
731,194244786,0.2725,-0.9570,-0.0967,6.95,-18.60,-2.13
732,194249790,0.2764,-0.9512,-0.0894,8.05,-18.78,-2.38
733,194254788,0.2773,-0.9438,-0.0869,9.15,-18.78,-2.56
734,194259787,0.2773,-0.9336,-0.0918,10.49,-18.78,-2.74
735,194264787,0.2769,-0.9302,-0.0918,12.01,-18.90,-2.93
736,194269785,0.2744,-0.9272,-0.0908,13.54,-18.96,-3.11
737,194274788,0.2710,-0.9219,-0.0942,15.43,-19.15,-3.29
738,194279787,0.2749,-0.9185,-0.0923,17.01,-19.33,-3.54
739,194284787,0.2764,-0.9111,-0.0913,18.72,-19.51,-3.78
740,194289786,0.2793,-0.9082,-0.1006,20.37,-19.63,-3.78
741,194294787,0.2803,-0.9043,-0.0981,22.01,-19.76,-3.96
742,194299788,0.2783,-0.9023,-0.1001,23.29,-20.00,-4.02
743,194304787,0.2803,-0.9019,-0.0986,24.33,-20.00,-4.09
744,194309788,0.2778,-0.8975,-0.0972,25.06,-20.06,-4.33
745,194314785,0.2847,-0.8931,-0.0981,25.55,-20.43,-4.45
746,194319789,0.2793,-0.8887,-0.0952,25.85,-20.55,-4.57
747,194324786,0.2788,-0.8823,-0.1016,25.85,-20.55,-4.88
748,194329787,0.2729,-0.8804,-0.1055,25.79,-20.73,-4.94
749,194334786,0.2744,-0.8760,-0.0981,25.85,-20.79,-5.00
750,194339785,0.2798,-0.8672,-0.0962,25.85,-20.91,-5.18
751,194344785,0.2793,-0.8628,-0.0967,25.98,-20.91,-5.12
752,194349787,0.2798,-0.8643,-0.0952,26.28,-21.04,-4.82
753,194354786,0.2817,-0.8564,-0.1025,27.01,-21.10,-4.57
754,194359789,0.2837,-0.8540,-0.1021,27.93,-21.16,-4.09
755,194364786,0.2969,-0.8540,-0.1128,28.96,-21.46,-3.54
756,194369789,0.2939,-0.8481,-0.1152,30.06,-21.59,-2.87
757,194374786,0.2959,-0.8477,-0.1187,31.10,-21.71,-2.38
758,194379787,0.2939,-0.8442,-0.1226,31.89,-21.95,-1.77
759,194384786,0.2871,-0.8477,-0.1279,32.20,-22.44,-1.22
760,194389785,0.2778,-0.8486,-0.1304,31.89,-22.38,-0.73
761,194394787,0.2744,-0.8477,-0.1333,31.40,-22.62,-0.30
762,194399786,0.2676,-0.8433,-0.1348,30.61,-22.74,0.06
763,194404788,0.2632,-0.8403,-0.1333,29.82,-22.80,0.37
764,194409785,0.2598,-0.8364,-0.1401,28.78,-22.80,0.73
765,194414789,0.2598,-0.8320,-0.1382,27.99,-22.87,1.16
766,194419786,0.2588,-0.8306,-0.1416,27.62,-22.99,1.59
767,194424787,0.2539,-0.8232,-0.1479,27.38,-22.99,2.07
768,194429786,0.2593,-0.8213,-0.1455,27.68,-22.80,2.74
769,194434787,0.2583,-0.8267,-0.1387,28.48,-22.74,3.48
770,194439786,0.2632,-0.8335,-0.1460,29.63,-22.56,4.45
771,194444801,0.2710,-0.8354,-0.1562,31.22,-22.56,5.55
772,194450009,0.2700,-0.8403,-0.1694,32.80,-22.50,6.65
773,194454787,0.2637,-0.8423,-0.1665,34.09,-22.44,7.44
774,194459786,0.2495,-0.8511,-0.1792,35.91,-22.62,8.54
775,194464787,0.2461,-0.8613,-0.1816,36.95,-22.44,9.27
776,194470266,0.2354,-0.8721,-0.1846,38.05,-22.50,10.06
777,194474787,0.2295,-0.8774,-0.1807,38.48,-22.38,10.73
778,194479787,0.2314,-0.8804,-0.1865,38.78,-22.07,11.28
779,194484787,0.2202,-0.8838,-0.1880,38.78,-22.07,11.77
780,194489788,0.2119,-0.8926,-0.1938,38.78,-21.89,12.26
781,194494787,0.2031,-0.9023,-0.1938,38.72,-21.83,12.74
782,194499786,0.1929,-0.9033,-0.1895,38.60,-21.71,13.05
783,194504785,0.1880,-0.9131,-0.1992,38.54,-21.52,13.41
784,194509788,0.1875,-0.9146,-0.1934,38.66,-21.52,13.72
785,194514787,0.1904,-0.9238,-0.1938,38.90,-21.34,14.15
786,194519788,0.1875,-0.9316,-0.2007,39.21,-21.22,14.51
787,194524871,0.1890,-0.9346,-0.2109,39.76,-21.34,14.70
788,194529788,0.1802,-0.9341,-0.2183,40.12,-21.28,14.88
789,194534787,0.1729,-0.9419,-0.2183,40.55,-21.65,15.06
790,194539788,0.1680,-0.9531,-0.2266,40.85,-21.95,15.00
791,194544787,0.1558,-0.9556,-0.2295,41.10,-22.38,14.94
792,194549790,0.1543,-0.9653,-0.2227,40.91,-22.80,14.82
793,194554788,0.1509,-0.9707,-0.2275,40.61,-23.29,14.57
794,194559787,0.1426,-0.9746,-0.2236,39.82,-23.96,14.21
795,194564787,0.1416,-0.9780,-0.2197,38.72,-24.27,13.90
796,194569786,0.1431,-0.9800,-0.2114,37.07,-24.63,13.41
797,194574787,0.1445,-0.9829,-0.2095,35.30,-24.94,12.87
798,194579787,0.1440,-0.9854,-0.2129,33.23,-25.24,12.26
799,194584787,0.1387,-0.9883,-0.2065,30.91,-25.49,11.59
800,194589801,0.1426,-0.9907,-0.2036,28.72,-25.67,10.79
801,194594787,0.1416,-0.9907,-0.2109,26.59,-25.85,10.06
802,194599788,0.1445,-0.9980,-0.2183,24.51,-26.10,9.33
803,194604787,0.1357,-0.9990,-0.2173,22.62,-26.46,8.35
804,194609785,0.1348,-0.9995,-0.2134,20.73,-26.83,7.68
805,194614789,0.1309,-1.0000,-0.2070,19.15,-27.13,6.65
806,194619888,0.1353,-0.9976,-0.2168,17.50,-27.56,5.67
807,194624787,0.1396,-0.9990,-0.2153,15.98,-27.87,4.88
808,194629785,0.1382,-0.9976,-0.2075,14.70,-28.11,4.02
809,194634789,0.1411,-0.9932,-0.2080,13.78,-28.60,3.17
810,194639786,0.1401,-0.9927,-0.2026,12.87,-28.72,2.38
811,194644888,0.1489,-0.9917,-0.1943,12.07,-28.84,1.77
812,194649785,0.1499,-0.9888,-0.1938,11.52,-28.96,0.98
813,194654789,0.1572,-0.9819,-0.1851,11.04,-29.02,0.24
814,194659786,0.1606,-0.9814,-0.1816,10.61,-29.15,-0.37
815,194664787,0.1616,-0.9766,-0.1758,10.18,-29.09,-0.98
816,194669785,0.1694,-0.9736,-0.1851,9.51,-29.09,-1.65
817,194674787,0.1675,-0.9790,-0.1724,9.39,-29.21,-2.13
818,194679787,0.1665,-0.9688,-0.1797,9.15,-29.21,-2.68
819,194684787,0.1675,-0.9668,-0.1812,8.90,-29.45,-3.11
820,194689785,0.1641,-0.9648,-0.1812,8.90,-29.63,-3.60
821,194694789,0.1597,-0.9590,-0.1768,8.72,-29.63,-3.96
822,194699786,0.1655,-0.9536,-0.1758,8.66,-29.76,-4.45
823,194704787,0.1680,-0.9556,-0.1748,8.29,-30.12,-4.63
824,194709788,0.1714,-0.9453,-0.1763,8.17,-30.24,-4.88
825,194714787,0.1685,-0.9404,-0.1748,7.50,-30.30,-5.12
826,194719787,0.1758,-0.9370,-0.1699,6.89,-30.49,-5.24
827,194724787,0.1821,-0.9326,-0.1655,6.04,-30.37,-5.43
828,194729786,0.1851,-0.9258,-0.1646,5.06,-30.49,-5.55
829,194734787,0.1963,-0.9248,-0.1660,3.96,-30.43,-5.55
830,194739852,0.1997,-0.9219,-0.1646,2.50,-30.55,-5.55
831,194744787,0.2041,-0.9150,-0.1616,1.40,-30.55,-5.43
832,194749785,0.2065,-0.9170,-0.1582,-0.06,-30.37,-5.37
833,194754785,0.2090,-0.9121,-0.1606,-1.59,-30.24,-5.37
834,194760272,0.2129,-0.9082,-0.1655,-3.54,-30.18,-5.18
835,194764788,0.2163,-0.9033,-0.1641,-4.76,-30.00,-5.06
836,194769787,0.2236,-0.9009,-0.1611,-6.22,-29.82,-4.94
837,194774787,0.2246,-0.8984,-0.1636,-7.62,-29.63,-4.82
838,194779786,0.2222,-0.8955,-0.1670,-8.96,-29.45,-4.70
839,194784787,0.2280,-0.8926,-0.1597,-10.18,-29.27,-4.63
840,194789788,0.2354,-0.8916,-0.1641,-11.28,-28.96,-4.51
841,194794787,0.2295,-0.8931,-0.1611,-12.26,-28.78,-4.33
842,194799785,0.2314,-0.8901,-0.1636,-13.23,-28.54,-4.21
843,194804788,0.2324,-0.8901,-0.1631,-13.90,-28.17,-4.27
844,194809787,0.2305,-0.8887,-0.1665,-14.57,-27.87,-4.15
845,194814786,0.2314,-0.8940,-0.1636,-15.18,-27.44,-4.27
846,194819789,0.2241,-0.8936,-0.1646,-15.49,-26.95,-4.21
847,194824786,0.2275,-0.8950,-0.1577,-15.67,-26.59,-4.33
848,194829787,0.2266,-0.8940,-0.1602,-15.61,-25.79,-4.45
849,194834786,0.2310,-0.8931,-0.1602,-15.30,-25.30,-4.57
850,194839898,0.2310,-0.8926,-0.1631,-14.76,-24.51,-4.70
851,194844908,0.2285,-0.8955,-0.1616,-13.96,-23.90,-4.82
852,194849787,0.2261,-0.9009,-0.1646,-12.87,-23.05,-5.06
853,194854785,0.2314,-0.9004,-0.1655,-11.40,-22.44,-5.12
854,194859789,0.2295,-0.9004,-0.1660,-9.70,-21.71,-5.12
855,194864786,0.2324,-0.9038,-0.1650,-7.87,-20.98,-5.06
856,194869787,0.2319,-0.9053,-0.1689,-5.61,-20.06,-5.12
857,194874786,0.2417,-0.9077,-0.1641,-3.35,-19.45,-5.06
858,194879787,0.2383,-0.9126,-0.1621,-0.98,-18.66,-5.00
859,194884786,0.2407,-0.9116,-0.1670,1.46,-17.74,-4.82
860,194889787,0.2441,-0.9106,-0.1719,3.84,-17.01,-4.76
861,194894786,0.2451,-0.9141,-0.1650,6.28,-16.22,-4.57
862,194899787,0.2437,-0.9146,-0.1655,8.72,-15.55,-4.33
863,194904786,0.2446,-0.9146,-0.1680,11.10,-14.76,-4.21
864,194909788,0.2471,-0.9141,-0.1650,13.29,-13.90,-3.90
865,194914786,0.2446,-0.9165,-0.1626,15.55,-13.54,-3.72
866,194919785,0.2437,-0.9185,-0.1670,17.38,-12.74,-3.54
867,194924792,0.2417,-0.9199,-0.1553,19.39,-12.20,-3.35
868,194929789,0.2417,-0.9277,-0.1597,20.79,-11.77,-3.05
869,194934786,0.2446,-0.9307,-0.1494,22.38,-11.28,-2.87
870,194939785,0.2495,-0.9302,-0.1553,23.66,-10.61,-2.68
871,194944788,0.2461,-0.9302,-0.1562,24.82,-10.06,-2.50
872,194949786,0.2510,-0.9312,-0.1431,25.79,-9.70,-2.26
873,194954785,0.2515,-0.9370,-0.1514,26.46,-9.33,-2.20
874,194959787,0.2529,-0.9395,-0.1440,27.07,-9.15,-2.07
875,194964788,0.2505,-0.9390,-0.1445,27.38,-8.60,-2.07
876,194969787,0.2520,-0.9380,-0.1382,27.56,-8.35,-1.77
877,194974787,0.2559,-0.9429,-0.1436,27.56,-8.11,-1.77
878,194979787,0.2529,-0.9448,-0.1431,27.26,-7.93,-1.77
879,194984787,0.2549,-0.9438,-0.1377,26.77,-7.99,-1.71
880,194989787,0.2471,-0.9487,-0.1328,26.04,-7.87,-1.71
881,194994787,0.2500,-0.9497,-0.1274,25.24,-7.87,-1.77
882,194999787,0.2490,-0.9541,-0.1333,24.33,-7.87,-1.89
883,195004787,0.2529,-0.9492,-0.1289,23.11,-7.87,-2.13
884,195009788,0.2485,-0.9531,-0.1343,21.95,-8.05,-2.20
885,195014787,0.2495,-0.9536,-0.1206,20.55,-8.23,-2.26
886,195019785,0.2451,-0.9492,-0.1221,19.15,-8.29,-2.56
887,195024789,0.2505,-0.9473,-0.1235,17.62,-8.54,-2.74
888,195029787,0.2515,-0.9473,-0.1182,16.04,-8.72,-2.87
889,195034787,0.2437,-0.9458,-0.1147,14.21,-8.90,-3.11
890,195039787,0.2500,-0.9482,-0.1128,12.50,-9.02,-3.29
891,195044787,0.2524,-0.9434,-0.1172,10.79,-9.21,-3.60
892,195049787,0.2534,-0.9419,-0.1152,9.09,-9.45,-3.78
893,195054787,0.2505,-0.9355,-0.1201,7.38,-9.70,-4.09
894,195059785,0.2505,-0.9365,-0.1152,5.49,-10.00,-4.27
895,195064787,0.2510,-0.9365,-0.1128,3.78,-10.00,-4.51
896,195069875,0.2500,-0.9307,-0.1030,1.89,-10.06,-4.70
897,195074786,0.2456,-0.9263,-0.1104,0.24,-10.24,-4.88
898,195079789,0.2471,-0.9224,-0.1074,-1.40,-10.18,-5.12
899,195084786,0.2476,-0.9214,-0.1069,-2.93,-10.37,-5.30
900,195089789,0.2432,-0.9180,-0.1108,-4.27,-10.30,-5.43
901,195094786,0.2466,-0.9141,-0.1123,-5.43,-10.30,-5.49
902,195099785,0.2480,-0.9087,-0.1108,-6.40,-10.18,-5.61
903,195104789,0.2432,-0.9072,-0.1055,-7.13,-10.00,-5.67
904,195109787,0.2490,-0.9023,-0.1006,-7.62,-9.76,-5.67
905,195114788,0.2485,-0.8984,-0.1016,-7.80,-9.57,-5.85
906,195119788,0.2490,-0.8926,-0.1035,-7.68,-9.39,-5.79
907,195124787,0.2544,-0.8896,-0.1025,-7.56,-8.96,-5.61
908,195129787,0.2573,-0.8848,-0.0977,-6.95,-8.60,-5.55
909,195134787,0.2622,-0.8804,-0.1006,-6.28,-8.11,-5.37
910,195139785,0.2612,-0.8770,-0.0928,-5.30,-7.38,-5.12
911,195144787,0.2622,-0.8716,-0.0903,-4.15,-6.83,-4.76
