# skilleye imu stream v1
# device=xiao_esp32c6 imu=mpu6050 addr=0x68
# rate_hz=200 accel_range_g=16 gyro_range_dps=2000 dlpf_hz=94
# units: accel in g, gyro in deg/s, t_us in microseconds since boot (monotonic)
# no shared clock with the camera -- tap the racket once before each take
# so both recordings share a spike to align on
seq,t_us,ax,ay,az,gx,gy,gz
0,79712498,-0.4805,0.5601,0.7598,50.98,-24.33,11.65
1,79717500,-0.4893,0.5483,0.7656,49.09,-22.68,13.17
2,79722499,-0.4863,0.5615,0.7539,46.04,-20.43,14.82
3,79727497,-0.4829,0.5562,0.7554,43.60,-19.02,16.04
4,79732498,-0.4727,0.5781,0.7349,40.37,-17.56,17.32
5,79737832,-0.4697,0.5601,0.7432,36.59,-15.79,18.41
6,79742497,-0.4717,0.5674,0.7524,34.57,-14.33,19.21
7,79747498,-0.4761,0.5522,0.7524,31.83,-12.68,20.43
8,79752499,-0.4858,0.5430,0.7412,29.33,-10.98,21.77
9,79757497,-0.4976,0.5405,0.7471,26.71,-9.09,23.17
10,79762501,-0.4966,0.5366,0.7544,23.29,-6.77,25.06
11,79767499,-0.4980,0.5317,0.7437,20.55,-5.06,26.16
12,79772497,-0.4937,0.5361,0.7285,16.83,-3.29,27.56
13,79777498,-0.4854,0.5327,0.7319,12.20,-0.85,29.15
14,79782499,-0.4878,0.5244,0.7417,8.72,0.91,30.24
15,79787862,-0.4858,0.5239,0.7363,3.48,3.23,31.77
16,79792497,-0.4795,0.5249,0.7271,-0.06,4.82,32.62
17,79797499,-0.4795,0.5215,0.7251,-5.37,7.38,33.78
18,79802497,-0.4824,0.5244,0.7368,-8.54,8.96,34.57
19,79807501,-0.4844,0.5195,0.7363,-13.35,11.22,35.55
20,79812499,-0.4780,0.5239,0.7295,-16.16,12.56,35.98
21,79817903,-0.4834,0.5273,0.7368,-20.18,14.63,36.59
22,79822497,-0.4810,0.5303,0.7417,-22.62,16.10,36.77
23,79827499,-0.4795,0.5312,0.7334,-25.12,17.62,37.13
24,79832499,-0.4780,0.5269,0.7344,-27.20,19.02,37.20
25,79837497,-0.4814,0.5234,0.7388,-28.72,20.06,37.32
26,79842497,-0.4785,0.5190,0.7441,-29.88,21.40,37.26
27,79847499,-0.4854,0.5244,0.7397,-30.55,22.32,37.13
28,79852497,-0.4810,0.5190,0.7471,-30.73,23.29,36.89
29,79857499,-0.4780,0.5171,0.7520,-30.55,23.90,36.71
30,79862499,-0.4717,0.5142,0.7505,-30.12,24.70,36.34
31,79867497,-0.4771,0.5142,0.7471,-29.45,25.49,36.04
32,79872499,-0.4780,0.5112,0.7554,-28.72,25.79,35.73
33,79877870,-0.4771,0.5112,0.7627,-27.80,26.28,35.12
34,79882497,-0.4810,0.5112,0.7612,-27.20,26.22,34.76
35,79887499,-0.4771,0.5088,0.7729,-26.34,26.46,34.15
36,79892497,-0.4741,0.5083,0.7832,-25.18,26.59,33.54
37,79897501,-0.4736,0.5054,0.7866,-23.90,26.65,32.87
38,79902941,-0.4800,0.5034,0.7881,-22.26,26.83,32.20
39,79907497,-0.4746,0.4980,0.7905,-21.10,26.83,31.65
40,79912499,-0.4795,0.4946,0.8042,-19.63,26.95,30.91
41,79917498,-0.4829,0.4927,0.8057,-18.23,26.95,30.30
42,79922497,-0.4829,0.4883,0.8091,-16.95,26.89,29.70
43,79927499,-0.4790,0.4941,0.8159,-15.79,26.77,28.90
44,79932497,-0.4810,0.4922,0.8130,-14.63,26.52,28.11
45,79937497,-0.4819,0.4932,0.8120,-14.27,26.46,27.44
46,79942499,-0.4746,0.4917,0.8125,-13.60,26.04,26.46
47,79947497,-0.4736,0.4902,0.8179,-13.48,25.67,25.85
48,79952497,-0.4717,0.4966,0.8188,-13.29,25.43,25.06
49,79957499,-0.4741,0.4976,0.8252,-13.29,25.00,24.15
50,79962625,-0.4731,0.4946,0.8262,-13.41,24.45,23.35
51,79967701,-0.4712,0.4951,0.8335,-13.54,24.02,22.38
52,79972499,-0.4731,0.4961,0.8345,-13.90,23.60,21.59
53,79977879,-0.4736,0.4951,0.8398,-14.21,23.17,20.67
54,79982497,-0.4692,0.4990,0.8398,-14.51,22.68,19.70
55,79987499,-0.4639,0.4951,0.8374,-14.88,22.13,18.72
56,79992497,-0.4580,0.4961,0.8423,-15.06,21.71,17.99
57,79997498,-0.4600,0.4980,0.8389,-15.30,21.22,17.13
58,80002499,-0.4600,0.4980,0.8462,-15.49,21.04,16.34
59,80007497,-0.4551,0.5020,0.8496,-15.61,20.61,15.18
60,80012497,-0.4517,0.4976,0.8481,-15.55,20.49,14.45
61,80017499,-0.4502,0.4897,0.8496,-15.37,20.12,13.48
62,80022497,-0.4482,0.4932,0.8506,-15.24,19.88,12.87
63,80027497,-0.4473,0.4990,0.8511,-15.18,19.76,12.07
64,80032499,-0.4419,0.4956,0.8467,-14.88,19.45,11.52
65,80037497,-0.4326,0.4897,0.8486,-14.70,19.21,10.85
66,80042499,-0.4341,0.4897,0.8481,-14.33,18.90,10.18
67,80047497,-0.4292,0.4912,0.8403,-14.15,18.54,9.76
68,80052498,-0.4326,0.4907,0.8457,-13.78,18.29,9.27
69,80057499,-0.4258,0.4873,0.8501,-13.48,18.11,8.84
70,80062890,-0.4268,0.4902,0.8540,-12.99,17.80,8.48
71,80067497,-0.4243,0.4917,0.8564,-12.50,17.62,8.05
72,80072499,-0.4263,0.4902,0.8555,-12.20,17.32,7.74
73,80077497,-0.4258,0.4937,0.8535,-11.89,17.20,7.44
74,80082499,-0.4282,0.4922,0.8506,-11.52,16.83,7.01
75,80087499,-0.4331,0.4951,0.8579,-11.34,16.77,6.71
76,80092497,-0.4385,0.4990,0.8579,-11.22,16.52,6.52
77,80097497,-0.4380,0.4937,0.8623,-11.22,16.46,6.16
78,80102497,-0.4385,0.4937,0.8545,-11.34,16.28,6.04
79,80107499,-0.4360,0.4927,0.8599,-11.46,16.10,5.79
80,80112497,-0.4385,0.4951,0.8569,-11.89,15.79,5.67
81,80117501,-0.4360,0.4927,0.8618,-12.44,15.49,5.49
82,80122497,-0.4448,0.5010,0.8569,-13.05,15.43,5.24
83,80127499,-0.4453,0.5000,0.8633,-13.84,15.06,5.12
84,80132497,-0.4556,0.5029,0.8677,-14.63,14.88,4.94
85,80137499,-0.4595,0.5020,0.8687,-15.43,14.51,4.70
86,80142497,-0.4648,0.5054,0.8657,-16.28,14.33,4.70
87,80147499,-0.4727,0.5073,0.8735,-17.20,13.96,4.45
88,80152497,-0.4751,0.5151,0.8643,-17.93,13.72,4.15
89,80157499,-0.4795,0.5117,0.8726,-18.41,13.60,4.02
90,80162498,-0.4858,0.5195,0.8667,-19.02,13.11,3.90
91,80167497,-0.4946,0.5234,0.8682,-19.51,12.87,3.54
92,80172499,-0.4937,0.5288,0.8721,-19.76,12.56,3.23
93,80177916,-0.4966,0.5298,0.8677,-19.88,12.13,2.93
94,80182497,-0.4990,0.5347,0.8716,-19.82,11.83,2.56
95,80187686,-0.5020,0.5361,0.8765,-19.76,11.52,2.32
96,80192497,-0.5024,0.5405,0.8794,-19.63,10.98,1.95
97,80197502,-0.5029,0.5391,0.8696,-19.45,10.79,1.71
98,80202499,-0.5073,0.5366,0.8740,-19.27,10.49,1.40
99,80207497,-0.5054,0.5410,0.8735,-19.09,10.24,1.28
100,80212862,-0.5054,0.5410,0.8711,-19.15,9.94,1.10
101,80217499,-0.5073,0.5498,0.8599,-19.27,9.51,0.98
102,80222898,-0.5039,0.5479,0.8667,-19.45,9.21,0.85
103,80227497,-0.4976,0.5532,0.8599,-19.70,8.84,0.98
104,80232499,-0.4951,0.5483,0.8540,-19.88,8.29,1.04
105,80237499,-0.4902,0.5479,0.8564,-19.76,7.99,1.22
106,80242687,-0.4844,0.5488,0.8530,-19.33,7.74,1.34
107,80247497,-0.4810,0.5474,0.8472,-18.66,7.44,1.77
108,80252501,-0.4829,0.5483,0.8540,-17.62,7.07,1.95
109,80257497,-0.4854,0.5518,0.8560,-16.34,7.01,2.38
110,80262499,-0.4824,0.5503,0.8521,-15.00,6.95,2.80
111,80267497,-0.4819,0.5493,0.8564,-13.48,6.77,3.11
112,80272497,-0.4761,0.5503,0.8525,-11.77,6.71,3.54
113,80277501,-0.4819,0.5459,0.8521,-10.12,6.83,3.90
114,80282498,-0.4800,0.5454,0.8525,-8.54,6.95,4.39
115,80287500,-0.4712,0.5474,0.8496,-7.13,7.07,4.70
116,80292497,-0.4707,0.5459,0.8525,-5.91,7.13,5.12
117,80297501,-0.4653,0.5449,0.8433,-5.06,7.26,5.43
118,80302497,-0.4604,0.5498,0.8354,-4.45,7.44,5.61
119,80307497,-0.4561,0.5464,0.8447,-4.39,7.68,5.98
120,80312499,-0.4526,0.5518,0.8345,-4.63,7.93,6.16
121,80317845,-0.4497,0.5513,0.8359,-5.43,8.11,6.34
122,80322498,-0.4487,0.5537,0.8384,-6.46,8.48,6.40
123,80327514,-0.4453,0.5566,0.8384,-7.93,8.96,6.46
124,80332497,-0.4395,0.5625,0.8325,-9.63,9.09,6.40
125,80337499,-0.4331,0.5688,0.8286,-11.59,9.70,6.46
126,80342778,-0.4248,0.5693,0.8271,-13.48,9.88,6.40
127,80347497,-0.4170,0.5688,0.8237,-15.49,10.30,6.40
128,80352499,-0.4175,0.5693,0.8198,-17.13,10.73,6.34
129,80357621,-0.4160,0.5747,0.8169,-18.48,11.10,6.28
130,80362502,-0.4111,0.5806,0.8223,-19.70,11.52,6.28
131,80367497,-0.4097,0.5791,0.8213,-20.67,11.77,6.28
132,80372497,-0.4106,0.5913,0.8223,-21.16,12.26,6.46
133,80377502,-0.4146,0.5898,0.8188,-21.52,12.68,6.34
134,80382497,-0.4126,0.5938,0.8218,-21.59,13.05,6.59
135,80387898,-0.4141,0.5947,0.8218,-21.28,13.41,6.77
136,80392499,-0.4116,0.6006,0.8208,-20.98,13.78,6.95
137,80397498,-0.4126,0.6060,0.8174,-20.37,13.96,7.26
138,80402497,-0.4102,0.6050,0.8262,-19.45,14.45,7.68
139,80407499,-0.4175,0.6123,0.8247,-18.35,14.88,7.99
140,80412560,-0.4175,0.6084,0.8198,-17.07,15.24,8.48
141,80417787,-0.4194,0.6143,0.8281,-15.67,15.67,9.02
142,80422499,-0.4175,0.6133,0.8296,-14.27,16.10,9.70
143,80427498,-0.4209,0.6152,0.8218,-12.80,16.46,10.37
144,80432497,-0.4238,0.6191,0.8198,-11.59,16.71,11.22
145,80437497,-0.4224,0.6221,0.8252,-10.30,17.01,11.95
146,80442499,-0.4272,0.6245,0.8232,-9.02,17.44,12.74
147,80447499,-0.4287,0.6255,0.8281,-7.93,17.80,13.78
148,80452498,-0.4282,0.6245,0.8267,-6.83,18.05,14.70
149,80457500,-0.4336,0.6265,0.8276,-5.85,18.23,15.79
150,80462498,-0.4341,0.6294,0.8271,-5.00,18.72,16.89
151,80467499,-0.4321,0.6255,0.8369,-4.33,18.96,18.11
152,80472498,-0.4399,0.6323,0.8296,-3.78,19.15,19.21
153,80477500,-0.4370,0.6338,0.8354,-3.41,19.45,20.43
154,80482498,-0.4390,0.6338,0.8306,-3.54,19.45,21.83
155,80487499,-0.4478,0.6313,0.8340,-3.66,19.70,23.11
156,80492703,-0.4536,0.6357,0.8384,-4.09,19.70,24.45
157,80497499,-0.4580,0.6357,0.8374,-4.82,19.82,25.79
158,80502497,-0.4639,0.6372,0.8320,-5.79,19.76,27.26
159,80507499,-0.4609,0.6392,0.8320,-7.01,19.70,28.60
160,80512499,-0.4648,0.6396,0.8389,-8.35,19.57,30.06
161,80517498,-0.4712,0.6450,0.8335,-9.94,19.57,31.34
162,80522499,-0.4731,0.6484,0.8354,-11.52,19.45,32.74
163,80527502,-0.4775,0.6475,0.8350,-13.29,19.39,34.09
164,80532561,-0.4824,0.6440,0.8394,-15.06,19.39,35.43
165,80537499,-0.4775,0.6455,0.8384,-16.83,19.51,36.71
166,80542502,-0.4766,0.6465,0.8315,-18.60,19.45,38.29
167,80547499,-0.4780,0.6475,0.8340,-20.18,19.39,39.70
168,80552505,-0.4800,0.6484,0.8330,-21.71,19.51,41.04
169,80557500,-0.4785,0.6479,0.8320,-22.99,19.57,42.50
170,80562499,-0.4878,0.6479,0.8364,-24.21,19.63,43.90
171,80568036,-0.4883,0.6450,0.8335,-25.30,19.82,45.43
172,80572502,-0.4878,0.6416,0.8384,-26.16,20.06,47.07
173,80577564,-0.4951,0.6416,0.8389,-26.89,20.12,48.66
174,80582499,-0.4985,0.6343,0.8408,-27.26,20.49,50.49
175,80587497,-0.5005,0.6313,0.8394,-27.87,20.67,52.20
176,80592499,-0.5044,0.6328,0.8379,-28.17,20.85,53.60
177,80597499,-0.5044,0.6270,0.8345,-28.66,21.28,55.73
178,80602500,-0.5054,0.6274,0.8335,-29.21,21.40,57.20
179,80607499,-0.5039,0.6206,0.8311,-29.70,21.65,58.96
180,80612502,-0.5054,0.6221,0.8301,-30.30,22.01,60.73
181,80617499,-0.5029,0.6196,0.8301,-31.04,22.26,62.32
182,80622497,-0.5083,0.6240,0.8262,-31.77,22.44,64.02
183,80628077,-0.5137,0.6221,0.8286,-32.80,22.99,65.98
184,80632506,-0.5146,0.6206,0.8350,-33.48,22.99,67.13
185,80637499,-0.5190,0.6255,0.8271,-34.27,23.48,68.60
186,80642499,-0.5234,0.6211,0.8315,-35.24,23.84,70.37
187,80647499,-0.5298,0.6177,0.8296,-35.73,24.09,71.65
188,80652499,-0.5347,0.6177,0.8320,-36.40,24.15,73.11
189,80657672,-0.5327,0.6191,0.8311,-36.83,24.45,74.70
190,80662499,-0.5400,0.6211,0.8325,-37.07,24.70,75.79
191,80667499,-0.5454,0.6235,0.8345,-37.20,24.88,77.26
192,80672499,-0.5508,0.6265,0.8286,-37.38,24.88,78.54
193,80677824,-0.5522,0.6240,0.8223,-37.26,24.82,80.00
194,80682904,-0.5508,0.6255,0.8350,-37.01,25.06,81.16
195,80687499,-0.5513,0.6318,0.8359,-36.59,25.24,82.07
196,80692499,-0.5459,0.6279,0.8374,-35.61,24.94,83.41
197,80697499,-0.5469,0.6201,0.8403,-34.88,24.88,84.27
198,80702950,-0.5557,0.6172,0.8364,-33.48,24.76,85.43
199,80707499,-0.5601,0.6240,0.8359,-32.32,24.63,86.28
200,80712568,-0.5674,0.6270,0.8467,-30.85,24.33,87.20
201,80717800,-0.5747,0.6255,0.8506,-28.84,24.02,87.44
202,80722498,-0.5771,0.6172,0.8477,-27.44,23.90,88.60
203,80727499,-0.5830,0.6069,0.8477,-25.55,23.72,89.45
204,80732991,-0.5771,0.6074,0.8535,-23.23,23.48,90.37
205,80737499,-0.5762,0.6021,0.8501,-21.71,23.48,91.10
206,80742498,-0.5708,0.6045,0.8521,-19.82,23.35,91.95
207,80747497,-0.5635,0.6064,0.8530,-17.62,23.11,92.68
208,80752500,-0.5571,0.6094,0.8555,-16.28,22.99,93.29
209,80757499,-0.5562,0.6050,0.8525,-14.76,22.68,93.78
210,80762499,-0.5527,0.5986,0.8584,-13.29,22.62,94.45
211,80767666,-0.5508,0.5942,0.8574,-11.89,22.38,95.24
212,80772499,-0.5488,0.5889,0.8467,-11.16,22.01,95.67
213,80777499,-0.5493,0.5884,0.8501,-10.37,21.71,96.22
214,80782733,-0.5469,0.5815,0.8408,-9.63,21.28,96.77
215,80787499,-0.5400,0.5884,0.8335,-9.09,20.91,97.20
216,80792499,-0.5396,0.5850,0.8271,-8.66,20.55,97.74
217,80797499,-0.5342,0.5796,0.8354,-8.05,20.18,98.11
218,80802608,-0.5288,0.5776,0.8335,-7.44,19.70,98.60
219,80807657,-0.5269,0.5737,0.8276,-6.65,19.39,98.72
220,80812499,-0.5264,0.5679,0.8315,-5.91,19.27,99.02
221,80817499,-0.5278,0.5679,0.8315,-5.37,19.02,99.21
222,80822499,-0.5220,0.5649,0.8306,-4.88,18.90,99.33
223,80827499,-0.5156,0.5557,0.8301,-4.27,18.96,99.51
224,80832499,-0.5117,0.5566,0.8311,-4.21,19.15,99.57
225,80837500,-0.5034,0.5483,0.8315,-4.02,19.27,99.63
226,80842499,-0.5024,0.5449,0.8262,-4.02,19.27,99.57
227,80847497,-0.4956,0.5430,0.8262,-4.21,19.57,99.51
228,80852838,-0.4907,0.5352,0.8262,-4.76,19.82,99.39
229,80857499,-0.4839,0.5308,0.8267,-5.12,19.82,99.45
230,80862930,-0.4834,0.5234,0.8105,-5.73,20.24,99.21
231,80867499,-0.4780,0.5249,0.8140,-6.22,20.30,98.96
232,80872499,-0.4741,0.5186,0.8047,-6.95,20.55,98.84
233,80877499,-0.4717,0.5122,0.8003,-7.74,20.73,98.54
234,80882614,-0.4668,0.5078,0.7988,-8.78,20.91,98.23
235,80887499,-0.4644,0.5059,0.7959,-9.76,21.04,97.93
236,80892498,-0.4531,0.5068,0.7866,-10.91,21.28,97.44
237,80897502,-0.4512,0.4980,0.7886,-11.95,21.34,96.89
238,80902979,-0.4458,0.4995,0.7910,-13.11,21.71,96.22
239,80907499,-0.4458,0.5010,0.7969,-13.84,21.89,95.61
240,80912499,-0.4399,0.4932,0.7954,-14.63,22.13,94.94
241,80917499,-0.4316,0.4873,0.8062,-15.61,22.38,94.21
242,80922499,-0.4253,0.4873,0.8052,-16.16,22.68,93.72
243,80927499,-0.4170,0.4805,0.8125,-16.77,23.05,93.05
244,80932823,-0.4062,0.4775,0.8105,-17.74,23.23,92.20
245,80937499,-0.4097,0.4829,0.8081,-18.41,23.17,91.59
246,80942499,-0.4106,0.4785,0.8247,-19.51,23.48,90.91
247,80947499,-0.4097,0.4868,0.8198,-20.61,23.41,89.88
248,80952732,-0.3999,0.4858,0.8120,-21.71,23.48,89.09
249,80957499,-0.3989,0.4863,0.8110,-22.93,23.41,88.11
250,80962499,-0.3940,0.4839,0.8086,-24.02,23.35,86.89
251,80967595,-0.3867,0.4844,0.8057,-24.94,23.23,86.34
252,80972500,-0.3779,0.4814,0.8037,-25.55,22.99,85.79
253,80977499,-0.3701,0.4800,0.8013,-26.04,22.87,84.57
254,80982499,-0.3672,0.4780,0.8120,-26.22,22.74,83.11
255,80987499,-0.3623,0.4795,0.8105,-26.10,22.80,82.07
256,80992719,-0.3535,0.4819,0.8096,-25.91,22.87,80.55
257,80997499,-0.3452,0.4854,0.8164,-25.67,22.87,79.27
258,81002499,-0.3379,0.4854,0.8145,-25.30,23.17,77.44
259,81007499,-0.3320,0.4873,0.8281,-25.24,23.41,76.22
260,81012499,-0.3271,0.4878,0.8257,-25.12,23.78,74.70
261,81017499,-0.3174,0.4800,0.8267,-25.12,24.21,72.99
262,81022499,-0.3057,0.4893,0.8374,-25.06,24.57,71.34
263,81027768,-0.3052,0.4849,0.8340,-25.37,25.00,69.57
264,81032499,-0.2944,0.4941,0.8330,-25.67,25.55,67.87
265,81037499,-0.3013,0.4971,0.8428,-26.10,26.10,66.10
266,81042499,-0.2944,0.4966,0.8364,-26.52,26.59,64.39
267,81047498,-0.2905,0.5005,0.8438,-26.89,27.07,62.74
268,81052499,-0.2842,0.4946,0.8369,-27.26,27.74,61.04
269,81057499,-0.2788,0.4971,0.8408,-27.44,28.17,59.33
270,81062724,-0.2715,0.5039,0.8413,-27.68,28.72,57.80
271,81067499,-0.2671,0.5034,0.8423,-27.50,29.21,56.16
272,81072499,-0.2549,0.5059,0.8447,-26.83,29.45,54.57
273,81077498,-0.2510,0.5078,0.8501,-25.85,29.94,53.11
274,81082680,-0.2515,0.5083,0.8623,-24.45,30.12,51.65
275,81087499,-0.2500,0.5103,0.8677,-22.74,30.61,50.18
276,81092502,-0.2510,0.5117,0.8696,-20.43,30.98,48.66
277,81097499,-0.2471,0.5093,0.8721,-18.66,31.10,47.62
278,81102499,-0.2490,0.5161,0.8848,-16.22,31.28,46.34
279,81107499,-0.2471,0.5142,0.8789,-14.45,31.28,45.61
280,81112499,-0.2422,0.5190,0.8877,-11.89,31.59,44.27
281,81117499,-0.2393,0.5225,0.8877,-10.12,31.71,43.54
282,81122884,-0.2349,0.5283,0.8984,-8.05,31.71,42.62
283,81127500,-0.2388,0.5293,0.9004,-5.85,31.59,41.65
284,81132499,-0.2329,0.5337,0.8970,-4.09,31.52,40.85
285,81137627,-0.2339,0.5308,0.9014,-2.74,31.46,40.18
286,81142499,-0.2368,0.5381,0.8999,-1.89,31.40,39.33
287,81147499,-0.2373,0.5386,0.9126,-1.46,31.22,38.60
288,81152499,-0.2319,0.5469,0.9106,-1.83,30.67,37.62
289,81157500,-0.2290,0.5527,0.9102,-2.56,30.00,37.07
290,81162499,-0.2261,0.5596,0.9121,-4.09,29.45,36.28
291,81167499,-0.2251,0.5615,0.9160,-6.16,28.78,35.55
292,81172619,-0.2173,0.5688,0.9141,-8.78,27.93,34.88
293,81177704,-0.2173,0.5771,0.9185,-11.71,27.07,34.02
294,81182499,-0.2202,0.5840,0.9268,-15.00,26.04,33.35
295,81187499,-0.2158,0.5913,0.9292,-18.29,25.06,32.62
296,81192498,-0.2158,0.5938,0.9375,-21.59,23.90,31.95
297,81197953,-0.2144,0.6021,0.9370,-24.45,22.80,31.40
298,81202499,-0.2061,0.6094,0.9380,-26.89,21.65,30.98
299,81207499,-0.2056,0.6138,0.9448,-28.96,20.55,30.67
300,81212499,-0.2041,0.6152,0.9546,-30.55,19.51,30.37
301,81217499,-0.1978,0.6216,0.9619,-31.65,18.66,30.24
302,81222499,-0.2026,0.6255,0.9624,-32.32,17.74,30.12
303,81227958,-0.2002,0.6353,0.9746,-32.56,16.59,30.00
304,81232499,-0.2021,0.6416,0.9849,-32.44,15.55,30.00
305,81237503,-0.2070,0.6479,0.9883,-31.95,14.76,30.06
306,81242500,-0.2119,0.6558,0.9951,-31.46,13.84,30.06
307,81247499,-0.2144,0.6606,0.9927,-30.85,12.74,30.06
308,81252731,-0.2202,0.6670,1.0029,-30.00,11.59,30.06
309,81257499,-0.2231,0.6709,0.9990,-29.27,10.43,30.06
310,81262503,-0.2314,0.6758,1.0068,-28.66,9.39,30.06
311,81267499,-0.2373,0.6777,1.0088,-28.23,8.05,29.94
312,81272499,-0.2412,0.6851,1.0122,-27.99,6.77,29.82
313,81277499,-0.2402,0.6851,1.0127,-27.87,5.49,29.57
314,81282499,-0.2378,0.6899,1.0103,-27.74,4.15,29.27
315,81287604,-0.2358,0.6934,1.0098,-27.87,2.74,28.72
316,81292699,-0.2349,0.6909,1.0073,-27.74,1.52,28.35
317,81297499,-0.2305,0.6914,1.0093,-27.44,0.00,27.74
318,81303056,-0.2295,0.6924,1.0088,-27.07,-1.28,27.13
319,81307499,-0.2271,0.6899,0.9971,-26.16,-2.50,26.65
320,81312499,-0.2280,0.6860,0.9941,-25.30,-3.78,25.98
321,81317499,-0.2300,0.6826,0.9902,-24.09,-5.06,25.49
322,81322499,-0.2339,0.6831,0.9888,-22.62,-6.46,24.94
323,81327865,-0.2349,0.6846,0.9844,-21.04,-7.74,24.33
324,81332499,-0.2388,0.6772,0.9805,-19.45,-9.09,23.78
325,81337502,-0.2373,0.6787,0.9775,-17.56,-10.67,23.23
326,81342498,-0.2339,0.6772,0.9722,-15.49,-12.20,22.80
327,81347498,-0.2378,0.6719,0.9775,-13.17,-13.54,22.38
328,81352497,-0.2373,0.6689,0.9692,-10.98,-15.06,21.83
329,81357499,-0.2373,0.6714,0.9658,-8.54,-16.40,21.52
330,81362743,-0.2344,0.6655,0.9639,-6.04,-17.93,21.28
331,81367498,-0.2310,0.6577,0.9648,-3.54,-18.96,20.73
332,81372962,-0.2275,0.6499,0.9517,-0.85,-20.37,20.49
333,81377499,-0.2261,0.6484,0.9556,1.77,-21.71,20.12
334,81382498,-0.2236,0.6465,0.9507,4.21,-22.87,19.94
335,81387500,-0.2212,0.6440,0.9551,6.71,-24.09,19.70
336,81392499,-0.2202,0.6372,0.9492,9.09,-25.24,19.51
337,81397499,-0.2183,0.6353,0.9482,11.22,-26.22,19.45
338,81402708,-0.2158,0.6313,0.9458,13.23,-27.50,19.27
339,81407499,-0.2153,0.6294,0.9424,14.94,-28.41,19.15
340,81412499,-0.2100,0.6274,0.9429,16.28,-29.39,19.15
341,81417499,-0.2070,0.6240,0.9365,17.32,-30.24,18.96
342,81422503,-0.2031,0.6255,0.9390,18.17,-31.16,18.96
343,81427499,-0.1963,0.6216,0.9375,18.60,-32.01,18.66
344,81432499,-0.1890,0.6240,0.9360,18.96,-32.62,18.41
345,81437499,-0.1851,0.6196,0.9351,18.96,-33.11,17.99
346,81442499,-0.1802,0.6206,0.9360,18.96,-33.54,17.68
347,81447499,-0.1743,0.6133,0.9385,18.84,-33.90,17.32
348,81452502,-0.1738,0.6118,0.9355,18.60,-34.09,16.89
349,81457499,-0.1709,0.6094,0.9429,18.35,-34.33,16.52
350,81462499,-0.1650,0.6064,0.9355,17.93,-34.51,16.22
351,81467499,-0.1626,0.6011,0.9375,17.13,-34.39,15.79
352,81472499,-0.1646,0.6040,0.9385,16.40,-34.57,15.43
353,81477782,-0.1665,0.6025,0.9341,15.37,-34.57,15.18
354,81482499,-0.1650,0.6045,0.9370,14.21,-34.82,14.88
355,81487499,-0.1611,0.6079,0.9316,12.99,-34.82,14.45
356,81492500,-0.1621,0.6084,0.9326,11.46,-35.06,14.21
357,81497499,-0.1587,0.6128,0.9229,9.94,-35.24,13.84
358,81502499,-0.1523,0.6182,0.9355,8.54,-35.49,13.35
359,81507499,-0.1489,0.6182,0.9258,7.01,-35.61,12.93
360,81512499,-0.1392,0.6172,0.9229,5.67,-35.55,12.50
361,81517499,-0.1304,0.6216,0.9277,4.45,-35.55,12.01
362,81522499,-0.1245,0.6226,0.9272,3.17,-35.55,11.52
363,81527499,-0.1201,0.6265,0.9219,1.95,-35.49,10.98
364,81532499,-0.1187,0.6270,0.9160,1.04,-35.61,10.67
365,81537499,-0.1162,0.6255,0.9097,0.24,-35.55,10.30
366,81542499,-0.1113,0.6206,0.9062,-0.18,-35.49,9.94
367,81547500,-0.1118,0.6226,0.9053,-0.61,-35.67,9.76
368,81552665,-0.1167,0.6182,0.8989,-0.55,-35.67,9.70
369,81557499,-0.1143,0.6206,0.9019,-0.24,-35.85,9.70
370,81562499,-0.1089,0.6201,0.8940,0.37,-36.10,9.88
371,81567499,-0.1079,0.6250,0.8921,1.28,-36.16,9.94
372,81572595,-0.1016,0.6284,0.8882,2.44,-36.22,10.12
373,81577695,-0.0996,0.6348,0.9033,3.78,-36.28,10.18
374,81582499,-0.0942,0.6353,0.9053,5.49,-36.22,10.49
375,81587499,-0.0918,0.6357,0.9014,7.07,-36.22,10.61
376,81592500,-0.0859,0.6431,0.9033,8.90,-36.22,10.79
377,81597499,-0.0801,0.6455,0.9038,10.61,-36.04,10.98
378,81602763,-0.0781,0.6514,0.9058,12.50,-35.98,11.10
379,81607499,-0.0737,0.6606,0.9141,14.02,-35.67,11.22
380,81612499,-0.0742,0.6650,0.9170,15.37,-35.30,11.46
381,81617720,-0.0713,0.6753,0.9160,16.46,-35.12,11.59
382,81622499,-0.0723,0.6772,0.9219,17.01,-34.82,11.89
383,81627499,-0.0654,0.6919,0.9297,17.80,-34.45,11.83
384,81632498,-0.0640,0.6968,0.9292,18.17,-34.27,12.07
385,81637497,-0.0591,0.7051,0.9448,18.05,-33.90,12.32
386,81642499,-0.0532,0.7173,0.9448,17.93,-33.66,12.50
387,81647499,-0.0474,0.7236,0.9453,17.44,-33.48,12.68
388,81652498,-0.0356,0.7334,0.9575,16.65,-33.29,12.99
389,81657500,-0.0283,0.7422,0.9639,15.79,-33.23,13.17
390,81662498,-0.0176,0.7461,0.9746,14.94,-33.23,13.48
391,81667499,-0.0005,0.7549,0.9741,14.15,-33.29,13.66
392,81672615,0.0112,0.7598,0.9780,13.41,-33.29,14.09
393,81677638,0.0239,0.7617,0.9834,13.17,-33.41,14.45
394,81682863,0.0342,0.7603,0.9932,13.11,-33.23,14.76
395,81687499,0.0425,0.7603,0.9946,13.35,-33.29,15.06
396,81692501,0.0483,0.7661,0.9946,13.60,-33.05,15.30
397,81697798,0.0527,0.7700,0.9976,14.09,-33.35,15.73
398,81702499,0.0537,0.7812,0.9941,14.33,-33.35,16.10
399,81707499,0.0537,0.7798,0.9941,14.57,-33.78,16.59
400,81712499,0.0513,0.7803,0.9897,14.51,-34.09,16.83
401,81717499,0.0566,0.7832,0.9941,14.27,-34.88,17.32
402,81722499,0.0586,0.7876,0.9912,13.90,-35.43,17.68
403,81727499,0.0527,0.7925,0.9980,13.17,-36.22,18.17
404,81732499,0.0571,0.7969,0.9893,12.38,-37.07,18.78
405,81737748,0.0586,0.7979,0.9927,11.34,-38.54,19.39
406,81742499,0.0615,0.8022,0.9956,10.67,-39.51,19.94
407,81747499,0.0640,0.8047,0.9937,9.63,-41.16,20.61
408,81752500,0.0674,0.8042,0.9927,9.09,-42.38,21.10
409,81757499,0.0708,0.8062,1.0000,8.41,-43.78,21.83
410,81762499,0.0713,0.8086,0.9946,7.93,-45.24,22.44
411,81767498,0.0684,0.8062,0.9966,7.56,-46.71,23.23
412,81772499,0.0674,0.8052,0.9888,7.44,-48.35,24.15
413,81777735,0.0684,0.8013,0.9878,7.99,-50.18,25.24
414,81782499,0.0684,0.7964,0.9790,8.60,-51.52,26.10
415,81787499,0.1016,0.7900,0.9565,9.51,-53.17,27.20
416,81792499,0.0928,0.7974,0.9834,9.76,-55.00,28.29
417,81797500,0.0527,0.7935,0.9893,10.37,-56.52,29.27
418,81802499,0.0200,0.7686,0.9775,11.52,-58.05,30.43
419,81807861,0.0337,0.7666,0.9756,13.29,-60.00,32.32
420,81812499,0.0542,0.7690,0.9595,14.51,-61.52,33.48
421,81817499,0.0664,0.7720,0.9658,16.28,-62.93,34.94
422,81822499,0.0723,0.7808,0.9619,17.93,-64.33,36.28
423,81827500,0.0742,0.7866,0.9644,19.88,-65.98,37.56
424,81832499,0.0771,0.7817,0.9556,21.28,-66.89,38.35
425,81837499,0.0835,0.7817,0.9600,22.99,-67.87,39.45
426,81842500,0.0898,0.7812,0.9478,24.63,-68.66,40.24
427,81847617,0.0991,0.7803,0.9419,26.22,-69.51,41.16
428,81852905,0.0981,0.7773,0.9390,27.93,-70.30,42.13
429,81857499,0.1016,0.7729,0.9395,28.84,-70.91,42.74
430,81862500,0.1011,0.7754,0.9360,29.82,-71.59,43.60
431,81867499,0.1006,0.7720,0.9214,30.43,-72.20,44.27
432,81872499,0.0972,0.7651,0.9219,30.85,-73.11,45.00
433,81877499,0.1006,0.7598,0.9146,31.22,-73.84,45.73
434,81882499,0.0991,0.7563,0.9126,31.52,-74.27,46.52
435,81887655,0.1016,0.7524,0.9053,31.71,-74.88,47.20
436,81892499,0.0981,0.7476,0.9048,31.89,-75.30,47.68
437,81897500,0.0991,0.7437,0.8984,32.20,-75.73,48.29
438,81902522,0.1064,0.7373,0.8989,32.26,-75.79,48.78
439,81907498,0.1030,0.7310,0.8970,32.44,-75.79,49.27
440,81912499,0.1025,0.7188,0.9033,32.56,-75.55,49.70
441,81917498,0.1050,0.7051,0.8940,32.68,-75.30,50.18
442,81922976,0.1035,0.6919,0.8892,32.74,-74.88,50.67
443,81927499,0.1055,0.6875,0.8799,32.62,-74.33,51.04
444,81932498,0.1025,0.6797,0.8760,32.26,-73.78,51.40
445,81937498,0.0981,0.6797,0.8794,31.71,-72.99,51.65
446,81942499,0.0991,0.6709,0.8730,30.73,-72.32,51.89
447,81947498,0.0913,0.6655,0.8638,29.70,-71.40,52.07
448,81952499,0.0913,0.6646,0.8662,28.48,-70.55,51.83
449,81957499,0.0986,0.6562,0.8540,27.07,-69.57,51.77
450,81962500,0.0918,0.6533,0.8535,25.85,-68.35,51.46
451,81967498,0.0923,0.6460,0.8486,24.51,-67.38,51.28
452,81972499,0.1001,0.6338,0.8452,23.17,-65.91,50.73
453,81977499,0.0967,0.6289,0.8418,22.38,-64.76,50.49
454,81982499,0.1011,0.6270,0.8364,21.59,-63.60,50.00
455,81987733,0.1045,0.6128,0.8433,21.28,-62.20,49.57
456,81992500,0.1128,0.6011,0.8359,21.04,-60.91,49.21
457,81997499,0.1123,0.5957,0.8257,21.10,-59.57,48.90
458,82002789,0.1177,0.5830,0.8257,21.04,-58.23,48.60
459,82007499,0.1201,0.5757,0.8311,21.22,-57.13,48.29
460,82012502,0.1270,0.5679,0.8438,20.98,-56.10,48.05
461,82017499,0.1338,0.5483,0.8232,20.49,-55.30,47.80
462,82022502,0.1372,0.5391,0.8164,20.12,-54.45,47.62
463,82027497,0.1504,0.5420,0.7979,19.57,-53.72,47.50
464,82032499,0.1626,0.5371,0.7974,19.09,-53.17,47.38
465,82037498,0.1797,0.5239,0.7988,18.66,-52.50,47.20
466,82042737,0.1938,0.5269,0.8076,18.41,-51.83,47.01
467,82047499,0.2144,0.5234,0.8057,18.23,-51.16,46.65
468,82052499,0.2373,0.5273,0.8149,18.11,-50.30,46.52
469,82057654,0.2563,0.5283,0.8179,18.11,-49.70,46.16
470,82062498,0.2676,0.5288,0.8174,17.93,-48.90,45.73
471,82067499,0.2847,0.5332,0.8262,17.56,-47.99,45.24
472,82072498,0.3022,0.5430,0.8379,16.77,-47.26,45.06
473,82077499,0.3203,0.5449,0.8359,15.55,-46.52,44.57
474,82082499,0.3271,0.5356,0.8262,14.02,-46.16,44.27
475,82087588,0.3306,0.5229,0.8213,12.32,-45.73,43.96
476,82092499,0.3286,0.5122,0.8013,10.49,-45.43,43.84
477,82097878,0.3486,0.4951,0.7573,8.35,-45.37,43.72
478,82102500,0.3511,0.5000,0.7534,5.73,-45.49,43.54
479,82107499,0.3071,0.5127,0.7456,2.80,-45.30,43.11
480,82112501,0.2847,0.5078,0.7236,0.24,-45.43,42.87
481,82117501,0.2788,0.5020,0.7256,-1.95,-45.73,42.68
482,82122881,0.3066,0.4966,0.7368,-3.54,-45.61,42.32
483,82127499,0.3066,0.4917,0.7441,-4.39,-45.30,42.20
484,82132879,0.2983,0.4629,0.7471,-4.57,-45.06,42.13
485,82137499,0.2998,0.4448,0.7529,-4.27,-44.76,42.20
486,82142499,0.2939,0.4443,0.7681,-3.54,-44.15,42.56
487,82147498,0.2974,0.4355,0.7622,-2.93,-43.72,42.80
488,82152499,0.2920,0.4307,0.7456,-2.56,-43.11,43.17
489,82157499,0.2969,0.4268,0.7344,-2.01,-42.80,43.54
490,82162860,0.3003,0.4238,0.7261,-1.83,-42.38,43.96
491,82167499,0.3022,0.4204,0.7026,-1.83,-41.89,44.27
492,82172498,0.3101,0.4111,0.6846,-1.95,-41.22,44.51
493,82177799,0.3125,0.3892,0.6704,-2.26,-40.98,44.88
494,82182499,0.2983,0.3892,0.6602,-2.50,-40.49,45.00
495,82187971,0.2832,0.4189,0.6465,-2.93,-39.70,45.00
496,82192498,0.2715,0.4072,0.6431,-3.11,-38.78,44.70
497,82197841,0.3008,0.4365,0.6714,-2.87,-37.87,44.76
498,82202499,0.3433,0.4653,0.6611,-2.56,-37.01,44.57
499,82207501,0.3696,0.4648,0.6382,-2.20,-35.98,44.33
500,82212499,0.3770,0.4380,0.6211,-1.46,-35.24,44.15
501,82217500,0.3794,0.4204,0.6230,-0.43,-34.21,43.96
502,82222499,0.3921,0.4136,0.6099,1.10,-32.87,43.41
503,82227499,0.4058,0.4238,0.6089,2.74,-31.46,42.68
504,82232497,0.4277,0.4326,0.6123,4.33,-29.94,41.65
505,82237499,0.4463,0.4429,0.6113,6.16,-28.05,40.55
506,82242497,0.4697,0.4292,0.6040,8.11,-26.59,39.27
507,82247497,0.4854,0.4023,0.6392,9.76,-24.63,37.93
508,82252499,0.4854,0.3965,0.6582,11.22,-22.68,36.77
509,82257498,0.4829,0.3994,0.6772,12.44,-20.61,35.30
510,82262499,0.4966,0.3975,0.7002,13.17,-18.78,33.66
511,82267499,0.5176,0.4048,0.6904,13.72,-16.95,32.01
512,82272500,0.5317,0.4136,0.6885,14.15,-15.49,30.37
513,82277498,0.5371,0.4229,0.6904,14.76,-14.02,28.66
514,82282629,0.5386,0.4414,0.6792,15.43,-12.87,27.07
515,82287499,0.5347,0.4556,0.6572,16.71,-12.01,25.49
516,82292499,0.6455,0.4639,0.5796,17.74,-11.52,23.96
517,82297499,0.6221,0.4834,0.6206,17.50,-11.34,22.44
518,82302504,0.5747,0.4824,0.6426,16.95,-10.91,20.85
519,82307499,0.5376,0.4922,0.6343,16.04,-10.30,19.21
520,82312499,0.5459,0.4937,0.6240,14.76,-9.63,17.50
521,82317925,0.5596,0.4810,0.6382,13.17,-9.02,16.04
522,82322499,0.5518,0.4717,0.6411,11.46,-8.11,14.76
523,82327499,0.5405,0.4810,0.6528,9.70,-7.01,13.54
524,82332939,0.5273,0.4707,0.6396,7.38,-6.10,12.07
525,82337499,0.5405,0.4658,0.6460,4.27,-4.94,10.67
526,82342498,0.5669,0.4893,0.6753,1.22,-3.84,9.27
527,82347499,0.5898,0.5039,0.6514,-1.34,-2.68,7.99
528,82352499,0.5747,0.5239,0.6479,-3.35,-1.71,6.65
529,82357616,0.5640,0.4927,0.6450,-4.27,-0.85,5.37
530,82362499,0.5474,0.4790,0.6948,-4.27,0.49,4.39
531,82367499,0.5889,0.5288,0.7197,-3.23,2.01,3.48
532,82372499,0.5845,0.5493,0.6870,-0.30,3.60,2.20
533,82377499,0.5708,0.5747,0.6733,4.09,5.18,0.79
534,82382903,0.5674,0.5947,0.6948,9.33,6.52,-0.30
535,82387499,0.5649,0.6084,0.7090,15.12,7.93,-1.16
536,82392499,0.5796,0.6060,0.7329,21.22,9.63,-1.71
537,82397499,0.5552,0.6094,0.7500,27.50,11.34,-2.26
538,82402972,0.6187,0.6577,0.7461,33.17,13.11,-2.99
539,82407499,0.5273,0.6250,0.7119,37.87,14.57,-3.72
540,82412498,0.4688,0.6206,0.7021,41.89,15.98,-3.96
541,82417819,0.4526,0.6255,0.7056,45.06,17.20,-4.02
542,82422499,0.4351,0.6118,0.7046,47.56,18.23,-3.96
543,82427499,0.4360,0.6138,0.6772,48.96,19.09,-3.78
544,82432498,0.4424,0.6191,0.6768,50.00,19.70,-3.66
545,82437737,0.4604,0.6396,0.6914,50.24,20.30,-3.60
546,82442499,0.4795,0.6582,0.6973,50.06,21.16,-3.72
547,82447499,0.4907,0.6724,0.7026,49.27,22.20,-4.27
548,82452498,0.4839,0.6870,0.7153,48.23,23.48,-4.82
549,82457499,0.4751,0.6948,0.7202,46.83,24.88,-5.49
550,82462505,0.4683,0.7104,0.7212,45.00,26.34,-6.52
551,82467609,0.4541,0.7275,0.7246,42.87,27.80,-7.93
552,82472499,0.4390,0.7466,0.7324,40.12,29.39,-9.57
553,82477968,0.4570,0.7437,0.7217,36.71,30.73,-11.46
554,82482499,0.4814,0.7275,0.7153,32.80,31.95,-13.17
555,82487499,0.4946,0.7051,0.7080,28.48,32.56,-14.70
556,82492499,0.4971,0.6914,0.6997,23.72,33.17,-15.98
557,82497499,0.4897,0.6938,0.7217,18.84,33.41,-17.01
558,82502500,0.4692,0.7002,0.7769,14.27,34.21,-18.05
559,82507641,0.4888,0.6870,0.7271,10.24,35.37,-18.78
560,82512500,0.4678,0.6978,0.6538,7.01,35.43,-19.15
561,82517499,0.4971,0.6602,0.6689,4.45,34.82,-19.39
562,82522499,0.5161,0.6313,0.6548,2.80,33.96,-19.21
563,82527499,0.5181,0.6123,0.6616,1.95,32.44,-18.66
564,82532575,0.5020,0.6099,0.6606,1.65,30.55,-18.11
565,82537499,0.4917,0.6177,0.6650,2.13,28.60,-17.26
566,82542499,0.4883,0.6279,0.6846,2.93,26.22,-16.46
567,82547497,0.4883,0.6162,0.6929,4.33,23.72,-15.67
568,82552497,0.4795,0.6143,0.7075,6.22,20.67,-14.70
569,82557497,0.4741,0.6084,0.7329,8.41,17.68,-13.78
570,82562499,0.4761,0.6025,0.7520,11.04,14.57,-12.62
571,82567710,0.4722,0.5967,0.7681,13.48,11.34,-11.34
572,82572499,0.4766,0.5903,0.7769,15.73,8.41,-10.06
573,82577499,0.4756,0.5942,0.7886,17.93,5.73,-8.90
574,82582499,0.4897,0.5889,0.7949,19.57,3.17,-7.56
575,82587501,0.4941,0.6006,0.8066,20.61,1.04,-6.40
576,82592499,0.4980,0.6079,0.8096,21.34,-1.04,-5.30
577,82597498,0.5020,0.6152,0.8042,21.46,-2.74,-4.21
578,82602499,0.5088,0.6279,0.8115,21.28,-4.51,-3.23
579,82607607,0.5122,0.6421,0.7993,20.91,-5.91,-2.32
580,82612499,0.5073,0.6538,0.7974,20.49,-7.56,-1.16
581,82617501,0.4951,0.6675,0.8032,20.00,-8.96,0.06
582,82622499,0.4824,0.6821,0.8091,19.63,-10.43,1.28
583,82627499,0.4844,0.6943,0.8047,19.21,-11.83,2.44
584,82632501,0.4834,0.7056,0.8027,18.66,-13.17,3.48
585,82637498,0.4893,0.7217,0.7983,18.17,-14.45,4.39
586,82642501,0.4907,0.7358,0.7974,17.62,-15.91,5.12
587,82647698,0.4946,0.7437,0.7871,17.07,-17.07,5.91
588,82652499,0.4912,0.7549,0.7749,16.89,-18.35,6.34
589,82657499,0.4956,0.7681,0.7725,16.71,-19.39,6.89
590,82662497,0.4961,0.7705,0.7617,16.89,-20.49,7.38
591,82667499,0.5000,0.7793,0.7500,17.50,-21.52,7.87
592,82672805,0.5068,0.7852,0.7334,18.17,-22.38,8.41
593,82677500,0.5088,0.7886,0.7251,18.84,-22.99,8.84
594,82682498,0.5210,0.7925,0.7119,19.88,-23.72,9.39
595,82687497,0.5342,0.7837,0.6865,21.10,-24.45,10.24
596,82692604,0.5381,0.7881,0.6772,22.20,-24.88,10.79
597,82697498,0.5415,0.7876,0.6611,22.93,-25.24,11.40
598,82702499,0.5488,0.7808,0.6470,23.60,-25.24,12.20
599,82707918,0.5591,0.7744,0.6309,24.09,-25.37,13.05
600,82712499,0.5640,0.7705,0.6211,23.96,-25.00,13.72
601,82717547,0.5674,0.7573,0.6045,23.29,-24.82,14.57
602,82722498,0.5732,0.7515,0.5933,22.32,-24.57,15.12
603,82727791,0.5835,0.7402,0.5801,20.55,-23.90,16.10
604,82732499,0.5859,0.7285,0.5752,19.21,-23.41,16.59
605,82737501,0.5859,0.7202,0.5693,17.32,-22.80,17.38
606,82742498,0.5854,0.7100,0.5518,15.37,-22.13,18.11
607,82747505,0.5840,0.7031,0.5449,13.54,-21.40,18.90
608,82752501,0.5801,0.6997,0.5430,12.01,-20.55,19.63
609,82757499,0.5854,0.6914,0.5347,10.67,-19.76,20.55
610,82762499,0.5884,0.6929,0.5356,9.57,-18.84,21.40
611,82767502,0.5903,0.6953,0.5225,8.90,-18.05,22.32
612,82772499,0.5879,0.6958,0.5244,8.41,-17.07,23.17
613,82777498,0.5952,0.6968,0.5210,8.17,-16.16,23.96
614,82782501,0.5967,0.6880,0.5259,8.11,-15.12,24.82
615,82787498,0.6035,0.6846,0.5127,7.99,-13.90,25.61
616,82792502,0.6094,0.6851,0.5068,7.74,-12.80,26.28
617,82797939,0.6177,0.6841,0.5034,7.13,-11.34,26.95
618,82802498,0.6191,0.6812,0.5029,6.52,-10.24,27.13
619,82807502,0.6211,0.6743,0.4907,5.55,-9.02,27.56
620,82812499,0.6289,0.6680,0.4893,4.27,-7.80,27.87
621,82817497,0.6323,0.6641,0.4922,2.87,-6.52,27.99
622,82822498,0.6372,0.6533,0.4922,1.22,-5.12,28.11
623,82827497,0.6421,0.6465,0.4932,-0.37,-3.84,28.29
624,82832500,0.6411,0.6426,0.4995,-2.07,-2.62,28.17
625,82837499,0.6465,0.6338,0.5034,-3.54,-1.28,28.05
626,82842497,0.6519,0.6323,0.5015,-5.00,0.00,27.87
627,82847497,0.6543,0.6211,0.5122,-6.40,1.34,27.80
628,82852501,0.6641,0.6177,0.5171,-7.50,2.56,27.38
629,82857498,0.6704,0.6147,0.5254,-8.54,3.66,27.01
630,82862835,0.6758,0.6074,0.5283,-9.45,5.06,26.65
631,82867499,0.6743,0.6011,0.5322,-9.70,5.91,26.34
632,82872499,0.6782,0.6011,0.5391,-9.82,6.83,25.91
633,82877501,0.6763,0.5977,0.5439,-9.27,7.56,25.37
634,82882499,0.6826,0.6001,0.5498,-8.17,8.35,24.94
635,82887499,0.6904,0.5972,0.5581,-6.52,8.96,24.51
636,82892498,0.6997,0.6040,0.5669,-4.39,9.63,24.02
637,82897720,0.7046,0.6099,0.5801,-1.52,10.37,23.54
638,82902499,0.7021,0.6138,0.5859,0.49,10.79,23.11
639,82907612,0.6987,0.6177,0.5874,3.29,11.34,22.62
640,82912499,0.6978,0.6235,0.6006,4.82,11.65,22.26
641,82917499,0.6973,0.6211,0.6035,6.34,11.89,21.83
642,82922498,0.6929,0.6255,0.6128,7.20,11.95,21.46
643,82927497,0.6875,0.6279,0.6182,7.44,11.83,20.91
644,82932501,0.6831,0.6270,0.6147,7.01,11.89,20.43
645,82937499,0.6787,0.6230,0.6260,5.85,11.77,19.94
646,82942499,0.6738,0.6216,0.6343,4.09,11.59,19.33
647,82947500,0.6729,0.6152,0.6426,1.77,11.34,18.78
648,82952656,0.6743,0.6143,0.6523,-0.79,11.10,18.29
649,82957499,0.6655,0.6094,0.6533,-3.72,10.73,17.74
650,82962497,0.6611,0.6006,0.6592,-6.52,10.30,17.26
651,82967500,0.6543,0.5996,0.6582,-9.15,9.63,16.89
652,82972499,0.6519,0.5977,0.6597,-11.22,9.09,16.34
653,82977770,0.6499,0.5894,0.6548,-12.87,8.60,16.04
654,82982499,0.6436,0.5923,0.6602,-13.96,8.05,15.73
655,82987954,0.6392,0.5947,0.6602,-14.45,7.38,15.37
656,82992499,0.6382,0.5933,0.6675,-14.45,6.89,15.18
657,82997499,0.6284,0.5913,0.6626,-13.78,6.46,14.88
658,83002500,0.6221,0.5903,0.6562,-12.62,5.85,14.76
659,83007750,0.6123,0.5776,0.6597,-10.85,5.30,14.57
660,83012499,0.6108,0.5762,0.6646,-8.84,4.82,14.57
661,83017499,0.6084,0.5786,0.6646,-6.71,4.21,14.51
662,83022499,0.6055,0.5771,0.6621,-4.39,3.66,14.33
663,83027499,0.6045,0.5776,0.6631,-2.32,3.41,14.21
664,83032499,0.6006,0.5825,0.6597,-0.49,2.87,14.09
665,83037878,0.5996,0.5889,0.6553,1.28,2.44,13.84
666,83042499,0.6011,0.5933,0.6543,2.26,2.01,13.66
667,83047498,0.5981,0.5967,0.6494,3.35,1.65,13.48
668,83052499,0.6001,0.5981,0.6514,4.09,1.16,13.17
669,83057499,0.6055,0.5977,0.6519,4.82,0.98,12.99
670,83062499,0.6011,0.6021,0.6479,5.37,0.55,12.74
671,83067498,0.5986,0.6050,0.6387,5.49,0.30,12.56
672,83072499,0.5918,0.6045,0.6372,5.55,-0.06,12.38
673,83077497,0.5942,0.6035,0.6377,5.18,-0.49,12.26
674,83082499,0.5894,0.6064,0.6226,5.00,-0.73,12.26
675,83087498,0.5864,0.6055,0.6211,4.63,-1.10,12.20
676,83092547,0.5850,0.6030,0.6128,4.45,-1.65,12.20
677,83097809,0.5889,0.5996,0.6025,4.15,-1.83,12.26
678,83102500,0.5859,0.5962,0.6021,4.21,-2.20,12.38
679,83107871,0.5850,0.5957,0.5933,4.45,-2.50,12.38
680,83112499,0.5781,0.5986,0.5840,4.70,-2.68,12.56
681,83117899,0.5845,0.5972,0.5757,5.30,-2.87,12.56
682,83122499,0.5845,0.5942,0.5723,6.04,-3.11,12.56
683,83127499,0.5864,0.5898,0.5737,7.01,-3.23,12.50
684,83132499,0.5850,0.5898,0.5645,8.11,-3.05,12.32
685,83137499,0.5869,0.5923,0.5649,9.15,-2.80,12.20
686,83142659,0.5957,0.6011,0.5688,10.24,-2.50,11.95
687,83147499,0.5972,0.6016,0.5698,11.10,-2.07,11.46
688,83152499,0.5986,0.6050,0.5723,11.77,-1.65,10.98
689,83157499,0.5986,0.5977,0.5669,12.38,-1.04,10.49
690,83162497,0.6099,0.6011,0.5767,12.50,-0.55,9.88
691,83167500,0.6104,0.6035,0.5840,12.56,0.06,9.15
692,83172499,0.6133,0.6050,0.5933,12.44,0.85,8.35
693,83177498,0.6128,0.6089,0.6030,12.20,1.52,7.44
694,83182497,0.6152,0.6118,0.6025,11.71,2.50,6.59
695,83187501,0.6167,0.6167,0.6021,11.10,3.29,5.55
696,83192498,0.6157,0.6104,0.6113,10.61,3.90,5.00
697,83197499,0.6133,0.6099,0.6123,10.00,4.45,4.39
698,83202499,0.6147,0.6074,0.6211,9.27,5.24,3.72
699,83207504,0.6079,0.6064,0.6230,8.41,6.04,3.23
700,83212499,0.6060,0.5986,0.6309,7.38,6.65,2.80
701,83217500,0.6079,0.5933,0.6304,6.16,7.56,2.38
702,83222500,0.6108,0.5820,0.6333,4.88,8.35,2.01
703,83227498,0.6104,0.5732,0.6382,3.66,9.21,1.77
704,83232499,0.6074,0.5610,0.6436,2.44,10.12,1.59
705,83237870,0.6084,0.5547,0.6499,1.22,11.22,1.59
706,83242501,0.6113,0.5479,0.6504,-0.06,12.44,1.52
707,83247498,0.6099,0.5435,0.6587,-1.28,13.41,1.59
708,83252499,0.6055,0.5410,0.6704,-2.56,14.51,1.77
709,83257499,0.5991,0.5391,0.6680,-3.66,15.61,1.95
710,83262498,0.6001,0.5376,0.6714,-4.70,16.65,2.20
711,83267497,0.5962,0.5449,0.6826,-5.61,17.26,2.50
712,83272501,0.5894,0.5522,0.6885,-6.40,18.05,2.80
713,83277915,0.5918,0.5581,0.7017,-7.13,18.48,3.17
714,83282992,0.5835,0.5659,0.7119,-7.74,18.78,3.54
715,83287499,0.5781,0.5752,0.7275,-8.35,18.84,3.84
716,83292501,0.5791,0.5845,0.7334,-9.09,18.84,4.15
717,83297499,0.5757,0.5923,0.7417,-9.51,18.78,4.70
718,83302498,0.5679,0.6025,0.7495,-10.06,18.35,5.00
719,83307501,0.5649,0.6035,0.7559,-10.49,17.93,5.30
720,83312499,0.5635,0.6060,0.7656,-10.61,17.32,5.67
721,83317499,0.5591,0.6074,0.7690,-10.37,16.59,6.10
722,83322500,0.5479,0.6113,0.7769,-10.06,15.73,6.59
723,83327498,0.5386,0.6108,0.7734,-9.15,14.88,7.20
724,83332499,0.5308,0.6113,0.7773,-7.93,13.84,7.87
725,83337498,0.5234,0.6157,0.7822,-6.22,12.87,8.78
726,83342501,0.5215,0.6250,0.7822,-4.02,11.95,9.51
727,83347652,0.5244,0.6289,0.7798,-1.65,11.16,10.55
728,83352499,0.5254,0.6382,0.7773,1.10,10.24,11.40
729,83357850,0.5303,0.6470,0.7690,4.27,9.57,12.44
730,83362499,0.5356,0.6572,0.7705,7.50,8.96,13.35
731,83367499,0.5386,0.6646,0.7617,10.73,8.23,14.51
732,83372498,0.5405,0.6709,0.7554,13.72,7.44,15.55
733,83377501,0.5410,0.6841,0.7510,16.52,6.71,16.65
734,83382499,0.5464,0.6914,0.7461,18.72,5.98,17.56
735,83387499,0.5498,0.6938,0.7310,20.49,5.18,18.48
736,83392499,0.5557,0.7026,0.7241,21.65,4.39,19.27
737,83397864,0.5605,0.7095,0.7173,22.13,3.41,20.00
738,83402499,0.5708,0.7100,0.7090,22.32,2.62,20.61
739,83407500,0.5742,0.7090,0.6963,22.01,1.89,21.04
740,83412499,0.5884,0.7075,0.6934,21.59,1.10,21.59
741,83417498,0.6011,0.7070,0.6816,20.91,0.49,21.89
742,83422499,0.6104,0.7026,0.6729,20.18,-0.06,22.20
743,83427499,0.6201,0.6992,0.6509,19.57,-0.55,22.50
744,83432498,0.6284,0.6899,0.6372,19.09,-0.67,22.68
745,83437497,0.6436,0.6826,0.6401,18.54,-0.73,22.80
746,83442947,0.6538,0.6704,0.6357,18.23,-0.79,22.99
747,83447499,0.6577,0.6597,0.6353,17.99,-0.67,22.99
748,83452498,0.6665,0.6475,0.6333,17.80,-0.30,23.05
749,83457498,0.6782,0.6309,0.6265,17.62,0.12,22.93
750,83462501,0.6860,0.6157,0.6299,17.50,0.49,22.74
751,83467498,0.6953,0.6021,0.6294,17.44,1.10,22.62
752,83472499,0.7026,0.5884,0.6323,17.38,1.77,22.44
753,83477499,0.7090,0.5752,0.6377,17.38,2.38,22.20
754,83482500,0.7144,0.5591,0.6401,17.32,3.05,21.83
755,83487528,0.7168,0.5464,0.6377,17.32,3.84,21.59
756,83492498,0.7178,0.5312,0.6416,17.26,4.70,21.22
757,83497500,0.7192,0.5137,0.6392,17.07,5.49,20.98
758,83502593,0.7246,0.4990,0.6387,16.65,6.28,20.73
759,83507498,0.7227,0.4912,0.6436,15.98,7.07,20.37
760,83512500,0.7236,0.4790,0.6431,15.06,7.80,20.12
761,83517964,0.7256,0.4727,0.6489,13.66,8.48,19.63
762,83522499,0.7236,0.4658,0.6494,12.32,9.39,19.27
763,83527499,0.7246,0.4585,0.6533,10.79,10.12,18.78
764,83532500,0.7222,0.4575,0.6548,9.21,10.85,18.35
765,83537499,0.7275,0.4521,0.6685,7.56,11.46,17.87
766,83542501,0.7227,0.4487,0.6655,6.16,12.07,17.44
767,83547499,0.7188,0.4536,0.6719,4.82,12.50,16.89
768,83552499,0.7168,0.4517,0.6787,3.78,12.87,16.40
769,83557498,0.7104,0.4590,0.6797,3.11,13.23,15.98
770,83562501,0.7051,0.4595,0.6880,2.87,13.48,15.61
771,83567890,0.7051,0.4634,0.6851,3.05,13.60,15.24
772,83572499,0.7007,0.4668,0.6895,3.54,13.54,14.82
773,83577499,0.6953,0.4790,0.7065,4.51,13.72,14.70
774,83582499,0.6890,0.4854,0.7036,5.61,13.66,14.27
775,83587583,0.6831,0.4937,0.7026,6.95,13.60,14.02
776,83592498,0.6738,0.5039,0.7007,8.48,13.60,13.84
777,83597499,0.6641,0.5107,0.6997,10.00,13.23,13.54
778,83602498,0.6616,0.5146,0.7095,11.52,13.17,13.35
779,83607499,0.6519,0.5210,0.7100,12.87,12.87,13.11
780,83612500,0.6450,0.5269,0.7046,13.96,12.44,12.87
781,83617499,0.6450,0.5361,0.7119,14.88,11.89,12.68
782,83622566,0.6387,0.5469,0.7129,15.67,11.46,12.44
783,83627682,0.6357,0.5552,0.7202,16.16,10.85,12.20
784,83632499,0.6309,0.5605,0.7197,16.52,10.12,12.07
785,83637499,0.6260,0.5630,0.7275,16.95,9.27,11.71
786,83642499,0.6245,0.5718,0.7310,17.32,8.48,11.46
787,83647617,0.6182,0.5767,0.7417,17.56,7.44,11.22
788,83652499,0.6133,0.5771,0.7334,17.93,6.46,10.85
789,83657499,0.6138,0.5840,0.7397,18.23,5.61,10.73
790,83662498,0.6055,0.5786,0.7422,18.41,4.57,10.61
791,83667501,0.5996,0.5791,0.7378,18.41,3.54,10.43
792,83672498,0.5938,0.5806,0.7446,18.23,2.38,10.24
793,83677501,0.5879,0.5781,0.7427,17.80,1.40,10.06
794,83682498,0.5879,0.5762,0.7461,17.01,0.37,9.82
795,83687497,0.5811,0.5757,0.7471,16.04,-0.73,9.70
796,83692906,0.5874,0.5713,0.7446,14.70,-1.89,9.57
797,83697498,0.5830,0.5698,0.7529,13.23,-3.11,9.27
798,83702498,0.5796,0.5645,0.7495,11.40,-4.39,8.96
799,83707499,0.5825,0.5576,0.7461,9.51,-5.67,8.72
800,83712499,0.5825,0.5537,0.7505,7.62,-6.77,8.23
801,83717882,0.5864,0.5518,0.7476,5.67,-8.17,7.93
802,83722499,0.5879,0.5503,0.7559,3.96,-9.57,7.44
803,83727499,0.5923,0.5454,0.7578,2.38,-10.85,7.01
804,83732498,0.5938,0.5449,0.7505,1.04,-12.38,6.34
805,83737497,0.5991,0.5405,0.7544,0.06,-13.66,5.73
806,83742497,0.6021,0.5347,0.7495,-0.37,-14.82,5.12
807,83747497,0.5991,0.5278,0.7500,-0.37,-16.10,4.76
808,83752497,0.6040,0.5225,0.7476,0.24,-17.07,4.21
809,83757499,0.6113,0.5166,0.7485,1.16,-18.05,3.72
810,83762498,0.6157,0.5098,0.7441,2.68,-18.90,3.41
811,83767882,0.6182,0.5073,0.7446,4.15,-19.82,3.11
812,83772499,0.6240,0.5063,0.7441,5.61,-20.18,2.80
813,83777895,0.6289,0.5015,0.7437,7.87,-20.85,2.44
814,83782499,0.6328,0.5029,0.7378,9.33,-21.28,2.07
815,83787498,0.6348,0.5073,0.7358,10.85,-21.77,1.89
816,83792499,0.6411,0.5117,0.7305,12.26,-22.20,1.46
817,83797498,0.6406,0.5151,0.7197,13.41,-22.44,1.10
818,83802499,0.6401,0.5190,0.7158,14.27,-22.87,0.73
819,83807675,0.6421,0.5303,0.7070,14.76,-23.17,0.30
820,83812498,0.6450,0.5376,0.7007,14.76,-23.60,0.00
821,83817501,0.6450,0.5444,0.6958,14.45,-23.84,-0.37
822,83822952,0.6396,0.5503,0.6880,13.60,-24.57,-0.85
823,83827499,0.6401,0.5552,0.6787,12.93,-24.82,-1.04
824,83832499,0.6416,0.5591,0.6753,11.59,-25.43,-1.40
825,83837499,0.6406,0.5635,0.6699,10.67,-25.91,-1.71
826,83842499,0.6367,0.5708,0.6572,9.45,-26.40,-1.89
827,83847499,0.6377,0.5693,0.6509,8.41,-27.01,-2.20
828,83852499,0.6362,0.5645,0.6431,7.32,-27.56,-2.44
829,83857498,0.6377,0.5640,0.6343,6.40,-28.17,-2.56
830,83862499,0.6372,0.5610,0.6279,5.37,-28.78,-2.80
831,83867499,0.6333,0.5615,0.6187,4.45,-29.27,-2.99
832,83872499,0.6348,0.5625,0.6094,3.66,-29.76,-3.17
833,83877498,0.6338,0.5547,0.6001,2.93,-30.30,-3.41
834,83882499,0.6343,0.5493,0.5918,2.20,-30.67,-3.60
835,83887900,0.6348,0.5493,0.5894,1.59,-31.04,-3.96
836,83892499,0.6382,0.5449,0.5898,1.22,-31.22,-4.15
837,83897807,0.6382,0.5430,0.5791,0.61,-31.28,-4.45
838,83902499,0.6377,0.5410,0.5762,0.30,-31.22,-4.70
839,83907500,0.6377,0.5405,0.5737,-0.06,-31.16,-5.00
840,83912500,0.6406,0.5327,0.5679,-0.30,-31.10,-5.18
841,83917860,0.6338,0.5352,0.5586,-0.30,-30.79,-5.49
842,83922499,0.6348,0.5332,0.5581,-0.18,-30.61,-5.79
843,83927524,0.6382,0.5371,0.5586,0.00,-30.30,-6.10
844,83932499,0.6416,0.5356,0.5459,0.49,-29.57,-6.22
845,83937497,0.6392,0.5386,0.5454,1.04,-29.09,-6.59
846,83942497,0.6445,0.5366,0.5391,1.52,-28.35,-6.77
847,83947497,0.6460,0.5342,0.5386,2.13,-27.56,-7.07
848,83952501,0.6484,0.5352,0.5288,2.38,-26.95,-7.26
849,83957498,0.6484,0.5391,0.5293,2.62,-26.10,-7.56
850,83963096,0.6538,0.5400,0.5210,2.68,-25.00,-8.05
851,83967635,0.6582,0.5386,0.5151,2.50,-24.33,-8.35
852,83972499,0.6660,0.5386,0.5171,2.20,-23.41,-8.78
853,83977499,0.6694,0.5420,0.5073,1.71,-22.44,-9.21
854,83982497,0.6660,0.5454,0.5068,1.10,-21.52,-9.76
855,83987498,0.6626,0.5459,0.5029,0.06,-20.12,-10.24
856,83992499,0.6636,0.5469,0.5039,-0.55,-19.33,-10.67
857,83997499,0.6631,0.5566,0.5039,-1.10,-18.17,-11.10
858,84002687,0.6680,0.5610,0.4995,-1.77,-16.77,-11.65
859,84007499,0.6670,0.5669,0.5039,-1.89,-15.91,-12.07
860,84012499,0.6729,0.5659,0.5132,-1.95,-14.63,-12.56
861,84017499,0.6768,0.5679,0.5176,-1.71,-13.35,-12.99
862,84022501,0.6816,0.5713,0.5234,-1.22,-11.71,-13.41
863,84027500,0.6831,0.5713,0.5361,-0.85,-10.85,-13.84
864,84032498,0.6924,0.5752,0.5317,-0.30,-9.70,-14.15
865,84037503,0.6938,0.5801,0.5508,0.24,-8.60,-14.63
866,84042502,0.6968,0.5894,0.5483,0.61,-7.50,-15.00
867,84047503,0.6914,0.6006,0.5503,1.04,-6.71,-15.37
868,84052498,0.7021,0.6064,0.5469,1.22,-6.10,-15.79
869,84057497,0.7061,0.6133,0.5449,1.40,-5.43,-16.22
870,84062497,0.7119,0.6240,0.5415,1.22,-4.76,-16.52
871,84067498,0.7109,0.6362,0.5396,1.04,-4.39,-16.71
872,84072501,0.7173,0.6445,0.5342,0.85,-4.09,-16.95
873,84077697,0.7207,0.6523,0.5371,0.55,-3.90,-17.20
874,84082498,0.7241,0.6606,0.5415,0.24,-3.54,-17.26
875,84087499,0.7266,0.6699,0.5420,-0.12,-3.48,-17.26
876,84092499,0.7280,0.6768,0.5435,-0.61,-3.35,-17.13
877,84097498,0.7290,0.6826,0.5454,-1.04,-3.48,-17.20
878,84102499,0.7261,0.6929,0.5566,-1.46,-3.66,-17.01
879,84107499,0.7231,0.6982,0.5527,-1.95,-3.90,-16.77
880,84112624,0.7256,0.7036,0.5610,-2.38,-4.27,-16.65
881,84117499,0.7188,0.7061,0.5601,-2.74,-4.76,-16.28
882,84122499,0.7114,0.7114,0.5635,-3.05,-5.37,-16.04
883,84127499,0.7100,0.7095,0.5630,-2.93,-5.67,-15.49
884,84132499,0.7026,0.7153,0.5757,-2.56,-6.34,-15.00
885,84137499,0.6953,0.7163,0.5752,-2.13,-7.01,-14.45
886,84142499,0.6890,0.7183,0.5762,-1.34,-7.50,-13.72
887,84147503,0.6792,0.7178,0.5845,0.06,-8.23,-13.05
888,84152499,0.6704,0.7212,0.5942,1.22,-8.84,-12.44
889,84157498,0.6660,0.7246,0.5952,2.56,-9.39,-11.83
890,84162747,0.6582,0.7285,0.5928,4.15,-10.06,-11.04
891,84167499,0.6509,0.7319,0.5864,5.61,-10.67,-10.18
892,84172499,0.6445,0.7397,0.5962,7.26,-11.40,-9.51
893,84177501,0.6460,0.7441,0.5977,8.78,-11.83,-8.84
894,84182499,0.6416,0.7520,0.6016,10.30,-12.44,-7.99
895,84187500,0.6353,0.7515,0.6045,11.16,-12.62,-7.50
896,84192499,0.6357,0.7563,0.6050,11.71,-12.93,-6.95
897,84197503,0.6260,0.7554,0.6074,11.52,-13.23,-6.34
898,84202499,0.6162,0.7573,0.6021,10.91,-13.60,-5.98
899,84207498,0.6089,0.7578,0.6079,9.63,-13.90,-5.49
900,84212499,0.5952,0.7539,0.6094,7.80,-14.09,-4.94
901,84217500,0.5879,0.7544,0.6084,5.67,-14.39,-4.70
902,84222498,0.5859,0.7451,0.6030,3.29,-14.76,-4.15
903,84227501,0.5806,0.7461,0.6030,0.91,-15.06,-3.72
904,84232498,0.5728,0.7388,0.6108,-1.65,-15.12,-3.23
905,84237499,0.5742,0.7310,0.6050,-3.84,-15.12,-2.87
906,84242499,0.5698,0.7256,0.5947,-5.79,-15.18,-2.38
907,84247499,0.5713,0.7207,0.5918,-7.56,-15.24,-1.89
908,84252498,0.5742,0.7168,0.5879,-8.90,-15.24,-1.40
909,84257500,0.5718,0.7139,0.5781,-9.70,-15.06,-0.91
910,84262547,0.5742,0.7090,0.5811,-10.30,-14.82,-0.49
911,84267498,0.5752,0.7085,0.5747,-10.24,-14.70,0.06
912,84272499,0.5718,0.7046,0.5659,-9.70,-14.39,0.55
913,84277499,0.5806,0.7119,0.5664,-8.54,-14.09,1.16
914,84282501,0.5879,0.7124,0.5620,-7.26,-13.66,1.77
915,84287499,0.5923,0.7148,0.5591,-6.04,-13.29,2.07
916,84292499,0.5913,0.7129,0.5605,-4.57,-12.80,2.56
917,84297499,0.5874,0.7197,0.5625,-3.17,-12.38,3.11
918,84302499,0.5850,0.7178,0.5625,-2.20,-11.95,3.66
919,84307500,0.5894,0.7222,0.5601,-1.40,-11.77,4.09
920,84312499,0.5913,0.7251,0.5601,-1.16,-11.40,4.63
921,84317907,0.5898,0.7354,0.5625,-1.22,-11.10,5.00
922,84322499,0.5928,0.7402,0.5547,-1.77,-11.04,5.49
923,84327499,0.5913,0.7427,0.5522,-2.68,-11.04,5.85
924,84332498,0.5874,0.7456,0.5596,-3.84,-11.16,6.46
925,84337497,0.5894,0.7397,0.5596,-5.30,-11.28,7.01
926,84342502,0.5933,0.7373,0.5625,-6.77,-11.46,7.50
927,84347498,0.5947,0.7349,0.5659,-8.48,-11.77,8.11
928,84352497,0.5991,0.7275,0.5732,-10.24,-11.89,8.60
929,84357497,0.5986,0.7192,0.5703,-12.32,-12.07,9.15
930,84362501,0.6064,0.7148,0.5708,-14.57,-12.38,9.57
931,84367503,0.6094,0.7046,0.5806,-16.95,-12.44,10.06
932,84372499,0.6143,0.6963,0.5781,-19.57,-12.68,10.37
933,84377497,0.6147,0.6851,0.5840,-22.20,-13.05,10.43
934,84382497,0.6147,0.6821,0.5879,-24.76,-13.35,10.61
935,84387497,0.6265,0.6787,0.5864,-27.07,-13.60,10.79
936,84392497,0.6245,0.6729,0.5869,-29.27,-13.90,10.91
937,84397501,0.6299,0.6714,0.5918,-30.98,-14.21,10.85
938,84402898,0.6338,0.6680,0.5908,-32.38,-14.39,10.85
939,84407499,0.6353,0.6650,0.5977,-33.41,-14.70,10.91
940,84412870,0.6431,0.6631,0.6030,-34.02,-14.94,10.85
941,84417580,0.6494,0.6582,0.6030,-34.63,-15.24,10.73
942,84422498,0.6587,0.6528,0.5972,-35.00,-15.73,10.67
943,84427499,0.6509,0.6499,0.6001,-35.61,-15.85,10.67
944,84432499,0.6582,0.6465,0.6001,-36.04,-16.40,10.43
945,84437881,0.6558,0.6392,0.5986,-36.77,-16.89,10.37
946,84442499,0.6567,0.6309,0.5972,-37.62,-17.32,10.24
947,84447498,0.6577,0.6230,0.5986,-38.66,-17.80,10.12
948,84452497,0.6572,0.6162,0.5972,-39.76,-18.35,9.94
949,84457499,0.6592,0.6055,0.5957,-41.16,-18.90,9.76
950,84462497,0.6562,0.5938,0.6001,-42.44,-19.33,9.51
951,84467501,0.6631,0.5918,0.6016,-43.66,-19.88,9.33
952,84472659,0.6650,0.5864,0.6084,-44.88,-20.24,8.96
953,84477645,0.6670,0.5845,0.6191,-45.91,-20.61,8.60
954,84482499,0.6719,0.5791,0.6201,-46.77,-20.98,8.23
955,84487499,0.6753,0.5791,0.6270,-47.32,-21.46,7.87
956,84492775,0.6704,0.5767,0.6343,-47.56,-21.89,7.50
957,84497498,0.6660,0.5723,0.6431,-47.68,-22.07,7.26
958,84502499,0.6655,0.5732,0.6484,-47.56,-22.56,7.01
959,84507505,0.6665,0.5684,0.6572,-47.50,-22.99,6.71
960,84512498,0.6699,0.5649,0.6641,-47.38,-23.41,6.52
961,84517889,0.6689,0.5640,0.6602,-47.26,-23.78,6.28
962,84522499,0.6694,0.5605,0.6650,-47.13,-24.27,6.10
963,84527974,0.6689,0.5654,0.6694,-47.20,-24.76,6.04
964,84532499,0.6519,0.5640,0.6538,-47.32,-25.30,5.85
965,84537498,0.6616,0.5688,0.6777,-47.50,-25.85,5.73
966,84542499,0.6733,0.5703,0.6592,-47.99,-26.28,5.49
967,84547499,0.6733,0.5640,0.6562,-48.90,-26.77,5.30
968,84552499,0.6655,0.5698,0.6562,-49.94,-27.20,5.30
969,84557505,0.6694,0.5767,0.6621,-51.28,-27.44,5.06
970,84562498,0.6802,0.5801,0.6499,-52.87,-27.87,5.00
971,84567923,0.6699,0.5776,0.6523,-54.45,-28.41,4.82
972,84572499,0.6562,0.5801,0.6504,-55.91,-28.66,4.76
973,84577499,0.6440,0.5742,0.6450,-57.26,-29.27,4.70
974,84582501,0.6499,0.5718,0.6392,-58.41,-29.63,4.63
975,84587499,0.6538,0.5737,0.6372,-59.33,-29.94,4.57
976,84592618,0.6582,0.5703,0.6348,-60.00,-30.30,4.70
977,84597500,0.6636,0.5679,0.6328,-60.43,-30.55,4.70
978,84602498,0.6748,0.5601,0.6055,-60.91,-30.79,4.70
979,84607500,0.7031,0.5557,0.5938,-61.65,-30.85,4.70
980,84612667,0.7036,0.5532,0.6182,-63.17,-30.85,4.45
981,84617570,0.6646,0.5317,0.6597,-65.49,-30.67,4.15
982,84622602,0.6670,0.5000,0.6177,-68.23,-30.55,4.09
983,84627499,0.6978,0.4990,0.5947,-70.98,-30.61,4.02
984,84632497,0.6958,0.5010,0.5962,-73.78,-30.55,3.90
985,84637497,0.6973,0.5186,0.5776,-76.52,-30.43,3.78
986,84642497,0.7148,0.5117,0.5610,-79.45,-30.30,3.23
987,84647497,0.7354,0.4902,0.5586,-82.07,-29.82,2.62
988,84652497,0.7798,0.4585,0.5674,-84.70,-29.27,1.95
989,84657497,0.7837,0.4590,0.5737,-87.32,-28.48,1.28
990,84662499,0.7393,0.4673,0.5713,-90.00,-27.56,0.30
991,84667499,0.7271,0.4697,0.5708,-92.50,-26.59,-0.91
992,84672501,0.7422,0.4629,0.5649,-94.45,-25.85,-2.20
993,84677498,0.7437,0.4590,0.5557,-95.91,-25.12,-3.54
994,84682499,0.7441,0.4507,0.5581,-96.83,-24.51,-5.06
995,84687498,0.7153,0.4370,0.5503,-96.71,-23.72,-6.28
996,84692707,0.6729,0.4336,0.5459,-95.49,-23.17,-7.56
997,84697499,0.6611,0.4287,0.5508,-93.23,-22.32,-8.96
998,84702499,0.6514,0.4302,0.5435,-90.30,-21.52,-10.30
999,84707499,0.6543,0.4248,0.5479,-86.65,-20.49,-11.65
1000,84712870,0.6646,0.4224,0.5562,-82.62,-19.51,-12.80
1001,84717499,0.6792,0.4136,0.5542,-78.17,-18.48,-13.90
1002,84722752,0.6934,0.3970,0.5562,-73.48,-17.68,-14.70
1003,84727500,0.7163,0.3809,0.5605,-68.60,-16.83,-15.49
1004,84732499,0.7388,0.3716,0.5596,-63.90,-15.98,-15.91
1005,84737997,0.7515,0.3594,0.5645,-59.21,-15.24,-16.28
1006,84742499,0.7690,0.3535,0.5776,-54.63,-14.39,-16.40
1007,84747499,0.7803,0.3511,0.5811,-50.18,-13.48,-16.59
1008,84752889,0.7871,0.3467,0.5767,-45.79,-12.44,-16.77
1009,84757499,0.7866,0.3364,0.5830,-41.71,-11.46,-17.07
1010,84762499,0.7964,0.3325,0.5752,-38.11,-10.49,-17.38
1011,84767498,0.7871,0.3232,0.5776,-34.94,-9.70,-17.87
1012,84772944,0.7861,0.3071,0.5654,-31.95,-8.66,-18.29
1013,84777499,0.7812,0.2983,0.5547,-29.57,-7.80,-18.84
1014,84782499,0.7715,0.2920,0.5405,-27.38,-7.01,-19.33
1015,84787499,0.7715,0.2832,0.5259,-25.73,-6.16,-19.94
1016,84792499,0.7666,0.2861,0.5210,-24.45,-5.30,-20.49
1017,84797499,0.7471,0.2915,0.5229,-22.99,-4.45,-21.28
1018,84802926,0.7349,0.2944,0.5176,-21.59,-3.66,-22.01
1019,84807500,0.7358,0.2939,0.5020,-19.76,-2.74,-22.93
1020,84812498,0.7378,0.2964,0.4917,-17.74,-2.01,-23.78
1021,84817517,0.7295,0.3013,0.4839,-15.30,-1.46,-24.57
1022,84822612,0.7314,0.3076,0.4863,-12.50,-0.73,-25.37
1023,84827499,0.7373,0.3140,0.4946,-9.39,-0.06,-26.22
1024,84832713,0.7412,0.3218,0.5112,-5.91,0.98,-27.07
1025,84837499,0.7466,0.3164,0.5288,-3.17,1.83,-27.68
1026,84842499,0.7505,0.3271,0.5459,1.04,3.29,-28.72
1027,84847498,0.7603,0.3320,0.5713,3.84,4.21,-29.45
1028,84852655,0.7646,0.3384,0.5972,7.68,5.73,-30.49
1029,84857499,0.7593,0.3442,0.6025,10.06,6.77,-31.28
1030,84862510,0.7505,0.3540,0.6143,13.29,8.17,-32.32
1031,84867498,0.7515,0.3560,0.6118,15.18,8.84,-33.05
1032,84872499,0.7319,0.3525,0.6201,17.20,9.57,-34.02
1033,84877500,0.7178,0.3501,0.6333,19.15,10.24,-34.82
1034,84882713,0.7031,0.3550,0.6567,21.22,10.85,-35.85
1035,84887499,0.6953,0.3589,0.6655,22.38,11.40,-36.65
1036,84892499,0.6943,0.3643,0.6875,24.15,12.07,-37.56
1037,84897499,0.6953,0.3730,0.7026,25.06,12.62,-38.29
1038,84902499,0.6938,0.3867,0.7163,26.40,13.41,-39.33
1039,84907499,0.6880,0.3892,0.7246,26.95,13.84,-40.00
1040,84912630,0.6714,0.3970,0.7358,27.68,14.45,-40.85
1041,84917499,0.6558,0.4033,0.7378,27.80,14.70,-41.40
1042,84922499,0.6401,0.3911,0.7358,27.93,15.12,-41.89
1043,84927499,0.6284,0.3901,0.7412,27.80,15.37,-42.26
1044,84932500,0.6118,0.3901,0.7427,27.26,15.49,-42.50
1045,84937498,0.6069,0.3965,0.7285,26.40,15.49,-42.62
1046,84942499,0.6099,0.4038,0.7236,25.37,15.43,-42.74
1047,84947497,0.5889,0.4111,0.7114,24.21,15.30,-42.80
1048,84952497,0.6152,0.4141,0.7329,22.99,15.24,-42.80
1049,84957499,0.6304,0.4326,0.7324,21.65,15.30,-42.74
1050,84962848,0.6084,0.4287,0.7192,20.00,15.12,-42.74
1051,84967499,0.5952,0.4609,0.7319,19.27,14.88,-42.50
1052,84972501,0.6025,0.4741,0.7212,18.60,14.57,-42.50
1053,84977499,0.5947,0.4780,0.7266,18.29,14.27,-42.26
1054,84982499,0.5732,0.4893,0.7373,18.54,13.78,-42.01
1055,84987535,0.5635,0.5215,0.7476,19.39,13.35,-41.52
1056,84992700,0.5464,0.5693,0.7485,21.04,12.74,-40.98
1057,84997499,0.5381,0.5991,0.7559,22.56,12.32,-40.73
1058,85002503,0.5400,0.6030,0.7563,25.67,11.46,-40.00
1059,85007499,0.5298,0.6113,0.7603,28.05,10.85,-39.27
1060,85012498,0.5137,0.6113,0.7744,31.52,9.94,-38.05
1061,85017499,0.4966,0.6270,0.7949,35.49,9.02,-36.71
1062,85022645,0.4971,0.6426,0.7974,39.57,8.17,-35.12
1063,85027499,0.4922,0.6450,0.8003,43.72,7.20,-33.29
1064,85032543,0.4883,0.6401,0.7974,47.74,6.04,-31.22
1065,85037499,0.4863,0.6514,0.8071,51.83,5.06,-29.02
1066,85042840,0.4883,0.6733,0.8003,55.67,3.90,-26.40
1067,85047499,0.4863,0.6758,0.8037,57.87,3.29,-24.63
1068,85052498,0.4868,0.6675,0.8145,59.57,2.38,-22.32
1069,85057881,0.4961,0.6543,0.8281,60.12,1.52,-19.57
1070,85062499,0.5151,0.6450,0.8286,59.51,0.85,-17.74
1071,85067499,0.5283,0.6440,0.8472,56.95,-0.06,-15.00
1072,85072499,0.5410,0.6460,0.8618,54.21,-0.73,-13.35
1073,85077499,0.5679,0.6353,0.8711,49.70,-1.34,-11.40
1074,85082502,0.5811,0.6348,0.8818,44.15,-2.32,-9.63
1075,85087499,0.5879,0.6294,0.8896,38.11,-3.23,-7.99
1076,85092632,0.5957,0.6333,0.9106,31.65,-4.02,-6.28
1077,85097499,0.6074,0.6362,0.9297,25.30,-4.82,-4.76
1078,85102499,0.6221,0.6362,0.9385,19.27,-5.55,-3.23
1079,85107498,0.6235,0.6382,0.9585,14.27,-6.52,-1.52
1080,85112500,0.6191,0.6421,0.9727,10.12,-7.20,0.24
1081,85117501,0.6074,0.6597,0.9849,6.77,-7.74,2.07
1082,85122499,0.6025,0.6489,0.9907,4.15,-8.60,4.09
1083,85127499,0.6152,0.6460,1.0073,1.95,-9.21,6.28
1084,85132498,0.6270,0.6494,1.0234,0.24,-9.88,8.35
1085,85137900,0.6284,0.6646,1.0298,-1.77,-11.04,10.91
1086,85142499,0.6279,0.6577,1.0356,-3.29,-11.83,12.56
1087,85147499,0.6401,0.6582,1.0547,-5.49,-12.93,14.45
1088,85152890,0.6479,0.6523,1.0645,-8.66,-14.39,16.65
1089,85157499,0.6572,0.6416,1.0786,-10.98,-15.37,17.99
1090,85162881,0.6738,0.6265,1.1064,-14.94,-16.95,19.94
1091,85167499,0.6885,0.6255,1.1274,-17.93,-18.05,21.16
1092,85172499,0.7002,0.6152,1.1519,-21.83,-19.57,22.56
1093,85177500,0.7002,0.6060,1.1738,-25.91,-21.16,23.90
1094,85182499,0.6997,0.5854,1.1914,-30.67,-23.35,25.43
1095,85187499,0.7090,0.5728,1.2197,-33.60,-24.94,26.52
1096,85192498,0.7212,0.5718,1.2329,-36.46,-27.13,27.87
1097,85197503,0.7104,0.5757,1.2500,-38.78,-29.09,29.45
1098,85202679,0.6992,0.5698,1.2627,-40.55,-31.28,30.85
1099,85207499,0.7129,0.5703,1.2720,-41.71,-33.54,32.44
1100,85212499,0.7065,0.5645,1.2939,-42.32,-35.91,33.96
1101,85217499,0.6968,0.5601,1.3013,-43.11,-38.23,35.55
1102,85222497,0.6792,0.5625,1.3232,-44.21,-40.67,37.13
1103,85227502,0.6758,0.5615,1.3340,-46.22,-44.09,38.84
1104,85232499,0.6782,0.5610,1.3369,-48.23,-46.52,39.82
1105,85237499,0.6812,0.5566,1.3486,-51.28,-49.76,41.10
1106,85242498,0.6787,0.5488,1.3608,-55.06,-53.23,42.07
1107,85247895,0.6753,0.5244,1.3765,-60.24,-57.87,43.41
1108,85252499,0.6714,0.5059,1.4009,-63.84,-61.04,44.21
1109,85257499,0.6523,0.4839,1.4150,-68.41,-65.30,45.18
1110,85262702,0.6323,0.4771,1.4170,-73.05,-69.70,46.10
1111,85267499,0.6123,0.4546,1.4277,-77.50,-74.27,46.95
1112,85272499,0.6123,0.4307,1.4307,-81.71,-78.90,47.74
1113,85277497,0.6069,0.4116,1.4312,-85.18,-83.66,48.48
1114,85282499,0.5903,0.3994,1.4263,-88.11,-88.41,49.09
1115,85287590,0.5645,0.3779,1.4185,-90.61,-93.23,49.51
1116,85292501,0.5806,0.3604,1.4155,-92.56,-98.48,50.12
1117,85297992,0.5732,0.3486,1.4058,-93.66,-104.51,50.55
1118,85302499,0.5635,0.3579,1.4004,-93.96,-108.60,50.61
1119,85307499,0.5317,0.3315,1.3877,-94.76,-114.82,50.61
1120,85312499,0.5635,0.3135,1.3813,-95.00,-118.90,50.49
1121,85317499,0.5547,0.3022,1.3682,-95.06,-124.15,50.18
1122,85322499,0.5356,0.3057,1.3574,-95.43,-129.51,49.57
1123,85327500,0.5142,0.2788,1.3306,-96.46,-134.57,48.54
1124,85332829,0.5376,0.2651,1.3320,-97.62,-139.70,47.56
1125,85337499,0.5269,0.2563,1.2954,-99.02,-144.82,46.10
1126,85342499,0.5249,0.2539,1.2627,-100.73,-150.00,44.27
1127,85347499,0.5210,0.2544,1.2344,-102.74,-154.70,42.32
1128,85352499,0.5049,0.2441,1.2017,-104.70,-159.57,40.00
1129,85357499,0.4922,0.2334,1.1665,-107.01,-165.24,36.95
1130,85362499,0.5010,0.2363,1.1294,-108.41,-168.84,34.70
1131,85367499,0.5034,0.2495,1.0845,-109.82,-174.33,31.34
1132,85372504,0.4688,0.2417,1.0649,-110.18,-177.62,28.90
1133,85377502,0.4673,0.2437,1.0073,-110.00,-181.77,25.79
1134,85382499,0.4648,0.2500,0.9683,-109.33,-185.91,22.50
1135,85387498,0.4561,0.2593,0.9248,-108.05,-189.82,19.21
1136,85392566,0.4429,0.2671,0.8877,-106.34,-193.60,15.79
1137,85397499,0.4204,0.2778,0.8345,-103.72,-197.93,11.65
1138,85402511,0.4131,0.2871,0.8027,-101.77,-200.73,8.90
1139,85407499,0.4038,0.2974,0.7524,-99.02,-204.21,5.30
1140,85412499,0.3691,0.3052,0.7036,-95.61,-208.23,0.91
1141,85417499,0.3442,0.3130,0.6558,-93.29,-210.67,-2.07
1142,85422497,0.3252,0.3198,0.6079,-90.79,-213.96,-5.73
1143,85427501,0.3062,0.3232,0.5537,-88.72,-217.26,-9.45
1144,85432498,0.2759,0.3208,0.4971,-87.07,-220.49,-13.48
1145,85437499,0.2500,0.3159,0.4429,-85.85,-223.90,-17.50
1146,85442499,0.2305,0.3169,0.3931,-85.12,-227.26,-21.46
1147,85447500,0.2051,0.3071,0.3438,-84.76,-230.43,-25.79
1148,85452498,0.1802,0.3047,0.2974,-84.45,-233.66,-30.12
1149,85457499,0.1743,0.3101,0.2588,-84.15,-236.71,-34.51
1150,85462499,0.1187,0.3018,0.2100,-83.60,-239.70,-38.96
1151,85467497,0.0854,0.3037,0.1699,-82.93,-242.50,-43.35
1152,85472501,0.0747,0.3115,0.1138,-82.01,-245.18,-47.93
1153,85477499,0.0713,0.3076,0.0669,-81.04,-247.74,-52.56
1154,85482498,0.0586,0.3086,0.0264,-80.00,-250.12,-57.20
1155,85487499,0.0737,0.3257,-0.0205,-79.21,-252.20,-61.95
1156,85492498,0.0361,0.3242,-0.0479,-78.48,-254.02,-66.89
1157,85497499,0.0015,0.3394,-0.1094,-78.41,-255.55,-71.95
1158,85502914,0.0020,0.3618,-0.1460,-78.78,-256.83,-77.26
1159,85507499,0.0010,0.3804,-0.1758,-79.76,-257.74,-82.80
1160,85512499,-0.0117,0.3877,-0.2192,-81.46,-258.23,-88.60
1161,85517499,-0.0298,0.3896,-0.2661,-83.84,-258.29,-94.63
1162,85522499,-0.0420,0.3916,-0.3008,-87.07,-257.99,-100.79
1163,85527499,-0.0474,0.3984,-0.3589,-91.04,-257.32,-107.01
1164,85532498,-0.0537,0.4077,-0.3926,-95.43,-256.40,-113.54
1165,85537582,-0.0918,0.4087,-0.4336,-100.24,-255.12,-119.94
1166,85542499,-0.1245,0.4224,-0.4648,-105.85,-253.35,-126.52
1167,85547498,-0.1333,0.4531,-0.5151,-111.71,-251.22,-133.35
1168,85552497,-0.1460,0.4751,-0.5576,-117.99,-248.60,-140.37
1169,85557903,-0.1758,0.4883,-0.5938,-124.02,-245.49,-147.32
1170,85562499,-0.2041,0.5029,-0.6309,-129.82,-241.77,-154.33
1171,85567499,-0.2236,0.5039,-0.6733,-134.63,-237.38,-161.28
1172,85572499,-0.2329,0.5117,-0.7183,-138.35,-232.38,-167.87
1173,85577507,-0.2319,0.5142,-0.7510,-140.79,-226.71,-174.39
1174,85582498,-0.2407,0.5166,-0.7949,-141.59,-220.30,-180.55
1175,85587499,-0.2563,0.5215,-0.8247,-140.91,-213.29,-186.40
1176,85592498,-0.2793,0.5298,-0.8516,-138.54,-205.85,-192.01
1177,85597499,-0.2896,0.5449,-0.8872,-134.76,-197.80,-197.50
1178,85602498,-0.2910,0.5532,-0.9062,-129.57,-189.39,-202.80
1179,85607499,-0.2915,0.5615,-0.9360,-123.54,-180.73,-207.80
1180,85612499,-0.3027,0.5791,-0.9619,-116.77,-171.65,-212.56
1181,85617708,-0.3101,0.5996,-0.9780,-109.70,-162.62,-217.32
1182,85622498,-0.3047,0.6279,-1.0054,-102.44,-153.29,-221.77
1183,85627501,-0.3154,0.6523,-1.0381,-95.43,-144.02,-225.91
1184,85632500,-0.3389,0.6616,-1.0552,-88.66,-134.82,-229.70
1185,85637499,-0.3687,0.6680,-1.0605,-82.01,-125.30,-232.74
1186,85642498,-0.4155,0.6743,-1.0698,-75.18,-115.61,-235.30
1187,85647773,-0.4653,0.6836,-1.0894,-67.99,-105.73,-237.38
1188,85652667,-0.5020,0.7114,-1.1064,-60.73,-95.61,-239.02
1189,85657499,-0.5229,0.7480,-1.1226,-53.23,-85.67,-240.37
1190,85662499,-0.5322,0.7881,-1.1343,-46.28,-75.24,-241.77
1191,85667561,-0.5400,0.8193,-1.1333,-40.00,-65.06,-243.29
1192,85672515,-0.5430,0.8403,-1.1538,-34.21,-54.70,-244.70
1193,85677707,-0.5425,0.8721,-1.1772,-29.45,-44.39,-245.98
1194,85682844,-0.5391,0.9067,-1.1885,-25.91,-33.90,-247.44
1195,85687499,-0.5396,0.9390,-1.2109,-23.78,-23.41,-248.78
1196,85692502,-0.5542,0.9736,-1.2305,-23.05,-12.50,-250.30
1197,85697498,-0.5835,1.0088,-1.2515,-23.17,-1.83,-251.71
1198,85702767,-0.6191,1.0571,-1.2725,-23.90,9.27,-252.93
1199,85707499,-0.6470,1.1099,-1.3027,-24.63,20.55,-254.15
1200,85712499,-0.6865,1.1562,-1.3291,-25.00,31.59,-255.00
1201,85717639,-0.7319,1.2012,-1.3418,-24.57,42.68,-255.49
1202,85722499,-0.7700,1.2495,-1.3550,-23.23,53.90,-255.67
1203,85727499,-0.8257,1.2969,-1.3550,-21.16,65.18,-255.43
1204,85732499,-0.8838,1.3335,-1.3682,-18.29,76.77,-254.82
1205,85737545,-0.9380,1.3535,-1.3877,-14.57,87.26,-253.72
1206,85742779,-0.9883,1.3936,-1.4185,-10.37,99.21,-252.38
1207,85747499,-1.0581,1.4399,-1.4409,-5.37,110.37,-250.73
1208,85752499,-1.0752,1.4775,-1.4619,0.43,121.59,-248.54
1209,85757499,-1.1030,1.5020,-1.5112,6.65,132.56,-246.10
1210,85762747,-1.1328,1.5430,-1.5356,12.87,143.41,-243.23
1211,85767499,-1.1758,1.5474,-1.5645,19.33,154.57,-240.18
1212,85772499,-1.2085,1.6055,-1.6201,24.88,165.43,-236.71
1213,85777499,-1.2056,1.6494,-1.6733,29.15,176.28,-233.29
1214,85782499,-1.2271,1.6987,-1.7188,31.46,187.50,-229.94
1215,85787499,-1.2612,1.7344,-1.7568,32.13,199.21,-226.16
1216,85792499,-1.3027,1.7886,-1.8301,31.65,211.65,-222.26
1217,85797499,-1.3467,1.8691,-1.9067,30.73,224.76,-218.23
1218,85802982,-1.3940,1.8853,-1.9409,30.37,238.66,-214.15
1219,85807499,-1.4229,1.9966,-2.0249,30.49,253.17,-209.51
1220,85812499,-1.5405,2.0596,-2.0879,32.13,268.41,-204.94
1221,85817499,-1.5986,2.0815,-2.1167,34.39,284.33,-199.27
1222,85822868,-1.6934,2.1938,-2.1196,37.32,300.98,-193.17
1223,85827499,-1.7446,2.2583,-2.2036,41.40,317.93,-186.52
1224,85832498,-1.8130,2.3413,-2.2251,46.95,334.82,-179.51
1225,85837499,-1.8589,2.4106,-2.2686,54.15,352.26,-171.83
1226,85842498,-1.9692,2.5049,-2.3423,61.65,369.82,-163.35
1227,85847497,-2.0923,2.5884,-2.3564,69.88,387.62,-154.15
1228,85852498,-2.2080,2.6299,-2.3662,78.11,405.73,-144.45
1229,85857497,-2.2686,2.6514,-2.3691,86.40,424.02,-134.09
1230,85862499,-2.3149,2.6729,-2.3779,94.21,442.20,-123.29
1231,85867499,-2.3926,2.7222,-2.3467,101.10,460.91,-112.26
1232,85872499,-2.4229,2.7905,-2.2915,106.59,479.76,-101.46
1233,85877498,-2.4595,2.8696,-2.2505,109.82,499.15,-91.28
1234,85882499,-2.5068,2.9150,-2.2070,110.85,518.54,-81.59
1235,85887797,-2.5679,2.9600,-2.1572,109.39,538.17,-72.50
1236,85892500,-2.6450,3.0015,-2.0967,106.10,558.17,-63.84
1237,85897499,-2.7202,3.0269,-2.0068,102.07,578.29,-55.49
1238,85902962,-2.7944,3.0537,-1.9292,98.35,598.35,-47.01
1239,85907499,-2.8677,3.0581,-1.8545,95.43,618.23,-38.54
1240,85912499,-2.9497,3.0659,-1.7407,93.29,637.80,-29.88
1241,85917499,-3.0381,3.0752,-1.6094,91.71,656.83,-20.98
1242,85922499,-3.1206,3.0762,-1.4614,90.06,674.94,-11.89
1243,85927499,-3.1763,3.0537,-1.3096,88.60,691.95,-2.93
1244,85932499,-3.2109,3.0376,-1.1152,86.83,707.93,6.10
1245,85937646,-3.2627,2.9819,-0.9316,84.76,722.62,15.49
1246,85942499,-3.3159,2.9429,-0.7505,81.71,735.24,24.94
1247,85947499,-3.3716,2.9072,-0.5386,77.87,745.98,34.70
1248,85952498,-3.4092,2.8306,-0.3462,72.07,754.02,44.88
1249,85957500,-3.3696,2.8428,-0.1724,64.15,758.84,55.43
1250,85962499,-3.5728,2.7368,0.0366,55.37,759.21,66.46
1251,85967563,-3.6958,2.6362,0.1890,45.91,753.96,78.84
1252,85972552,-3.6401,2.5781,0.4370,37.32,742.44,92.44
1253,85977500,-3.6162,2.6338,0.9556,30.43,727.99,105.91
1254,85982611,-3.5669,2.6460,1.4131,24.63,712.74,117.80
1255,85987499,-3.5200,2.5791,1.5195,19.76,698.54,126.83
1256,85992499,-3.4712,2.3896,1.7520,9.57,672.07,140.18
1257,85997499,-3.4536,2.2681,2.0225,0.00,651.95,149.51
1258,86002664,-3.3154,2.1240,2.2432,-18.35,617.07,164.09
1259,86007499,-3.1602,2.0742,2.3433,-32.01,591.16,174.21
1260,86012499,-2.8906,1.9546,2.6045,-52.26,549.09,188.96
1261,86017499,-2.7393,1.8906,2.7520,-64.27,519.70,198.60
1262,86022963,-2.5308,1.7241,2.8975,-79.09,473.41,212.13
1263,86027499,-2.4526,1.6016,2.9341,-86.71,441.89,220.61
1264,86032499,-2.3003,1.4531,2.9932,-93.29,402.38,230.55
1265,86037499,-2.0752,1.2568,3.0132,-96.40,363.72,239.39
1266,86042503,-1.8433,1.1299,2.9243,-96.65,319.09,248.35
1267,86047500,-1.7988,1.0430,2.8364,-94.76,290.30,252.99
1268,86052499,-1.6938,0.9355,2.7637,-89.21,255.91,257.56
1269,86057499,-1.5718,0.8101,2.6943,-80.30,223.54,260.43
1270,86062499,-1.4409,0.7061,2.6113,-67.80,192.80,261.59
1271,86067498,-1.3271,0.6001,2.5278,-51.83,163.90,261.22
1272,86072499,-1.2563,0.4917,2.4683,-33.11,137.68,259.27
1273,86077739,-1.0122,0.3730,2.3589,-8.35,108.54,255.12
1274,86082499,-0.9658,0.3560,2.2734,8.72,91.28,251.22
1275,86087499,-0.8755,0.2974,2.1860,34.45,66.22,243.96
1276,86092531,-0.8462,0.2520,2.1392,51.40,51.46,238.60
1277,86097498,-0.6162,0.1968,2.0625,71.28,34.51,231.22
1278,86102497,-0.5684,0.1797,1.9614,91.65,16.16,221.46
1279,86107499,-0.5581,0.1958,1.9062,102.74,5.18,214.39
1280,86112499,-0.4624,0.1396,1.8203,114.63,-9.45,203.96
1281,86117499,-0.3691,0.0713,1.7827,118.54,-18.11,196.95
1282,86122502,-0.3999,0.0518,1.7188,119.63,-28.54,187.80
1283,86127725,-0.2617,0.0269,1.6455,115.85,-39.33,176.95
1284,86132498,-0.2637,0.0967,1.5571,110.43,-46.34,169.70
1285,86137497,-0.1958,0.0728,1.5112,101.34,-54.33,160.30
1286,86142497,-0.1240,0.0513,1.4663,89.57,-61.77,151.22
1287,86148628,-0.0796,0.0361,1.3799,71.10,-70.98,138.48
1288,86152500,-0.0298,-0.0566,1.3618,62.56,-74.76,132.99
1289,86157499,-0.0508,-0.0254,1.3120,48.35,-80.79,124.15
1290,86162703,0.0576,-0.0674,1.2524,32.50,-87.07,113.66
1291,86167499,0.0884,-0.0195,1.2104,22.80,-90.55,106.71
1292,86172499,0.0757,0.0098,1.1680,12.56,-94.57,98.29
1293,86177499,0.1328,-0.0190,1.1201,3.66,-98.90,89.02
1294,86182499,0.1777,-0.0513,1.0781,-0.98,-100.98,82.99
1295,86187502,0.2007,-0.0645,1.0278,-5.18,-103.05,75.85
1296,86192750,0.2158,-0.0430,0.9561,-8.11,-105.18,67.99
1297,86197503,0.2358,-0.0254,0.9087,-8.90,-106.04,63.11
1298,86202499,0.2539,0.0078,0.8403,-8.48,-106.65,57.32
1299,86207553,0.2661,-0.0107,0.8022,-6.95,-106.89,52.13
1300,86212498,0.3818,-0.0151,0.7480,-4.94,-106.65,47.62
1301,86217757,0.3584,0.0386,0.6616,-2.87,-105.91,42.87
1302,86222499,0.3545,0.0376,0.6284,-1.28,-105.12,39.88
1303,86227499,0.4106,0.0459,0.6128,0.24,-103.90,36.59
1304,86232499,0.4170,0.0962,0.5503,0.73,-101.95,33.48
1305,86237499,0.4175,0.0962,0.4897,0.49,-100.18,30.55
1306,86242497,0.5039,0.1216,0.4331,-0.85,-97.68,27.50
1307,86247499,0.5103,0.1450,0.4033,-2.68,-95.85,25.55
1308,86252499,0.4941,0.1689,0.3442,-5.67,-93.23,23.29
1309,86257499,0.5205,0.1816,0.3081,-9.15,-91.04,21.34
1310,86262522,0.5557,0.1978,0.2896,-13.54,-88.48,19.45
1311,86267501,0.5674,0.2173,0.2549,-18.48,-85.55,17.56
1312,86272739,0.5781,0.2402,0.2212,-23.90,-82.74,15.67
1313,86277499,0.5967,0.2720,0.2021,-29.63,-79.45,13.48
1314,86282501,0.6191,0.2915,0.1738,-36.71,-75.85,10.85
1315,86287501,0.6343,0.3081,0.1499,-41.46,-73.23,9.02
1316,86292500,0.6577,0.3159,0.1372,-46.89,-70.18,6.65
1317,86297499,0.7075,0.3203,0.1304,-51.89,-67.01,4.45
1318,86302500,0.7202,0.3271,0.1196,-56.28,-63.66,2.20
1319,86307753,0.7275,0.3447,0.1006,-59.88,-60.61,0.00
1320,86312499,0.7358,0.3560,0.1035,-62.32,-57.13,-2.07
1321,86317508,0.7563,0.3579,0.1089,-64.09,-52.87,-4.45
1322,86322499,0.7720,0.3696,0.1016,-64.51,-49.94,-5.98
1323,86327499,0.7920,0.3794,0.0972,-64.09,-45.67,-8.11
1324,86332703,0.7935,0.3818,0.1006,-63.54,-42.68,-9.45
1325,86337501,0.7988,0.3916,0.0977,-62.26,-38.96,-11.10
1326,86342499,0.8071,0.4077,0.0991,-60.91,-35.24,-12.68
1327,86347499,0.7939,0.4155,0.1016,-59.57,-30.91,-14.70
1328,86352499,0.8037,0.4248,0.0913,-58.96,-28.11,-15.98
1329,86357499,0.8149,0.4351,0.0913,-58.96,-24.02,-18.05
1330,86362499,0.8203,0.4385,0.1006,-59.39,-21.28,-19.27
1331,86367500,0.8276,0.4487,0.0991,-60.73,-18.17,-20.98
1332,86372499,0.8335,0.4473,0.0977,-62.80,-15.24,-22.68
1333,86377540,0.8340,0.4512,0.1001,-65.43,-12.32,-24.33
1334,86382499,0.8379,0.4502,0.0991,-68.54,-9.70,-25.85
1335,86387499,0.8379,0.4575,0.1030,-72.01,-7.32,-27.50
1336,86392692,0.8374,0.4604,0.1113,-75.61,-5.00,-28.96
1337,86397499,0.8354,0.4668,0.1299,-79.70,-2.87,-30.43
1338,86402499,0.8276,0.4746,0.1392,-83.66,-0.79,-32.07
1339,86407499,0.8179,0.4780,0.1470,-87.62,1.34,-33.78
1340,86412714,0.8091,0.4839,0.1572,-91.65,3.66,-35.30
1341,86417499,0.7949,0.4888,0.1538,-95.43,5.73,-37.01
1342,86422499,0.7856,0.4922,0.1582,-99.02,7.68,-38.72
1343,86427499,0.7793,0.4946,0.1611,-102.32,9.57,-40.18
1344,86432499,0.7832,0.4985,0.1606,-105.06,11.40,-41.71
1345,86437498,0.7905,0.5029,0.1675,-107.44,13.11,-43.05
1346,86442497,0.8018,0.5029,0.1636,-109.39,14.82,-44.21
1347,86447499,0.7998,0.5083,0.1670,-110.85,16.28,-45.43
1348,86452500,0.8047,0.5171,0.1797,-111.89,17.87,-46.46
1349,86457502,0.8008,0.5312,0.1899,-112.56,19.39,-47.44
1350,86462676,0.8008,0.5386,0.1958,-112.62,20.73,-48.41
1351,86467499,0.8027,0.5430,0.2061,-112.26,22.01,-49.33
1352,86472499,0.8027,0.5498,0.2095,-111.59,23.05,-50.18
1353,86477499,0.8003,0.5566,0.2217,-110.49,24.15,-51.34
1354,86482499,0.7964,0.5674,0.2310,-109.27,24.94,-52.50
1355,86487707,0.7812,0.5723,0.2427,-107.56,25.61,-53.66
1356,86492499,0.7686,0.5820,0.2490,-105.61,26.22,-55.00
1357,86497499,0.7529,0.5752,0.2549,-103.48,26.83,-56.10
1358,86502498,0.7437,0.5864,0.2700,-101.40,27.20,-57.44
1359,86507499,0.7412,0.5845,0.2915,-99.09,27.68,-58.96
1360,86512499,0.7402,0.5835,0.2964,-96.83,28.17,-60.49
1361,86517499,0.7295,0.5776,0.3149,-94.45,28.48,-61.89
1362,86522505,0.7256,0.5776,0.3281,-92.38,29.02,-63.41
1363,86527498,0.7178,0.5645,0.3364,-90.37,29.33,-64.88
1364,86532500,0.7310,0.5581,0.3423,-88.72,29.51,-66.34
1365,86537499,0.7388,0.5479,0.3472,-87.50,29.51,-67.62
1366,86542499,0.7329,0.5503,0.3535,-86.52,29.70,-68.84
1367,86547499,0.7217,0.5542,0.3594,-86.04,29.70,-70.06
1368,86552500,0.7070,0.5669,0.3716,-85.49,29.88,-71.28
1369,86557598,0.6929,0.5786,0.3730,-84.88,29.94,-72.50
1370,86562640,0.6504,0.5854,0.3862,-84.39,30.18,-73.66
1371,86567499,0.6689,0.6006,0.3799,-84.09,30.49,-74.88
1372,86572940,0.6714,0.5972,0.3774,-83.48,30.67,-75.98
1373,86577499,0.6548,0.5986,0.3813,-82.62,30.61,-76.95
1374,86582499,0.6362,0.6050,0.3892,-81.40,30.49,-77.74
1375,86587499,0.6162,0.6011,0.3882,-80.00,30.43,-78.48
1376,86592652,0.5957,0.6060,0.3979,-78.23,30.06,-79.15
1377,86597499,0.5776,0.6064,0.4092,-76.28,29.76,-79.82
1378,86602499,0.5566,0.6030,0.4126,-73.96,29.51,-80.30
1379,86607499,0.5420,0.5952,0.4233,-71.65,29.02,-80.98
1380,86612929,0.5483,0.5693,0.4448,-69.15,28.72,-81.59
1381,86617499,0.4766,0.5952,0.4194,-66.16,28.35,-81.89
1382,86622499,0.5181,0.5952,0.4229,-63.29,27.93,-82.62
1383,86627810,0.5190,0.5981,0.4438,-60.85,27.56,-83.29
1384,86632499,0.5200,0.5962,0.4517,-58.66,27.38,-83.96
1385,86637967,0.4722,0.5996,0.4639,-56.59,26.77,-84.76
1386,86642499,0.4766,0.5996,0.4741,-54.21,26.52,-85.61
1387,86647499,0.4951,0.6006,0.4648,-52.44,26.28,-86.46
1388,86652499,0.5020,0.6021,0.4629,-51.52,25.73,-87.32
1389,86657499,0.5005,0.6030,0.4912,-51.40,25.37,-88.35
1390,86662499,0.4902,0.5957,0.5137,-52.01,25.55,-89.33
1391,86667499,0.4644,0.5889,0.5225,-53.11,25.61,-90.43
1392,86672592,0.4741,0.5977,0.4956,-54.76,25.49,-91.46
1393,86677498,0.4834,0.6050,0.4888,-56.52,25.30,-92.50
1394,86682499,0.4600,0.6191,0.4990,-58.29,25.43,-93.54
1395,86687501,0.4517,0.6357,0.4917,-60.00,25.67,-94.70
1396,86692599,0.4463,0.6426,0.4800,-61.22,25.73,-95.67
1397,86697501,0.4219,0.6494,0.4844,-61.77,25.91,-96.71
1398,86702498,0.4053,0.6460,0.4922,-61.89,25.98,-97.56
1399,86707499,0.3945,0.6509,0.4902,-61.46,26.10,-98.17
1400,86712498,0.3862,0.6519,0.4897,-60.67,26.22,-98.66
1401,86717499,0.3813,0.6587,0.4888,-59.57,26.34,-99.15
1402,86722498,0.3804,0.6689,0.4995,-58.05,26.40,-99.51
1403,86727499,0.3804,0.6743,0.4902,-56.22,26.28,-99.63
1404,86732497,0.3696,0.6777,0.5000,-54.45,26.28,-99.94
1405,86737497,0.3501,0.6802,0.5156,-52.80,26.34,-100.06
1406,86742505,0.3218,0.6816,0.5088,-51.71,26.40,-100.30
1407,86747500,0.3218,0.6641,0.5093,-51.52,26.28,-100.49
1408,86752497,0.3271,0.6494,0.5327,-51.95,26.16,-100.85
1409,86757499,0.3291,0.6060,0.5288,-53.29,26.22,-101.04
1410,86762499,0.3311,0.6099,0.5269,-54.88,26.28,-101.40
1411,86767498,0.3311,0.6260,0.5244,-56.83,26.65,-101.89
1412,86772783,0.3271,0.6504,0.5327,-59.15,27.20,-102.68
1413,86777499,0.3218,0.6694,0.5269,-62.01,27.99,-103.60
1414,86782499,0.3159,0.6807,0.5322,-65.43,28.90,-104.57
1415,86787501,0.2988,0.6812,0.5386,-69.57,29.94,-105.61
1416,86792498,0.2886,0.6738,0.5439,-74.09,30.98,-106.95
1417,86797499,0.2715,0.6777,0.5327,-79.09,32.07,-108.29
1418,86802499,0.2749,0.6997,0.5430,-84.33,32.87,-109.76
1419,86807646,0.2661,0.7158,0.5688,-89.21,33.84,-111.40
1420,86812500,0.2559,0.7188,0.5610,-94.09,34.88,-113.41
1421,86817959,0.2485,0.7119,0.5552,-98.23,35.79,-115.43
1422,86822499,0.2368,0.7021,0.5645,-101.83,36.95,-117.68
1423,86827896,0.2275,0.6992,0.5786,-104.94,38.23,-120.00
1424,86832499,0.2148,0.6938,0.5674,-107.13,39.27,-122.32
1425,86837890,0.2021,0.6816,0.5693,-108.60,40.61,-124.57
1426,86842500,0.1797,0.6714,0.5757,-109.51,42.07,-126.89
1427,86847501,0.1616,0.6489,0.5869,-109.88,43.72,-129.39
1428,86852499,0.1533,0.6274,0.5713,-109.45,45.61,-131.71
1429,86857886,0.1421,0.6069,0.5645,-108.72,47.62,-134.02
1430,86862499,0.1240,0.5830,0.5703,-107.38,49.88,-136.52
1431,86867499,0.1152,0.5708,0.5718,-105.85,52.44,-138.96
1432,86872901,0.1138,0.5776,0.5771,-104.15,55.49,-141.52
1433,86877500,0.1035,0.5908,0.5830,-102.62,58.48,-144.21
1434,86882499,0.0928,0.5967,0.6050,-101.34,61.40,-146.95
1435,86887499,0.0757,0.5942,0.6021,-100.85,64.39,-149.57
1436,86892875,0.0483,0.5923,0.5947,-100.98,66.89,-152.01
1437,86897499,0.0073,0.6035,0.6104,-101.65,69.33,-154.15
1438,86902499,-0.0391,0.6040,0.6235,-103.11,71.34,-156.28
1439,86907500,-0.0732,0.6118,0.6250,-105.12,73.17,-158.11
1440,86912499,-0.1011,0.6245,0.6362,-107.56,74.63,-160.00
1441,86917498,-0.1235,0.6367,0.6494,-110.30,75.98,-161.71
1442,86922840,-0.1362,0.6406,0.6523,-113.11,77.44,-163.23
1443,86927499,-0.1504,0.6445,0.6646,-115.91,78.78,-164.76
1444,86932499,-0.1655,0.6372,0.6572,-118.84,80.18,-166.16
1445,86937499,-0.1753,0.6299,0.6562,-121.28,81.46,-167.50
1446,86942500,-0.1948,0.6196,0.6592,-123.72,82.99,-168.54
1447,86947607,-0.2095,0.6133,0.6665,-125.49,85.61,-169.57
1448,86952967,-0.2139,0.6279,0.6724,-127.07,86.28,-170.55
1449,86957499,-0.2173,0.6450,0.6938,-128.05,88.60,-171.65
1450,86962934,-0.2227,0.6641,0.6992,-128.84,90.79,-172.80
1451,86967499,-0.2378,0.6821,0.7095,-129.21,93.11,-174.15
1452,86972502,-0.2583,0.7026,0.7324,-129.33,95.37,-175.43
1453,86977499,-0.2822,0.7163,0.7476,-129.39,97.74,-177.01
1454,86982848,-0.2974,0.7285,0.7593,-129.21,99.82,-178.48
1455,86987499,-0.3120,0.7412,0.7739,-128.96,101.59,-180.00
1456,86992499,-0.3291,0.7490,0.7808,-128.29,103.17,-181.46
1457,86997544,-0.3511,0.7563,0.7803,-127.32,104.82,-182.80
1458,87002696,-0.3696,0.7559,0.7930,-125.91,106.22,-184.15
1459,87007499,-0.3896,0.7495,0.8027,-124.02,107.50,-185.49
1460,87012904,-0.4097,0.7437,0.8145,-121.22,108.72,-186.46
1461,87017500,-0.4238,0.7344,0.8115,-117.93,110.06,-187.62
1462,87022499,-0.4346,0.7314,0.8159,-113.90,111.34,-188.54
1463,87027499,-0.4478,0.7212,0.8091,-109.33,112.68,-189.45
1464,87032499,-0.4624,0.7153,0.8159,-104.21,114.39,-190.30
1465,87037499,-0.4790,0.7197,0.8315,-98.60,116.04,-191.16
1466,87042497,-0.4888,0.7251,0.8481,-92.56,118.05,-191.95
1467,87047497,-0.5029,0.7344,0.8589,-87.87,119.39,-192.74
1468,87052499,-0.5298,0.7534,0.8794,-80.61,121.71,-193.96
1469,87057499,-0.5464,0.7646,0.8911,-74.76,123.72,-195.12
1470,87062973,-0.5698,0.7695,0.9023,-69.15,125.30,-196.28
1471,87067499,-0.5835,0.7720,0.9189,-64.82,126.65,-197.20
1472,87072887,-0.6064,0.7837,0.9316,-58.66,128.11,-198.41
1473,87077499,-0.6133,0.7788,0.9380,-54.76,128.72,-199.09
1474,87082909,-0.6514,0.7729,0.9443,-49.09,129.39,-199.88
1475,87087499,-0.6719,0.7720,0.9487,-45.30,129.51,-200.30
1476,87092499,-0.6987,0.7715,0.9497,-40.55,129.57,-200.67
1477,87097499,-0.7217,0.7627,0.9502,-35.79,129.45,-201.16
1478,87102499,-0.7119,0.7539,0.9312,-31.16,129.09,-201.52
1479,87107499,-0.7183,0.7510,0.9775,-26.65,128.72,-201.89
1480,87112499,-0.7842,0.7432,0.9614,-21.71,128.48,-202.26
1481,87117501,-0.8237,0.7378,0.9390,-15.85,128.23,-202.62
1482,87122498,-0.8345,0.7319,0.9526,-9.02,127.93,-202.93
1483,87127606,-0.8223,0.7363,0.9556,-0.06,127.62,-203.48
1484,87132499,-0.8188,0.7388,0.9614,6.04,127.26,-203.72
1485,87137501,-0.8364,0.7490,0.9722,13.72,126.71,-204.21
1486,87142499,-0.8574,0.7520,0.9888,21.28,125.67,-204.51
1487,87147510,-0.8896,0.7520,0.9971,28.60,124.51,-204.82
1488,87152749,-0.8784,0.7461,1.0088,36.95,122.50,-205.24
1489,87157499,-0.9219,0.7388,1.0054,42.56,120.91,-205.49
1490,87162499,-0.9683,0.7178,1.0073,49.76,118.90,-205.49
1491,87167499,-0.9912,0.7056,0.9995,57.26,116.46,-205.30
1492,87172509,-0.9878,0.6943,0.9883,64.76,113.84,-204.94
1493,87177500,-0.9819,0.6870,0.9854,71.65,111.04,-204.51
1494,87182498,-0.9844,0.6831,0.9736,78.11,108.23,-204.02
1495,87187500,-0.9951,0.6748,0.9683,83.90,105.12,-203.72
1496,87192497,-1.0078,0.6670,0.9482,89.09,102.01,-203.54
1497,87197507,-1.0210,0.6577,0.9395,94.51,98.35,-203.11
1498,87202499,-1.0249,0.6455,0.9395,97.68,95.79,-202.87
1499,87207617,-1.0405,0.6353,0.9238,101.77,92.01,-202.38
1500,87212499,-1.0449,0.6235,0.9126,104.63,88.48,-201.83
1501,87217498,-1.0532,0.6172,0.9121,106.46,86.22,-201.28
1502,87222500,-1.0649,0.6084,0.9019,108.35,82.99,-200.55
1503,87227499,-1.0728,0.5991,0.8994,109.94,79.09,-199.33
1504,87232499,-1.0889,0.5942,0.8994,111.10,75.30,-198.11
1505,87237501,-1.1162,0.5776,0.8955,111.89,71.52,-196.83
1506,87242500,-1.1255,0.5679,0.8931,112.20,67.74,-195.30
1507,87247499,-1.1230,0.5503,0.8857,111.95,63.90,-193.90
1508,87252672,-1.1030,0.5449,0.8911,110.73,59.39,-192.13
1509,87257499,-1.1333,0.5405,0.8696,109.51,56.77,-191.04
1510,87262906,-1.1587,0.5308,0.8457,107.44,52.62,-189.33
1511,87267499,-1.1572,0.5239,0.8501,105.91,49.94,-188.23
1512,87272879,-1.1665,0.5181,0.8423,103.29,46.22,-186.71
1513,87277499,-1.1748,0.5098,0.8320,101.22,43.90,-185.73
1514,87282502,-1.1831,0.5068,0.8179,97.87,40.49,-184.51
1515,87287499,-1.1826,0.5024,0.8169,95.49,38.35,-183.78
1516,87292499,-1.1855,0.4976,0.8027,91.77,35.55,-182.68
1517,87297499,-1.1890,0.4927,0.8003,89.21,33.66,-182.13
1518,87302961,-1.1938,0.4868,0.8022,85.43,31.28,-181.34
1519,87307499,-1.2021,0.4829,0.8003,83.05,29.70,-180.73
1520,87312499,-1.2080,0.4775,0.7954,80.73,27.93,-180.06
1521,87317499,-1.2144,0.4653,0.7847,78.54,25.79,-179.21
1522,87322499,-1.2153,0.4580,0.7920,77.38,24.45,-178.66
1523,87327499,-1.2095,0.4561,0.7788,76.52,22.93,-177.93
1524,87332497,-1.2041,0.4453,0.7686,75.91,21.16,-177.26
1525,87337502,-1.1641,0.4526,0.7407,75.18,19.33,-176.59
1526,87342498,-1.1880,0.4375,0.7734,74.76,17.62,-176.16
1527,87347497,-1.2104,0.4297,0.7529,75.12,15.73,-175.55
1528,87352497,-1.2080,0.4277,0.7363,75.91,13.60,-174.88
1529,87357502,-1.1812,0.4277,0.7266,77.13,11.59,-174.27
1530,87362907,-1.1479,0.4243,0.7290,78.96,9.15,-173.48
1531,87367499,-1.1270,0.4233,0.7300,80.37,7.62,-173.05
1532,87372887,-1.0996,0.4268,0.7163,82.56,5.18,-172.32
1533,87377499,-1.0894,0.4268,0.7397,84.15,3.78,-171.77
1534,87382778,-1.1289,0.4170,0.7388,87.01,2.13,-170.85
1535,87387499,-1.1484,0.3994,0.7354,90.12,0.55,-169.82
1536,87392499,-1.1436,0.3931,0.7417,93.35,-0.49,-168.66
1537,87397499,-1.1279,0.3867,0.7422,97.80,-1.89,-167.13
1538,87402973,-1.0942,0.3784,0.7407,103.78,-3.35,-165.00
1539,87407499,-1.0801,0.3726,0.7397,108.29,-4.39,-163.41
1540,87412904,-1.0605,0.3711,0.7407,115.24,-5.98,-160.73
1541,87417499,-1.0581,0.3672,0.7368,120.06,-6.89,-158.90
1542,87422850,-1.0371,0.3633,0.7300,127.20,-8.72,-155.91
1543,87427499,-1.0337,0.3623,0.7324,132.38,-9.82,-153.84
1544,87432501,-1.0127,0.3594,0.7349,138.54,-11.34,-151.04
1545,87437499,-0.9912,0.3550,0.7349,144.51,-12.93,-148.17
1546,87442758,-0.9771,0.3491,0.7310,149.82,-14.39,-145.30
1547,87447499,-0.9634,0.3472,0.7363,154.76,-15.79,-142.26
1548,87452898,-0.9512,0.3457,0.7378,160.00,-17.74,-138.60
1549,87457499,-0.9404,0.3394,0.7456,163.48,-18.78,-136.04
1550,87462959,-0.9277,0.3267,0.7485,168.05,-20.37,-131.95
1551,87467499,-0.9194,0.3252,0.7520,171.04,-21.34,-129.21
1552,87472499,-0.9126,0.3115,0.7441,174.57,-22.62,-125.61
1553,87477500,-0.8965,0.3037,0.7500,177.99,-23.90,-121.77
1554,87482499,-0.8877,0.2891,0.7485,181.10,-25.12,-117.80
1555,87487500,-0.8828,0.2876,0.7446,184.09,-26.16,-113.78
1556,87492500,-0.8828,0.2842,0.7417,186.71,-27.44,-109.76
1557,87497948,-0.8838,0.2856,0.7251,189.09,-28.90,-105.00
1558,87502499,-0.8818,0.2925,0.7275,190.30,-29.88,-101.95
1559,87507499,-0.8784,0.2969,0.7222,191.16,-30.91,-98.11
1560,87512781,-0.8721,0.3013,0.7188,191.28,-32.01,-94.63
1561,87517499,-0.8730,0.2949,0.7207,190.73,-33.05,-91.22
1562,87522818,-0.8599,0.3003,0.7158,189.82,-33.90,-87.80
1563,87527499,-0.8516,0.3062,0.7178,188.35,-34.63,-84.76
1564,87532499,-0.8384,0.3115,0.7183,186.40,-35.12,-81.71
1565,87537499,-0.8315,0.3105,0.7202,183.90,-35.43,-78.78
1566,87542727,-0.8267,0.3042,0.7212,181.22,-35.67,-75.79
1567,87547499,-0.8149,0.3013,0.7173,178.48,-35.91,-72.93
1568,87552499,-0.8149,0.2983,0.7129,175.30,-35.85,-70.12
1569,87557500,-0.8042,0.2915,0.7056,172.26,-35.79,-67.13
1570,87562499,-0.7979,0.2871,0.7139,168.90,-35.79,-64.39
1571,87567501,-0.7944,0.2886,0.7021,165.49,-35.61,-61.52
1572,87572498,-0.7920,0.2812,0.6929,161.95,-35.55,-58.84
1573,87577499,-0.7881,0.2842,0.6963,158.29,-35.30,-56.10
1574,87582845,-0.7905,0.2861,0.6958,154.15,-35.00,-53.60
1575,87587499,-0.7837,0.2910,0.6870,149.76,-34.82,-51.16
1576,87592499,-0.7798,0.2920,0.6890,144.76,-34.70,-48.96
1577,87597499,-0.7759,0.3008,0.6816,139.21,-34.21,-46.83
1578,87602499,-0.7715,0.3057,0.6802,133.17,-33.90,-44.94
1579,87607499,-0.7725,0.3115,0.6821,127.26,-33.60,-43.05
1580,87612882,-0.7705,0.3105,0.6753,120.67,-33.29,-41.34
1581,87617499,-0.7695,0.3145,0.6724,114.09,-32.87,-39.63
1582,87622499,-0.7603,0.3086,0.6685,107.50,-32.56,-38.05
1583,87627499,-0.7505,0.3105,0.6655,100.98,-31.89,-36.28
1584,87632497,-0.7441,0.3081,0.6660,94.82,-31.40,-34.51
1585,87637497,-0.7402,0.2993,0.6587,87.74,-30.61,-32.26
1586,87642499,-0.7427,0.2983,0.6606,83.29,-30.06,-30.67
1587,87647499,-0.7427,0.2988,0.6562,77.93,-29.33,-28.78
1588,87652500,-0.7422,0.2964,0.6660,72.74,-28.54,-26.65
1589,87657499,-0.7417,0.2910,0.6636,67.80,-27.74,-24.63
1590,87662860,-0.7329,0.2861,0.6660,63.29,-26.89,-22.26
1591,87667499,-0.7383,0.2803,0.6621,59.27,-26.04,-19.94
1592,87672499,-0.7310,0.2778,0.6592,55.79,-25.18,-17.62
1593,87677499,-0.7354,0.2700,0.6606,52.74,-24.33,-15.06
1594,87682719,-0.7339,0.2676,0.6631,49.88,-23.35,-12.44
1595,87687499,-0.7344,0.2637,0.6641,47.07,-22.32,-9.88
1596,87692964,-0.7388,0.2661,0.6631,44.45,-21.40,-7.38
1597,87697499,-0.7373,0.2681,0.6680,41.83,-20.49,-5.00
1598,87702724,-0.7397,0.2690,0.6606,39.21,-19.45,-2.56
1599,87707499,-0.7344,0.2729,0.6577,36.40,-18.54,-0.30
1600,87712499,-0.7295,0.2759,0.6650,33.66,-17.50,1.71
1601,87717619,-0.7344,0.2773,0.6621,30.85,-16.52,3.60
1602,87722499,-0.7383,0.2778,0.6650,28.23,-15.49,5.61
1603,87727500,-0.7402,0.2754,0.6646,25.79,-14.39,7.44
1604,87732499,-0.7368,0.2686,0.6621,23.60,-13.54,9.33
1605,87737499,-0.7393,0.2637,0.6616,21.52,-12.50,11.10
1606,87742502,-0.7363,0.2612,0.6621,19.76,-11.52,12.99
1607,87747499,-0.7305,0.2539,0.6606,18.11,-10.61,14.76
1608,87752499,-0.7212,0.2534,0.6587,16.46,-9.70,16.59
1609,87757499,-0.7192,0.2490,0.6553,14.88,-8.66,18.29
1610,87762718,-0.7163,0.2485,0.6597,13.35,-7.80,19.88
1611,87767499,-0.7217,0.2446,0.6616,11.59,-6.83,21.46
1612,87772499,-0.7236,0.2412,0.6582,9.94,-5.73,22.93
1613,87777499,-0.7231,0.2373,0.6670,8.23,-4.82,24.45
1614,87782499,-0.7300,0.2383,0.6777,6.46,-3.84,25.91
1615,87787500,-0.7275,0.2319,0.6738,4.70,-2.74,27.32
1616,87792499,-0.7378,0.2310,0.6802,2.99,-1.65,28.78
1617,87797596,-0.7402,0.2246,0.6812,1.46,-0.55,30.24
1618,87802499,-0.7427,0.2173,0.6792,0.00,0.37,31.77
1619,87807499,-0.7378,0.2129,0.6812,-1.10,1.52,33.29
1620,87812499,-0.7363,0.2075,0.6831,-2.01,2.62,34.63
1621,87817498,-0.7427,0.2046,0.6748,-2.74,3.54,36.10
1622,87822499,-0.7363,0.1987,0.6709,-3.35,4.63,37.44
1623,87827499,-0.7344,0.1958,0.6724,-3.96,5.37,38.90
1624,87832499,-0.7363,0.1973,0.6748,-4.57,6.28,40.06
1625,87837499,-0.7358,0.1958,0.6694,-5.24,7.32,41.34
1626,87842498,-0.7412,0.1938,0.6768,-5.98,8.17,42.26
1627,87847499,-0.7412,0.1924,0.6758,-7.01,9.02,43.29
1628,87852500,-0.7456,0.1943,0.6748,-8.17,9.88,44.15
1629,87857499,-0.7422,0.1978,0.6841,-9.45,10.61,44.82
1630,87862499,-0.7485,0.1948,0.6782,-11.10,11.52,45.49
1631,87867499,-0.7490,0.1929,0.6826,-12.74,12.44,46.04
1632,87872499,-0.7412,0.1880,0.6841,-14.51,13.29,46.52
1633,87877529,-0.7354,0.1875,0.6787,-16.28,14.09,46.95
1634,87882500,-0.7290,0.1807,0.6885,-17.99,15.00,47.38
1635,87887497,-0.7324,0.1782,0.6904,-19.76,15.73,47.80
1636,87892497,-0.7368,0.1724,0.6870,-21.40,16.59,48.23
1637,87897497,-0.7344,0.1670,0.6875,-22.87,17.32,48.78
1638,87903167,-0.7388,0.1631,0.6899,-24.27,18.11,49.09
1639,87907499,-0.7437,0.1523,0.6880,-25.55,18.78,49.57
1640,87912498,-0.7456,0.1484,0.6938,-26.77,19.45,50.12
1641,87917497,-0.7515,0.1455,0.6934,-28.29,20.30,50.79
1642,87922603,-0.7539,0.1445,0.6953,-28.96,20.73,50.98
1643,87927501,-0.7549,0.1426,0.6929,-30.18,21.22,51.34
1644,87932499,-0.7573,0.1416,0.6992,-31.28,21.65,51.65
