# skilleye imu stream v1
# device=xiao_esp32c6 imu=mpu6050 addr=0x68
# rate_hz=200 accel_range_g=16 gyro_range_dps=2000 dlpf_hz=94
# units: accel in g, gyro in deg/s, t_us in microseconds since boot (monotonic)
# no shared clock with the camera -- tap the racket once before each take
# so both recordings share a spike to align on
seq,t_us,ax,ay,az,gx,gy,gz
0,194740442,-0.9624,-0.0454,-0.1187,5.00,0.49,2.93
1,194745448,-0.9619,-0.0415,-0.1206,4.76,0.61,2.74
2,194750442,-0.9663,-0.0420,-0.1274,4.45,0.30,2.44
3,194755443,-0.9600,-0.0430,-0.1235,4.09,0.37,2.44
4,194760442,-0.9585,-0.0386,-0.1221,3.54,0.37,2.13
5,194765443,-0.9580,-0.0352,-0.1265,3.05,0.37,1.83
6,194770443,-0.9614,-0.0352,-0.1328,2.38,0.18,1.59
7,194775441,-0.9624,-0.0342,-0.1299,1.89,0.24,1.40
8,194780442,-0.9634,-0.0376,-0.1270,1.22,0.18,1.16
9,194785443,-0.9634,-0.0352,-0.1299,0.73,0.30,0.73
10,194790442,-0.9639,-0.0312,-0.1367,0.00,0.24,0.43
11,194795441,-0.9624,-0.0283,-0.1338,-0.73,0.24,0.18
12,194800442,-0.9570,-0.0288,-0.1338,-1.46,0.30,0.00
13,194805441,-0.9521,-0.0239,-0.1328,-2.20,0.37,-0.30
14,194810441,-0.9512,-0.0254,-0.1392,-2.99,0.37,-0.67
15,194815444,-0.9468,-0.0205,-0.1367,-3.41,0.49,-0.98
16,194820441,-0.9385,-0.0190,-0.1328,-4.02,0.61,-1.22
17,194825737,-0.9399,-0.0137,-0.1343,-4.76,0.73,-1.40
18,194830442,-0.9399,-0.0142,-0.1323,-5.12,0.61,-1.65
19,194835440,-0.9424,-0.0117,-0.1299,-5.55,0.79,-1.89
20,194840443,-0.9409,-0.0117,-0.1343,-5.85,0.79,-2.07
21,194845442,-0.9375,-0.0083,-0.1362,-6.10,0.67,-2.20
22,194850442,-0.9419,-0.0005,-0.1299,-6.40,0.85,-2.38
23,194855443,-0.9443,-0.0020,-0.1348,-6.65,0.85,-2.62
24,194860442,-0.9487,-0.0015,-0.1226,-6.65,0.73,-2.62
25,194865443,-0.9453,0.0034,-0.1240,-6.71,0.61,-2.68
26,194870442,-0.9443,0.0098,-0.1196,-6.71,0.61,-2.74
27,194875442,-0.9507,0.0103,-0.1177,-6.59,0.49,-2.80
28,194880442,-0.9458,0.0142,-0.1162,-6.40,0.37,-2.74
29,194885443,-0.9502,0.0132,-0.1177,-6.34,0.37,-2.74
30,194890442,-0.9478,0.0142,-0.1182,-6.04,0.30,-2.56
31,194895443,-0.9487,0.0195,-0.1123,-5.73,0.24,-2.44
32,194900442,-0.9536,0.0229,-0.1177,-5.67,0.18,-2.32
33,194905441,-0.9482,0.0239,-0.1147,-5.30,0.06,-2.20
34,194910441,-0.9468,0.0249,-0.1113,-4.63,-0.18,-1.89
35,194915444,-0.9443,0.0293,-0.1162,-4.45,-0.61,-1.59
36,194920440,-0.9443,0.0293,-0.1162,-3.78,-0.73,-1.16
37,194925441,-0.9453,0.0283,-0.1050,-3.17,-1.10,-0.79
38,194930443,-0.9473,0.0332,-0.1113,-2.50,-1.28,-0.30
39,194935441,-0.9482,0.0356,-0.1069,-1.83,-1.46,0.24
40,194940442,-0.9458,0.0327,-0.0952,-0.91,-1.65,0.79
41,194945787,-0.9434,0.0352,-0.0991,0.00,-2.07,1.46
42,194950443,-0.9517,0.0327,-0.0967,0.67,-2.26,1.83
43,194955705,-0.9473,0.0347,-0.0991,1.46,-2.32,2.50
44,194960442,-0.9492,0.0312,-0.0981,2.26,-2.56,3.17
45,194965443,-0.9512,0.0283,-0.0942,2.93,-2.80,3.72
46,194970442,-0.9473,0.0269,-0.0854,3.54,-2.99,4.33
47,194975444,-0.9478,0.0303,-0.0903,3.96,-3.05,5.00
48,194980440,-0.9507,0.0269,-0.0928,4.21,-3.23,5.61
49,194985440,-0.9507,0.0239,-0.0996,4.27,-3.72,6.34
50,194990444,-0.9541,0.0190,-0.0962,4.33,-4.15,6.83
51,194995442,-0.9521,0.0176,-0.0942,4.09,-4.45,7.56
52,195000441,-0.9551,0.0146,-0.0967,3.78,-4.82,8.11
53,195005444,-0.9580,0.0161,-0.0977,3.29,-5.24,8.72
54,195010441,-0.9556,0.0132,-0.0894,2.80,-5.55,9.27
55,195015440,-0.9634,0.0083,-0.0947,2.13,-5.98,10.00
56,195020444,-0.9590,0.0122,-0.0977,1.40,-6.28,10.55
57,195025442,-0.9565,0.0049,-0.0962,0.67,-6.65,11.16
58,195030441,-0.9619,0.0015,-0.0918,-0.18,-7.13,11.71
59,195035443,-0.9629,-0.0020,-0.0928,-0.85,-7.38,12.32
60,195040440,-0.9570,-0.0039,-0.0962,-1.83,-7.62,12.93
61,195045444,-0.9619,-0.0073,-0.0942,-2.80,-7.99,13.54
62,195050441,-0.9561,-0.0093,-0.0991,-3.48,-8.17,14.09
63,195055442,-0.9546,-0.0132,-0.1006,-4.33,-8.78,14.57
64,195060440,-0.9590,-0.0176,-0.1016,-5.30,-9.09,15.06
65,195065890,-0.9590,-0.0186,-0.0972,-6.28,-9.21,15.61
66,195070443,-0.9580,-0.0200,-0.0977,-6.95,-9.51,15.98
67,195075442,-0.9590,-0.0239,-0.1016,-7.74,-9.82,16.34
68,195080442,-0.9658,-0.0278,-0.1108,-8.29,-9.88,16.59
69,195085441,-0.9663,-0.0288,-0.1045,-8.96,-10.00,16.83
70,195090442,-0.9692,-0.0278,-0.1094,-9.33,-10.12,16.89
71,195095441,-0.9658,-0.0327,-0.1060,-9.76,-10.18,17.07
72,195100442,-0.9683,-0.0308,-0.1113,-10.06,-10.37,17.20
73,195105813,-0.9658,-0.0332,-0.1143,-9.94,-10.49,17.20
74,195110443,-0.9712,-0.0352,-0.1138,-9.82,-10.55,17.38
75,195115441,-0.9717,-0.0347,-0.1108,-9.33,-10.67,17.32
76,195120481,-0.9717,-0.0337,-0.1162,-8.60,-10.73,17.38
77,195125488,-0.9697,-0.0371,-0.1235,-7.93,-10.79,17.32
78,195130443,-0.9683,-0.0352,-0.1230,-7.01,-10.98,17.20
79,195135442,-0.9697,-0.0386,-0.1196,-5.85,-10.79,17.07
80,195140440,-0.9644,-0.0337,-0.1226,-4.70,-10.98,16.89
81,195145440,-0.9634,-0.0400,-0.1216,-3.35,-10.91,16.89
82,195150444,-0.9639,-0.0322,-0.1240,-1.89,-10.67,16.65
83,195155442,-0.9624,-0.0317,-0.1265,-0.43,-10.61,16.40
84,195160442,-0.9595,-0.0303,-0.1299,0.98,-10.49,16.28
85,195165443,-0.9595,-0.0283,-0.1343,2.38,-10.37,15.91
86,195170442,-0.9521,-0.0249,-0.1357,3.90,-10.12,15.73
87,195175441,-0.9556,-0.0229,-0.1299,5.12,-9.94,15.43
88,195180442,-0.9512,-0.0229,-0.1265,6.40,-9.63,15.24
89,195185441,-0.9414,-0.0225,-0.1357,7.56,-9.51,14.94
90,195190442,-0.9434,-0.0200,-0.1284,8.48,-9.21,14.70
91,195195767,-0.9414,-0.0161,-0.1270,9.09,-8.96,14.45
92,195200443,-0.9453,-0.0151,-0.1299,9.70,-8.54,14.33
93,195205442,-0.9385,-0.0122,-0.1304,10.00,-8.23,14.09
94,195210441,-0.9336,-0.0098,-0.1279,10.06,-7.99,13.90
95,195215441,-0.9365,-0.0054,-0.1211,9.94,-7.80,13.78
96,195220524,-0.9336,-0.0049,-0.1143,9.70,-7.56,13.60
97,195225444,-0.9346,0.0000,-0.1240,9.09,-7.26,13.54
98,195230441,-0.9321,0.0015,-0.1187,8.41,-7.13,13.29
99,195235442,-0.9370,0.0044,-0.1162,7.56,-6.89,13.35
100,195240440,-0.9341,0.0098,-0.1128,6.77,-6.83,13.17
101,195245442,-0.9395,0.0117,-0.1157,5.85,-6.46,13.23
102,195250441,-0.9424,0.0117,-0.1074,5.06,-6.22,13.29
103,195255442,-0.9380,0.0156,-0.1089,4.21,-6.16,13.35
104,195260440,-0.9351,0.0186,-0.1069,3.66,-5.98,13.54
105,195265476,-0.9399,0.0210,-0.0991,2.99,-5.73,13.90
106,195270441,-0.9380,0.0225,-0.1021,2.62,-5.67,14.27
107,195275440,-0.9419,0.0186,-0.0996,2.26,-5.43,14.63
108,195280442,-0.9507,0.0200,-0.1016,2.01,-5.24,15.18
109,195285442,-0.9478,0.0205,-0.0952,1.89,-5.12,15.85
110,195290444,-0.9551,0.0200,-0.1001,1.95,-4.76,16.46
111,195295441,-0.9590,0.0293,-0.1055,2.20,-4.76,17.07
112,195300442,-0.9619,0.0264,-0.0972,2.26,-4.51,17.74
113,195305441,-0.9731,0.0283,-0.0947,2.44,-4.33,18.54
114,195310442,-0.9741,0.0278,-0.0957,2.68,-4.27,19.27
115,195315441,-0.9756,0.0298,-0.0874,2.80,-4.02,20.12
116,195320441,-0.9839,0.0288,-0.0962,3.11,-3.78,20.85
117,195325745,-0.9873,0.0347,-0.0967,3.41,-3.41,21.65
118,195330442,-0.9814,0.0327,-0.0957,3.60,-3.48,22.44
119,195335442,-0.9785,0.0430,-0.0952,3.78,-3.29,23.23
120,195340442,-0.9868,0.0396,-0.0986,4.09,-3.05,23.96
121,195345441,-0.9829,0.0386,-0.1050,4.15,-2.93,24.82
122,195350442,-0.9775,0.0425,-0.1001,4.21,-2.74,25.55
123,195355443,-0.9775,0.0381,-0.1069,4.21,-2.38,26.34
124,195360442,-0.9844,0.0391,-0.1035,4.45,-2.07,27.13
125,195365442,-0.9902,0.0415,-0.1104,4.39,-1.71,27.99
126,195370442,-0.9883,0.0488,-0.1084,4.39,-1.28,28.72
127,195375443,-0.9878,0.0449,-0.1143,4.21,-0.98,29.51
128,195380442,-0.9844,0.0454,-0.1182,3.90,-0.55,30.37
129,195385440,-0.9854,0.0435,-0.1138,3.23,0.06,31.16
130,195390443,-0.9873,0.0483,-0.1201,2.32,0.55,32.01
131,195395442,-0.9819,0.0464,-0.1240,1.34,1.22,32.93
132,195400442,-0.9795,0.0464,-0.1274,0.00,1.77,33.90
133,195405442,-0.9761,0.0513,-0.1289,-1.28,2.32,34.70
134,195410442,-0.9502,0.0527,-0.1226,-2.93,3.11,35.49
135,195415441,-0.9668,0.0503,-0.1455,-4.39,3.78,36.28
136,195420442,-0.9922,0.0459,-0.1523,-5.98,4.33,37.20
137,195425440,-1.0073,0.0557,-0.1528,-7.62,5.12,37.99
138,195430443,-1.0107,0.0645,-0.1548,-9.33,6.10,38.78
139,195435442,-1.0103,0.0674,-0.1646,-10.98,7.01,39.51
140,195440440,-1.0103,0.0654,-0.1782,-12.38,7.93,40.18
141,195445444,-1.0103,0.0679,-0.1846,-13.84,8.72,40.73
142,195450440,-1.0039,0.0728,-0.1934,-15.00,9.88,41.59
143,195455442,-1.0073,0.0806,-0.1992,-16.10,10.91,42.13
144,195460441,-1.0132,0.0835,-0.2104,-16.95,12.01,42.74
145,195465444,-1.0254,0.0923,-0.2222,-17.50,13.29,43.54
146,195470440,-1.0264,0.0986,-0.2422,-17.87,14.70,44.15
147,195475444,-1.0352,0.1016,-0.2520,-18.29,15.98,44.94
148,195480440,-1.0405,0.1055,-0.2607,-18.84,17.44,45.91
149,195485442,-1.0347,0.1113,-0.2715,-19.21,19.21,46.83
150,195490441,-1.0298,0.1177,-0.2861,-19.51,21.04,47.93
151,195495444,-1.0303,0.1211,-0.3018,-19.88,22.56,49.15
152,195500440,-1.0366,0.1270,-0.3125,-20.37,24.09,50.12
153,195505442,-1.0439,0.1377,-0.3252,-21.04,26.10,51.59
154,195510440,-1.0493,0.1465,-0.3340,-21.59,27.74,52.56
155,195515442,-1.0547,0.1509,-0.3384,-22.32,29.76,53.78
156,195520441,-1.0596,0.1704,-0.3462,-23.17,31.95,54.94
157,195525501,-1.0654,0.1846,-0.3555,-24.15,34.63,56.34
158,195530444,-1.0723,0.1973,-0.3579,-25.00,36.46,57.26
159,195535442,-1.0845,0.2002,-0.3682,-25.85,38.78,58.35
160,195540440,-1.0952,0.2148,-0.3740,-26.71,41.22,59.39
161,195545442,-1.1045,0.2246,-0.3750,-27.62,43.60,60.67
162,195550441,-1.0996,0.2275,-0.3901,-28.29,45.79,61.77
163,195555444,-1.1011,0.2363,-0.3999,-28.84,48.23,62.99
164,195560442,-1.1099,0.2476,-0.4160,-29.15,50.24,64.33
165,195565442,-1.1177,0.2554,-0.4307,-29.27,52.38,65.67
166,195570440,-1.1255,0.2700,-0.4429,-29.21,54.51,67.13
167,195575442,-1.1309,0.2803,-0.4629,-28.96,56.40,68.60
168,195580441,-1.1338,0.2827,-0.4731,-28.66,58.35,70.18
169,195585442,-1.1304,0.2876,-0.4805,-28.17,60.37,71.65
170,195590440,-1.1313,0.3115,-0.4922,-27.68,62.13,73.23
171,195595444,-1.1304,0.3228,-0.4980,-27.50,64.27,74.70
172,195600441,-1.1270,0.3262,-0.4951,-27.93,66.77,76.28
173,195605444,-1.1309,0.3428,-0.5264,-28.48,69.09,77.74
174,195610440,-1.1313,0.3677,-0.5571,-29.02,71.16,79.09
175,195615442,-1.1357,0.3965,-0.5576,-29.76,73.05,80.12
176,195620441,-1.1357,0.4150,-0.5547,-30.85,75.49,81.16
177,195625441,-1.1396,0.4253,-0.5625,-31.95,77.68,82.13
178,195630440,-1.1328,0.4233,-0.5835,-33.35,80.06,83.35
179,195635444,-1.1304,0.4229,-0.5874,-34.57,82.32,84.76
180,195640440,-1.1279,0.4277,-0.5894,-35.67,85.61,86.22
181,195645442,-1.1235,0.4380,-0.6069,-36.04,86.22,87.26
182,195650441,-1.1167,0.4556,-0.6226,-36.16,87.26,87.32
183,195655442,-1.1074,0.4717,-0.6182,-35.55,90.37,89.63
184,195660440,-1.0908,0.4868,-0.6318,-34.51,92.62,90.79
185,195665442,-1.0786,0.4980,-0.6387,-32.87,94.70,92.32
186,195670441,-1.0635,0.5005,-0.6489,-30.79,96.89,93.78
187,195675442,-1.0498,0.5122,-0.6362,-28.48,99.15,95.30
188,195680440,-1.0317,0.5200,-0.6514,-25.61,101.22,96.83
189,195685446,-1.0234,0.5293,-0.6587,-22.50,103.48,98.23
190,195690441,-1.0156,0.5439,-0.6538,-18.96,105.91,99.45
191,195695444,-1.0083,0.5576,-0.6538,-15.12,108.54,100.73
192,195700440,-1.0020,0.5737,-0.6455,-10.67,111.34,101.77
193,195705442,-0.9907,0.5889,-0.6592,-5.73,114.15,102.74
194,195710441,-0.9819,0.6055,-0.6543,-0.12,117.32,103.78
195,195715442,-0.9722,0.6230,-0.6562,6.10,120.49,104.70
196,195720440,-0.9551,0.6367,-0.6592,12.74,123.66,105.37
197,195725444,-0.9375,0.6494,-0.6670,19.57,126.89,105.98
198,195730441,-0.9258,0.6548,-0.6675,26.89,130.18,106.71
199,195735440,-0.9087,0.6685,-0.6680,34.09,133.60,107.44
200,195740444,-0.8960,0.6807,-0.6763,41.28,136.77,107.93
201,195745442,-0.8765,0.6890,-0.6846,48.35,140.00,108.41
202,195750441,-0.8472,0.6943,-0.6836,55.18,143.05,108.90
203,195755442,-0.8179,0.7002,-0.6826,61.71,146.10,109.33
204,195760440,-0.7954,0.7046,-0.6968,67.80,149.02,109.57
205,195765442,-0.7749,0.7124,-0.6987,73.66,151.77,109.88
206,195770441,-0.7544,0.7188,-0.6938,78.78,154.63,110.06
207,195775603,-0.7188,0.7163,-0.6938,82.93,157.50,110.06
208,195780442,-0.7231,0.7197,-0.7031,86.40,160.37,110.18
209,195785442,-0.7324,0.7290,-0.7075,88.54,163.23,110.06
210,195790442,-0.7310,0.7402,-0.7119,89.63,166.16,109.94
211,195795443,-0.7144,0.7349,-0.7183,89.94,168.72,110.00
212,195800442,-0.6841,0.7290,-0.7227,89.39,171.52,109.70
213,195805440,-0.6587,0.7207,-0.7202,87.56,174.76,109.57
214,195810443,-0.6440,0.7100,-0.7144,85.43,177.01,109.45
215,195815442,-0.6372,0.7119,-0.7217,82.13,179.63,109.21
216,195820442,-0.6294,0.7192,-0.7397,78.11,182.26,109.09
217,195825441,-0.6177,0.7471,-0.7764,73.96,184.39,108.41
218,195830442,-0.6323,0.7158,-0.7100,69.88,186.34,107.74
219,195835443,-0.6748,0.7056,-0.7266,65.55,188.72,107.01
220,195840443,-0.7090,0.7168,-0.7671,60.37,190.79,106.16
221,195845442,-0.7173,0.7344,-0.7417,55.00,192.99,105.00
222,195850442,-0.7148,0.7529,-0.7412,49.51,194.94,103.54
223,195855441,-0.7021,0.7651,-0.7866,44.15,196.65,101.77
224,195860442,-0.6978,0.7715,-0.7979,38.54,198.23,100.00
225,195865442,-0.6978,0.7646,-0.7754,32.87,199.63,98.17
226,195870442,-0.6929,0.7549,-0.7754,27.01,201.16,96.46
227,195875443,-0.6772,0.7500,-0.7949,21.16,202.26,94.82
228,195880442,-0.6611,0.7524,-0.7974,15.24,203.29,93.17
229,195885442,-0.6528,0.7515,-0.7783,9.39,204.45,91.65
230,195890442,-0.6562,0.7407,-0.7905,3.23,205.55,89.57
231,195895441,-0.6553,0.7261,-0.8110,-3.23,206.28,88.48
232,195900442,-0.6333,0.7104,-0.8003,-9.88,206.95,86.89
233,195905442,-0.6108,0.6987,-0.7739,-16.65,207.44,86.77
234,195910442,-0.5986,0.6768,-0.7817,-23.29,207.99,86.71
235,195915440,-0.5913,0.6631,-0.7910,-30.06,208.54,86.59
236,195920441,-0.5864,0.6470,-0.7725,-36.46,208.78,85.06
237,195925442,-0.5762,0.6279,-0.7432,-42.50,209.02,85.91
238,195930440,-0.5537,0.6191,-0.7368,-48.05,209.02,85.49
239,195935440,-0.5352,0.5806,-0.7515,-52.93,208.96,84.82
240,195940443,-0.4941,0.4287,-0.6934,-56.52,208.54,87.20
241,195945442,-0.3389,0.3535,-0.6499,-56.95,208.78,88.48
242,195950443,-0.3696,0.4233,-0.7305,-54.88,208.66,92.13
243,195955442,-0.4482,0.4932,-0.7808,-51.83,207.50,94.15
244,195960441,-0.4146,0.4648,-0.7070,-47.68,206.22,95.73
245,195965442,-0.3613,0.4141,-0.6592,-42.26,205.61,97.44
246,195970440,-0.3364,0.3735,-0.6597,-36.28,205.06,99.39
247,195975444,-0.3706,0.3853,-0.6816,-29.82,204.15,101.34
248,195980441,-0.3936,0.4092,-0.6860,-22.80,202.87,102.80
249,195985442,-0.4351,0.3882,-0.7432,-15.49,201.22,103.96
250,195990440,-0.3398,0.4443,-0.6030,-7.13,199.02,105.00
251,195995442,-0.2876,0.4507,-0.5981,0.85,197.80,105.00
252,196000441,-0.3252,0.4292,-0.6045,8.23,196.59,104.88
253,196005440,-0.3530,0.4468,-0.5586,15.18,195.06,104.02
254,196010444,-0.3325,0.4644,-0.5630,21.22,193.41,102.62
255,196015442,-0.2983,0.4810,-0.5835,26.34,192.01,100.61
256,196020441,-0.2778,0.4878,-0.5283,30.85,190.49,98.29
257,196025442,-0.2568,0.4878,-0.4927,34.33,189.21,95.67
258,196030440,-0.2031,0.4761,-0.5352,37.32,187.50,92.74
259,196035441,-0.1733,0.4639,-0.5391,39.09,185.79,89.88
260,196040442,-0.1528,0.4502,-0.4888,40.06,184.33,86.95
261,196045444,-0.1450,0.4541,-0.4639,40.30,183.05,83.96
262,196050441,-0.1445,0.4448,-0.4824,39.88,181.65,80.73
263,196055444,-0.1284,0.4199,-0.4746,39.02,179.94,77.62
264,196060440,-0.0986,0.3774,-0.4502,38.11,178.29,75.06
265,196065444,-0.0503,0.3843,-0.3960,37.01,176.52,72.87
266,196070441,-0.0361,0.3931,-0.4351,35.91,174.82,70.49
267,196075442,-0.0332,0.3911,-0.4629,34.57,172.62,67.93
268,196080440,-0.0234,0.3096,-0.3521,32.87,170.85,65.55
269,196085442,-0.0186,0.3838,-0.4561,31.22,169.09,63.72
270,196090441,-0.0024,0.4033,-0.4058,29.51,166.65,61.40
271,196095442,-0.0068,0.3765,-0.3638,27.87,164.70,59.02
272,196100535,0.0034,0.3398,-0.3906,26.22,162.50,57.01
273,196105444,0.0273,0.3042,-0.4155,24.94,159.70,55.18
274,196110441,0.0562,0.2925,-0.3809,23.60,156.95,53.05
275,196115442,0.0864,0.2998,-0.3569,22.50,154.33,51.10
276,196120442,0.1069,0.3159,-0.3682,21.71,151.59,48.96
277,196125442,0.1318,0.3345,-0.3892,20.85,148.35,46.77
278,196130441,0.1479,0.3481,-0.3687,20.49,145.37,44.39
279,196135443,0.1680,0.3320,-0.3286,20.06,142.32,41.95
280,196140440,0.1904,0.3032,-0.3599,19.94,139.15,39.57
281,196145444,0.2075,0.2832,-0.3760,19.88,135.85,37.38
282,196150441,0.2314,0.2676,-0.3574,20.06,132.62,35.18
283,196155444,0.2285,0.2593,-0.3579,20.06,129.33,33.05
284,196160440,0.2607,0.2642,-0.3706,20.37,125.79,30.98
285,196165440,0.2969,0.2734,-0.3657,20.91,122.56,29.09
286,196170444,0.3291,0.2788,-0.3286,21.46,119.51,27.26
287,196175441,0.3394,0.2705,-0.3096,21.89,116.65,25.55
288,196180440,0.3374,0.2534,-0.3179,22.44,114.09,23.84
289,196185443,0.3286,0.2402,-0.3135,22.74,111.46,21.83
290,196190440,0.3223,0.2451,-0.2793,22.99,109.45,20.55
291,196195443,0.3325,0.2354,-0.2788,23.05,106.65,18.54
292,196200443,0.3560,0.2671,-0.3086,23.11,104.70,17.07
293,196205440,0.3809,0.2637,-0.2915,22.93,102.13,15.37
294,196210440,0.4106,0.2441,-0.2842,22.93,99.33,13.66
295,196215840,0.4658,0.1704,-0.3237,23.05,96.46,12.87
296,196220442,0.5308,0.0820,-0.3633,23.29,93.66,13.17
297,196225890,0.6152,0.0283,-0.3491,24.15,88.96,15.06
298,196230443,0.6240,0.0796,-0.2881,25.00,85.67,17.07
299,196235442,0.5811,0.1543,-0.2656,26.22,83.23,18.60
300,196240534,0.5190,0.2021,-0.2783,27.68,79.70,19.45
301,196245443,0.4961,0.2217,-0.2700,28.60,77.74,19.45
302,196250442,0.5044,0.2148,-0.2661,29.57,75.49,19.33
303,196255442,0.5405,0.1968,-0.3032,30.30,73.23,19.27
304,196260441,0.5688,0.1826,-0.3301,31.10,70.98,19.27
305,196265442,0.6016,0.1826,-0.3062,32.01,68.72,19.57
306,196270440,0.6313,0.1890,-0.3125,32.87,67.01,19.88
307,196275442,0.6343,0.2090,-0.3389,33.48,65.12,20.24
308,196280441,0.6279,0.2295,-0.3481,33.96,63.23,20.12
309,196285442,0.6333,0.2612,-0.3545,34.27,61.46,19.70
310,196290440,0.6470,0.2817,-0.3989,34.51,59.39,18.84
311,196295442,0.6675,0.2749,-0.4087,34.94,57.01,17.62
312,196300441,0.6909,0.2515,-0.3774,35.43,54.70,16.34
313,196305442,0.7051,0.2456,-0.3652,35.37,52.80,15.43
314,196310440,0.7080,0.2554,-0.3779,35.55,50.98,14.57
315,196315442,0.7134,0.2671,-0.3750,35.18,49.33,13.66
316,196320441,0.7202,0.2729,-0.3677,34.63,47.62,12.62
317,196325442,0.7231,0.2656,-0.3677,33.84,46.16,11.71
318,196330440,0.7183,0.2598,-0.3677,32.87,44.76,10.85
319,196335440,0.7036,0.2612,-0.3750,31.71,43.54,9.76
320,196340440,0.6919,0.2583,-0.3789,30.49,42.50,8.78
321,196345440,0.6787,0.2349,-0.3955,29.51,41.52,7.87
322,196350444,0.6987,0.2832,-0.3496,28.96,40.55,6.95
323,196355442,0.7202,0.2598,-0.3145,28.29,40.24,6.04
324,196360442,0.7178,0.2593,-0.3491,27.26,39.94,5.43
325,196365441,0.7173,0.2607,-0.3555,26.22,39.21,5.00
326,196370442,0.7275,0.2573,-0.3379,25.12,38.60,4.88
327,196375442,0.7305,0.2593,-0.3364,23.72,37.87,4.70
328,196380442,0.7319,0.2505,-0.3423,22.44,37.32,4.82
329,196385441,0.7329,0.2407,-0.3320,20.98,36.65,5.18
330,196390442,0.7656,0.2451,-0.3491,19.45,36.04,5.73
331,196395442,0.7861,0.2495,-0.3511,17.93,35.24,6.28
332,196400442,0.7896,0.2588,-0.3447,16.10,34.76,6.89
333,196405441,0.7939,0.2446,-0.3428,14.02,34.02,7.87
334,196410442,0.7793,0.2676,-0.3613,11.83,33.60,8.96
335,196415443,0.7827,0.2598,-0.3589,10.06,33.11,10.12
336,196420442,0.7949,0.2759,-0.3486,8.48,32.50,11.40
337,196425441,0.8081,0.2734,-0.3462,7.32,31.95,12.87
338,196430442,0.8008,0.2847,-0.3433,6.40,31.59,14.21
339,196435442,0.7949,0.2900,-0.3257,5.85,30.67,15.91
340,196440442,0.8213,0.2998,-0.3428,5.67,29.33,17.26
341,196445440,0.8369,0.3091,-0.3345,5.98,28.11,18.90
342,196450440,0.8418,0.3193,-0.2969,6.71,26.89,20.43
343,196455440,0.8501,0.3262,-0.3032,7.99,25.55,22.01
344,196460444,0.8594,0.3330,-0.3311,9.57,24.27,23.41
345,196465442,0.8745,0.3311,-0.3301,11.46,22.74,24.82
346,196470441,0.8833,0.3247,-0.3149,13.41,21.34,26.16
347,196475442,0.8921,0.3149,-0.3252,15.30,20.06,27.62
348,196480440,0.9038,0.3120,-0.3408,17.13,18.48,29.15
349,196485442,0.9116,0.3096,-0.3281,18.90,17.13,30.67
350,196490441,0.9199,0.3091,-0.3101,20.79,15.73,32.20
351,196495442,0.9360,0.3101,-0.3315,22.80,14.45,33.48
352,196500440,0.9546,0.3105,-0.3384,24.88,13.11,34.63
353,196505442,0.9751,0.3091,-0.3408,27.07,11.95,35.49
354,196510441,0.9868,0.3037,-0.3511,29.51,10.79,36.46
355,196515444,1.0068,0.2998,-0.3662,32.32,9.39,37.01
356,196520440,1.0273,0.2920,-0.3916,35.55,8.35,37.74
357,196525442,1.0474,0.2817,-0.3936,39.27,7.44,38.54
358,196530441,1.0664,0.2749,-0.3999,43.48,6.89,39.51
359,196535442,1.0806,0.2720,-0.4248,47.87,6.28,40.30
360,196540440,1.0933,0.2656,-0.4365,52.32,6.22,41.28
361,196545441,1.1001,0.2568,-0.4409,56.77,6.40,42.32
362,196550443,1.1001,0.2539,-0.4580,61.16,6.52,42.99
363,196555442,1.1094,0.2295,-0.4790,65.37,7.01,43.72
364,196560441,1.1162,0.2256,-0.4897,69.51,7.74,44.51
365,196565442,1.1216,0.2383,-0.5088,73.72,8.48,44.88
366,196570440,1.1284,0.2534,-0.5229,77.93,9.09,45.00
367,196575442,1.1372,0.2563,-0.5449,81.65,9.94,45.00
368,196580440,1.1445,0.2539,-0.5674,85.18,10.67,44.63
369,196585442,1.1504,0.2480,-0.5796,88.23,11.77,44.39
370,196590441,1.1504,0.2456,-0.6089,90.91,13.05,43.96
371,196595442,1.1631,0.2388,-0.6406,92.87,14.57,43.48
372,196600440,1.1724,0.2393,-0.6724,94.09,15.98,42.80
373,196605442,1.1709,0.2378,-0.7085,94.27,17.74,41.89
374,196610441,1.1416,0.2402,-0.7329,93.90,19.82,41.04
375,196615444,1.1348,0.2290,-0.7715,93.05,22.32,39.88
376,196620441,1.1265,0.1953,-0.8213,92.32,24.94,38.78
377,196625442,1.1431,0.1855,-0.8423,91.77,28.05,37.74
378,196630440,1.1260,0.1997,-0.8613,90.49,30.98,36.40
379,196635442,1.1045,0.1987,-0.8916,88.90,33.90,34.82
380,196640440,1.1025,0.1899,-0.9248,87.26,37.26,32.99
381,196645442,1.0942,0.1802,-0.9365,85.12,40.67,31.10
382,196650441,1.0889,0.1831,-0.9517,82.99,44.09,28.90
383,196655440,1.0840,0.1934,-0.9761,80.98,47.68,26.71
384,196660443,1.0771,0.1948,-0.9844,78.96,51.34,24.45
385,196665440,1.0757,0.1978,-0.9868,77.26,55.18,22.20
386,196670440,1.0659,0.1914,-0.9810,75.73,59.33,20.18
387,196675443,1.0630,0.1758,-0.9937,74.51,63.60,18.11
388,196680442,1.0752,0.1777,-0.9790,73.90,67.80,16.10
389,196685442,1.0791,0.1738,-0.9697,73.48,72.38,14.21
390,196690441,1.0708,0.1807,-0.9619,73.78,76.71,12.20
391,196695442,1.0400,0.1748,-0.9551,74.39,81.28,10.30
392,196700440,1.0215,0.1816,-0.9551,75.37,86.10,8.48
393,196705442,0.9893,0.1812,-0.9492,76.52,90.24,6.59
394,196710440,0.9678,0.1826,-0.9448,78.17,94.82,4.63
395,196715444,0.9478,0.1792,-0.9365,80.24,98.96,2.87
396,196720441,0.9326,0.1777,-0.9224,82.44,103.35,0.98
397,196725442,0.9028,0.1787,-0.9146,85.18,107.50,-0.91
398,196730440,0.8774,0.1797,-0.9126,88.29,111.34,-2.87
399,196735442,0.8447,0.1699,-0.8940,91.71,115.06,-4.76
400,196740440,0.8135,0.1636,-0.8750,95.67,118.54,-6.59
401,196745440,0.7954,0.1650,-0.8657,99.76,122.13,-8.35
402,196750440,0.7627,0.1323,-0.8579,104.09,125.49,-10.18
403,196755440,0.7129,0.1738,-0.8364,109.39,128.84,-11.83
404,196760444,0.7085,0.2305,-0.8296,114.15,131.71,-14.45
405,196765442,0.7163,0.1855,-0.7930,117.44,134.57,-17.20
406,196770441,0.6875,0.1064,-0.7495,119.09,137.26,-19.45
407,196775444,0.6450,0.1182,-0.7539,119.88,139.94,-21.59
408,196780440,0.5962,0.1401,-0.7490,120.06,142.44,-23.84
409,196785442,0.5571,0.1455,-0.7148,119.82,144.76,-26.10
410,196790440,0.5430,0.1704,-0.6729,118.96,146.77,-28.66
411,196795440,0.5156,0.1699,-0.6572,117.62,148.78,-31.10
412,196800440,0.4902,0.2017,-0.6123,115.43,150.43,-33.78
413,196805442,0.4561,0.1797,-0.5903,112.68,151.89,-36.34
414,196810441,0.3813,0.1738,-0.5298,111.10,153.54,-38.84
415,196815442,0.4185,0.1943,-0.5356,110.18,154.82,-41.28
416,196820440,0.4448,0.2075,-0.4858,109.57,156.10,-43.11
417,196825442,0.4180,0.2358,-0.4824,109.33,156.89,-44.82
418,196830440,0.3750,0.2095,-0.4473,109.45,157.68,-46.52
419,196835440,0.3569,0.2407,-0.4385,110.43,157.74,-48.17
420,196840444,0.3428,0.2661,-0.4243,111.40,157.93,-50.37
421,196845442,0.3271,0.2827,-0.3623,112.38,157.74,-52.38
422,196850441,0.3374,0.3076,-0.3291,113.60,157.56,-54.09
423,196855440,0.3247,0.3052,-0.3271,115.24,156.83,-55.91
424,196860440,0.3501,0.3057,-0.3066,116.89,156.16,-57.68
425,196865443,0.3306,0.3008,-0.2363,118.48,155.61,-59.70
426,196870442,0.2920,0.3276,-0.2910,119.57,154.51,-62.01
427,196875442,0.2690,0.3516,-0.2378,120.79,152.99,-64.27
428,196880442,0.2622,0.3779,-0.2158,122.32,151.77,-66.65
429,196885441,0.2500,0.3735,-0.2070,124.21,150.30,-69.15
430,196890442,0.2334,0.3701,-0.2041,126.22,148.60,-71.65
431,196895448,0.2280,0.3696,-0.1772,127.26,146.95,-74.09
432,196900442,0.2192,0.3740,-0.1436,129.33,145.18,-76.46
433,196905803,0.2148,0.3877,-0.1357,129.51,143.35,-78.96
434,196910442,0.2026,0.3955,-0.1260,129.45,141.52,-81.34
435,196915442,0.1909,0.4014,-0.0977,129.94,139.39,-83.78
436,196920442,0.1782,0.4033,-0.0669,130.98,137.50,-86.04
437,196925441,0.1616,0.4028,-0.0605,130.24,135.55,-88.35
438,196930443,0.1548,0.4087,-0.0464,130.18,133.35,-90.67
439,196935442,0.1460,0.4268,-0.0034,129.21,131.40,-92.93
440,196940441,0.1362,0.4346,0.0107,129.15,129.63,-95.43
441,196945442,0.1299,0.4331,0.0171,129.02,127.74,-97.68
442,196950442,0.1216,0.4375,0.0259,128.54,126.10,-100.00
443,196955441,0.1143,0.4331,0.0439,127.38,124.82,-101.65
444,196960440,0.0962,0.4272,0.0410,127.01,123.23,-103.60
445,196965442,0.0854,0.4282,0.0469,128.78,121.34,-105.55
446,196970441,0.0742,0.4355,0.0679,128.96,120.00,-106.95
447,196975442,0.0620,0.4399,0.0874,128.17,118.66,-108.35
448,196980527,0.0386,0.4482,0.0923,129.45,116.71,-110.18
449,196985442,0.0264,0.4473,0.0977,129.70,115.73,-111.40
450,196990440,0.0176,0.4482,0.1147,132.32,114.15,-112.68
451,196995442,0.0142,0.4526,0.1309,133.78,112.74,-113.96
452,197000441,0.0068,0.4551,0.1494,135.79,111.34,-115.24
453,197005442,0.0005,0.4614,0.1538,137.38,110.00,-116.46
454,197010442,0.0034,0.4517,0.1763,138.96,108.90,-117.50
455,197015441,-0.0205,0.5522,0.1304,139.70,107.62,-118.96
456,197020442,-0.0195,0.5449,0.1694,140.73,106.22,-120.73
457,197025442,-0.0132,0.5049,0.2090,141.59,104.88,-122.20
458,197030442,-0.0181,0.5039,0.1792,142.80,103.72,-123.54
459,197035441,-0.0303,0.5293,0.1826,144.15,102.50,-124.94
460,197040444,-0.0425,0.5439,0.2075,145.67,100.98,-127.01
461,197045440,-0.0537,0.5605,0.2026,146.52,100.24,-128.41
462,197050444,-0.0889,0.5708,0.2261,147.32,99.51,-130.18
463,197055440,-0.0684,0.6138,0.1890,147.62,98.60,-132.13
464,197060440,-0.0645,0.6128,0.2041,148.41,97.26,-134.57
465,197065440,-0.1045,0.5635,0.3027,148.66,96.59,-136.28
466,197070442,-0.0845,0.5884,0.1777,148.48,95.73,-137.56
467,197075442,-0.0771,0.6279,0.2261,148.84,94.57,-139.27
468,197080441,-0.0854,0.6357,0.2695,150.00,93.35,-141.22
469,197085442,-0.1084,0.6187,0.2480,151.65,91.89,-142.80
470,197090442,-0.1265,0.6128,0.2480,153.41,90.49,-144.09
471,197095442,-0.1367,0.6294,0.2935,155.67,88.96,-144.94
472,197100440,-0.1372,0.6572,0.2930,157.74,88.11,-145.91
473,197105442,-0.1279,0.6719,0.2729,159.57,85.98,-147.07
474,197110441,-0.1245,0.6875,0.2930,160.67,85.30,-148.17
475,197115442,-0.1353,0.7080,0.3130,161.46,84.82,-149.21
476,197120442,-0.1396,0.7231,0.3145,161.16,81.77,-150.37
477,197125649,-0.1489,0.7490,0.3325,159.82,78.84,-151.95
478,197130442,-0.1519,0.7612,0.3442,158.54,76.52,-153.23
479,197135442,-0.1606,0.7725,0.3618,156.83,73.48,-154.63
480,197140442,-0.1772,0.7793,0.3594,154.88,70.30,-156.16
481,197145859,-0.2026,0.7988,0.3750,153.05,65.98,-157.87
482,197150442,-0.2153,0.8159,0.3853,152.26,62.80,-159.09
483,197155442,-0.2285,0.8354,0.3853,151.77,58.84,-160.67
484,197160443,-0.2349,0.8525,0.3999,152.07,54.51,-162.07
485,197165440,-0.2476,0.8716,0.4048,153.29,50.12,-163.78
486,197170444,-0.2554,0.8882,0.4014,155.30,45.49,-165.37
487,197175442,-0.2588,0.9087,0.3926,158.23,40.55,-167.01
488,197180441,-0.2651,0.9248,0.3906,161.52,35.49,-168.78
489,197185443,-0.2686,0.9355,0.3823,165.12,30.18,-170.49
490,197190440,-0.2754,0.9521,0.3784,168.96,24.82,-172.38
491,197195445,-0.2842,0.9604,0.3843,172.62,19.15,-174.21
492,197200442,-0.2979,0.9678,0.3926,175.91,13.60,-175.98
493,197205442,-0.3203,0.9697,0.3877,178.66,7.99,-177.68
494,197210441,-0.3423,0.9751,0.3833,180.49,2.38,-179.27
495,197215442,-0.3706,0.9741,0.3770,181.95,-3.41,-180.73
496,197220440,-0.3955,0.9829,0.3740,182.74,-9.15,-182.01
497,197225442,-0.4204,0.9878,0.3813,183.17,-14.70,-183.35
498,197230440,-0.4419,1.0034,0.3730,182.80,-20.49,-184.51
499,197235442,-0.4595,1.0146,0.3647,182.38,-26.10,-185.55
500,197240442,-0.4722,1.0376,0.3599,181.52,-32.01,-186.34
501,197245442,-0.4941,1.0596,0.3516,180.85,-37.62,-187.13
502,197250440,-0.5181,1.0776,0.3438,179.76,-43.54,-187.74
503,197255442,-0.5415,1.0972,0.3335,178.66,-49.39,-188.11
504,197260440,-0.5566,1.1167,0.3330,177.50,-55.30,-188.35
505,197265441,-0.5752,1.1353,0.3271,175.98,-61.28,-188.35
506,197270951,-0.6016,1.1558,0.3208,173.41,-68.48,-188.17
507,197275442,-0.6182,1.1763,0.3154,171.22,-73.17,-187.74
508,197280441,-0.6294,1.1685,0.3193,167.44,-78.90,-187.01
509,197285442,-0.6641,1.1699,0.3174,163.11,-84.39,-185.98
510,197290440,-0.7134,1.1680,0.3066,158.11,-89.76,-184.51
511,197295442,-0.7329,1.1792,0.3091,152.80,-95.00,-182.68
512,197300440,-0.7290,1.1753,0.3218,146.89,-100.12,-180.61
513,197305442,-0.7661,1.1880,0.3154,140.61,-105.00,-178.35
514,197310441,-0.8091,1.2017,0.2964,135.00,-110.06,-175.67
515,197315444,-0.8335,1.2285,0.2837,129.02,-115.30,-173.05
516,197320440,-0.8481,1.2539,0.2759,126.16,-120.73,-170.12
517,197325442,-0.8657,1.2856,0.2710,122.93,-126.34,-167.07
518,197330440,-0.8896,1.3184,0.2754,121.16,-131.83,-163.96
519,197335442,-0.9180,1.3403,0.2754,120.43,-137.74,-160.55
520,197340447,-0.9487,1.3657,0.2798,120.55,-143.96,-157.01
521,197345441,-0.9795,1.3726,0.2803,121.28,-150.43,-153.35
522,197350442,-0.9985,1.3823,0.2979,122.32,-156.83,-149.45
523,197355442,-1.0273,1.3867,0.3027,123.66,-163.60,-145.24
524,197360442,-1.0557,1.3857,0.3008,124.70,-170.55,-141.16
525,197365442,-1.0835,1.3936,0.2837,125.18,-177.74,-136.83
526,197370442,-1.1147,1.3950,0.2720,125.55,-185.30,-132.38
527,197375444,-1.1401,1.3857,0.2593,125.06,-193.11,-127.68
528,197380441,-1.1704,1.3877,0.2461,124.02,-201.04,-122.80
529,197385442,-1.2217,1.3823,0.2104,122.74,-209.02,-117.68
530,197390440,-1.2695,1.3677,0.1826,121.28,-217.13,-112.32
531,197395442,-1.2910,1.3584,0.1577,119.63,-225.30,-106.65
532,197400440,-1.2715,1.3525,0.1201,117.99,-233.66,-100.91
533,197405442,-1.4014,1.3247,0.1172,116.16,-241.95,-95.43
534,197410441,-1.4878,1.3057,0.0688,114.63,-250.12,-89.76
535,197415442,-1.5063,1.2861,0.0093,113.60,-258.60,-84.21
536,197420440,-1.5166,1.2715,-0.0376,113.84,-267.01,-78.84
537,197425440,-1.5586,1.2598,-0.0669,115.37,-275.43,-73.60
538,197430444,-1.5977,1.2573,-0.1040,118.48,-283.66,-68.48
539,197435442,-1.6367,1.2593,-0.1646,123.05,-292.01,-63.11
540,197440441,-1.6899,1.2715,-0.2295,129.88,-300.55,-57.93
541,197445444,-1.7329,1.2681,-0.2695,136.10,-309.02,-52.13
542,197450440,-1.7793,1.2808,-0.3364,144.09,-317.44,-46.04
543,197455442,-1.8096,1.2935,-0.3794,152.62,-325.73,-39.51
544,197460440,-1.8398,1.2896,-0.4009,161.22,-333.84,-32.50
545,197465440,-1.8677,1.2759,-0.4292,169.57,-341.40,-24.88
546,197470440,-1.9058,1.2720,-0.4614,176.95,-348.96,-16.65
547,197475440,-1.9478,1.2573,-0.4824,183.41,-355.79,-7.80
548,197480442,-1.9922,1.2427,-0.5015,188.35,-362.50,1.52
549,197485442,-2.0356,1.2280,-0.5298,191.89,-368.48,11.46
550,197490442,-2.0791,1.2036,-0.5566,193.84,-373.96,21.59
551,197495441,-2.1187,1.1885,-0.5972,194.51,-379.27,31.95
552,197500442,-2.1431,1.1606,-0.6304,193.78,-384.27,42.50
553,197505440,-2.2041,1.1382,-0.6738,191.52,-388.54,52.99
554,197510444,-2.2007,1.1147,-0.7256,188.96,-392.74,63.35
555,197515442,-2.1997,1.0923,-0.7563,185.67,-396.46,73.54
556,197520442,-2.2471,1.0728,-0.8135,182.13,-399.70,83.78
557,197525441,-2.3379,1.0703,-0.8521,178.72,-402.68,92.99
558,197530442,-2.3418,1.0352,-0.9028,175.49,-405.12,102.56
559,197535443,-2.3477,1.0298,-0.9761,172.87,-407.56,112.13
560,197540442,-2.3804,1.0044,-1.0337,171.52,-409.39,121.28
561,197545441,-2.4038,0.9956,-1.0698,171.89,-410.85,130.37
562,197550443,-2.4141,0.9854,-1.1006,173.60,-411.59,139.51
563,197555442,-2.4351,0.9702,-1.1279,176.04,-412.26,148.66
564,197560445,-2.4624,0.9648,-1.1548,178.48,-412.20,157.80
565,197565444,-2.4775,0.9629,-1.1836,180.61,-411.83,166.71
566,197570441,-2.5181,0.9556,-1.2007,182.44,-411.40,175.49
567,197575440,-2.5244,0.9561,-1.2051,183.17,-410.37,184.02
568,197580445,-2.5376,0.9634,-1.2168,182.80,-408.96,192.13
569,197585441,-2.5576,0.9790,-1.2046,181.40,-407.38,199.82
570,197590441,-2.5864,1.0005,-1.1929,178.78,-405.18,207.01
571,197595442,-2.6230,1.0190,-1.1880,174.94,-402.74,213.66
572,197600441,-2.6377,1.0415,-1.1724,169.76,-399.70,219.82
573,197605442,-2.6572,1.0571,-1.1558,163.66,-396.34,225.30
574,197610440,-2.6768,1.0708,-1.1460,155.79,-392.68,230.30
575,197615442,-2.6855,1.0820,-1.1436,146.71,-388.90,234.76
576,197620441,-2.7012,1.0869,-1.1450,136.52,-385.00,238.41
577,197625442,-2.7148,1.0835,-1.1514,126.52,-380.98,241.52
578,197630442,-2.7227,1.0830,-1.1558,115.18,-377.07,244.27
579,197635442,-2.7231,1.0854,-1.1548,104.63,-372.80,246.59
580,197640441,-2.7134,1.0786,-1.1436,94.82,-368.54,248.72
581,197645442,-2.6938,1.0771,-1.1309,85.91,-364.02,250.61
582,197650442,-2.6748,1.0820,-1.1099,77.93,-359.51,252.26
583,197655442,-2.6582,1.0874,-1.0977,71.10,-354.88,254.21
584,197660441,-2.6333,1.0977,-1.0786,65.37,-350.00,255.98
585,197665442,-2.6138,1.1123,-1.0703,60.67,-345.30,257.93
586,197670440,-2.5835,1.1338,-1.0635,57.07,-340.73,259.76
587,197675442,-2.5527,1.1475,-1.0454,54.63,-335.98,261.89
588,197680442,-2.5356,1.1626,-1.0327,52.68,-331.40,263.90
589,197685929,-2.5273,1.1758,-1.0205,50.67,-327.13,266.10
590,197690442,-2.5122,1.1860,-1.0132,48.41,-322.50,268.23
591,197695442,-2.4980,1.1919,-1.0161,45.43,-317.93,270.30
592,197700442,-2.4756,1.1890,-1.0122,41.04,-313.35,272.44
593,197705441,-2.4575,1.1836,-1.0117,35.37,-308.96,274.45
594,197710442,-2.4292,1.1816,-1.0254,28.84,-304.63,276.16
595,197715442,-2.4019,1.1748,-1.0430,21.95,-300.00,277.93
596,197720442,-2.3643,1.1743,-1.0508,15.49,-295.67,279.39
597,197725441,-2.3213,1.1704,-1.0747,9.94,-291.34,280.98
598,197730442,-2.2729,1.1748,-1.0933,6.28,-287.13,282.68
599,197735442,-2.2275,1.1753,-1.1172,4.15,-282.87,284.51
600,197740443,-2.1836,1.1704,-1.1396,3.90,-278.54,286.34
601,197745441,-2.1343,1.1704,-1.1538,5.24,-274.45,288.29
602,197750442,-2.0742,1.1846,-1.1724,7.87,-270.37,290.43
603,197755442,-2.0278,1.2090,-1.1836,11.52,-265.98,292.99
604,197760442,-2.0015,1.2212,-1.1875,15.43,-261.59,295.67
605,197765441,-1.9883,1.2427,-1.1934,18.60,-257.13,298.84
606,197770442,-1.9629,1.2725,-1.1929,20.85,-252.56,302.38
607,197775442,-1.9473,1.3008,-1.1943,21.65,-247.80,306.40
608,197780517,-1.9390,1.3223,-1.1851,21.16,-242.68,310.85
609,197785441,-1.9438,1.3364,-1.1772,18.90,-237.56,315.79
610,197790442,-1.9448,1.3472,-1.1792,15.12,-232.20,321.10
611,197795963,-1.9355,1.3403,-1.1890,10.37,-226.95,326.71
612,197800442,-1.9194,1.3359,-1.1958,5.30,-221.77,332.56
613,197805442,-1.9038,1.3169,-1.2139,0.43,-216.52,338.54
614,197810442,-1.8936,1.2969,-1.2383,-4.09,-211.65,344.57
615,197815441,-1.8672,1.2729,-1.2505,-7.93,-207.01,350.61
616,197820442,-1.8325,1.2476,-1.2529,-10.18,-203.29,355.24
617,197825442,-1.7983,1.2124,-1.2588,-12.01,-198.84,361.34
618,197830442,-1.7915,1.1885,-1.2695,-12.68,-194.63,367.62
619,197835441,-1.7915,1.1650,-1.2817,-12.13,-190.12,373.90
620,197840442,-1.7856,1.1406,-1.2773,-11.04,-185.85,380.30
621,197845442,-1.7705,1.1099,-1.2729,-9.21,-181.34,386.52
622,197850442,-1.7529,1.0840,-1.2427,-6.83,-176.89,392.62
623,197855443,-1.7407,1.0439,-1.2227,-4.09,-172.44,398.35
624,197860442,-1.7285,1.0068,-1.2109,-1.52,-167.74,403.78
625,197865442,-1.7168,0.9668,-1.2012,0.43,-162.87,408.72
626,197870442,-1.6943,0.9199,-1.1841,1.89,-157.68,413.23
627,197875441,-1.6543,0.8672,-1.1724,2.38,-151.71,418.11
628,197880446,-1.6240,0.8271,-1.1616,2.38,-147.44,420.67
629,197885442,-1.6001,0.7808,-1.1587,2.01,-142.68,423.78
630,197890441,-1.5757,0.7305,-1.1621,0.61,-137.68,426.28
631,197895442,-1.5444,0.6826,-1.1577,-1.28,-132.80,428.23
632,197900440,-1.5005,0.6284,-1.1548,-3.78,-127.74,429.76
633,197905442,-1.4497,0.5703,-1.1318,-6.46,-122.80,430.85
634,197910441,-1.4106,0.5176,-1.1147,-9.27,-117.93,431.65
635,197915444,-1.3853,0.4604,-1.1099,-11.89,-113.11,432.20
636,197920440,-1.3530,0.4121,-1.0938,-14.21,-108.05,432.44
637,197925442,-1.3179,0.3643,-1.0884,-16.16,-103.11,432.56
638,197930441,-1.2773,0.3115,-1.0894,-17.50,-97.99,432.32
639,197935442,-1.2358,0.2715,-1.0737,-18.23,-92.80,431.83
640,197940440,-1.1880,0.2456,-1.0601,-17.99,-87.56,430.85
641,197945442,-1.1333,0.1948,-1.0581,-17.20,-82.50,429.63
642,197950442,-1.0771,0.1611,-1.0400,-15.85,-77.32,428.35
643,197955442,-1.0469,0.1216,-1.0146,-14.27,-71.65,426.71
644,197960444,-1.0029,0.0635,-0.9961,-12.87,-65.98,424.94
645,197965442,-0.9644,0.0386,-0.9814,-10.98,-60.00,423.23
646,197970442,-0.9492,-0.0088,-0.9414,-9.15,-53.84,421.40
647,197975440,-0.9102,-0.0693,-0.9233,-7.80,-47.44,419.70
648,197980443,-0.8662,-0.1260,-0.9165,-7.32,-41.22,417.50
649,197985441,-0.8228,-0.1694,-0.8843,-7.80,-34.88,415.24
650,197990441,-0.7866,-0.2139,-0.8594,-9.33,-28.48,412.50
651,197995442,-0.7485,-0.2666,-0.8384,-11.95,-22.32,409.63
652,198000442,-0.7036,-0.3247,-0.8188,-15.30,-16.34,406.34
653,198005442,-0.6650,-0.3765,-0.7876,-19.39,-10.85,402.80
654,198010440,-0.6299,-0.4180,-0.7729,-24.09,-5.55,398.54
655,198015442,-0.5747,-0.4619,-0.7505,-29.45,-0.73,393.90
656,198020441,-0.5479,-0.5005,-0.7334,-35.18,3.66,388.72
657,198025442,-0.5132,-0.5425,-0.7217,-40.98,7.68,383.17
658,198030440,-0.4775,-0.5698,-0.7065,-46.46,11.34,377.13
659,198035442,-0.4404,-0.5996,-0.6787,-51.89,14.51,370.91
660,198040441,-0.4160,-0.6274,-0.6553,-57.07,17.20,364.70
661,198045442,-0.3979,-0.6519,-0.6353,-62.20,19.88,358.48
662,198050443,-0.3813,-0.6753,-0.6113,-67.01,21.71,352.62
663,198055441,-0.3652,-0.6948,-0.5923,-71.34,23.11,346.77
664,198060441,-0.3389,-0.7295,-0.5654,-74.88,24.33,341.46
665,198065442,-0.3057,-0.7666,-0.5420,-77.13,25.37,336.34
666,198070441,-0.2812,-0.7964,-0.5269,-77.74,25.98,331.59
667,198075442,-0.2617,-0.8247,-0.5034,-76.52,26.52,326.95
668,198080440,-0.2256,-0.8550,-0.4814,-73.78,27.13,322.44
669,198085441,-0.2070,-0.8760,-0.4722,-69.51,27.93,317.68
670,198090440,-0.1826,-0.9199,-0.4648,-64.94,28.54,312.50
671,198095821,-0.1338,-0.9697,-0.4590,-59.33,29.09,305.85
672,198100442,-0.1040,-0.9941,-0.4448,-55.30,29.39,301.40
673,198105442,-0.0732,-1.0298,-0.4248,-50.24,29.76,295.24
674,198110443,-0.0459,-1.0640,-0.4087,-44.88,30.06,288.90
675,198115441,-0.0151,-1.0981,-0.4004,-39.45,30.43,282.32
676,198120443,0.0083,-1.1274,-0.3779,-34.21,30.79,275.49
677,198125442,0.0283,-1.1558,-0.3657,-29.27,31.28,268.60
678,198130442,0.0581,-1.1802,-0.3501,-24.76,31.65,261.46
679,198135441,0.0811,-1.2017,-0.3345,-20.91,31.95,254.27
680,198140443,0.1060,-1.2173,-0.3115,-17.68,32.50,247.01
681,198145442,0.1274,-1.2305,-0.2954,-14.94,32.68,239.51
682,198150442,0.1572,-1.2427,-0.2866,-12.26,32.87,231.95
683,198155441,0.1777,-1.2598,-0.2661,-9.63,32.93,224.15
684,198160442,0.2056,-1.2812,-0.2520,-7.13,33.11,216.52
685,198165442,0.2236,-1.2993,-0.2402,-4.63,33.35,208.54
686,198170442,0.2349,-1.3262,-0.2319,-2.62,33.78,200.55
687,198175441,0.2451,-1.3433,-0.2314,-1.77,33.90,192.74
688,198180442,0.2573,-1.3643,-0.2246,-1.77,34.09,184.70
689,198185441,0.2783,-1.3823,-0.2134,-2.62,34.02,176.77
690,198190442,0.3013,-1.3999,-0.1953,-4.02,33.78,168.35
691,198195445,0.3149,-1.4126,-0.1855,-5.61,33.41,160.06
692,198200443,0.3271,-1.4268,-0.1768,-7.56,32.87,151.71
693,198205441,0.3374,-1.4424,-0.1558,-8.96,32.38,143.23
694,198210442,0.3506,-1.4556,-0.1367,-10.18,31.89,134.88
695,198215442,0.3657,-1.4619,-0.1323,-10.98,31.22,126.71
696,198220442,0.3755,-1.4673,-0.1270,-11.22,30.55,118.41
697,198225441,0.3828,-1.4648,-0.1108,-11.10,30.00,110.49
698,198230442,0.3955,-1.4644,-0.0977,-10.61,29.21,102.50
699,198235442,0.3945,-1.4585,-0.0879,-9.82,28.60,94.27
700,198240442,0.4009,-1.4507,-0.0762,-8.60,27.74,87.13
701,198245441,0.4023,-1.4536,-0.0713,-7.26,27.01,79.15
702,198250442,0.3931,-1.4556,-0.0635,-5.73,26.40,71.65
703,198255442,0.3877,-1.4551,-0.0552,-4.09,25.79,64.63
704,198260442,0.3921,-1.4424,-0.0366,-2.74,25.06,57.74
705,198265774,0.3916,-1.4346,-0.0361,-1.28,24.45,50.79
706,198270442,0.3965,-1.4292,-0.0283,-0.30,23.84,44.21
707,198275442,0.3945,-1.4170,-0.0181,0.24,22.99,37.80
708,198280442,0.3906,-1.4033,-0.0127,0.49,22.38,31.34
709,198285441,0.3867,-1.3901,-0.0068,0.37,21.71,25.06
710,198290442,0.3774,-1.3823,-0.0015,-0.49,20.85,19.02
711,198295442,0.3740,-1.3657,0.0049,-1.59,20.12,13.05
712,198300442,0.3735,-1.3525,0.0107,-2.80,19.27,7.38
713,198305922,0.3730,-1.3354,0.0190,-4.33,18.35,1.71
714,198310442,0.3765,-1.3179,0.0322,-5.49,17.32,-3.72
715,198315442,0.3755,-1.2998,0.0410,-6.59,16.22,-8.96
716,198320442,0.3745,-1.2808,0.0488,-7.32,15.12,-13.90
717,198325441,0.3789,-1.2598,0.0596,-7.56,14.15,-18.78
718,198330442,0.3828,-1.2373,0.0693,-7.74,13.05,-23.29
719,198335442,0.3838,-1.2148,0.0776,-7.62,11.83,-27.87
720,198340440,0.3843,-1.1885,0.0884,-7.44,10.67,-32.07
721,198345536,0.3833,-1.1641,0.0942,-7.20,9.27,-36.10
722,198350441,0.3848,-1.1396,0.1089,-7.13,8.05,-39.94
723,198355443,0.3838,-1.1123,0.1191,-7.20,6.71,-43.48
724,198360442,0.3843,-1.0864,0.1250,-7.50,5.24,-46.83
725,198365443,0.3794,-1.0635,0.1323,-8.17,3.84,-49.88
726,198370441,0.3760,-1.0317,0.1274,-8.54,2.01,-52.87
727,198375442,0.3701,-1.0107,0.1323,-9.33,0.37,-55.67
728,198380442,0.3662,-0.9766,0.1309,-9.70,-1.46,-58.17
729,198385443,0.3677,-0.9512,0.1294,-9.76,-2.99,-60.30
730,198390441,0.3760,-0.9292,0.1338,-9.70,-4.94,-62.50
731,198395444,0.3862,-0.9097,0.1362,-9.27,-6.65,-64.51
732,198400442,0.4033,-0.8901,0.1426,-8.72,-8.48,-66.28
733,198405442,0.4185,-0.8740,0.1519,-8.17,-10.37,-67.93
734,198410443,0.4341,-0.8535,0.1548,-7.74,-12.01,-69.51
735,198415442,0.4331,-0.8364,0.1489,-7.26,-13.72,-70.91
736,198420442,0.4644,-0.8228,0.1538,-6.83,-15.55,-72.26
737,198425443,0.4780,-0.8140,0.1577,-6.16,-17.20,-73.17
738,198430440,0.4990,-0.8042,0.1572,-5.61,-18.72,-74.21
739,198435444,0.5127,-0.7822,0.1528,-5.00,-20.37,-75.18
740,198440442,0.5122,-0.7720,0.1309,-4.63,-21.89,-76.16
741,198445443,0.5166,-0.7485,0.1187,-4.45,-23.54,-76.89
742,198450441,0.5161,-0.7329,0.1118,-4.27,-25.30,-77.74
743,198455442,0.5156,-0.7241,0.1055,-4.02,-27.13,-78.48
744,198460443,0.5269,-0.7202,0.0972,-4.15,-28.90,-79.21
745,198465442,0.5400,-0.7129,0.0854,-3.96,-30.79,-79.76
746,198470441,0.5371,-0.6938,0.0728,-3.78,-32.62,-80.37
747,198475442,0.5435,-0.6992,0.0791,-2.99,-34.21,-80.43
748,198480442,0.5532,-0.6992,0.0630,-2.07,-35.91,-80.61
749,198485442,0.5752,-0.6777,0.0073,-1.22,-37.93,-80.85
750,198490442,0.5908,-0.6470,0.0273,-0.79,-39.82,-81.28
751,198495440,0.6030,-0.6323,0.0386,-1.28,-41.59,-81.77
752,198500441,0.6099,-0.6191,0.0151,-2.50,-43.23,-82.38
753,198505443,0.6011,-0.6128,0.0020,-4.45,-44.76,-83.05
754,198510441,0.6025,-0.5977,0.0059,-7.32,-46.16,-84.02
755,198515443,0.6064,-0.6030,-0.0181,-10.61,-47.44,-84.88
756,198520442,0.5957,-0.5557,-0.0190,-14.21,-48.60,-85.91
757,198525443,0.6040,-0.5386,-0.0425,-18.23,-49.63,-87.13
758,198530441,0.6104,-0.5239,-0.0630,-22.80,-50.73,-88.54
759,198535443,0.6074,-0.5181,-0.0835,-27.13,-51.65,-89.94
760,198540492,0.6118,-0.5122,-0.1060,-31.10,-52.68,-91.28
761,198545947,0.6025,-0.4927,-0.1323,-35.43,-53.60,-92.68
762,198550760,0.6699,-0.5586,-0.1426,-39.70,-54.57,-93.78
763,198555442,0.7539,-0.6426,-0.1680,-44.21,-55.91,-93.60
764,198560442,0.7681,-0.6279,-0.3203,-48.35,-59.15,-93.29
765,198565442,0.6909,-0.3154,-0.0771,-50.98,-62.74,-92.32
766,198570442,0.6191,-0.3003,-0.0942,-52.68,-65.18,-92.74
767,198575443,0.5776,-0.3477,-0.2275,-52.01,-68.54,-92.56
768,198580442,0.5640,-0.4243,-0.1421,-49.94,-71.52,-92.38
769,198585442,0.5483,-0.4243,-0.0024,-46.77,-72.93,-92.62
770,198590441,0.5356,-0.3970,-0.0703,-42.99,-73.66,-93.41
771,198595443,0.5391,-0.3208,-0.1699,-38.41,-74.94,-94.45
772,198600441,0.5566,-0.2231,-0.0884,-33.60,-75.37,-95.67
773,198605444,0.5820,-0.1816,-0.0439,-29.88,-75.12,-96.71
774,198610442,0.6206,-0.2217,-0.1431,-27.50,-75.24,-97.56
775,198615442,0.6621,-0.3018,-0.1997,-26.77,-76.04,-97.93
776,198620441,0.7212,-0.4116,-0.2231,-28.48,-77.50,-97.80
777,198625442,0.7471,-0.4800,-0.2192,-33.54,-80.00,-97.26
778,198630442,0.7749,-0.5054,-0.1758,-40.85,-82.93,-96.46
779,198635442,0.7358,-0.4297,-0.1934,-48.23,-85.06,-95.49
780,198640441,0.7026,-0.2920,-0.1816,-52.80,-86.34,-95.30
781,198645442,0.6860,-0.2583,-0.2188,-57.74,-88.84,-94.76
782,198650442,0.7075,-0.3066,-0.2656,-59.82,-90.43,-94.70
783,198655442,0.7217,-0.3350,-0.2412,-60.91,-92.26,-94.51
784,198660441,0.7246,-0.3403,-0.2505,-61.10,-93.72,-94.39
785,198665442,0.7236,-0.3145,-0.2979,-60.49,-94.88,-94.39
786,198670442,0.7300,-0.2671,-0.3286,-59.82,-96.65,-94.45
787,198675442,0.7275,-0.2236,-0.2891,-59.70,-98.11,-94.45
788,198680850,0.7192,-0.2266,-0.2900,-59.88,-99.39,-94.51
789,198685442,0.7183,-0.2090,-0.3379,-59.88,-100.18,-94.82
790,198690442,0.7168,-0.2354,-0.3423,-60.06,-100.98,-94.76
791,198695442,0.7280,-0.2515,-0.3242,-59.94,-101.46,-94.70
792,198700441,0.7432,-0.2393,-0.3428,-59.57,-101.65,-94.82
793,198705442,0.7471,-0.2183,-0.3687,-59.15,-102.01,-95.06
794,198710442,0.7417,-0.1758,-0.3691,-58.17,-101.83,-95.24
795,198715443,0.7373,-0.1343,-0.3687,-56.46,-101.65,-95.37
796,198720441,0.7271,-0.1030,-0.3911,-54.33,-101.04,-95.49
797,198725442,0.7192,-0.0903,-0.4185,-51.52,-100.55,-95.61
798,198730442,0.7051,-0.0942,-0.4253,-48.05,-99.88,-95.55
799,198735442,0.6895,-0.0918,-0.4258,-44.39,-99.02,-95.37
800,198740444,0.6865,-0.0840,-0.4502,-40.49,-98.11,-95.18
801,198745442,0.6831,-0.0610,-0.4746,-36.34,-97.44,-95.00
802,198750442,0.6831,-0.0337,-0.4731,-32.32,-96.46,-94.57
803,198755441,0.6846,-0.0078,-0.4775,-28.48,-95.43,-94.15
804,198760442,0.6870,0.0049,-0.5044,-24.88,-94.02,-93.41
805,198765441,0.6875,0.0068,-0.5181,-21.40,-92.93,-92.56
806,198770442,0.6802,0.0093,-0.5142,-18.17,-91.40,-91.65
807,198775442,0.6699,0.0098,-0.5225,-14.94,-90.00,-90.49
808,198780442,0.6758,0.0195,-0.5415,-11.95,-88.23,-89.27
809,198785441,0.6787,0.0366,-0.5498,-9.02,-86.40,-87.93
810,198790442,0.6807,0.0562,-0.5493,-6.16,-84.45,-86.59
811,198795441,0.6924,0.0752,-0.5640,-3.48,-82.50,-85.24
812,198800441,0.7080,0.0918,-0.5791,-1.22,-80.37,-83.78
813,198805442,0.7148,0.0962,-0.5830,1.10,-78.23,-82.38
814,198810442,0.7251,0.1045,-0.5864,3.17,-75.79,-80.79
815,198815441,0.7251,0.1060,-0.6113,4.70,-73.41,-79.39
816,198820442,0.7251,0.1152,-0.6338,5.85,-71.22,-77.87
817,198825441,0.7134,0.1318,-0.6499,6.89,-68.84,-76.46
818,198830442,0.7021,0.1440,-0.6606,7.44,-66.40,-75.00
819,198835441,0.6958,0.1567,-0.6875,7.80,-64.27,-73.66
820,198840442,0.6831,0.1714,-0.7051,8.11,-62.01,-72.26
821,198845441,0.6792,0.1738,-0.7070,8.05,-59.70,-70.79
822,198850442,0.6753,0.1738,-0.7168,7.44,-57.38,-69.27
823,198855442,0.6890,0.1709,-0.7251,6.77,-55.12,-67.74
824,198860442,0.7070,0.1689,-0.7305,5.61,-52.62,-66.16
825,198865441,0.7280,0.1714,-0.7344,4.09,-50.30,-64.63
826,198870442,0.7432,0.1748,-0.7349,2.26,-47.93,-62.93
827,198875441,0.7598,0.1821,-0.7314,0.18,-45.55,-61.16
828,198880442,0.7690,0.1807,-0.7412,-2.68,-42.62,-59.21
829,198885443,0.7749,0.1865,-0.7412,-4.76,-40.91,-57.99
830,198890442,0.7744,0.1895,-0.7510,-7.13,-38.60,-56.46
831,198895442,0.7798,0.1943,-0.7622,-9.51,-36.40,-55.00
832,198900441,0.7837,0.2012,-0.7671,-11.52,-34.45,-53.66
833,198905441,0.7837,0.2056,-0.7754,-13.05,-32.56,-52.44
834,198910442,0.7798,0.2114,-0.7812,-14.45,-30.67,-51.16
835,198915441,0.7749,0.2104,-0.7832,-15.30,-28.78,-50.00
836,198920444,0.7764,0.2021,-0.7817,-15.91,-27.01,-48.48
837,198925441,0.7847,0.1855,-0.7803,-16.16,-25.49,-47.07
838,198930442,0.8081,0.1729,-0.7808,-16.46,-23.66,-45.37
839,198935441,0.8237,0.1572,-0.7783,-16.65,-22.26,-43.54
840,198940444,0.8340,0.1533,-0.7778,-16.52,-20.55,-41.71
841,198945441,0.8428,0.1475,-0.7734,-16.52,-19.33,-39.82
842,198950442,0.8477,0.1523,-0.7710,-16.10,-17.93,-37.74
843,198955442,0.8516,0.1509,-0.7715,-15.43,-16.59,-35.98
844,198960442,0.8560,0.1562,-0.7812,-14.33,-15.30,-34.33
845,198965441,0.8594,0.1558,-0.7764,-13.17,-14.33,-32.74
846,198970442,0.8589,0.1514,-0.7827,-11.71,-13.29,-31.28
847,198975441,0.8555,0.1509,-0.7803,-9.88,-12.32,-29.94
848,198980444,0.8555,0.1494,-0.7856,-8.05,-11.52,-28.54
849,198985441,0.8511,0.1499,-0.7871,-6.04,-10.67,-27.32
850,198990442,0.8457,0.1455,-0.7827,-4.02,-9.94,-26.04
851,198995441,0.8403,0.1455,-0.7871,-1.83,-9.15,-24.82
852,199000444,0.8311,0.1377,-0.7852,0.37,-8.41,-23.72
853,199005441,0.8257,0.1353,-0.7744,2.32,-7.62,-22.62
854,199010442,0.8228,0.1245,-0.7764,4.15,-6.65,-21.46
855,199015441,0.8184,0.1245,-0.7695,5.73,-5.61,-20.30
856,199020444,0.8179,0.1240,-0.7612,7.13,-4.70,-19.21
857,199025441,0.8105,0.1245,-0.7593,8.29,-3.60,-18.11
858,199030442,0.8042,0.1230,-0.7549,9.33,-2.50,-17.01
859,199035442,0.8008,0.1221,-0.7539,10.12,-1.46,-15.91
860,199040442,0.7979,0.1177,-0.7476,10.61,-0.18,-15.06
861,199045442,0.7925,0.1182,-0.7441,10.85,0.91,-14.09
862,199050442,0.7822,0.1221,-0.7427,11.10,2.38,-13.29
863,199055441,0.7705,0.1226,-0.7461,11.34,3.78,-12.50
864,199060442,0.7646,0.1240,-0.7427,11.34,5.00,-11.83
865,199065441,0.7568,0.1230,-0.7466,11.40,6.46,-11.40
866,199070442,0.7529,0.1201,-0.7349,11.40,7.80,-10.91
867,199075441,0.7446,0.1196,-0.7329,11.28,9.02,-10.18
868,199080442,0.7402,0.1152,-0.7344,11.28,10.24,-9.63
869,199085441,0.7314,0.1157,-0.7285,10.98,11.65,-9.15
870,199090444,0.7256,0.1060,-0.7300,10.49,12.74,-8.60
871,199095441,0.7197,0.1050,-0.7241,9.94,13.84,-8.05
872,199100442,0.7158,0.1016,-0.7183,9.21,15.00,-7.44
873,199105441,0.7100,0.0996,-0.7129,8.48,16.10,-6.95
874,199110440,0.7061,0.0967,-0.7085,7.44,17.26,-6.28
875,199115442,0.7104,0.0996,-0.6973,6.40,18.29,-5.67
876,199120445,0.7119,0.0923,-0.6963,5.24,19.45,-4.94
877,199125441,0.7129,0.0962,-0.6855,4.27,20.43,-4.39
878,199130442,0.7158,0.0918,-0.6875,3.23,21.40,-3.72
879,199135441,0.7168,0.0962,-0.6797,2.20,22.26,-3.11
880,199140444,0.7197,0.0952,-0.6680,1.34,22.99,-2.38
881,199145441,0.7173,0.1001,-0.6616,0.67,23.84,-1.89
882,199150442,0.7192,0.1006,-0.6621,0.06,24.57,-1.52
883,199155442,0.7192,0.1030,-0.6616,-0.37,25.12,-0.98
884,199160442,0.7202,0.1030,-0.6523,-0.55,25.73,-0.49
885,199165441,0.7163,0.1060,-0.6475,-0.61,26.16,-0.12
886,199170442,0.7158,0.1089,-0.6396,-0.43,26.65,0.30
887,199175441,0.7188,0.1069,-0.6392,-0.24,26.83,0.49
888,199180444,0.7212,0.1089,-0.6313,0.12,27.32,0.98
889,199185441,0.7227,0.1021,-0.6265,0.43,27.62,1.40
890,199190442,0.7280,0.0986,-0.6201,0.67,27.62,1.89
891,199195444,0.7290,0.0957,-0.6104,1.16,27.93,2.26
892,199200444,0.7295,0.0981,-0.6074,1.59,27.87,2.74
893,199205442,0.7290,0.0913,-0.5991,2.07,27.99,3.17
894,199210888,0.7368,0.0903,-0.5996,2.38,28.17,3.72
895,199215442,0.7358,0.0894,-0.5972,2.56,28.05,4.21
896,199220442,0.7368,0.0894,-0.5933,2.93,28.05,4.57
897,199225442,0.7383,0.0850,-0.5835,3.23,28.11,5.06
898,199230441,0.7383,0.0830,-0.5811,3.48,27.93,5.61
899,199235442,0.7427,0.0859,-0.5776,3.84,27.99,6.04
900,199240442,0.7407,0.0820,-0.5708,4.09,27.87,6.46
901,199245442,0.7397,0.0825,-0.5679,4.39,27.68,6.83
902,199250441,0.7412,0.0850,-0.5601,4.76,27.56,7.20
903,199255442,0.7476,0.0786,-0.5547,5.00,27.32,7.56
904,199260442,0.7432,0.0771,-0.5537,5.43,27.26,7.93
905,199265442,0.7407,0.0737,-0.5513,5.73,27.01,8.17
906,199270441,0.7480,0.0728,-0.5430,5.91,26.89,8.41
907,199275442,0.7456,0.0713,-0.5454,6.10,26.71,8.72
908,199280442,0.7383,0.0698,-0.5391,6.52,26.65,8.90
909,199285442,0.7417,0.0659,-0.5322,6.77,26.40,9.21
910,199290441,0.7427,0.0679,-0.5298,7.13,26.22,9.57
911,199295442,0.7456,0.0605,-0.5303,7.50,26.16,9.82
912,199300442,0.7476,0.0610,-0.5142,7.99,25.98,9.94
913,199305442,0.7451,0.0576,-0.5171,8.60,25.98,10.12
914,199310441,0.7466,0.0586,-0.5078,9.02,25.91,10.24
915,199315442,0.7480,0.0576,-0.5078,9.39,25.73,10.43
916,199320442,0.7480,0.0547,-0.5029,9.88,25.61,10.55
917,199325442,0.7515,0.0537,-0.5005,10.12,25.55,10.61
918,199330441,0.7505,0.0522,-0.5010,10.43,25.06,10.61
919,199335442,0.7520,0.0474,-0.4956,10.79,24.94,10.73
920,199340442,0.7588,0.0469,-0.4956,10.85,24.63,10.73
921,199345442,0.7563,0.0444,-0.4990,11.04,24.45,10.73
922,199350441,0.7607,0.0435,-0.4912,10.98,24.02,10.67
923,199355442,0.7573,0.0386,-0.4814,11.22,23.84,10.55
924,199360443,0.7578,0.0410,-0.4922,11.16,23.29,10.55
925,199365442,0.7578,0.0415,-0.4878,11.16,23.05,10.43
926,199370441,0.7632,0.0376,-0.4878,11.04,22.56,10.24
927,199375442,0.7598,0.0386,-0.4829,11.04,22.07,10.24
928,199380442,0.7588,0.0352,-0.4868,10.73,21.52,10.00
929,199385442,0.7681,0.0317,-0.4897,10.61,20.91,9.88
930,199390441,0.7676,0.0337,-0.4873,10.12,20.30,9.76
931,199395442,0.7690,0.0293,-0.4849,9.76,19.94,9.63
932,199400442,0.7617,0.0249,-0.4868,9.09,19.02,9.45
933,199405442,0.7607,0.0269,-0.4780,8.66,18.60,9.39
934,199410511,0.7632,0.0220,-0.4829,7.99,17.93,9.15
935,199415442,0.7612,0.0205,-0.4844,7.44,17.56,9.02
936,199420441,0.7632,0.0210,-0.4834,6.77,16.89,8.90
937,199425441,0.7607,0.0234,-0.4790,6.04,16.28,8.84
938,199430442,0.7612,0.0161,-0.4805,5.37,15.55,8.66
939,199435442,0.7598,0.0122,-0.4727,4.76,15.06,8.72
940,199440442,0.7603,0.0146,-0.4658,4.09,14.39,8.41
941,199445441,0.7588,0.0181,-0.4692,3.54,13.72,8.35
942,199450442,0.7612,0.0151,-0.4722,2.93,13.29,8.29
943,199455441,0.7656,0.0112,-0.4658,2.56,12.44,8.05
944,199460442,0.7578,0.0117,-0.4663,2.13,12.01,8.05
945,199465441,0.7642,0.0137,-0.4600,1.83,11.22,7.87
946,199470444,0.7607,0.0117,-0.4634,1.46,10.98,7.80
947,199475441,0.7622,0.0103,-0.4663,1.52,10.30,7.74
948,199480442,0.7651,0.0063,-0.4619,1.52,9.57,7.74
949,199485441,0.7632,0.0093,-0.4673,1.40,9.09,7.62
950,199490440,0.7710,0.0063,-0.4634,1.34,8.54,7.44
951,199495442,0.7695,0.0015,-0.4600,1.34,8.05,7.38
952,199500442,0.7661,0.0000,-0.4697,1.46,7.56,7.44
953,199505442,0.7681,-0.0005,-0.4648,1.52,6.95,7.44
954,199510441,0.7705,-0.0005,-0.4648,1.46,6.46,7.38
955,199515443,0.7646,-0.0020,-0.4653,1.52,6.34,7.38
956,199520441,0.7656,0.0000,-0.4697,1.59,5.79,7.50
957,199525444,0.7632,-0.0015,-0.4629,1.59,5.37,7.44
958,199530442,0.7725,-0.0029,-0.4678,1.77,5.18,7.44
959,199535441,0.7705,-0.0034,-0.4644,1.89,4.76,7.50
960,199540442,0.7734,-0.0044,-0.4658,2.32,4.02,7.68
961,199545444,0.7788,-0.0049,-0.4644,2.56,3.78,7.62
962,199550445,0.7744,-0.0049,-0.4712,3.11,3.35,7.74
963,199555442,0.7734,0.0010,-0.4639,3.60,3.11,7.62
964,199560579,0.7739,-0.0073,-0.4697,4.33,2.80,7.62
965,199565442,0.7715,-0.0073,-0.4707,5.00,2.56,7.62
966,199570707,0.7773,-0.0054,-0.4658,5.98,1.95,7.68
967,199575443,0.7749,-0.0083,-0.4688,6.52,1.77,7.56
968,199580757,0.7720,-0.0063,-0.4648,7.93,1.34,7.62
969,199585443,0.7749,-0.0068,-0.4697,8.54,0.98,7.68
970,199590442,0.7764,-0.0088,-0.4731,9.51,0.67,7.62
971,199595441,0.7759,-0.0063,-0.4653,10.37,0.49,7.68
972,199600442,0.7793,-0.0054,-0.4697,11.46,0.06,7.56
973,199605441,0.7837,-0.0107,-0.4683,12.13,-0.24,7.50
974,199610442,0.7861,-0.0059,-0.4673,12.87,-0.49,7.44
975,199615443,0.7827,-0.0054,-0.4663,13.54,-0.91,7.26
976,199620444,0.7852,-0.0068,-0.4712,14.02,-1.10,7.20
977,199625441,0.7847,-0.0117,-0.4692,14.51,-1.34,7.13
978,199630442,0.7827,-0.0034,-0.4741,14.82,-1.46,6.95
979,199635441,0.7808,-0.0054,-0.4727,15.12,-1.59,6.77
980,199640442,0.7842,-0.0044,-0.4707,15.37,-2.01,6.71
981,199645441,0.7822,-0.0054,-0.4731,15.55,-1.95,6.46
982,199650442,0.7803,-0.0078,-0.4741,15.43,-2.20,6.28
983,199655442,0.7764,-0.0034,-0.4766,15.43,-2.38,6.10
984,199660442,0.7778,-0.0073,-0.4780,15.30,-2.50,5.91
985,199665442,0.7773,-0.0029,-0.4790,15.06,-2.62,5.67
986,199670442,0.7798,-0.0029,-0.4858,14.76,-2.68,5.43
987,199676138,0.7764,-0.0020,-0.4785,14.15,-3.05,5.18
988,199680447,0.7798,-0.0020,-0.4829,13.72,-2.99,5.06
989,199685440,0.7749,-0.0039,-0.4849,13.17,-3.11,4.82
990,199691002,0.7778,-0.0029,-0.4893,12.32,-3.29,4.45
991,199695486,0.7808,-0.0020,-0.4854,11.65,-3.41,4.33
992,199700443,0.7827,-0.0015,-0.4844,10.85,-3.66,3.96
993,199705442,0.7861,0.0000,-0.4854,10.00,-3.72,3.72
994,199710442,0.7837,0.0005,-0.4849,9.02,-3.84,3.48
995,199715442,0.7852,-0.0020,-0.4941,8.05,-3.90,3.23
996,199720441,0.7798,0.0039,-0.4868,7.26,-4.27,2.93
997,199725442,0.7793,0.0020,-0.4946,6.46,-4.21,2.62
998,199730444,0.7798,0.0020,-0.4897,5.55,-4.33,2.32
999,199735441,0.7788,-0.0010,-0.4897,4.76,-4.39,2.01
1000,199740444,0.7837,-0.0010,-0.4907,3.90,-4.51,1.65
1001,199745441,0.7793,0.0034,-0.4902,3.11,-4.51,1.46
1002,199750444,0.7759,-0.0005,-0.4961,2.32,-4.70,1.22
1003,199755441,0.7773,0.0015,-0.4883,1.65,-4.70,0.91
1004,199760442,0.7769,-0.0010,-0.4883,0.91,-4.76,0.67
1005,199765441,0.7798,0.0005,-0.4902,0.30,-4.76,0.43
1006,199770442,0.7842,-0.0005,-0.4844,-0.30,-4.76,0.18
1007,199775441,0.7808,-0.0020,-0.4878,-0.73,-4.88,-0.12
1008,199780456,0.7808,-0.0029,-0.4961,-1.28,-4.88,-0.24
1009,199785441,0.7822,-0.0049,-0.4883,-1.83,-5.00,-0.37
1010,199790442,0.7827,-0.0039,-0.4927,-2.26,-5.00,-0.49
1011,199795441,0.7837,-0.0063,-0.4937,-2.44,-4.82,-0.79
1012,199800826,0.7788,-0.0054,-0.4971,-2.62,-5.06,-0.85
1013,199805443,0.7803,-0.0034,-0.4932,-2.74,-4.94,-0.98
1014,199810442,0.7798,-0.0049,-0.4937,-2.68,-5.18,-1.28
1015,199815442,0.7759,-0.0029,-0.4922,-2.68,-5.12,-1.34
1016,199820442,0.7773,-0.0010,-0.4990,-2.38,-5.00,-1.52
1017,199825442,0.7773,-0.0005,-0.4976,-2.20,-4.94,-1.71
1018,199830440,0.7798,-0.0044,-0.5034,-2.07,-4.94,-1.89
1019,199835443,0.7749,-0.0039,-0.5024,-1.83,-4.88,-1.89
1020,199840443,0.7783,-0.0015,-0.4976,-1.77,-4.70,-2.13
1021,199845442,0.7852,-0.0034,-0.5010,-1.52,-4.70,-2.32
1022,199850440,0.7817,-0.0024,-0.5063,-1.52,-4.63,-2.32
1023,199855443,0.7876,-0.0044,-0.5083,-1.40,-4.70,-2.44
1024,199860442,0.7827,-0.0034,-0.5073,-1.40,-4.82,-2.44
1025,199865442,0.7788,-0.0015,-0.5088,-1.34,-4.70,-2.50
1026,199870444,0.7812,-0.0015,-0.5107,-1.40,-4.57,-2.62
1027,199875442,0.7817,-0.0049,-0.5142,-1.65,-4.51,-2.68
1028,199880442,0.7808,-0.0073,-0.5151,-1.59,-4.70,-2.62
1029,199885442,0.7827,-0.0049,-0.5142,-1.83,-4.82,-2.68
1030,199890442,0.7822,-0.0044,-0.5127,-1.89,-4.63,-2.68
1031,199895442,0.7778,-0.0024,-0.5151,-1.95,-4.57,-2.56
1032,199900442,0.7769,-0.0024,-0.5190,-1.89,-4.57,-2.50
1033,199905442,0.7734,0.0000,-0.5146,-1.77,-4.39,-2.56
1034,199910442,0.7725,-0.0010,-0.5171,-1.65,-4.51,-2.50
1035,199915442,0.7759,-0.0005,-0.5156,-1.46,-4.21,-2.44
1036,199920660,0.7734,0.0020,-0.5132,-1.28,-4.21,-2.56
1037,199925442,0.7778,-0.0020,-0.5190,-0.98,-3.90,-2.44
1038,199930441,0.7798,-0.0024,-0.5190,-0.79,-3.84,-2.26
1039,199935444,0.7798,-0.0020,-0.5161,-0.61,-3.78,-2.38
1040,199940442,0.7783,-0.0044,-0.5229,-0.30,-3.66,-2.26
1041,199945442,0.7798,-0.0039,-0.5244,-0.06,-3.54,-2.26
1042,199950442,0.7778,-0.0020,-0.5254,0.30,-3.41,-2.20
1043,199955442,0.7778,0.0020,-0.5225,0.49,-3.41,-2.20
1044,199960442,0.7808,-0.0005,-0.5283,0.91,-3.54,-2.26
1045,199965442,0.7817,0.0044,-0.5220,1.28,-3.29,-2.20
1046,199970442,0.7759,0.0039,-0.5254,1.95,-3.17,-2.01
1047,199975442,0.7759,0.0063,-0.5259,2.38,-3.17,-2.26
1048,199980442,0.7783,0.0073,-0.5288,2.80,-3.05,-2.26
1049,199985442,0.7744,0.0063,-0.5215,3.35,-2.93,-2.20
1050,199990442,0.7739,0.0088,-0.5244,3.78,-2.99,-2.26
1051,199995442,0.7720,0.0034,-0.5269,4.27,-2.74,-2.20
1052,200000442,0.7729,0.0054,-0.5259,4.51,-2.62,-2.26
1053,200005442,0.7739,0.0034,-0.5190,4.63,-2.26,-2.32
1054,200010443,0.7744,0.0078,-0.5176,4.63,-2.13,-2.38
1055,200015442,0.7788,0.0039,-0.5244,4.76,-1.95,-2.32
1056,200020442,0.7773,0.0093,-0.5186,4.76,-1.71,-2.20
1057,200025442,0.7769,0.0063,-0.5161,4.70,-1.52,-2.20
1058,200030441,0.7778,0.0063,-0.5215,4.45,-1.34,-2.26
1059,200035443,0.7783,0.0098,-0.5142,4.33,-1.22,-2.26
1060,200040442,0.7803,0.0078,-0.5166,4.21,-0.91,-2.32
1061,200045443,0.7783,0.0078,-0.5151,4.02,-0.73,-2.38
1062,200050442,0.7798,0.0107,-0.5146,3.84,-0.43,-2.44
1063,200055441,0.7798,0.0132,-0.5127,3.66,-0.24,-2.56
1064,200060442,0.7788,0.0146,-0.5151,3.54,-0.18,-2.68
1065,200065441,0.7812,0.0146,-0.5166,3.48,0.18,-2.87
1066,200070442,0.7832,0.0146,-0.5122,3.35,0.49,-3.05
1067,200075441,0.7832,0.0146,-0.5098,3.11,0.55,-3.05
1068,200080444,0.7842,0.0103,-0.5146,2.80,0.85,-3.29
1069,200085441,0.7827,0.0161,-0.5073,2.50,1.16,-3.48
1070,200090442,0.7847,0.0171,-0.5068,2.20,1.28,-3.60
1071,200095441,0.7827,0.0190,-0.5044,1.89,1.46,-3.78
1072,200100444,0.7881,0.0161,-0.5010,1.34,1.77,-3.90
1073,200105441,0.7910,0.0176,-0.5000,0.85,2.07,-4.15
1074,200110442,0.7900,0.0186,-0.5005,0.18,2.13,-4.33
1075,200115441,0.7964,0.0146,-0.5005,-0.30,2.38,-4.51
1076,200120445,0.7949,0.0190,-0.5005,-0.98,2.56,-4.70
1077,200125441,0.7920,0.0220,-0.5005,-1.40,2.68,-4.82
1078,200130441,0.7949,0.0259,-0.5015,-1.89,2.74,-5.00
1079,200135510,0.7925,0.0264,-0.5034,-2.50,3.11,-5.30
1080,200140444,0.7949,0.0303,-0.5000,-2.80,3.05,-5.61
1081,200145441,0.8008,0.0288,-0.4961,-3.29,3.35,-5.79
1082,200150442,0.8032,0.0278,-0.5024,-3.78,3.48,-6.22
1083,200155441,0.8018,0.0327,-0.4990,-4.27,3.60,-6.52
1084,200160442,0.8086,0.0293,-0.4951,-4.76,3.78,-6.71
1085,200165441,0.8081,0.0332,-0.5005,-5.24,3.84,-7.01
1086,200170442,0.8066,0.0298,-0.5020,-5.79,3.90,-7.20
1087,200175441,0.8042,0.0337,-0.4966,-6.16,4.02,-7.44
1088,200180442,0.8047,0.0347,-0.5107,-6.52,4.21,-7.68
1089,200185441,0.8027,0.0410,-0.5010,-6.83,4.39,-7.93
1090,200190442,0.8057,0.0381,-0.5039,-7.13,4.33,-8.29
1091,200195443,0.8022,0.0400,-0.5039,-7.44,4.51,-8.60
1092,200200443,0.8003,0.0347,-0.5049,-7.50,4.57,-8.90
1093,200205444,0.8008,0.0425,-0.5088,-7.87,4.57,-9.09
1094,200210442,0.7969,0.0439,-0.5068,-7.87,4.63,-9.15
1095,200215544,0.7900,0.0391,-0.5117,-7.93,4.76,-9.51
1096,200220445,0.7920,0.0376,-0.5068,-8.05,4.82,-9.70
1097,200225441,0.7852,0.0405,-0.5151,-8.17,4.88,-9.82
1098,200230442,0.7876,0.0425,-0.5137,-8.35,4.94,-10.06
1099,200235441,0.7842,0.0430,-0.5078,-8.48,5.18,-10.24
1100,200240444,0.7817,0.0415,-0.5156,-8.54,5.06,-10.37
1101,200245441,0.7788,0.0439,-0.5127,-8.54,5.18,-10.49
1102,200250442,0.7764,0.0444,-0.5210,-8.72,5.49,-10.55
1103,200255441,0.7778,0.0464,-0.5171,-8.78,5.61,-10.61
1104,200260442,0.7783,0.0479,-0.5117,-8.84,5.85,-10.67
1105,200265441,0.7764,0.0439,-0.5166,-9.02,5.79,-10.73
1106,200270444,0.7764,0.0439,-0.5137,-9.09,6.10,-10.73
1107,200275441,0.7769,0.0464,-0.5112,-9.02,6.28,-10.67
1108,200280442,0.7788,0.0444,-0.5063,-9.09,6.52,-10.73
1109,200285441,0.7793,0.0493,-0.5146,-9.02,6.71,-10.61
1110,200290442,0.7734,0.0518,-0.5063,-8.90,6.83,-10.67
1111,200295441,0.7744,0.0479,-0.5137,-8.66,7.07,-10.61
1112,200300442,0.7739,0.0527,-0.5127,-8.35,7.07,-10.55
1113,200305441,0.7695,0.0547,-0.5083,-8.29,7.13,-10.61
1114,200310500,0.7739,0.0518,-0.5107,-8.05,7.26,-10.55
1115,200315441,0.7769,0.0542,-0.5093,-7.87,7.26,-10.43
1116,200320442,0.7729,0.0542,-0.5083,-7.62,7.44,-10.49
1117,200325441,0.7734,0.0557,-0.5117,-7.32,7.50,-10.30
1118,200330442,0.7744,0.0547,-0.5029,-7.20,7.56,-10.24
1119,200335441,0.7759,0.0537,-0.5127,-6.83,7.50,-10.24
1120,200340440,0.7764,0.0605,-0.5049,-6.65,7.50,-10.06
1121,200345443,0.7764,0.0601,-0.5000,-6.16,7.68,-9.94
1122,200350442,0.7783,0.0581,-0.5015,-5.85,7.56,-9.82
1123,200355442,0.7803,0.0610,-0.5034,-5.43,7.56,-9.88
1124,200360443,0.7783,0.0610,-0.5005,-5.00,7.62,-9.70
1125,200365442,0.7808,0.0669,-0.4985,-4.70,7.74,-9.57
1126,200370442,0.7754,0.0674,-0.4980,-4.21,7.87,-9.51
1127,200375442,0.7715,0.0728,-0.4961,-3.78,7.80,-9.45
1128,200380442,0.7749,0.0732,-0.4946,-3.35,7.74,-9.39
1129,200385442,0.7729,0.0771,-0.4868,-2.99,7.93,-9.39
1130,200390442,0.7749,0.0757,-0.4893,-2.44,7.99,-9.39
1131,200395442,0.7788,0.0776,-0.4814,-2.26,8.11,-9.45
1132,200400442,0.7827,0.0776,-0.4868,-2.07,8.11,-9.45
1133,200405442,0.7827,0.0796,-0.4795,-1.95,8.17,-9.45
1134,200410442,0.7861,0.0830,-0.4785,-2.01,8.29,-9.51
1135,200415442,0.7837,0.0820,-0.4824,-2.26,8.23,-9.51
1136,200420442,0.7837,0.0820,-0.4766,-2.32,8.23,-9.45
1137,200425442,0.7891,0.0801,-0.4736,-2.50,8.23,-9.45
1138,200430442,0.7915,0.0840,-0.4673,-2.80,8.29,-9.45
1139,200435442,0.7939,0.0835,-0.4707,-2.99,8.35,-9.39
1140,200440440,0.7954,0.0830,-0.4692,-3.11,8.41,-9.39
1141,200445443,0.7988,0.0869,-0.4648,-3.29,8.41,-9.39
1142,200450442,0.8003,0.0874,-0.4692,-3.35,8.35,-9.33
1143,200455441,0.8022,0.0874,-0.4634,-3.35,8.35,-9.39
1144,200460442,0.8081,0.0894,-0.4614,-3.48,8.35,-9.45
1145,200465441,0.8096,0.0977,-0.4658,-3.35,8.29,-9.45
1146,200470442,0.8125,0.0967,-0.4629,-3.23,8.23,-9.51
1147,200475441,0.8154,0.0977,-0.4639,-2.99,8.17,-9.70
1148,200480444,0.8130,0.0972,-0.4678,-2.68,7.99,-9.76
1149,200485441,0.8154,0.1021,-0.4653,-2.50,8.11,-9.88
1150,200490442,0.8169,0.1025,-0.4639,-2.26,7.87,-10.00
1151,200495441,0.8096,0.1001,-0.4609,-2.01,7.80,-10.18
1152,200500442,0.8105,0.1021,-0.4644,-1.65,7.99,-10.30
1153,200505441,0.8154,0.1006,-0.4639,-1.28,7.99,-10.30
1154,200510444,0.8154,0.1060,-0.4600,-0.98,7.80,-10.49
1155,200515538,0.8130,0.1016,-0.4561,-0.61,7.80,-10.55
1156,200520444,0.8130,0.1074,-0.4546,-0.30,7.74,-10.61
1157,200525441,0.8130,0.1069,-0.4580,-0.12,7.87,-10.73
1158,200530442,0.8140,0.1079,-0.4502,0.06,7.80,-10.73
1159,200535441,0.8125,0.1074,-0.4463,0.18,7.68,-10.73
1160,200540443,0.8120,0.1108,-0.4497,0.30,7.74,-10.79
1161,200545485,0.8130,0.1123,-0.4473,0.37,7.68,-10.98
1162,200550444,0.8135,0.1123,-0.4478,0.24,7.80,-10.91
1163,200555441,0.8154,0.1113,-0.4546,0.00,7.74,-10.85
1164,200560484,0.8125,0.1108,-0.4521,-0.18,7.87,-10.98
1165,200565442,0.8149,0.1123,-0.4424,-0.49,7.93,-10.98
1166,200570442,0.8130,0.1157,-0.4443,-0.85,7.93,-11.16
1167,200575442,0.8115,0.1143,-0.4458,-1.16,8.05,-11.16
1168,200580443,0.8174,0.1196,-0.4438,-1.52,7.93,-11.16
1169,200585442,0.8135,0.1182,-0.4424,-1.89,8.23,-11.28
1170,200590442,0.8135,0.1206,-0.4395,-2.13,8.17,-11.46
1171,200595442,0.8125,0.1230,-0.4473,-2.38,8.23,-11.40
1172,200600442,0.8169,0.1235,-0.4448,-2.50,8.35,-11.40
1173,200605442,0.8164,0.1245,-0.4424,-2.62,8.41,-11.46
1174,200610443,0.8169,0.1235,-0.4443,-2.80,8.54,-11.46
1175,200615442,0.8228,0.1265,-0.4399,-3.17,8.54,-11.52
1176,200620442,0.8232,0.1294,-0.4380,-3.17,8.60,-11.59
1177,200625442,0.8232,0.1289,-0.4375,-3.35,8.66,-11.65
1178,200630442,0.8242,0.1255,-0.4375,-3.84,8.48,-11.52
1179,200635442,0.8218,0.1343,-0.4351,-4.09,8.54,-11.65
1180,200640443,0.8247,0.1343,-0.4331,-4.51,8.60,-11.65
1181,200645442,0.8237,0.1382,-0.4375,-4.63,8.72,-11.65
1182,200650443,0.8257,0.1406,-0.4336,-4.94,8.66,-11.83
1183,200655442,0.8276,0.1392,-0.4355,-5.12,8.54,-11.83
1184,200660442,0.8247,0.1470,-0.4370,-5.30,8.66,-11.83
1185,200665442,0.8232,0.1431,-0.4351,-5.37,8.60,-11.83
1186,200670442,0.8262,0.1455,-0.4399,-5.49,8.60,-11.95
1187,200675442,0.8301,0.1348,-0.4438,-5.61,8.48,-11.83
1188,200680443,0.8242,0.1504,-0.4219,-5.91,8.54,-11.95
1189,200685442,0.8228,0.1470,-0.4331,-6.16,8.48,-11.95
1190,200690543,0.8203,0.1572,-0.4346,-6.22,8.48,-12.07
1191,200695442,0.8213,0.1621,-0.4233,-6.28,8.35,-12.20
1192,200700444,0.8223,0.1606,-0.4233,-6.28,8.29,-12.20
1193,200705441,0.8198,0.1606,-0.4263,-6.16,8.29,-12.26
1194,200710440,0.8237,0.1582,-0.4243,-6.40,8.23,-12.26
1195,200715444,0.8213,0.1562,-0.4297,-6.46,8.23,-12.38
1196,200720444,0.8203,0.1587,-0.4224,-6.46,8.11,-12.26
1197,200725441,0.8213,0.1592,-0.4229,-6.71,7.87,-12.26
1198,200730442,0.8213,0.1660,-0.4224,-6.83,7.74,-12.26
1199,200735441,0.8228,0.1646,-0.4219,-6.89,7.74,-12.32
1200,200740442,0.8223,0.1699,-0.4214,-6.95,7.62,-12.32
1201,200745441,0.8237,0.1714,-0.4194,-6.95,7.44,-12.38
1202,200750440,0.8198,0.1748,-0.4229,-6.83,7.32,-12.38
1203,200755443,0.8188,0.1763,-0.4219,-6.65,7.07,-12.32
1204,200760442,0.8218,0.1782,-0.4141,-6.52,7.01,-12.26
1205,200765442,0.8164,0.1782,-0.4146,-6.52,7.07,-12.26
1206,200770441,0.8159,0.1768,-0.4106,-6.34,6.89,-12.26
1207,200775442,0.8091,0.1782,-0.4136,-6.10,6.77,-12.32
1208,200780442,0.8130,0.1812,-0.4116,-5.98,6.65,-12.13
1209,200785442,0.8164,0.1851,-0.4185,-5.73,6.34,-12.13
1210,200790441,0.8130,0.1851,-0.4111,-5.55,6.40,-12.13
1211,200795442,0.8135,0.1855,-0.4092,-5.55,6.10,-12.13
1212,200800442,0.8125,0.1870,-0.4082,-5.30,6.04,-12.13
1213,200805442,0.8130,0.1904,-0.4106,-5.06,5.85,-12.07
1214,200810441,0.8120,0.1934,-0.4097,-4.70,5.73,-12.01
1215,200815442,0.8096,0.1934,-0.3999,-4.45,5.73,-11.89
1216,200820442,0.8086,0.1909,-0.4038,-4.15,5.79,-11.83
1217,200825442,0.8105,0.1934,-0.3999,-3.72,5.49,-11.77
1218,200830443,0.8101,0.1934,-0.4053,-3.48,5.49,-11.59
1219,200835442,0.8091,0.1973,-0.4058,-3.11,5.37,-11.52
1220,200840442,0.8120,0.2012,-0.4058,-2.74,5.37,-11.46
1221,200845442,0.8130,0.2017,-0.4004,-2.32,5.30,-11.46
1222,200850441,0.8105,0.2012,-0.4072,-2.01,5.30,-11.34
1223,200855440,0.8042,0.2026,-0.4053,-1.65,5.30,-11.22
1224,200860443,0.8081,0.2065,-0.4067,-1.40,5.18,-11.10
1225,200865442,0.8105,0.2056,-0.4097,-1.10,5.18,-11.10
1226,200870442,0.8174,0.2104,-0.4014,-0.79,5.24,-10.98
1227,200875442,0.8115,0.2095,-0.4023,-0.61,5.24,-10.98
1228,200880441,0.8135,0.2119,-0.3955,-0.49,5.24,-10.91
1229,200885442,0.8135,0.2124,-0.4019,-0.24,5.30,-10.79
1230,200890442,0.8149,0.2124,-0.4004,-0.06,5.18,-10.61
1231,200895442,0.8145,0.2153,-0.4019,0.00,5.30,-10.61
1232,200900441,0.8174,0.2139,-0.4009,0.06,5.30,-10.61
1233,200905442,0.8149,0.2168,-0.4048,0.18,5.30,-10.30
1234,200910442,0.8184,0.2192,-0.4004,0.30,5.37,-10.37
1235,200915442,0.8218,0.2158,-0.3970,0.37,5.37,-10.24
1236,200920443,0.8213,0.2192,-0.3975,0.49,5.49,-10.18
1237,200925442,0.8184,0.2178,-0.3936,0.49,5.67,-10.12
1238,200930442,0.8203,0.2178,-0.3882,0.55,5.55,-10.00
1239,200935442,0.8228,0.2197,-0.3901,0.67,5.61,-9.94
1240,200940441,0.8237,0.2241,-0.3906,0.61,5.79,-10.00
1241,200945442,0.8232,0.2188,-0.3901,0.55,6.04,-10.00
1242,200950441,0.8267,0.2241,-0.3867,0.55,6.04,-9.94
1243,200955442,0.8208,0.2275,-0.3916,0.55,6.28,-9.94
1244,200960444,0.8262,0.2271,-0.3921,0.37,6.22,-9.94
1245,200965441,0.8296,0.2295,-0.3862,0.18,6.34,-9.94
1246,200970442,0.8315,0.2290,-0.3838,0.06,6.34,-10.00
1247,200975441,0.8286,0.2319,-0.3809,0.24,6.46,-10.00
1248,200980442,0.8369,0.2344,-0.3848,-0.12,6.59,-10.06
1249,200985441,0.8306,0.2349,-0.3867,-0.18,6.46,-10.06
1250,200990442,0.8369,0.2319,-0.3833,-0.12,6.65,-10.24
1251,200995441,0.8379,0.2339,-0.3833,-0.18,6.65,-10.24
1252,201000444,0.8379,0.2339,-0.3843,-0.24,6.71,-10.24
1253,201005441,0.8379,0.2349,-0.3857,-0.30,6.77,-10.55
1254,201010442,0.8379,0.2314,-0.3848,-0.30,6.71,-10.61
1255,201015441,0.8418,0.2334,-0.3799,-0.55,6.65,-10.79
1256,201020442,0.8428,0.2339,-0.3862,-0.79,6.59,-10.85
1257,201025441,0.8389,0.2393,-0.3818,-1.16,6.65,-11.04
1258,201030442,0.8423,0.2373,-0.3804,-1.59,6.46,-11.16
1259,201035441,0.8394,0.2383,-0.3818,-2.07,6.34,-11.34
1260,201040442,0.8335,0.2363,-0.3809,-2.68,6.34,-11.40
1261,201045441,0.8384,0.2383,-0.3799,-3.48,6.16,-11.65
1262,201050443,0.8384,0.2417,-0.3774,-4.02,5.98,-11.89
1263,201055441,0.8325,0.2373,-0.3745,-4.76,5.85,-12.01
1264,201060444,0.8286,0.2402,-0.3750,-5.37,5.85,-12.20
1265,201065441,0.8350,0.2427,-0.3794,-6.10,5.73,-12.26
1266,201070442,0.8369,0.2441,-0.3770,-6.77,5.49,-12.44
1267,201075441,0.8374,0.2441,-0.3818,-7.32,5.30,-12.62
1268,201080444,0.8350,0.2451,-0.3711,-7.93,5.30,-12.74
1269,201085441,0.8384,0.2432,-0.3750,-8.35,5.12,-12.93
1270,201090442,0.8369,0.2476,-0.3760,-8.78,5.06,-13.11
1271,201095441,0.8306,0.2451,-0.3755,-9.33,4.88,-13.23
1272,201100442,0.8345,0.2476,-0.3735,-9.63,4.94,-13.29
1273,201105441,0.8291,0.2480,-0.3867,-10.12,4.63,-13.48
1274,201110442,0.8301,0.2515,-0.3755,-10.61,4.57,-13.60
1275,201115441,0.8242,0.2495,-0.3770,-11.16,4.51,-13.72
1276,201120900,0.8262,0.2549,-0.3799,-11.83,4.39,-13.84
1277,201125443,0.8257,0.2490,-0.3774,-12.20,4.33,-13.72
1278,201130442,0.8296,0.2549,-0.3730,-12.80,4.33,-13.78
1279,201135442,0.8257,0.2490,-0.3755,-13.29,4.27,-13.78
1280,201140441,0.8281,0.2559,-0.3711,-13.66,4.15,-13.90
1281,201145442,0.8262,0.2549,-0.3765,-14.02,4.15,-13.84
1282,201150441,0.8306,0.2578,-0.3735,-14.15,4.02,-13.72
1283,201155443,0.8271,0.2573,-0.3726,-14.15,4.09,-13.78
1284,201160441,0.8237,0.2622,-0.3755,-14.15,3.96,-13.90
1285,201165444,0.8252,0.2661,-0.3730,-13.96,3.78,-13.84
1286,201170442,0.8271,0.2695,-0.3657,-13.54,3.78,-13.84
1287,201175442,0.8296,0.2690,-0.3682,-13.05,3.78,-13.78
1288,201180443,0.8296,0.2705,-0.3677,-12.62,3.66,-13.78
1289,201185442,0.8311,0.2739,-0.3667,-12.13,3.90,-13.66
1290,201190441,0.8281,0.2725,-0.3662,-11.59,3.66,-13.66
1291,201195443,0.8315,0.2690,-0.3662,-11.16,3.60,-13.54
1292,201200442,0.8271,0.2725,-0.3696,-10.79,3.41,-13.48
1293,201205444,0.8267,0.2764,-0.3638,-10.37,3.48,-13.29
1294,201210442,0.8296,0.2798,-0.3687,-9.88,3.35,-13.17
1295,201215443,0.8228,0.2793,-0.3652,-9.51,3.35,-12.99
1296,201220440,0.8159,0.2769,-0.3623,-9.27,3.48,-12.93
1297,201225444,0.8193,0.2812,-0.3608,-9.21,3.35,-12.74
1298,201230441,0.8179,0.2788,-0.3628,-8.84,3.35,-12.62
