# skilleye imu stream v1
# device=xiao_esp32c6 imu=mpu6050 addr=0x68
# rate_hz=200 accel_range_g=16 gyro_range_dps=2000 dlpf_hz=94
# units: accel in g, gyro in deg/s, t_us in microseconds since boot (monotonic)
# no shared clock with the camera -- tap the racket once before each take
# so both recordings share a spike to align on
seq,t_us,ax,ay,az,gx,gy,gz
0,211200953,-0.9644,0.0591,-0.1274,27.13,7.07,13.17
1,211205448,-0.9575,0.0576,-0.1211,26.28,7.38,12.74
2,211210442,-0.9585,0.0566,-0.1255,25.18,7.87,12.56
3,211215442,-0.9614,0.0542,-0.1245,24.09,8.23,12.20
4,211220440,-0.9614,0.0581,-0.1177,23.05,8.48,11.89
5,211225442,-0.9604,0.0596,-0.1172,21.95,8.90,11.65
6,211230441,-0.9600,0.0610,-0.1172,20.73,9.27,11.22
7,211235442,-0.9634,0.0659,-0.1191,19.57,9.51,10.85
8,211240440,-0.9639,0.0708,-0.1143,18.41,9.70,10.55
9,211245442,-0.9639,0.0732,-0.1123,17.50,9.82,10.18
10,211250441,-0.9580,0.0703,-0.1113,16.59,10.06,10.00
11,211255442,-0.9565,0.0698,-0.1157,15.67,9.94,9.76
12,211260440,-0.9585,0.0728,-0.1138,14.70,9.88,9.39
13,211265442,-0.9546,0.0747,-0.1094,13.78,10.00,9.27
14,211270441,-0.9536,0.0693,-0.1138,12.87,9.70,9.21
15,211275442,-0.9517,0.0737,-0.1050,12.07,9.63,9.02
16,211280440,-0.9458,0.0737,-0.1021,11.28,9.33,9.09
17,211285442,-0.9434,0.0713,-0.0986,10.43,9.39,9.09
18,211290441,-0.9404,0.0762,-0.1016,9.57,9.27,8.90
19,211295440,-0.9390,0.0776,-0.0933,8.60,8.90,8.96
20,211300444,-0.9380,0.0693,-0.0981,7.74,8.84,8.90
21,211305440,-0.9404,0.0771,-0.0952,6.83,8.54,9.02
22,211310442,-0.9355,0.0747,-0.0938,5.85,8.35,9.09
23,211315442,-0.9385,0.0723,-0.0991,4.94,8.11,9.02
24,211320442,-0.9419,0.0737,-0.0947,4.02,7.87,9.09
25,211325441,-0.9385,0.0762,-0.0952,3.17,7.62,9.02
26,211330442,-0.9453,0.0767,-0.0825,2.20,7.32,8.96
27,211335442,-0.9434,0.0752,-0.0913,1.40,7.20,9.09
28,211340442,-0.9424,0.0737,-0.0923,0.79,6.83,9.02
29,211345556,-0.9463,0.0776,-0.0928,0.00,6.71,9.02
30,211350442,-0.9507,0.0747,-0.0938,-0.49,6.28,8.90
31,211355442,-0.9507,0.0771,-0.0947,-0.98,6.16,8.78
32,211360443,-0.9546,0.0786,-0.0923,-1.04,5.85,8.78
33,211365441,-0.9600,0.0762,-0.1011,-1.40,5.61,8.84
34,211370443,-0.9604,0.0747,-0.0908,-1.46,5.55,8.78
35,211375442,-0.9619,0.0762,-0.0938,-1.28,5.43,8.96
36,211380442,-0.9624,0.0742,-0.0903,-1.16,5.24,8.90
37,211385441,-0.9688,0.0752,-0.0967,-0.73,5.12,8.96
38,211390443,-0.9663,0.0732,-0.0977,-0.12,4.94,9.09
39,211395441,-0.9702,0.0698,-0.1006,0.55,4.94,9.21
40,211400442,-0.9683,0.0708,-0.0952,1.52,4.63,9.27
41,211405442,-0.9683,0.0732,-0.1021,2.50,4.63,9.45
42,211410442,-0.9707,0.0708,-0.0962,3.66,4.51,9.57
43,211415442,-0.9648,0.0752,-0.1074,5.18,4.27,9.88
44,211420640,-0.9600,0.0679,-0.0991,6.65,4.39,10.00
45,211425443,-0.9639,0.0708,-0.1084,8.29,4.15,10.18
46,211430442,-0.9653,0.0723,-0.1069,9.88,4.09,10.37
47,211435442,-0.9614,0.0732,-0.1055,11.46,4.15,10.55
48,211440442,-0.9595,0.0723,-0.1040,13.05,4.02,10.73
49,211445441,-0.9561,0.0742,-0.1113,14.51,3.96,10.85
50,211450442,-0.9565,0.0713,-0.1094,15.91,3.84,10.98
51,211455442,-0.9531,0.0762,-0.1069,17.26,3.72,11.04
52,211460442,-0.9561,0.0747,-0.1113,18.35,3.72,11.04
53,211465441,-0.9551,0.0732,-0.1123,19.45,3.41,11.10
54,211470442,-0.9561,0.0732,-0.1152,20.24,3.17,11.04
55,211475442,-0.9536,0.0747,-0.1143,20.98,3.17,11.04
56,211480442,-0.9600,0.0762,-0.1211,21.65,2.99,10.85
57,211485441,-0.9619,0.0747,-0.1167,22.20,2.80,10.85
58,211490442,-0.9604,0.0762,-0.1270,22.62,2.74,10.91
59,211495442,-0.9590,0.0776,-0.1240,23.05,2.62,11.04
60,211500442,-0.9556,0.0776,-0.1235,23.41,2.32,10.91
61,211505443,-0.9517,0.0776,-0.1343,23.72,2.26,10.98
62,211510442,-0.9536,0.0815,-0.1357,24.02,2.01,10.98
63,211515442,-0.9526,0.0859,-0.1440,24.33,1.89,10.91
64,211520442,-0.9551,0.0864,-0.1494,24.70,1.46,10.98
65,211525443,-0.9521,0.0908,-0.1636,25.06,1.40,10.98
66,211530442,-0.9585,0.0928,-0.1650,25.55,1.16,10.98
67,211535442,-0.9575,0.0952,-0.1787,25.98,0.98,10.73
68,211540442,-0.9648,0.1021,-0.1973,26.40,0.85,10.67
69,211545441,-0.9678,0.1001,-0.2046,26.59,0.79,10.49
70,211550442,-0.9741,0.1035,-0.2129,26.65,0.55,10.30
71,211555442,-0.9780,0.1001,-0.2290,26.34,0.43,10.12
72,211560442,-0.9746,0.1016,-0.2310,25.67,0.37,10.00
73,211565443,-0.9683,0.1060,-0.2354,24.76,0.24,9.76
74,211570442,-0.9663,0.1064,-0.2427,23.35,0.49,9.51
75,211575440,-0.9648,0.1104,-0.2495,21.65,0.61,9.27
76,211580442,-0.9600,0.1133,-0.2544,19.82,0.85,9.02
77,211585442,-0.9673,0.1187,-0.2686,17.74,1.28,8.66
78,211590442,-0.9648,0.1196,-0.2783,15.61,1.65,8.54
79,211595441,-0.9771,0.1309,-0.2827,13.23,2.13,8.29
80,211600442,-0.9824,0.1377,-0.3066,10.98,2.87,8.17
81,211605570,-0.9883,0.1343,-0.3203,8.66,3.72,8.11
82,211610443,-0.9888,0.1411,-0.3325,6.22,4.63,8.05
83,211615442,-0.9912,0.1489,-0.3433,4.21,5.43,8.05
84,211620442,-0.9888,0.1494,-0.3521,1.52,6.59,8.11
85,211625443,-0.9917,0.1567,-0.3647,-1.22,7.87,8.41
86,211630442,-0.9873,0.1582,-0.3760,-4.21,9.33,8.78
87,211635442,-0.9907,0.1646,-0.3862,-7.44,10.79,9.02
88,211640442,-0.9868,0.1675,-0.3970,-10.85,12.56,9.51
89,211645441,-0.9883,0.1670,-0.4043,-14.45,14.51,10.06
90,211650442,-0.9902,0.1724,-0.4092,-18.35,16.52,10.67
91,211655442,-0.9966,0.1787,-0.4233,-22.38,18.84,11.34
92,211660442,-0.9995,0.1816,-0.4341,-26.71,21.34,12.01
93,211665441,-1.0073,0.1870,-0.4312,-31.28,24.09,12.80
94,211670442,-1.0112,0.1904,-0.4482,-35.91,27.20,13.78
95,211675442,-1.0176,0.1997,-0.4497,-40.79,30.37,14.57
96,211680442,-1.0205,0.2036,-0.4604,-45.61,33.66,15.55
97,211685441,-1.0229,0.2080,-0.4619,-50.55,37.26,16.65
98,211690442,-1.0278,0.2129,-0.4697,-55.37,40.91,17.74
99,211695442,-1.0312,0.2173,-0.4824,-60.37,44.57,19.09
100,211700442,-1.0151,0.2363,-0.4775,-64.94,48.41,20.30
101,211705441,-1.0439,0.2217,-0.5161,-69.51,52.20,21.77
102,211710443,-1.0630,0.2207,-0.5190,-74.09,55.85,23.48
103,211715440,-1.0742,0.2480,-0.5229,-78.72,59.27,24.94
104,211720440,-1.0859,0.2520,-0.5229,-83.23,62.93,26.65
105,211725442,-1.1006,0.2529,-0.5381,-87.62,66.52,28.29
106,211730442,-1.1050,0.2612,-0.5371,-92.13,69.94,29.82
107,211735442,-1.0835,0.2759,-0.5259,-96.28,73.66,31.59
108,211740440,-1.1177,0.2588,-0.5566,-100.24,77.07,33.29
109,211745442,-1.1313,0.2690,-0.5547,-104.15,80.43,35.30
110,211750441,-1.1245,0.2974,-0.5391,-107.68,83.23,37.07
111,211755442,-1.1177,0.3086,-0.5366,-110.61,85.98,38.78
112,211760440,-1.1099,0.3184,-0.5444,-112.93,89.76,40.43
113,211765442,-1.1069,0.3301,-0.5503,-114.57,92.87,42.07
114,211770442,-1.1040,0.3398,-0.5479,-115.61,95.85,43.60
115,211775442,-1.1187,0.3428,-0.5615,-116.04,98.60,45.12
116,211780442,-1.1182,0.3555,-0.5645,-115.91,101.16,46.46
117,211785442,-1.0996,0.3730,-0.5684,-115.30,103.66,47.87
118,211790441,-1.0840,0.3823,-0.5713,-114.15,105.98,49.15
119,211795442,-1.0645,0.3916,-0.5698,-112.68,108.41,50.12
120,211800440,-1.0562,0.3940,-0.5776,-110.55,110.37,51.22
121,211805441,-1.0723,0.4097,-0.5845,-107.62,112.99,52.62
122,211810443,-1.0830,0.4248,-0.5796,-105.12,114.63,53.23
123,211815442,-1.0762,0.4380,-0.5771,-101.89,116.65,53.96
124,211820442,-1.0566,0.4517,-0.5864,-98.17,118.72,54.45
125,211825610,-1.0273,0.4673,-0.5898,-94.02,120.73,55.00
126,211830442,-1.0044,0.4785,-0.5889,-89.70,122.38,55.18
127,211835442,-0.9736,0.4917,-0.5879,-85.18,124.09,55.43
128,211840442,-0.9492,0.5024,-0.5981,-80.43,125.67,55.61
129,211845441,-0.9258,0.5054,-0.5879,-75.79,127.26,55.79
130,211850442,-0.9048,0.5151,-0.5806,-71.04,128.66,55.85
131,211855442,-0.8813,0.5229,-0.5767,-66.65,130.18,55.79
132,211860442,-0.8501,0.5352,-0.5752,-62.26,131.59,55.73
133,211865441,-0.8267,0.5352,-0.5815,-58.23,133.05,55.67
134,211870442,-0.8208,0.5439,-0.5737,-54.51,134.39,55.61
135,211875442,-0.8247,0.5542,-0.5703,-51.10,135.91,55.79
136,211880442,-0.8306,0.5684,-0.5767,-47.87,137.38,55.73
137,211885442,-0.8232,0.5747,-0.5811,-45.12,138.78,55.55
138,211890443,-0.8096,0.5723,-0.5884,-42.62,140.30,55.55
139,211895442,-0.7749,0.5747,-0.5903,-40.30,141.52,55.43
140,211900441,-0.7314,0.5791,-0.5991,-38.54,142.74,55.55
141,211905441,-0.7007,0.5977,-0.6021,-37.20,143.78,55.61
142,211910442,-0.6782,0.6016,-0.5981,-36.16,144.82,55.67
143,211915444,-0.6611,0.6045,-0.6006,-35.24,145.85,55.91
144,211920441,-0.6533,0.6182,-0.6108,-34.57,146.89,56.16
145,211925442,-0.6558,0.6284,-0.6221,-33.78,148.11,56.59
146,211930440,-0.6689,0.6338,-0.6245,-32.93,148.90,56.89
147,211935442,-0.6802,0.6416,-0.6313,-32.07,149.88,57.44
148,211940442,-0.6860,0.6567,-0.6333,-31.22,150.91,57.99
149,211945442,-0.6924,0.6538,-0.6338,-30.73,152.07,58.41
150,211950440,-0.6870,0.6636,-0.6318,-30.30,152.93,59.09
151,211955442,-0.6797,0.6655,-0.6387,-30.55,153.90,59.82
152,211960441,-0.6753,0.6675,-0.6411,-31.16,154.82,60.85
153,211965442,-0.6704,0.6802,-0.6455,-31.89,155.43,62.01
154,211970440,-0.6680,0.6826,-0.6514,-32.93,156.40,62.80
155,211975442,-0.6699,0.6909,-0.6636,-34.21,157.07,63.66
156,211980441,-0.6753,0.6841,-0.6636,-35.67,157.68,64.51
157,211985444,-0.6836,0.6885,-0.6626,-37.38,158.35,65.00
158,211990440,-0.6904,0.7012,-0.6733,-38.96,158.90,65.43
159,211995442,-0.6958,0.7085,-0.6880,-40.55,159.33,65.43
160,212000441,-0.6909,0.7280,-0.6870,-41.89,159.94,65.49
161,212005442,-0.6890,0.7417,-0.6875,-43.23,160.30,65.06
162,212010441,-0.6816,0.7402,-0.7002,-44.51,160.55,64.82
163,212015444,-0.6709,0.7339,-0.7036,-45.85,160.91,64.27
164,212020441,-0.6704,0.7246,-0.7056,-47.20,161.10,63.54
165,212025442,-0.6631,0.7227,-0.6978,-48.66,161.34,62.87
166,212030440,-0.6558,0.7109,-0.6992,-50.06,161.77,62.07
167,212035444,-0.6523,0.7065,-0.6992,-51.65,162.01,61.40
168,212040441,-0.6431,0.7017,-0.6934,-53.35,162.44,60.73
169,212045440,-0.6284,0.6997,-0.6895,-55.00,162.68,60.18
170,212050442,-0.6162,0.7002,-0.6851,-56.65,162.93,59.70
171,212055442,-0.5996,0.6895,-0.6846,-58.41,163.11,59.51
172,212060442,-0.5820,0.6831,-0.6860,-60.06,163.29,59.27
173,212065442,-0.5620,0.6689,-0.6768,-61.71,163.29,59.27
174,212070442,-0.5420,0.6528,-0.6792,-62.87,163.41,59.45
175,212075465,-0.5249,0.6392,-0.6733,-64.15,163.54,59.76
176,212080442,-0.5127,0.6328,-0.6792,-65.24,163.54,60.30
177,212085442,-0.4985,0.6245,-0.6621,-66.16,163.78,60.85
178,212090442,-0.4912,0.6196,-0.6577,-66.95,163.90,61.89
179,212095442,-0.4844,0.6147,-0.6455,-67.56,164.15,62.74
180,212100442,-0.4702,0.5981,-0.6309,-67.99,164.39,63.96
181,212105442,-0.4526,0.5825,-0.6187,-68.29,164.70,65.18
182,212110442,-0.4351,0.5703,-0.6094,-68.11,165.06,66.52
183,212115442,-0.4453,0.5479,-0.6240,-67.62,165.30,68.17
184,212120444,-0.4062,0.4292,-0.8843,-65.18,162.87,71.10
185,212125442,-0.2998,0.5410,-0.4692,-61.34,161.40,73.54
186,212130442,-0.3228,0.4932,-0.4199,-57.80,162.07,75.73
187,212135442,-0.3232,0.5112,-0.6836,-53.41,160.55,78.54
188,212140442,-0.2969,0.5542,-0.7563,-47.80,157.62,81.22
189,212145442,-0.2842,0.5239,-0.5547,-41.65,155.61,84.02
190,212150442,-0.2651,0.4404,-0.5337,-34.51,153.90,86.16
191,212155442,-0.2188,0.2969,-0.7461,-25.91,150.18,91.10
192,212160442,-0.1333,0.2642,-0.6987,-16.28,145.73,97.50
193,212165442,-0.1016,0.3970,-0.4326,-6.28,143.05,104.15
194,212170440,-0.1738,0.5757,-0.4126,3.96,142.20,108.41
195,212175442,-0.3188,0.6250,-0.5635,14.33,141.52,110.18
196,212180441,-0.4482,0.6206,-0.5781,24.63,141.28,110.18
197,212185444,-0.5010,0.6074,-0.5054,34.76,142.07,109.57
198,212190440,-0.4414,0.5854,-0.5415,44.70,143.05,108.48
199,212195444,-0.3408,0.5483,-0.6240,54.45,143.84,107.44
200,212200442,-0.2710,0.5112,-0.5776,63.72,144.82,106.34
201,212205442,-0.2378,0.4844,-0.5151,71.89,146.34,105.55
202,212210443,-0.2471,0.4966,-0.6030,79.21,147.38,104.94
203,212215443,-0.2515,0.5303,-0.6704,85.55,147.68,103.66
204,212221134,-0.2349,0.5225,-0.6313,91.04,148.29,101.89
205,212225443,-0.2290,0.5454,-0.5205,93.66,149.33,100.55
206,212230443,-0.2041,0.5347,-0.5757,95.79,150.18,98.96
207,212235442,-0.1812,0.5151,-0.6123,96.95,150.55,97.38
208,212240442,-0.1655,0.5122,-0.5571,97.07,150.91,95.73
209,212245442,-0.1421,0.5015,-0.5298,96.34,151.28,94.09
210,212250442,-0.1011,0.4902,-0.5679,94.63,151.46,92.26
211,212255442,-0.0645,0.4854,-0.5732,92.32,151.22,90.67
212,212260442,-0.0371,0.4863,-0.5244,89.27,151.16,88.90
213,212265443,-0.0107,0.4932,-0.5312,85.49,150.73,87.07
214,212270442,0.0200,0.4834,-0.5664,81.16,150.18,86.28
215,212275442,0.0459,0.4551,-0.5518,76.52,149.21,84.09
216,212280442,0.0679,0.4380,-0.5264,71.46,148.35,82.32
217,212285442,0.0908,0.4248,-0.5225,66.22,147.38,80.73
218,212290442,0.1128,0.4150,-0.5396,60.73,145.85,79.33
219,212295442,0.1270,0.4092,-0.5200,55.18,144.45,78.05
220,212300442,0.1328,0.4126,-0.5005,49.82,143.23,76.89
221,212305442,0.1489,0.4087,-0.5015,44.82,141.77,76.04
222,212310443,0.1523,0.4048,-0.5132,40.00,140.24,75.18
223,212315441,0.1680,0.4131,-0.5029,35.55,138.84,74.51
224,212320442,0.1978,0.4121,-0.5039,31.46,137.44,73.90
225,212325442,0.2100,0.4062,-0.5093,27.74,135.79,73.41
226,212330441,0.2256,0.4062,-0.4932,24.51,134.27,72.80
227,212335442,0.2363,0.3999,-0.4980,21.71,132.74,72.38
228,212340441,0.2485,0.4077,-0.5093,19.21,131.16,71.59
229,212345442,0.2676,0.4150,-0.5000,17.07,129.51,70.85
230,212350441,0.2852,0.4160,-0.4873,15.18,127.80,70.06
231,212355442,0.3062,0.4150,-0.4795,13.29,126.28,69.33
232,212360441,0.3257,0.4048,-0.4746,12.01,124.45,68.60
233,212365442,0.3428,0.3984,-0.4683,10.85,122.74,67.80
234,212370441,0.3564,0.3823,-0.4609,9.94,121.10,67.07
235,212375442,0.3804,0.3774,-0.4634,9.27,119.15,66.65
236,212380441,0.4014,0.3735,-0.4619,8.72,117.44,66.04
237,212385442,0.4150,0.3794,-0.4565,8.17,115.61,65.55
238,212390441,0.4199,0.3652,-0.4634,7.74,113.90,65.12
239,212395444,0.3950,0.3477,-0.4604,7.26,112.13,64.82
240,212400441,0.4604,0.3442,-0.4546,6.83,110.24,64.70
241,212405442,0.5029,0.3413,-0.4526,6.52,108.54,64.63
242,212410441,0.5249,0.3594,-0.4482,6.28,106.83,64.45
243,212415440,0.5420,0.3540,-0.4443,5.98,105.18,64.15
244,212420754,0.5610,0.3442,-0.4365,5.61,103.72,63.84
245,212425442,0.5620,0.3257,-0.4419,5.49,102.07,63.96
246,212430442,0.5947,0.3398,-0.4600,5.67,100.24,63.96
247,212435442,0.6284,0.3525,-0.4600,5.98,98.29,63.54
248,212440442,0.6567,0.3652,-0.4551,6.10,96.10,62.93
249,212445442,0.6724,0.3730,-0.4473,6.52,93.84,62.32
250,212450442,0.6846,0.3647,-0.4326,7.07,91.52,61.77
251,212455442,0.6929,0.3550,-0.4233,7.80,89.57,61.28
252,212460442,0.7021,0.3374,-0.4131,8.84,87.44,61.04
253,212465442,0.7046,0.3281,-0.4028,9.94,85.43,61.10
254,212470442,0.7090,0.3218,-0.4160,11.10,85.18,61.34
255,212475443,0.7124,0.3101,-0.4224,12.44,82.99,61.71
256,212480442,0.7271,0.3057,-0.4165,13.78,81.59,62.32
257,212485442,0.7476,0.3071,-0.4463,15.24,79.94,62.74
258,212490443,0.7612,0.2935,-0.4609,16.65,78.35,63.11
259,212495440,0.7725,0.2900,-0.4648,18.48,76.71,63.84
260,212500442,0.7773,0.2837,-0.4751,20.67,75.00,64.39
261,212505442,0.8018,0.2837,-0.4756,23.41,73.48,65.06
262,212510442,0.8262,0.2798,-0.4819,26.52,72.62,65.49
263,212515443,0.8408,0.2759,-0.4839,30.00,71.77,66.28
264,212520442,0.8442,0.2651,-0.4897,32.99,71.28,66.71
265,212525440,0.8359,0.2520,-0.4932,37.07,71.16,67.50
266,212530442,0.8320,0.2344,-0.5181,41.77,71.22,68.35
267,212535442,0.8320,0.2397,-0.5220,44.63,71.40,68.84
268,212540441,0.8267,0.2251,-0.5483,48.17,71.59,69.51
269,212545442,0.8198,0.2109,-0.5571,51.28,72.26,70.12
270,212550441,0.8086,0.1978,-0.5674,53.96,73.11,70.49
271,212555442,0.8135,0.2017,-0.5645,56.22,74.09,70.73
272,212560441,0.8472,0.1807,-0.5825,58.11,75.06,70.73
273,212565442,0.8779,0.1567,-0.6162,59.57,76.04,70.98
274,212570441,0.8955,0.1431,-0.6274,60.67,77.01,71.22
275,212575442,0.8989,0.1348,-0.6372,61.40,77.99,71.52
276,212580442,0.9033,0.1367,-0.6543,61.77,79.02,71.83
277,212585468,0.9014,0.1221,-0.6724,61.89,80.37,72.26
278,212590442,0.9053,0.1201,-0.6904,61.95,81.52,72.80
279,212596608,0.9121,0.1226,-0.6992,61.95,83.96,73.17
280,212600444,0.9072,0.1196,-0.7070,62.13,85.06,73.17
281,212605456,0.8999,0.1172,-0.7227,62.32,86.46,73.17
282,212610441,0.8999,0.1162,-0.7251,62.68,86.04,73.17
283,212615442,0.9028,0.1118,-0.7402,63.35,86.89,72.93
284,212620441,0.9058,0.1074,-0.7441,64.15,89.57,72.62
285,212625441,0.9043,0.1001,-0.7563,65.12,91.59,72.26
286,212630444,0.8984,0.1064,-0.7510,66.16,93.35,71.71
287,212635920,0.9023,0.1050,-0.7490,67.26,95.43,70.85
288,212640442,0.9048,0.1060,-0.7422,67.87,96.46,70.18
289,212645442,0.9146,0.1021,-0.7461,68.35,97.74,69.02
290,212650442,0.8979,0.0859,-0.7363,68.48,99.09,67.99
291,212655441,0.9507,0.1138,-0.7822,68.41,100.00,66.77
292,212660442,0.9766,0.0762,-0.7495,68.54,100.61,65.49
293,212665442,0.9634,0.0776,-0.7480,69.02,101.40,64.70
294,212670442,0.9561,0.0737,-0.7476,70.30,101.77,63.78
295,212675441,0.9536,0.0679,-0.7437,72.32,102.32,62.87
296,212680443,0.9512,0.0615,-0.7427,75.37,102.74,62.20
297,212685442,0.9077,0.0444,-0.7188,79.02,103.48,61.46
298,212690442,0.9585,0.0903,-0.7803,83.23,103.90,60.30
299,212695441,0.9746,0.0444,-0.7012,88.35,104.15,59.21
300,212700442,0.9434,0.0308,-0.7188,94.02,104.88,58.41
301,212705442,0.9204,0.0430,-0.6992,100.49,105.43,57.56
302,212710442,0.8887,0.0459,-0.6514,107.26,106.59,56.34
303,212715440,0.9175,0.0718,-0.7075,114.09,107.38,54.88
304,212720442,0.9282,0.0425,-0.6479,121.28,108.05,53.23
305,212725440,0.9058,0.0449,-0.6450,128.90,109.09,51.65
306,212730441,0.8794,0.0474,-0.6333,135.91,110.18,50.06
307,212735442,0.8423,0.0391,-0.5938,143.41,111.77,48.17
308,212740441,0.8335,0.0562,-0.6396,150.85,113.23,45.91
309,212745442,0.8096,0.0381,-0.5674,158.29,114.70,43.60
310,212750441,0.7910,0.0386,-0.5771,165.67,116.28,41.16
311,212755442,0.7720,0.0361,-0.5703,172.68,117.99,38.54
312,212760441,0.7539,0.0420,-0.5640,178.96,119.51,35.67
313,212765442,0.7402,0.0210,-0.5571,184.51,120.98,32.38
314,212770441,0.7305,0.0190,-0.5562,189.82,122.32,29.15
315,212775442,0.7183,0.0249,-0.5469,194.33,123.48,25.67
316,212780441,0.6968,0.0103,-0.5430,198.72,124.76,22.01
317,212785440,0.6787,0.0298,-0.5586,202.44,125.91,18.17
318,212790444,0.6597,0.0195,-0.5342,206.16,126.83,14.15
319,212795441,0.6362,0.0327,-0.5400,209.27,127.56,9.94
320,212800441,0.6201,0.0288,-0.5117,212.32,128.41,5.67
321,212805444,0.6001,0.0293,-0.4917,215.12,129.33,1.16
322,212810441,0.5791,0.0337,-0.4634,217.80,130.06,-3.17
323,212815442,0.5547,0.0303,-0.4468,220.12,130.79,-7.87
324,212820441,0.5264,0.0332,-0.4185,221.71,131.46,-12.38
325,212825442,0.4990,0.0347,-0.3955,222.68,132.07,-17.01
326,212830441,0.4780,0.0410,-0.3584,223.05,132.56,-21.95
327,212835442,0.4526,0.0425,-0.3208,222.68,132.80,-26.77
328,212840441,0.4302,0.0503,-0.2910,221.65,132.99,-31.71
329,212845442,0.4106,0.0557,-0.2676,220.12,132.87,-36.95
330,212850441,0.3887,0.0635,-0.2368,217.87,132.62,-42.20
331,212855442,0.3789,0.0732,-0.2085,215.24,132.07,-47.50
332,212860441,0.3643,0.0825,-0.1797,212.26,131.40,-53.05
333,212865442,0.3516,0.0933,-0.1548,209.21,130.37,-58.48
334,212870441,0.3350,0.1060,-0.1211,205.98,129.15,-64.02
335,212875442,0.3237,0.1104,-0.0967,202.80,127.93,-69.63
336,212880441,0.3032,0.1230,-0.0664,199.70,126.46,-75.00
337,212885442,0.2944,0.1348,-0.0430,196.46,125.06,-80.61
338,212890441,0.2734,0.1450,-0.0010,193.29,123.41,-86.04
339,212895442,0.2588,0.1572,0.0273,190.12,121.52,-91.59
340,212900442,0.2402,0.1709,0.0503,187.01,119.57,-97.01
341,212905835,0.2188,0.1743,0.0786,183.66,117.56,-102.50
342,212910442,0.1919,0.1855,0.1050,180.18,115.49,-107.80
343,212915442,0.1729,0.1929,0.1436,176.65,113.23,-112.93
344,212920442,0.1548,0.1982,0.1768,172.74,110.79,-118.11
345,212925441,0.1313,0.2026,0.2070,168.66,108.54,-123.17
346,212930443,0.1099,0.2114,0.2236,164.51,106.10,-128.29
347,212935441,0.0786,0.2139,0.2578,160.06,103.54,-133.29
348,212940441,0.0562,0.2158,0.2744,155.67,100.98,-138.05
349,212945442,0.0308,0.2183,0.2920,151.34,98.54,-142.74
350,212950441,0.0122,0.2148,0.3159,146.95,95.67,-147.56
351,212955442,-0.0142,0.2256,0.3306,142.68,92.80,-152.13
352,212960441,-0.0425,0.2363,0.3506,138.54,89.45,-156.65
353,212965442,-0.0645,0.2397,0.3574,134.33,86.22,-161.28
354,212970441,-0.0908,0.2466,0.3643,130.37,84.88,-165.67
355,212975442,-0.1152,0.2500,0.3813,128.54,81.10,-170.12
356,212980441,-0.1353,0.2505,0.3945,124.88,77.80,-174.51
357,212985442,-0.1646,0.2573,0.4043,121.83,74.51,-178.96
358,212990441,-0.2178,0.2632,0.4058,119.21,71.04,-183.29
359,212995442,-0.2427,0.2642,0.4224,116.95,67.62,-187.56
360,213000441,-0.2583,0.2681,0.4346,115.00,64.15,-191.89
361,213005442,-0.2891,0.2686,0.4458,113.41,60.55,-196.28
362,213010441,-0.3262,0.2808,0.4531,111.95,56.83,-200.55
363,213015442,-0.3701,0.2847,0.4570,110.98,53.05,-204.94
364,213020441,-0.4082,0.2876,0.4585,110.30,49.09,-209.51
365,213025442,-0.4478,0.2944,0.4863,109.94,45.00,-214.02
366,213030441,-0.4922,0.3037,0.4902,109.88,40.85,-218.60
367,213035442,-0.5356,0.3105,0.5020,110.24,36.34,-223.35
368,213040442,-0.5913,0.3140,0.5112,110.98,31.59,-228.17
369,213045744,-0.6421,0.3320,0.5205,112.20,26.71,-232.87
370,213050442,-0.6973,0.3418,0.5371,114.09,21.46,-237.80
371,213055442,-0.7515,0.3579,0.5513,116.65,15.91,-242.80
372,213060442,-0.7974,0.3706,0.5747,119.88,10.12,-247.87
373,213065441,-0.7827,0.4165,0.5576,123.66,4.02,-252.99
374,213070442,-0.8647,0.4062,0.6123,126.89,-2.32,-258.29
375,213075442,-0.9395,0.4424,0.6528,130.67,-8.60,-263.48
376,213080442,-1.0391,0.4360,0.6592,135.79,-15.37,-268.78
377,213085444,-1.1216,0.4590,0.6553,140.30,-22.80,-274.09
378,213090441,-1.1836,0.4722,0.6851,144.45,-30.85,-279.82
379,213095442,-1.2505,0.4971,0.7188,148.35,-38.96,-285.49
380,213100442,-1.3105,0.5234,0.7490,151.95,-47.74,-291.22
381,213105442,-1.3091,0.6343,0.7485,154.39,-57.32,-297.13
382,213110441,-1.3755,0.5928,0.8628,153.96,-66.95,-303.66
383,213115442,-1.4985,0.5688,0.8623,151.59,-76.83,-309.51
384,213120442,-1.6450,0.6309,0.8140,147.99,-87.26,-315.43
385,213125442,-1.8242,0.6807,0.7642,143.60,-98.48,-321.28
386,213130440,-1.9106,0.7397,0.8350,138.96,-109.88,-327.44
387,213135442,-1.9492,0.7905,0.8833,134.15,-120.98,-333.23
388,213140441,-2.0493,0.7998,0.9678,128.72,-131.65,-338.66
389,213145444,-2.1426,0.8213,1.0474,123.11,-142.20,-343.54
390,213150441,-2.2158,0.8457,1.0928,117.07,-152.56,-348.11
391,213155442,-2.2764,0.8794,1.1104,110.85,-163.60,-352.87
392,213160441,-2.3257,0.8867,1.1870,103.66,-175.06,-357.44
393,213165442,-2.3633,0.8789,1.1997,95.30,-187.26,-361.89
394,213170442,-2.4370,0.8467,1.1792,85.24,-200.37,-366.04
395,213175442,-2.5308,0.8218,1.1748,73.41,-214.27,-370.18
396,213180443,-2.6406,0.8047,1.1426,59.94,-229.33,-374.21
397,213185566,-2.7515,0.7671,1.0923,45.06,-245.18,-378.23
398,213190441,-2.8540,0.7759,0.9912,29.57,-261.40,-382.50
399,213195443,-2.9712,0.7559,0.9258,14.45,-278.11,-386.89
400,213200443,-3.0815,0.7290,0.8418,-0.43,-294.63,-391.28
401,213205444,-3.1553,0.7119,0.7568,-14.27,-310.91,-396.10
402,213210442,-3.1675,0.7100,0.7085,-25.49,-326.46,-401.16
403,213215442,-3.2295,0.7275,0.6543,-32.07,-341.40,-406.89
404,213220441,-3.3652,0.7695,0.5605,-33.23,-356.10,-413.41
405,213225442,-3.5288,0.8203,0.4253,-28.60,-371.10,-420.37
406,213230441,-3.6860,0.8823,0.3062,-17.74,-386.83,-427.38
407,213235443,-3.8267,0.9512,0.2104,0.37,-402.50,-434.02
408,213240441,-4.0234,1.0620,0.0215,24.57,-419.15,-440.24
409,213245442,-4.2256,1.1650,-0.0239,53.23,-435.91,-445.73
410,213250441,-4.3911,1.2700,-0.0249,86.10,-452.74,-449.70
411,213255442,-4.6304,1.3662,-0.1665,121.65,-469.94,-452.32
412,213260441,-4.9126,1.4775,-0.2134,155.12,-487.74,-452.93
413,213265442,-5.1758,1.6079,-0.2886,184.39,-505.24,-451.46
414,213270441,-5.4946,1.7627,-0.4307,207.07,-522.74,-447.87
415,213275442,-5.8018,1.9341,-0.5649,221.95,-539.21,-441.95
416,213280441,-6.0566,2.1094,-0.6724,229.15,-554.21,-433.96
417,213285442,-6.2231,2.2407,-0.7705,229.88,-567.07,-423.84
418,213290441,-6.3447,2.3965,-0.8647,225.06,-577.38,-411.59
419,213295449,-6.5112,2.5190,-1.0054,217.32,-585.18,-397.87
420,213300443,-6.2197,2.3491,-1.0405,206.95,-590.43,-382.38
421,213305500,-6.7285,2.6294,-1.1709,193.17,-592.80,-367.26
422,213310444,-6.8320,2.8931,-1.3423,185.12,-593.54,-352.07
423,213315441,-6.7188,2.8955,-1.3335,182.20,-591.59,-335.00
424,213320444,-6.6216,2.8242,-1.3496,180.67,-586.83,-316.22
425,213325442,-6.5132,2.7568,-1.4229,178.96,-580.49,-296.28
426,213330441,-6.3818,2.7671,-1.4800,175.49,-572.74,-276.10
427,213335442,-6.1641,2.7739,-1.5029,170.73,-564.27,-255.98
428,213340441,-5.9243,2.7202,-1.5151,165.12,-554.94,-235.73
429,213345440,-5.6338,2.6738,-1.4707,158.84,-545.00,-215.61
430,213350444,-5.4077,2.6035,-1.4497,151.95,-534.09,-195.67
431,213355442,-5.1719,2.5327,-1.4199,145.00,-523.17,-175.61
432,213360441,-4.9302,2.4663,-1.4028,138.54,-512.44,-155.24
433,213365442,-4.7021,2.4351,-1.3447,133.60,-502.13,-134.88
434,213370441,-4.5024,2.4023,-1.2964,129.94,-492.32,-114.27
435,213375442,-4.3042,2.3789,-1.2563,132.62,-483.41,-93.66
436,213380441,-4.1621,2.3472,-1.2153,138.72,-475.37,-72.32
437,213385442,-4.0273,2.3325,-1.1797,148.66,-468.41,-50.37
438,213390441,-3.9277,2.2817,-1.1592,158.84,-463.78,-32.26
439,213395442,-3.7778,2.2192,-1.1431,176.52,-458.11,-4.27
440,213400441,-3.6680,2.1865,-1.1304,189.21,-455.06,14.88
441,213405442,-3.5229,2.1172,-1.1191,208.90,-451.46,43.90
442,213410441,-3.4165,2.0791,-1.1035,221.77,-449.45,63.29
443,213415442,-3.2656,2.0581,-1.0713,241.16,-446.46,92.01
444,213420441,-3.1958,1.9863,-1.0796,253.84,-444.63,111.28
445,213425442,-3.0864,1.9565,-1.0693,270.18,-441.59,139.82
446,213430441,-3.0107,1.9287,-1.1040,278.96,-439.45,158.41
447,213435983,-2.9224,1.8730,-1.1201,287.80,-436.04,185.79
448,213440443,-2.8555,1.8467,-1.0923,291.16,-433.66,203.48
449,213445441,-2.7852,1.7920,-1.1377,292.13,-430.43,225.00
450,213450443,-2.7642,1.7397,-1.1538,289.70,-426.95,245.85
451,213455442,-2.7129,1.7095,-1.1885,284.51,-423.48,265.85
452,213460441,-2.6294,1.6538,-1.2271,276.59,-420.12,284.88
453,213465442,-2.5679,1.5811,-1.2275,266.52,-416.52,302.62
454,213470441,-2.5000,1.5122,-1.2197,255.79,-412.74,319.76
455,213475442,-2.4360,1.4575,-1.2202,244.82,-408.60,336.34
456,213480441,-2.3892,1.4258,-1.2422,234.45,-404.27,352.07
457,213485442,-2.3569,1.3579,-1.2085,223.90,-399.70,367.13
458,213490441,-2.3105,1.3037,-1.2305,213.48,-395.06,381.77
459,213495442,-2.2910,1.2583,-1.2129,203.11,-390.12,395.55
460,213500441,-2.3022,1.2114,-1.1904,192.50,-384.70,409.02
461,213505442,-2.3569,1.1455,-1.1958,180.98,-379.02,422.50
462,213510441,-2.4292,1.0596,-1.1924,168.54,-373.60,435.67
463,213515442,-2.4937,0.9883,-1.1787,155.30,-367.80,448.78
464,213520441,-2.5601,0.9126,-1.1675,141.83,-362.13,461.71
465,213525444,-2.5957,0.8481,-1.1465,129.63,-356.40,473.96
466,213530441,-2.6333,0.7905,-1.1201,117.20,-350.37,485.55
467,213535442,-2.6704,0.7383,-1.1055,106.59,-344.76,496.28
468,213540441,-2.7251,0.6831,-1.0762,97.74,-338.48,506.28
469,213545441,-2.7749,0.6079,-1.0396,91.89,-332.01,515.85
470,213550684,-2.8101,0.5415,-0.9863,88.54,-323.66,526.77
471,213555442,-2.8193,0.5073,-0.9580,88.17,-317.68,533.60
472,213560441,-2.7949,0.4512,-0.9170,88.78,-309.70,541.52
473,213565442,-2.7686,0.3916,-0.8716,90.79,-301.65,548.60
474,213570441,-2.7217,0.3374,-0.8027,93.29,-293.60,554.94
475,213575442,-2.6460,0.2739,-0.7837,96.22,-285.43,560.43
476,213580441,-2.6265,0.2520,-0.7485,98.11,-276.95,565.24
477,213585442,-2.6030,0.2036,-0.7080,99.02,-268.60,568.72
478,213590443,-2.5269,0.1382,-0.6768,99.02,-260.18,571.04
479,213595443,-2.4146,0.0723,-0.6602,97.62,-251.22,572.32
480,213600442,-2.2886,0.0171,-0.6377,94.51,-241.83,572.68
481,213605442,-2.1675,-0.0420,-0.6489,89.45,-231.89,572.26
482,213610442,-2.0483,-0.1182,-0.6787,82.62,-221.83,570.61
483,213615442,-1.9653,-0.1924,-0.6865,75.24,-211.52,568.29
484,213620442,-1.9976,-0.2773,-0.7656,68.41,-201.10,564.88
485,213625442,-2.0083,-0.3237,-0.8535,60.37,-192.13,559.88
486,213630442,-1.8364,-0.4424,-0.8232,50.67,-183.60,554.09
487,213635443,-1.6733,-0.5317,-0.8271,40.61,-175.37,547.68
488,213640442,-1.5513,-0.6226,-0.8281,31.65,-167.74,540.30
489,213645442,-1.4102,-0.6929,-0.8193,25.30,-160.30,532.07
490,213650442,-1.2373,-0.7808,-0.8247,22.50,-153.11,523.29
491,213655443,-1.1577,-0.8882,-0.8672,24.27,-145.67,514.63
492,213660442,-1.0474,-0.9248,-0.8633,31.59,-137.20,506.34
493,213665440,-0.9634,-1.0024,-0.8535,43.96,-128.84,498.05
494,213670443,-0.9297,-1.0762,-0.8901,59.45,-119.21,490.43
495,213675441,-0.8853,-1.1455,-0.8706,76.65,-109.09,482.80
496,213680444,-0.8379,-1.1860,-0.8535,94.02,-98.23,474.88
497,213685440,-0.7944,-1.2412,-0.8296,110.24,-87.13,466.59
498,213690443,-0.7158,-1.3218,-0.7798,124.39,-75.61,457.80
499,213695441,-0.6396,-1.3662,-0.7227,135.61,-63.96,448.96
500,213700444,-0.5645,-1.4243,-0.6870,142.44,-52.26,439.45
501,213705442,-0.5181,-1.4873,-0.6426,143.72,-40.73,429.39
502,213710441,-0.4863,-1.5464,-0.5825,140.61,-29.76,419.15
503,213715444,-0.4521,-1.5981,-0.5493,133.60,-19.33,408.48
504,213720441,-0.4175,-1.6455,-0.4834,123.54,-9.39,397.44
505,213725442,-0.3760,-1.6938,-0.4541,110.37,0.12,386.34
506,213730441,-0.3975,-1.6650,-0.4028,93.96,8.84,375.06
507,213735442,-0.3652,-1.8174,-0.3740,75.12,16.65,362.99
508,213740441,-0.2871,-1.8164,-0.3442,55.91,23.90,350.79
509,213745442,-0.2471,-1.8008,-0.3013,37.80,30.43,338.48
510,213750441,-0.2041,-1.8115,-0.2896,21.95,35.67,325.98
511,213755440,-0.1592,-1.8604,-0.2690,9.45,39.94,313.48
512,213760443,-0.1216,-1.8975,-0.2290,0.61,43.54,301.28
513,213765442,-0.1084,-1.9043,-0.2217,-4.33,46.71,289.39
514,213770442,-0.0913,-1.9082,-0.1997,-5.55,49.39,277.62
515,213775442,-0.0679,-1.9175,-0.1743,-3.96,51.95,266.22
516,213780442,-0.0483,-1.9131,-0.1562,-0.18,54.21,254.88
517,213785442,-0.0327,-1.9082,-0.1436,5.67,56.40,243.96
518,213790442,-0.0054,-1.9326,-0.1294,12.38,58.48,233.11
519,213795442,0.0273,-1.9106,-0.1035,19.88,60.37,222.32
520,213800442,0.0815,-1.9072,-0.0820,26.89,61.95,211.46
521,213805443,0.1470,-1.8955,-0.0195,33.60,63.54,200.85
522,213810444,0.1533,-1.8955,-0.0366,39.57,64.88,190.18
523,213815441,0.1582,-1.8838,-0.0151,44.33,66.10,179.57
524,213820441,0.1128,-1.8696,0.0103,48.11,66.59,169.21
525,213825440,0.0864,-1.8477,-0.0278,51.46,67.56,159.27
526,213830444,0.1074,-1.8232,0.0054,54.70,68.35,149.27
527,213835442,0.1421,-1.7983,0.0454,57.44,68.72,139.39
528,213840441,0.1709,-1.7734,0.0586,59.27,69.45,129.45
529,213845440,0.1870,-1.7544,0.0869,59.39,70.00,119.70
530,213850441,0.1870,-1.7266,0.1084,57.56,70.30,110.06
531,213855449,0.2041,-1.7183,0.1177,53.35,70.24,100.73
532,213860442,0.2080,-1.6831,0.1294,47.74,70.18,91.04
533,213865441,0.2314,-1.6646,0.1597,41.34,69.63,82.56
534,213870440,0.2524,-1.6431,0.1704,35.12,69.09,73.66
535,213875934,0.2578,-1.6235,0.1851,29.57,68.35,65.24
536,213880442,0.2612,-1.5981,0.1943,24.76,67.62,57.20
537,213885440,0.2651,-1.5732,0.1885,20.98,66.77,49.51
538,213890440,0.2754,-1.5503,0.2070,18.35,65.67,42.26
539,213895461,0.2788,-1.5254,0.2178,16.71,64.57,35.30
540,213900440,0.2847,-1.5029,0.2236,16.40,63.60,28.78
541,213905440,0.2783,-1.4800,0.2271,16.89,62.44,22.62
542,213910442,0.2695,-1.4570,0.2349,18.29,61.34,16.77
543,213915442,0.2603,-1.4390,0.2158,19.88,60.30,11.46
544,213920440,0.2593,-1.4028,0.2246,21.22,59.27,6.28
545,213925442,0.2656,-1.3740,0.2280,22.32,58.23,1.46
546,213930442,0.2642,-1.3433,0.2212,23.05,57.26,-3.23
547,213935440,0.2676,-1.3159,0.2163,23.48,56.46,-7.50
548,213940444,0.2749,-1.2822,0.2227,23.29,55.30,-11.59
549,213945442,0.2964,-1.2515,0.2285,22.32,54.57,-15.61
550,213950441,0.2993,-1.2158,0.2212,20.43,53.60,-19.27
551,213955441,0.2988,-1.1807,0.2261,17.56,52.56,-22.87
552,213960500,0.3110,-1.1504,0.2212,13.90,51.77,-26.22
553,213965442,0.3315,-1.1177,0.2183,9.76,50.91,-29.39
554,213970442,0.3306,-1.0796,0.2251,5.30,50.00,-32.38
555,213975442,0.3428,-1.0688,0.2192,1.04,49.02,-35.12
556,213980442,0.3433,-1.0332,0.2124,-2.26,48.11,-37.80
557,213985442,0.3633,-1.0132,0.2100,-4.39,47.20,-40.18
558,213990442,0.3623,-0.9854,0.2192,-5.67,46.22,-42.20
559,213995442,0.3672,-0.9629,0.2183,-6.65,45.18,-44.02
560,214000442,0.3760,-0.9434,0.2065,-7.13,44.15,-45.73
561,214005442,0.3916,-0.9282,0.2168,-7.01,43.17,-47.07
562,214010442,0.4585,-0.8872,0.3296,-6.04,42.38,-48.11
563,214015442,0.4600,-0.8682,0.2705,-3.84,41.52,-49.09
564,214020442,0.4390,-0.8906,0.2002,-1.83,40.30,-49.82
565,214025442,0.4077,-0.8711,0.2334,-0.61,38.78,-50.30
566,214030442,0.3843,-0.8501,0.1963,0.49,37.56,-50.73
567,214035442,0.3774,-0.8198,0.1890,2.01,36.46,-50.91
568,214040442,0.3735,-0.7778,0.2202,3.96,35.67,-51.16
569,214045443,0.4385,-0.6758,0.2754,6.89,34.94,-51.59
570,214050442,0.4971,-0.7329,0.2344,12.07,34.51,-52.01
571,214055442,0.4888,-0.7051,0.2529,17.07,33.66,-51.77
572,214060441,0.5020,-0.7012,0.2188,20.12,32.62,-51.52
573,214065442,0.5352,-0.6812,0.1885,22.56,31.52,-51.22
574,214070441,0.4888,-0.6816,0.2168,25.30,30.49,-50.73
575,214075442,0.4507,-0.6880,0.2192,27.80,29.82,-50.00
576,214080441,0.4507,-0.6860,0.1987,29.57,29.39,-49.21
577,214085442,0.5781,-0.6592,0.1885,30.85,28.90,-48.60
578,214090441,0.5342,-0.6587,0.2236,31.83,28.29,-47.74
579,214095442,0.5068,-0.6597,0.2031,32.01,27.99,-47.01
580,214100441,0.4863,-0.6621,0.2007,31.22,27.68,-46.28
581,214105442,0.4883,-0.6685,0.2021,29.39,27.44,-45.43
582,214110441,0.4932,-0.6646,0.2012,26.59,27.20,-44.45
583,214115442,0.5327,-0.6152,0.1313,23.23,27.07,-43.72
584,214120442,0.5420,-0.6460,0.1694,18.48,26.59,-43.23
585,214125444,0.5571,-0.6362,0.1611,13.66,26.59,-42.38
586,214130441,0.5669,-0.6353,0.1479,9.21,26.40,-41.71
587,214135440,0.5864,-0.6318,0.1704,4.70,26.34,-41.04
588,214140442,0.6016,-0.6294,0.1689,0.61,26.40,-40.30
589,214145442,0.6157,-0.6240,0.1504,-3.72,26.40,-39.70
590,214150442,0.6270,-0.6201,0.1592,-7.74,26.28,-38.96
591,214155442,0.6401,-0.6196,0.1587,-11.65,26.04,-38.35
592,214160442,0.6479,-0.6147,0.1455,-15.06,25.79,-37.68
593,214165440,0.6582,-0.6108,0.1553,-17.93,25.55,-37.13
594,214170444,0.6665,-0.6104,0.1553,-20.12,25.18,-36.34
595,214175442,0.6626,-0.6079,0.1455,-21.59,24.57,-35.61
596,214180441,0.6680,-0.6030,0.1509,-22.20,24.39,-34.82
597,214185442,0.6680,-0.6094,0.1489,-22.07,23.96,-33.90
598,214190440,0.6675,-0.6118,0.1465,-21.28,23.41,-32.93
599,214195444,0.6641,-0.6191,0.1484,-20.06,22.99,-31.89
600,214200442,0.6660,-0.6182,0.1421,-18.54,22.50,-30.85
601,214205444,0.6680,-0.6196,0.1426,-16.77,21.77,-29.76
602,214210444,0.6694,-0.6211,0.1401,-15.24,21.16,-28.41
603,214215442,0.6709,-0.6260,0.1401,-13.96,20.61,-27.44
604,214220441,0.6689,-0.6289,0.1392,-12.80,20.06,-26.22
605,214225442,0.6714,-0.6323,0.1421,-12.13,19.21,-25.00
606,214230441,0.6724,-0.6294,0.1377,-11.46,18.54,-23.90
607,214235442,0.6758,-0.6260,0.1318,-11.16,17.87,-22.74
608,214240441,0.6846,-0.6348,0.1279,-11.04,17.01,-21.65
609,214245442,0.6890,-0.6401,0.1226,-10.79,16.04,-20.55
610,214250441,0.6914,-0.6406,0.1260,-10.37,15.43,-19.27
611,214255442,0.6943,-0.6411,0.1343,-9.63,14.57,-18.11
612,214260441,0.6895,-0.6499,0.1235,-8.78,13.90,-16.89
613,214265440,0.6860,-0.6528,0.1235,-7.62,13.29,-15.67
614,214270442,0.6851,-0.6592,0.1201,-6.59,12.62,-14.39
615,214275442,0.6787,-0.6631,0.1221,-5.43,11.77,-13.05
616,214280442,0.6787,-0.6694,0.1157,-4.45,11.22,-12.20
617,214285441,0.6729,-0.6768,0.1201,-3.41,10.79,-10.85
618,214290442,0.6709,-0.6836,0.1147,-2.44,10.18,-9.39
619,214295442,0.6689,-0.6929,0.1133,-1.46,9.57,-7.99
620,214300442,0.6758,-0.6978,0.1206,-0.61,9.02,-6.59
621,214305441,0.6812,-0.6997,0.1162,0.24,8.41,-5.37
622,214310442,0.6875,-0.7041,0.1216,0.79,7.93,-3.96
623,214315442,0.6909,-0.7070,0.1187,1.16,7.50,-2.68
624,214320443,0.6914,-0.7114,0.1157,1.52,7.13,-1.52
625,214325441,0.6982,-0.7124,0.1187,1.65,6.65,-0.30
626,214330442,0.6987,-0.7134,0.1216,1.71,6.34,0.79
627,214335442,0.6992,-0.7197,0.1235,1.71,5.91,1.83
628,214340443,0.7061,-0.7231,0.1226,1.40,5.55,2.74
629,214345441,0.7021,-0.7266,0.1289,1.16,5.24,3.60
630,214350440,0.7036,-0.7324,0.1289,0.91,5.06,4.51
631,214355444,0.6973,-0.7339,0.1270,0.37,4.94,5.43
632,214360441,0.6953,-0.7358,0.1318,-0.06,4.70,6.10
633,214365440,0.6909,-0.7432,0.1250,-0.73,4.51,6.89
634,214370442,0.6831,-0.7471,0.1250,-1.40,4.27,7.56
635,214375442,0.6831,-0.7559,0.1318,-1.83,4.21,8.29
636,214380441,0.6758,-0.7588,0.1406,-1.89,4.02,8.96
637,214385442,0.6724,-0.7788,0.1538,-1.59,4.21,9.45
638,214390441,0.6787,-0.8027,0.1890,-1.40,3.96,10.00
639,214395442,0.6836,-0.8379,0.2510,-0.79,4.15,10.37
640,214400441,0.6973,-0.8848,0.3286,0.43,3.78,10.43
641,214405986,0.7026,-0.9395,0.4126,1.28,2.74,9.88
642,214410442,0.7061,-0.9604,0.4438,1.28,1.83,9.51
643,214415442,0.6885,-0.9702,0.4390,-0.06,0.24,8.48
644,214420441,0.6602,-0.9536,0.3926,-2.99,-1.22,7.44
645,214425442,0.6294,-0.9238,0.3428,-7.20,-2.62,6.46
646,214430441,0.5947,-0.8833,0.2998,-11.71,-3.66,5.85
647,214435442,0.5674,-0.8530,0.2612,-15.85,-4.09,5.24
648,214440441,0.5537,-0.8271,0.2349,-19.57,-3.96,4.76
649,214445444,0.5400,-0.8003,0.2100,-22.56,-3.66,4.57
650,214450441,0.5317,-0.7817,0.1865,-25.43,-2.93,4.45
651,214455442,0.5215,-0.7744,0.1685,-28.23,-2.32,4.33
652,214460440,0.5205,-0.7646,0.1494,-31.40,-1.77,4.27
653,214465441,0.5171,-0.7603,0.1343,-34.27,-1.04,4.33
654,214470441,0.5234,-0.7573,0.1304,-36.89,-0.37,4.39
655,214475742,0.5332,-0.7529,0.1260,-39.39,0.18,4.51
656,214480442,0.5352,-0.7510,0.1221,-40.55,0.73,4.39
657,214485442,0.5386,-0.7520,0.1191,-41.52,1.40,4.63
658,214490442,0.5508,-0.7490,0.1211,-41.65,1.89,4.76
659,214495441,0.5591,-0.7500,0.1143,-41.04,2.44,4.76
660,214500442,0.5601,-0.7529,0.1128,-39.57,2.87,5.00
661,214505442,0.5645,-0.7520,0.1123,-37.68,3.23,5.18
662,214510442,0.5688,-0.7573,0.1040,-35.30,3.78,5.30
663,214515441,0.5757,-0.7627,0.1030,-32.68,4.15,5.61
664,214520442,0.5757,-0.7612,0.0947,-29.88,4.70,5.85
665,214525442,0.5762,-0.7651,0.0928,-27.32,5.18,6.10
666,214530442,0.5781,-0.7676,0.0879,-24.82,5.73,6.46
667,214535443,0.5820,-0.7646,0.0908,-22.62,6.04,6.65
668,214540442,0.5864,-0.7656,0.0884,-20.98,6.46,6.77
669,214545442,0.5879,-0.7666,0.0835,-19.76,6.89,7.01
670,214550442,0.5874,-0.7642,0.0840,-18.84,7.50,7.07
671,214555441,0.5913,-0.7642,0.0781,-18.17,7.99,7.26
672,214560442,0.5923,-0.7656,0.0786,-18.29,8.66,7.32
673,214565441,0.5918,-0.7690,0.0747,-18.66,9.27,7.26
674,214570440,0.5869,-0.7734,0.0684,-19.45,9.94,7.32
675,214575443,0.5806,-0.7734,0.0757,-20.91,10.61,7.32
676,214580441,0.5776,-0.7778,0.0703,-22.68,11.28,7.44
677,214585442,0.5703,-0.7881,0.0679,-24.76,12.01,7.38
678,214590441,0.5640,-0.8008,0.0654,-27.07,12.62,7.56
679,214595444,0.5566,-0.8047,0.0635,-29.51,13.29,7.68
680,214600442,0.5581,-0.8169,0.0620,-32.01,14.09,7.99
681,214605442,0.5571,-0.8262,0.0586,-34.63,14.88,8.41
682,214610441,0.5762,-0.8345,0.0508,-37.20,15.61,8.72
683,214615442,0.5889,-0.8379,0.0552,-39.63,16.16,9.15
684,214620441,0.6030,-0.8384,0.0527,-41.65,16.77,9.45
685,214625440,0.6133,-0.8359,0.0552,-43.23,17.38,9.76
686,214630442,0.6294,-0.8364,0.0586,-44.45,18.29,10.06
687,214635442,0.6421,-0.8379,0.0527,-45.49,18.96,10.12
688,214640441,0.6470,-0.8394,0.0566,-46.34,19.76,10.24
689,214645442,0.6567,-0.8340,0.0488,-46.77,20.43,10.24
690,214650441,0.6597,-0.8335,0.0503,-47.13,21.16,10.12
691,214655442,0.6621,-0.8320,0.0498,-47.38,21.95,9.82
692,214660441,0.6616,-0.8374,0.0537,-47.38,22.44,9.57
693,214665442,0.6567,-0.8384,0.0576,-47.07,23.11,9.45
694,214670442,0.6509,-0.8403,0.0557,-46.89,23.78,9.09
695,214675440,0.6450,-0.8418,0.0547,-46.46,24.39,8.78
696,214680556,0.6377,-0.8394,0.0571,-45.91,25.24,8.54
697,214685444,0.6284,-0.8345,0.0596,-45.24,25.85,8.17
698,214690441,0.6182,-0.8315,0.0586,-44.39,26.65,7.93
699,214695442,0.6040,-0.8330,0.0713,-43.23,27.50,7.56
700,214700441,0.5879,-0.8286,0.0762,-41.89,28.23,7.26
701,214705442,0.5781,-0.8286,0.0781,-40.24,29.09,7.01
702,214710441,0.5601,-0.8223,0.0801,-38.17,30.06,6.89
703,214715442,0.5430,-0.8237,0.0825,-35.67,31.10,6.59
704,214720441,0.5273,-0.8213,0.0923,-32.68,32.26,6.40
705,214725442,0.5171,-0.8188,0.1001,-29.45,33.48,6.34
706,214730441,0.5117,-0.8174,0.1030,-25.73,34.88,6.34
707,214735442,0.4995,-0.8203,0.1074,-21.83,36.22,6.40
708,214740441,0.5000,-0.8198,0.1104,-17.80,37.93,6.52
709,214745442,0.4932,-0.8228,0.1196,-13.84,39.45,6.59
710,214750442,0.4878,-0.8242,0.1284,-10.00,41.22,6.83
711,214755442,0.4922,-0.8286,0.1328,-6.46,42.99,6.95
712,214760441,0.4971,-0.8354,0.1270,-3.35,44.76,7.20
713,214765442,0.5029,-0.8384,0.1328,-0.85,46.52,7.26
714,214770440,0.5146,-0.8438,0.1401,1.04,48.35,7.50
715,214775441,0.5234,-0.8521,0.1411,2.38,50.18,7.56
716,214780471,0.5469,-0.8633,0.1675,3.11,51.89,7.68
717,214785442,0.5688,-0.8745,0.1958,3.23,53.48,7.62
718,214790441,0.5981,-0.8877,0.2544,3.05,54.70,7.80
719,214795444,0.6289,-0.9004,0.3164,2.50,55.67,7.56
720,214800441,0.6641,-0.9165,0.4126,1.65,56.10,7.26
721,214805442,0.6953,-0.9287,0.5278,0.79,56.04,6.83
722,214810441,0.7236,-0.9355,0.6367,0.18,55.18,6.16
723,214815442,0.7432,-0.9624,0.6782,-0.73,53.72,5.30
724,214820441,0.7583,-0.9570,0.6201,-2.87,51.52,4.63
725,214825442,0.7612,-0.9531,0.5308,-6.95,49.02,3.96
726,214830441,0.7437,-0.9409,0.4443,-12.62,46.77,3.41
727,214835442,0.7446,-0.9141,0.3960,-18.90,44.51,2.80
728,214840441,0.7456,-0.8813,0.3672,-24.09,42.74,2.38
729,214845442,0.7388,-0.8579,0.3511,-27.93,41.59,1.95
730,214850441,0.7266,-0.8359,0.3213,-30.12,40.79,1.40
731,214855442,0.7100,-0.8164,0.2959,-31.46,40.24,0.79
732,214860441,0.6929,-0.7930,0.2563,-32.62,39.82,0.43
733,214865442,0.6685,-0.7827,0.2266,-34.02,39.27,0.12
734,214870441,0.6445,-0.7676,0.2075,-35.30,38.54,0.00
735,214875443,0.6235,-0.7573,0.1870,-36.52,37.74,-0.06
736,214880441,0.6045,-0.7490,0.1855,-37.38,36.95,0.00
737,214885644,0.5874,-0.7368,0.1748,-37.74,36.10,0.12
738,214890443,0.5850,-0.7280,0.1650,-37.74,35.43,0.30
739,214895442,0.5776,-0.7188,0.1558,-37.38,34.63,0.49
740,214900442,0.5762,-0.7080,0.1553,-36.40,33.78,0.55
741,214905441,0.5713,-0.7070,0.1577,-35.30,32.99,0.79
742,214910442,0.5664,-0.7017,0.1484,-33.72,32.13,0.91
743,214915442,0.5610,-0.6997,0.1538,-32.56,31.34,1.16
744,214920442,0.5591,-0.6914,0.1567,-30.91,30.12,1.40
745,214925441,0.5605,-0.6860,0.1548,-29.45,29.15,1.71
746,214930442,0.5630,-0.6855,0.1616,-27.50,27.80,1.89
747,214935442,0.5620,-0.6826,0.1650,-25.43,26.59,2.26
748,214940442,0.5615,-0.6816,0.1772,-22.99,25.24,2.56
749,214945441,0.5659,-0.6802,0.1875,-20.06,23.66,2.99
750,214950442,0.5674,-0.6841,0.2080,-16.95,22.13,3.35
751,214955446,0.5708,-0.6895,0.2212,-13.66,20.49,3.78
752,214960444,0.5776,-0.6973,0.2261,-10.30,18.84,4.21
753,214965445,0.5796,-0.7007,0.2383,-7.20,17.07,4.57
754,214970442,0.5820,-0.7090,0.2446,-4.51,15.12,5.12
755,214975785,0.5957,-0.7192,0.2515,-2.01,13.29,5.43
756,214980442,0.5942,-0.7246,0.2617,0.00,11.34,5.73
757,214985442,0.6045,-0.7354,0.2593,1.83,9.51,5.85
758,214990442,0.6094,-0.7515,0.2598,3.05,7.74,6.22
759,214995442,0.6128,-0.7573,0.2578,3.96,5.91,6.22
760,215000442,0.6128,-0.7666,0.2505,4.45,4.33,6.28
761,215005442,0.6138,-0.7725,0.2529,4.70,2.68,6.28
762,215010441,0.6108,-0.7773,0.2412,4.76,1.28,6.22
763,215015442,0.6060,-0.7778,0.2363,4.94,-0.30,6.04
764,215020441,0.6045,-0.7876,0.2368,4.88,-1.46,5.98
765,215025444,0.5986,-0.7891,0.2300,4.88,-2.80,5.98
766,215030442,0.5957,-0.7881,0.2324,4.94,-3.96,5.67
767,215035442,0.5947,-0.7949,0.2285,5.24,-5.06,5.61
768,215040442,0.5923,-0.7949,0.2319,5.43,-5.98,5.37
769,215045441,0.5908,-0.7983,0.2163,5.79,-6.95,5.18
770,215050442,0.5908,-0.8037,0.2173,6.16,-7.99,5.00
771,215055441,0.5825,-0.8032,0.2207,6.59,-8.60,4.94
772,215060441,0.5815,-0.8062,0.2173,7.07,-9.57,4.70
773,215065442,0.5811,-0.8042,0.2046,7.50,-10.18,4.63
774,215070441,0.5874,-0.8018,0.2075,7.93,-10.79,4.33
775,215075442,0.5781,-0.8042,0.2090,8.17,-11.34,4.15
776,215080441,0.5718,-0.8110,0.1987,8.29,-11.71,3.84
777,215085442,0.5684,-0.8125,0.1992,8.29,-12.07,3.66
778,215090441,0.5684,-0.8091,0.1958,7.99,-12.50,3.54
779,215095440,0.5688,-0.8110,0.1929,7.62,-12.68,3.29
780,215100442,0.5669,-0.8105,0.1895,7.01,-12.74,2.99
781,215105442,0.5649,-0.8125,0.1958,6.52,-12.87,2.87
782,215110441,0.5698,-0.8203,0.1807,6.04,-12.93,2.74
783,215115442,0.5679,-0.8184,0.1860,5.61,-12.80,2.62
784,215120442,0.5718,-0.8208,0.1792,5.37,-12.80,2.56
785,215125442,0.5688,-0.8237,0.1787,5.06,-12.56,2.26
786,215130441,0.5737,-0.8242,0.1699,5.00,-12.56,2.26
787,215135442,0.5791,-0.8237,0.1685,5.00,-12.26,2.20
788,215140441,0.5796,-0.8232,0.1665,5.06,-12.07,2.20
789,215145442,0.5884,-0.8262,0.1636,5.12,-11.83,2.26
790,215150441,0.5874,-0.8286,0.1528,5.24,-11.46,2.13
791,215155442,0.5908,-0.8296,0.1572,5.24,-11.10,2.32
792,215160441,0.5928,-0.8276,0.1450,5.61,-10.67,2.20
793,215165442,0.5903,-0.8335,0.1460,5.98,-10.18,2.32
794,215170441,0.5938,-0.8291,0.1475,6.65,-9.70,2.50
795,215175442,0.5991,-0.8350,0.1436,7.20,-9.45,2.56
796,215180441,0.6035,-0.8364,0.1387,8.11,-8.96,2.62
797,215185443,0.6074,-0.8379,0.1421,9.15,-8.41,2.68
798,215190440,0.6108,-0.8345,0.1377,10.06,-7.93,2.74
799,215195444,0.6133,-0.8379,0.1401,11.40,-7.26,2.87
800,215200442,0.6216,-0.8384,0.1299,12.62,-6.89,3.05
801,215205442,0.6191,-0.8374,0.1313,13.66,-6.22,3.05
802,215210441,0.6230,-0.8413,0.1372,14.45,-5.79,3.11
803,215215442,0.6226,-0.8374,0.1274,15.43,-4.94,3.23
804,215220441,0.6211,-0.8379,0.1289,15.73,-4.51,3.17
805,215225442,0.6270,-0.8477,0.1436,15.79,-3.60,3.35
806,215230441,0.6211,-0.8398,0.1069,15.61,-3.29,3.11
807,215235442,0.6084,-0.8213,0.1270,15.12,-2.68,3.17
808,215240441,0.6147,-0.8237,0.1353,14.76,-2.07,3.11
809,215245449,0.6133,-0.8276,0.1191,14.33,-1.46,2.93
810,215250442,0.6064,-0.8276,0.1279,13.84,-0.79,2.93
811,215255442,0.6055,-0.8208,0.1318,13.48,-0.30,2.74
812,215260441,0.6021,-0.8228,0.1211,12.80,0.18,2.62
813,215265442,0.6016,-0.8193,0.1201,12.50,0.61,2.56
814,215270441,0.6040,-0.8223,0.1299,12.32,0.98,2.38
815,215275442,0.6050,-0.8184,0.1294,12.32,1.52,2.32
816,215280441,0.5991,-0.8223,0.1289,12.80,1.89,2.20
817,215285443,0.5967,-0.8184,0.1357,13.60,2.20,2.07
818,215290440,0.5977,-0.8213,0.1348,14.21,2.68,2.01
819,215295442,0.5981,-0.8213,0.1387,15.06,2.80,1.83
820,215300441,0.5913,-0.8188,0.1436,15.79,3.11,1.77
821,215305761,0.5869,-0.8174,0.1440,16.40,3.35,1.52
822,215310442,0.5859,-0.8174,0.1416,16.95,3.54,1.52
823,215315442,0.5830,-0.8130,0.1533,16.83,3.72,1.34
824,215320443,0.5801,-0.8154,0.1543,17.01,3.90,1.16
825,215325441,0.5796,-0.8105,0.1558,16.95,3.96,0.98
826,215330442,0.5762,-0.8120,0.1616,16.59,4.02,0.67
827,215335442,0.5815,-0.8105,0.1685,16.04,4.27,0.55
828,215340442,0.5830,-0.8105,0.1680,15.30,4.33,0.37
829,215345441,0.5820,-0.8047,0.1709,14.33,4.39,0.18
830,215350442,0.5796,-0.8037,0.1768,13.29,4.39,-0.18
831,215355442,0.5791,-0.8013,0.1802,12.32,4.45,-0.43
832,215360443,0.5801,-0.7983,0.1743,11.22,4.39,-0.61
833,215365441,0.5830,-0.7959,0.1899,10.24,4.27,-0.98
834,215370442,0.5864,-0.8008,0.1914,9.39,4.45,-1.22
835,215375442,0.5918,-0.7993,0.1929,8.72,4.33,-1.40
836,215380442,0.5972,-0.8057,0.1914,8.05,4.27,-1.71
837,215385440,0.5981,-0.8081,0.2007,7.68,4.02,-2.01
838,215391168,0.6045,-0.8057,0.1987,7.20,3.84,-2.20
839,215395442,0.6064,-0.8057,0.1953,6.71,3.72,-2.50
840,215400442,0.6060,-0.8052,0.1992,6.40,3.48,-2.80
841,215405442,0.6035,-0.8047,0.1982,6.04,3.35,-3.05
842,215410442,0.6050,-0.8022,0.1938,5.79,3.17,-3.23
843,215415441,0.6006,-0.7988,0.1924,5.49,2.99,-3.54
844,215420442,0.6001,-0.7983,0.1924,5.18,2.74,-3.90
845,215425442,0.5991,-0.7964,0.1899,5.12,2.44,-4.15
846,215430442,0.5981,-0.7964,0.1904,5.24,2.13,-4.51
847,215435441,0.5972,-0.7988,0.1914,5.55,2.01,-4.63
848,215440442,0.5986,-0.8018,0.1860,5.79,1.65,-5.06
849,215445442,0.6001,-0.8037,0.1831,6.52,1.52,-5.30
850,215450442,0.5962,-0.8032,0.1851,7.38,1.04,-5.55
851,215455577,0.5996,-0.8062,0.1826,8.17,0.91,-5.79
852,215460442,0.5977,-0.8081,0.1777,9.15,0.55,-5.98
853,215465441,0.5977,-0.8120,0.1758,9.94,0.43,-6.46
854,215470442,0.5967,-0.8130,0.1763,10.61,0.24,-6.59
855,215475443,0.5933,-0.8169,0.1807,10.91,0.00,-7.07
856,215480442,0.5879,-0.8154,0.1763,11.16,-0.12,-7.32
857,215485440,0.5864,-0.8154,0.1743,11.16,-0.43,-7.68
858,215490440,0.5845,-0.8115,0.1733,11.04,-0.43,-8.17
859,215495440,0.5820,-0.8145,0.1748,10.73,-0.55,-8.35
860,215500442,0.5781,-0.8076,0.1646,10.49,-0.67,-8.78
861,215505442,0.5771,-0.8057,0.1665,10.24,-0.67,-9.15
862,215510441,0.5771,-0.8052,0.1660,9.88,-0.79,-9.39
863,215515442,0.5801,-0.8105,0.1655,9.76,-0.91,-9.82
864,215520441,0.5791,-0.8057,0.1704,9.88,-0.85,-10.06
865,215525442,0.5767,-0.8062,0.1655,10.30,-0.98,-10.37
866,215530441,0.5757,-0.8037,0.1636,10.85,-0.85,-10.67
867,215535442,0.5762,-0.8013,0.1724,11.34,-0.79,-10.91
868,215540441,0.5791,-0.8018,0.1626,12.07,-0.91,-11.22
869,215545442,0.5791,-0.8022,0.1636,12.68,-0.91,-11.46
870,215550441,0.5840,-0.8018,0.1636,13.35,-1.16,-11.65
871,215555442,0.5811,-0.8022,0.1689,14.21,-1.10,-11.83
872,215560441,0.5869,-0.8027,0.1743,15.00,-0.98,-12.01
873,215565442,0.5859,-0.7983,0.1729,15.67,-1.16,-12.38
874,215570441,0.5869,-0.7993,0.1743,16.34,-1.10,-12.44
875,215575442,0.5918,-0.7993,0.1792,16.89,-1.10,-12.68
876,215580441,0.5957,-0.7930,0.1743,17.38,-0.98,-12.87
877,215585442,0.5991,-0.7920,0.1758,17.93,-1.10,-13.11
878,215590440,0.6001,-0.7896,0.1768,18.29,-0.79,-13.41
879,215595440,0.6016,-0.7881,0.1792,18.66,-0.85,-13.41
880,215600442,0.6011,-0.7817,0.1836,18.96,-0.73,-13.78
881,215605441,0.6025,-0.7837,0.1831,18.96,-0.61,-14.02
882,215610447,0.6030,-0.7798,0.1836,18.96,-0.55,-14.09
883,215615442,0.6055,-0.7788,0.1831,19.09,-0.49,-14.33
884,215620442,0.6079,-0.7744,0.1899,19.09,-0.43,-14.45
885,215625442,0.6064,-0.7739,0.1938,19.02,-0.37,-14.51
886,215630443,0.6084,-0.7690,0.1938,19.09,-0.18,-14.63
887,215635442,0.6123,-0.7695,0.2031,18.96,-0.12,-14.82
888,215640442,0.6118,-0.7656,0.2031,18.66,0.06,-14.82
889,215645442,0.6128,-0.7627,0.2095,18.41,0.12,-14.82
890,215650442,0.6187,-0.7617,0.2139,17.99,0.24,-14.88
891,215655442,0.6304,-0.7539,0.2222,17.38,0.30,-15.00
892,215660443,0.6265,-0.7539,0.2251,16.83,0.18,-14.94
893,215665442,0.6313,-0.7480,0.2305,16.22,0.37,-15.00
894,215670442,0.6274,-0.7432,0.2358,15.37,0.30,-14.94
895,215675442,0.6406,-0.7397,0.2471,14.63,0.12,-14.94
896,215680442,0.6455,-0.7373,0.2480,13.78,0.12,-15.06
897,215685442,0.6426,-0.7388,0.2456,13.17,-0.06,-14.94
898,215690442,0.6479,-0.7393,0.2583,12.93,-0.18,-14.76
899,215695442,0.6489,-0.7393,0.2554,12.93,-0.18,-14.57
900,215700442,0.6509,-0.7373,0.2563,13.11,-0.49,-14.27
901,215705442,0.6543,-0.7373,0.2549,13.41,-0.73,-14.02
902,215710441,0.6538,-0.7378,0.2520,13.72,-1.04,-13.84
903,215715444,0.6572,-0.7280,0.2549,13.90,-1.16,-13.54
904,215720441,0.6582,-0.7266,0.2461,13.96,-1.40,-13.17
905,215725442,0.6582,-0.7241,0.2451,13.96,-1.52,-12.87
906,215730441,0.6616,-0.7212,0.2427,13.84,-1.77,-12.62
907,215735442,0.6602,-0.7158,0.2422,13.72,-1.77,-12.20
908,215740441,0.6606,-0.7119,0.2378,13.48,-2.01,-11.77
909,215745442,0.6587,-0.7100,0.2388,13.05,-2.01,-11.59
910,215750441,0.6567,-0.7085,0.2271,12.56,-2.20,-11.10
911,215755442,0.6602,-0.7061,0.2295,11.95,-2.26,-10.85
912,215760441,0.6602,-0.7021,0.2329,11.65,-2.20,-10.49
913,215765442,0.6592,-0.7036,0.2324,11.40,-2.26,-10.24
914,215770441,0.6597,-0.7041,0.2319,11.10,-2.26,-9.76
915,215775442,0.6592,-0.6968,0.2310,10.91,-2.20,-9.39
916,215780441,0.6597,-0.6963,0.2339,10.55,-2.32,-8.96
917,215785716,0.6606,-0.6953,0.2393,10.30,-2.44,-8.54
918,215790442,0.6636,-0.6934,0.2363,9.82,-2.38,-8.11
919,215795729,0.6606,-0.6914,0.2319,9.45,-2.56,-7.62
920,215800442,0.6650,-0.6890,0.2422,9.02,-2.44,-7.20
921,215805442,0.6670,-0.6880,0.2422,8.66,-2.68,-6.71
922,215810442,0.6719,-0.6851,0.2407,8.41,-2.68,-6.22
923,215815477,0.6660,-0.6870,0.2510,8.35,-2.80,-5.85
924,215820442,0.6650,-0.6821,0.2554,7.99,-2.99,-5.30
925,215825442,0.6685,-0.6836,0.2583,7.87,-3.17,-4.88
926,215830443,0.6665,-0.6841,0.2617,7.93,-3.23,-4.27
927,215835442,0.6665,-0.6875,0.2588,7.87,-3.48,-3.66
928,215840442,0.6650,-0.6851,0.2646,7.80,-3.96,-3.17
929,215845442,0.6621,-0.6860,0.2661,7.62,-3.96,-2.56
930,215850442,0.6646,-0.6836,0.2651,7.44,-4.27,-2.20
931,215855443,0.6680,-0.6802,0.2671,7.20,-4.63,-1.65
932,215860442,0.6694,-0.6895,0.2710,7.01,-4.94,-1.04
933,215865442,0.6680,-0.6948,0.2598,6.83,-4.88,-0.55
934,215870442,0.6675,-0.6997,0.2563,6.28,-5.12,-0.18
935,215875440,0.6655,-0.7036,0.2544,5.85,-5.37,0.18
936,215880440,0.6631,-0.6982,0.2568,5.37,-5.49,0.61
937,215885442,0.6602,-0.7046,0.2490,4.82,-5.61,0.91
938,215890441,0.6577,-0.7095,0.2495,4.09,-5.67,1.22
939,215895442,0.6567,-0.7119,0.2476,3.54,-5.67,1.59
940,215900441,0.6577,-0.7129,0.2432,2.93,-5.73,1.77
941,215905515,0.6533,-0.7139,0.2402,2.38,-5.79,2.13
942,215910442,0.6514,-0.7188,0.2402,2.13,-5.67,2.38
943,215915442,0.6494,-0.7158,0.2417,1.83,-5.73,2.50
944,215920441,0.6475,-0.7148,0.2378,1.59,-5.73,2.87
945,215925442,0.6445,-0.7207,0.2363,1.34,-5.67,2.87
946,215930441,0.6401,-0.7217,0.2363,1.28,-5.67,3.11
947,215935442,0.6396,-0.7231,0.2295,1.22,-5.55,3.29
948,215940441,0.6382,-0.7261,0.2300,1.22,-5.61,3.60
949,215945442,0.6401,-0.7314,0.2334,1.40,-5.73,3.72
950,215950441,0.6392,-0.7305,0.2310,1.52,-5.67,3.90
951,215955442,0.6406,-0.7324,0.2324,1.71,-5.67,4.15
952,215960441,0.6367,-0.7339,0.2329,1.83,-5.67,4.21
953,215965442,0.6348,-0.7417,0.2329,1.95,-5.67,4.33
954,215970441,0.6357,-0.7393,0.2329,1.95,-5.85,4.45
955,215975442,0.6279,-0.7417,0.2344,1.89,-5.73,4.57
956,215980441,0.6313,-0.7461,0.2373,1.65,-5.79,4.51
957,215985444,0.6274,-0.7471,0.2393,1.28,-5.85,4.57
958,215990441,0.6235,-0.7515,0.2368,1.04,-5.98,4.63
959,215995442,0.6265,-0.7520,0.2388,0.55,-5.98,4.63
960,216000441,0.6211,-0.7559,0.2397,0.18,-6.10,4.51
961,216005651,0.6211,-0.7568,0.2417,-0.30,-6.22,4.39
962,216010442,0.6226,-0.7559,0.2427,-0.73,-6.10,4.27
963,216015442,0.6230,-0.7559,0.2378,-1.34,-6.28,4.15
964,216020441,0.6172,-0.7588,0.2378,-1.95,-6.52,4.09
965,216025442,0.6147,-0.7622,0.2349,-2.56,-6.59,3.90
966,216030441,0.6123,-0.7637,0.2407,-3.11,-6.71,3.66
967,216035442,0.6089,-0.7622,0.2363,-3.60,-6.95,3.48
968,216040441,0.6133,-0.7666,0.2290,-4.02,-7.01,3.29
969,216045442,0.6133,-0.7646,0.2314,-4.33,-7.07,3.11
970,216050441,0.6157,-0.7661,0.2314,-4.63,-7.38,2.80
971,216055442,0.6201,-0.7661,0.2305,-4.82,-7.56,2.62
972,216060441,0.6157,-0.7715,0.2246,-4.88,-7.80,2.50
973,216065442,0.6133,-0.7715,0.2246,-5.00,-8.05,2.26
974,216070441,0.6118,-0.7710,0.2178,-5.06,-8.11,2.01
975,216075442,0.6104,-0.7729,0.2202,-5.12,-8.29,1.83
976,216080442,0.6113,-0.7788,0.2124,-5.37,-8.60,1.71
977,216085442,0.6069,-0.7749,0.2158,-5.55,-8.72,1.40
978,216090441,0.6118,-0.7793,0.2139,-5.79,-9.02,1.10
979,216095442,0.6108,-0.7812,0.2139,-5.98,-9.27,0.85
980,216100441,0.6152,-0.7812,0.2148,-6.16,-9.45,0.61
981,216105440,0.6147,-0.7847,0.2188,-6.40,-9.70,0.24
982,216110440,0.6133,-0.7881,0.2158,-6.59,-10.00,-0.12
983,216115442,0.6162,-0.7871,0.2129,-6.77,-10.18,-0.49
984,216120444,0.6182,-0.7852,0.2119,-7.01,-10.30,-0.85
985,216125440,0.6201,-0.7832,0.2144,-7.32,-10.61,-1.28
986,216130442,0.6211,-0.7852,0.2144,-7.80,-10.73,-1.77
987,216135442,0.6177,-0.7847,0.2197,-8.60,-10.79,-2.44
988,216140442,0.6211,-0.7852,0.2109,-9.39,-11.04,-2.93
989,216145442,0.6211,-0.7822,0.2153,-10.30,-11.22,-3.41
990,216150443,0.6182,-0.7798,0.2134,-11.40,-11.34,-3.96
991,216155442,0.6206,-0.7798,0.2134,-12.56,-11.40,-4.63
992,216160442,0.6177,-0.7788,0.2124,-13.96,-11.40,-5.30
993,216165442,0.6206,-0.7764,0.2104,-15.24,-11.34,-6.04
994,216170442,0.6201,-0.7739,0.2085,-16.77,-11.34,-6.71
995,216175442,0.6250,-0.7725,0.2085,-18.23,-11.34,-7.32
996,216180442,0.6226,-0.7749,0.2017,-19.57,-11.40,-7.87
997,216185442,0.6235,-0.7671,0.2041,-21.65,-11.34,-8.72
998,216190441,0.6221,-0.7710,0.1982,-22.87,-11.16,-9.27
999,216195443,0.6250,-0.7656,0.1943,-24.88,-11.10,-10.12
1000,216200443,0.6250,-0.7681,0.1934,-26.16,-11.10,-10.55
1001,216205444,0.6221,-0.7651,0.1885,-28.29,-10.91,-11.46
1002,216210442,0.6235,-0.7617,0.1865,-29.39,-10.79,-11.89
1003,216215442,0.6274,-0.7607,0.1826,-30.85,-10.73,-12.44
1004,216220442,0.6255,-0.7573,0.1812,-32.01,-10.61,-12.93
1005,216225443,0.6265,-0.7573,0.1797,-33.29,-10.37,-13.54
1006,216230444,0.6313,-0.7515,0.1758,-34.27,-10.12,-13.96
1007,216235442,0.6367,-0.7471,0.1724,-35.30,-9.94,-14.33
1008,216240441,0.6353,-0.7480,0.1675,-36.34,-9.76,-14.76
1009,216245442,0.6367,-0.7461,0.1616,-37.56,-9.45,-15.18
1010,216250441,0.6401,-0.7393,0.1553,-38.41,-9.33,-15.43
1011,216255442,0.6455,-0.7358,0.1514,-39.33,-8.96,-15.85
1012,216260442,0.6494,-0.7397,0.1440,-40.18,-8.66,-16.10
1013,216265442,0.6504,-0.7329,0.1387,-40.79,-8.35,-16.34
1014,216270441,0.6577,-0.7324,0.1392,-41.16,-8.17,-16.52
1015,216275442,0.6582,-0.7339,0.1348,-41.22,-7.74,-16.59
1016,216280441,0.6606,-0.7275,0.1265,-41.22,-7.44,-16.65
1017,216285442,0.6641,-0.7241,0.1206,-41.16,-7.26,-16.59
1018,216290443,0.6670,-0.7217,0.1162,-41.04,-6.95,-16.77
1019,216295442,0.6689,-0.7236,0.1123,-40.98,-6.52,-16.77
1020,216300467,0.6660,-0.7222,0.1089,-40.85,-6.10,-16.77
1021,216305443,0.6660,-0.7192,0.1050,-40.85,-5.79,-16.77
1022,216310443,0.6631,-0.7168,0.1016,-40.85,-5.43,-16.71
1023,216315912,0.6611,-0.7168,0.1006,-40.91,-4.94,-16.71
1024,216320442,0.6616,-0.7178,0.0977,-40.91,-4.57,-16.65
1025,216325442,0.6602,-0.7148,0.0986,-40.91,-4.27,-16.46
1026,216330442,0.6567,-0.7163,0.0894,-40.79,-3.66,-16.34
1027,216335442,0.6602,-0.7197,0.0830,-40.55,-3.23,-16.22
1028,216340442,0.6592,-0.7173,0.0791,-40.43,-2.93,-16.10
1029,216345442,0.6582,-0.7266,0.0762,-39.88,-2.38,-16.04
1030,216350440,0.6606,-0.7275,0.0732,-39.57,-1.83,-15.85
1031,216355442,0.6631,-0.7227,0.0640,-39.15,-1.52,-15.79
1032,216360443,0.6660,-0.7266,0.0654,-39.02,-0.85,-15.85
1033,216365442,0.6694,-0.7266,0.0610,-38.78,-0.24,-15.91
1034,216370442,0.6660,-0.7314,0.0620,-38.66,0.00,-15.85
1035,216375442,0.6631,-0.7275,0.0542,-38.60,0.73,-15.98
1036,216380442,0.6641,-0.7319,0.0586,-38.60,1.40,-16.04
1037,216385442,0.6606,-0.7344,0.0547,-38.72,1.83,-16.10
1038,216390442,0.6509,-0.7319,0.0576,-39.02,2.56,-16.22
1039,216395442,0.6641,-0.7314,0.0391,-39.39,3.23,-16.22
1040,216400442,0.6675,-0.7412,0.0449,-40.00,3.72,-16.28
1041,216405442,0.6699,-0.7407,0.0386,-40.55,4.27,-16.52
1042,216410442,0.6719,-0.7373,0.0352,-40.91,4.94,-16.95
1043,216415442,0.6724,-0.7402,0.0342,-40.98,5.79,-17.13
1044,216420442,0.6709,-0.7446,0.0244,-40.79,6.34,-17.32
1045,216425442,0.6729,-0.7520,0.0220,-40.43,7.13,-17.56
1046,216430442,0.6733,-0.7544,0.0166,-40.06,7.80,-17.93
1047,216435442,0.6665,-0.7627,0.0137,-39.70,8.66,-18.23
1048,216440443,0.6685,-0.7661,0.0132,-39.51,9.51,-18.48
1049,216445442,0.6719,-0.7783,0.0049,-39.63,10.12,-18.72
1050,216450442,0.6729,-0.7793,0.0000,-39.88,10.98,-19.09
1051,216455442,0.6802,-0.7866,0.0024,-40.49,11.83,-19.33
1052,216460442,0.6934,-0.7876,-0.0024,-41.16,12.68,-19.51
1053,216465442,0.7070,-0.7881,0.0063,-41.95,13.41,-19.76
1054,216470442,0.7261,-0.7856,-0.0010,-42.38,14.45,-20.00
1055,216475442,0.7432,-0.7808,0.0005,-42.99,15.43,-20.37
1056,216480443,0.7563,-0.7686,0.0000,-43.66,16.46,-20.79
1057,216485442,0.7793,-0.7729,-0.0015,-44.39,17.32,-21.34
1058,216490440,0.7959,-0.7627,-0.0044,-45.12,18.29,-21.83
1059,216495442,0.8057,-0.7520,0.0054,-45.73,19.39,-22.44
1060,216500442,0.8271,-0.7437,0.0151,-45.85,20.49,-23.17
1061,216505442,0.8394,-0.7246,0.0146,-45.85,21.83,-24.02
1062,216510442,0.8540,-0.7197,0.0161,-45.73,23.23,-24.94
1063,216515442,0.8545,-0.7148,0.0107,-45.73,24.57,-26.04
1064,216520902,0.8535,-0.6997,0.0083,-46.22,26.10,-27.13
1065,216525442,0.8486,-0.6953,0.0103,-46.77,27.26,-27.93
1066,216530442,0.8384,-0.6870,-0.0024,-47.99,28.54,-29.02
1067,216535441,0.8311,-0.6772,-0.0015,-49.70,29.63,-29.88
1068,216540442,0.8218,-0.6689,-0.0059,-51.95,30.98,-30.85
1069,216545441,0.8101,-0.6616,-0.0142,-54.39,31.83,-31.95
1070,216550442,0.8066,-0.6528,-0.0132,-56.95,32.93,-32.93
1071,216555441,0.8008,-0.6416,-0.0205,-59.70,34.21,-33.78
1072,216560442,0.7954,-0.6338,-0.0205,-62.62,35.12,-34.63
1073,216565441,0.7905,-0.6289,-0.0234,-65.18,36.28,-35.49
1074,216570442,0.7876,-0.6157,-0.0259,-67.87,37.20,-36.28
1075,216575441,0.7812,-0.6079,-0.0259,-70.24,38.23,-36.95
1076,216580442,0.7847,-0.5991,-0.0269,-72.50,39.27,-37.62
1077,216585441,0.7881,-0.5947,-0.0396,-74.63,40.18,-38.29
1078,216590444,0.7847,-0.5869,-0.0400,-76.40,41.22,-38.78
1079,216595442,0.7896,-0.5786,-0.0479,-77.80,42.01,-39.33
1080,216600442,0.7847,-0.5742,-0.0532,-78.84,42.56,-39.76
1081,216605441,0.7876,-0.5708,-0.0518,-79.63,43.29,-40.12
1082,216610443,0.7920,-0.5654,-0.0562,-80.06,43.96,-40.43
1083,216615441,0.7891,-0.5645,-0.0581,-80.24,44.39,-40.73
1084,216620442,0.7866,-0.5625,-0.0581,-80.06,44.94,-40.79
1085,216625441,0.7871,-0.5630,-0.0693,-79.76,45.43,-40.98
1086,216630442,0.7905,-0.5620,-0.0732,-79.27,45.73,-40.79
1087,216635441,0.7920,-0.5620,-0.0723,-78.54,46.04,-40.73
1088,216640442,0.7988,-0.5591,-0.0771,-77.50,46.16,-40.43
1089,216645441,0.7998,-0.5630,-0.0850,-76.22,46.28,-40.06
1090,216650442,0.8027,-0.5610,-0.0820,-74.63,46.46,-39.82
1091,216655442,0.7979,-0.5615,-0.0850,-72.93,46.40,-39.33
1092,216660442,0.7998,-0.5635,-0.0879,-70.73,46.65,-38.66
1093,216665441,0.8027,-0.5576,-0.0845,-68.17,46.52,-37.93
1094,216670442,0.8076,-0.5566,-0.0811,-65.61,46.46,-37.38
1095,216675441,0.8105,-0.5547,-0.0874,-62.74,46.34,-36.65
1096,216680442,0.8174,-0.5493,-0.0869,-59.76,46.28,-35.91
1097,216685441,0.8267,-0.5503,-0.0913,-56.52,46.10,-35.18
1098,216690442,0.8325,-0.5483,-0.0889,-53.35,45.91,-34.21
1099,216695442,0.8413,-0.5474,-0.0957,-50.12,45.49,-33.41
1100,216700442,0.8496,-0.5483,-0.0947,-46.83,45.12,-32.62
1101,216705441,0.8613,-0.5425,-0.1006,-43.41,44.70,-31.65
1102,216710442,0.8638,-0.5386,-0.1016,-40.00,44.15,-30.73
1103,216715441,0.8589,-0.5327,-0.0947,-36.52,43.54,-29.70
1104,216720441,0.8511,-0.5122,-0.1079,-32.74,43.05,-28.78
1105,216725442,0.8818,-0.5361,-0.0820,-28.66,42.56,-27.62
1106,216730442,0.8672,-0.5293,-0.0791,-24.45,42.07,-26.46
1107,216735442,0.8535,-0.5132,-0.0928,-20.30,41.59,-25.43
1108,216740441,0.8555,-0.5020,-0.0747,-16.22,40.91,-24.27
1109,216745442,0.8589,-0.4990,-0.0649,-12.13,40.73,-23.23
1110,216750442,0.8599,-0.4902,-0.0635,-8.29,40.43,-22.07
1111,216755442,0.8550,-0.4893,-0.0586,-4.33,40.18,-20.98
1112,216760441,0.8657,-0.4819,-0.0469,-0.73,39.94,-19.76
1113,216765442,0.8618,-0.4751,-0.0415,2.87,39.82,-18.72
1114,216770442,0.8608,-0.4712,-0.0430,5.85,39.70,-17.44
1115,216775442,0.8613,-0.4702,-0.0303,8.72,39.51,-16.22
1116,216780441,0.8618,-0.4595,-0.0264,11.22,39.39,-15.18
1117,216785442,0.8647,-0.4609,-0.0273,13.72,39.27,-13.90
1118,216790444,0.8369,-0.4111,0.0054,15.79,39.45,-12.80
1119,216795442,0.8784,-0.4541,-0.0205,18.41,39.39,-11.71
1120,216800441,0.8750,-0.4487,0.0210,20.61,39.45,-10.24
1121,216805442,0.8755,-0.4268,0.0073,22.50,39.88,-8.96
1122,216810442,0.8862,-0.4141,0.0156,24.15,39.76,-7.80
1123,216815442,0.9004,-0.4004,0.0420,25.49,39.82,-6.77
1124,216820441,0.8989,-0.3813,0.0337,26.65,40.12,-5.67
1125,216825442,0.9028,-0.3945,0.0332,27.74,40.12,-4.27
1126,216830442,0.8877,-0.3843,0.0684,28.54,40.30,-3.11
1127,216835443,0.8892,-0.3823,0.0547,29.21,40.49,-1.83
1128,216840441,0.8862,-0.3779,0.0742,29.82,40.79,-0.55
1129,216845442,0.8760,-0.3735,0.0938,30.67,40.98,0.61
1130,216850442,0.8760,-0.3608,0.0957,31.16,41.34,2.13
1131,216855442,0.8721,-0.3550,0.1104,31.71,41.65,3.29
1132,216860441,0.8784,-0.3638,0.1187,32.50,42.13,4.63
1133,216865442,0.8774,-0.3481,0.1230,33.23,42.62,5.98
1134,216870442,0.8755,-0.3389,0.1284,33.90,42.87,7.20
1135,216875442,0.8667,-0.3379,0.1431,34.39,43.54,8.41
1136,216880443,0.8608,-0.3403,0.1538,35.06,43.78,9.70
1137,216885442,0.8589,-0.3394,0.1621,35.61,44.27,10.98
1138,216890442,0.8594,-0.3394,0.1792,36.16,44.76,12.20
1139,216895442,0.8506,-0.3296,0.2417,37.13,45.37,13.35
1140,216900782,0.8740,-0.3672,0.3335,38.54,45.98,14.33
1141,216905442,0.8691,-0.3574,0.4810,40.37,46.52,15.61
1142,216910442,0.8672,-0.3540,0.6182,42.68,46.71,16.52
1143,216915442,0.8755,-0.3740,0.7905,44.82,46.40,17.26
1144,216920441,0.8789,-0.4072,0.9077,46.34,45.79,17.68
1145,216925442,0.8750,-0.4258,0.9785,46.65,44.02,17.99
1146,216930504,0.8672,-0.4414,0.9775,44.82,41.59,18.23
1147,216935442,0.8633,-0.4399,0.9009,40.30,38.60,18.35
