# skilleye imu stream v1
# device=xiao_esp32c6 imu=mpu6050 addr=0x68
# rate_hz=200 accel_range_g=16 gyro_range_dps=2000 dlpf_hz=94
# units: accel in g, gyro in deg/s, t_us in microseconds since boot (monotonic)
# no shared clock with the camera -- tap the racket once before each take
# so both recordings share a spike to align on
seq,t_us,ax,ay,az,gx,gy,gz
0,189899515,0.5547,0.6479,0.6826,7.38,15.55,9.09
1,189904517,0.5601,0.6523,0.6851,7.80,15.37,8.96
2,189909515,0.5635,0.6606,0.6973,8.35,15.43,8.90
3,189914515,0.5605,0.6641,0.6992,9.09,15.55,8.60
4,189919515,0.5620,0.6724,0.7026,9.82,15.55,8.41
5,189924516,0.5591,0.6758,0.7070,10.73,15.37,8.17
6,189929515,0.5566,0.6758,0.7119,11.52,15.49,7.80
7,189934515,0.5601,0.6782,0.7100,12.44,15.18,7.44
8,189939516,0.5596,0.6802,0.7075,12.87,15.00,7.07
9,189944514,0.5630,0.6797,0.7046,13.35,14.82,6.65
10,189949514,0.5601,0.6782,0.7036,13.72,14.70,6.34
11,189954516,0.5576,0.6768,0.6968,13.90,14.39,5.91
12,189959515,0.5518,0.6748,0.6978,13.90,13.78,5.61
13,189964516,0.5483,0.6675,0.6948,13.78,13.60,5.30
14,189969514,0.5464,0.6616,0.6924,13.48,12.99,4.88
15,189974516,0.5449,0.6553,0.6909,13.05,12.44,4.94
16,189979515,0.5415,0.6514,0.6973,12.50,11.95,4.70
17,189984516,0.5371,0.6509,0.6851,11.89,11.40,4.39
18,189989516,0.5386,0.6436,0.6812,10.98,10.67,4.45
19,189994516,0.5352,0.6411,0.6777,10.18,9.94,4.27
20,189999515,0.5327,0.6372,0.6685,9.39,9.27,4.21
21,190004516,0.5347,0.6304,0.6646,8.66,8.41,4.33
22,190009514,0.5312,0.6235,0.6509,7.62,7.56,4.45
23,190014515,0.5347,0.6162,0.6558,6.65,6.77,4.63
24,190019516,0.5298,0.6094,0.6450,5.91,5.79,4.94
25,190024517,0.5273,0.6050,0.6426,5.06,4.76,5.24
26,190029516,0.5239,0.5928,0.6353,4.45,3.78,5.73
27,190034514,0.5244,0.5898,0.6367,3.84,2.74,6.28
28,190040297,0.5215,0.5864,0.6338,3.72,1.59,7.07
29,190044519,0.5151,0.5791,0.6362,3.66,0.98,7.74
30,190049514,0.5190,0.5811,0.6377,4.02,-0.06,8.41
31,190054516,0.5146,0.5854,0.6372,4.63,-0.91,9.27
32,190059514,0.5151,0.5796,0.6494,5.73,-1.59,10.18
33,190064517,0.5186,0.5835,0.6479,7.20,-2.32,11.22
34,190069516,0.5181,0.5830,0.6548,8.84,-2.80,12.26
35,190074516,0.5112,0.5815,0.6558,11.22,-3.54,13.29
36,190079516,0.5098,0.5811,0.6650,13.72,-3.84,14.45
37,190084515,0.5122,0.5825,0.6748,16.40,-4.02,15.55
38,190089516,0.5098,0.5820,0.6768,19.45,-4.33,16.65
39,190094515,0.5098,0.5835,0.6807,22.68,-4.33,17.74
40,190099516,0.5156,0.5869,0.6890,26.04,-4.33,18.96
41,190104515,0.5137,0.5903,0.7046,29.51,-4.33,20.00
42,190109514,0.5127,0.5962,0.7061,33.05,-4.09,21.10
43,190114516,0.5171,0.6050,0.7144,36.52,-3.78,22.01
44,190119516,0.5249,0.6089,0.7261,39.82,-3.35,22.87
45,190124517,0.5332,0.6113,0.7280,42.99,-2.99,23.72
46,190129514,0.5327,0.6138,0.7373,45.79,-2.56,24.51
47,190134516,0.5396,0.6162,0.7417,48.48,-1.89,25.18
48,190139515,0.5435,0.6177,0.7466,50.61,-1.28,25.73
49,190144516,0.5493,0.6191,0.7500,52.32,-0.43,26.22
50,190149516,0.5615,0.6230,0.7544,53.72,0.12,26.52
51,190154518,0.5649,0.6274,0.7485,54.45,0.79,26.83
52,190159515,0.5737,0.6313,0.7539,55.00,1.59,26.89
53,190164516,0.5771,0.6377,0.7598,54.88,2.26,26.77
54,190169516,0.5859,0.6460,0.7603,54.45,2.80,26.65
55,190174516,0.5952,0.6440,0.7603,53.66,3.41,26.28
56,190179515,0.6025,0.6499,0.7646,52.26,3.78,26.04
57,190184516,0.6074,0.6562,0.7646,50.73,4.45,25.37
58,190189514,0.6162,0.6577,0.7661,48.60,4.94,24.70
59,190194521,0.6235,0.6533,0.7666,46.16,5.18,23.96
60,190199515,0.6279,0.6504,0.7710,43.60,5.85,23.17
61,190204516,0.6309,0.6528,0.7720,40.61,6.16,22.13
62,190209514,0.6357,0.6455,0.7681,37.38,6.46,21.16
63,190214516,0.6396,0.6450,0.7734,34.02,6.71,20.12
64,190219515,0.6426,0.6426,0.7646,30.37,6.95,19.15
65,190224517,0.6436,0.6387,0.7720,26.71,7.01,17.99
66,190229514,0.6455,0.6333,0.7744,23.11,7.26,17.01
67,190234516,0.6475,0.6289,0.7695,19.39,7.26,15.98
68,190239515,0.6440,0.6250,0.7642,15.73,7.32,14.94
69,190244516,0.6465,0.6206,0.7671,12.26,7.26,13.84
70,190249578,0.6406,0.6104,0.7666,8.90,7.32,12.87
71,190254515,0.6372,0.6060,0.7666,5.61,7.26,11.95
72,190259516,0.6348,0.6001,0.7642,2.68,7.32,10.98
73,190265040,0.6284,0.5928,0.7656,0.00,7.26,10.18
74,190269516,0.6201,0.5864,0.7637,-2.38,7.32,9.45
75,190274800,0.6147,0.5796,0.7666,-4.45,7.07,8.72
76,190279516,0.6064,0.5791,0.7588,-6.28,7.07,8.11
77,190284514,0.6069,0.5688,0.7632,-7.80,6.95,7.56
78,190289516,0.5991,0.5654,0.7642,-9.02,6.83,7.01
79,190294516,0.5942,0.5620,0.7598,-9.88,6.59,6.52
80,190299515,0.5835,0.5562,0.7622,-10.61,6.52,6.10
81,190304514,0.5791,0.5488,0.7583,-11.22,6.46,5.79
82,190309516,0.5737,0.5444,0.7510,-11.52,6.28,5.37
83,190314516,0.5688,0.5366,0.7500,-11.59,6.28,4.94
84,190319515,0.5620,0.5327,0.7476,-11.52,5.85,4.63
85,190324696,0.5493,0.5273,0.7451,-11.52,5.55,4.39
86,190329620,0.5454,0.5210,0.7476,-11.28,5.37,4.15
87,190334515,0.5356,0.5181,0.7412,-11.04,5.06,3.84
88,190339517,0.5312,0.5132,0.7437,-10.61,4.94,3.60
89,190344515,0.5239,0.5039,0.7378,-10.18,4.51,3.35
90,190349517,0.5205,0.4971,0.7412,-9.82,4.21,3.17
91,190354516,0.5161,0.4922,0.7437,-9.15,4.09,2.99
92,190359515,0.5132,0.4800,0.7451,-8.60,3.84,2.68
93,190364518,0.5098,0.4766,0.7378,-7.80,3.60,2.38
94,190369515,0.5122,0.4731,0.7397,-6.71,3.17,2.26
95,190374514,0.5112,0.4756,0.7373,-5.67,2.99,2.01
96,190379516,0.5083,0.4790,0.7368,-4.45,2.62,1.65
97,190384517,0.5073,0.4893,0.7427,-2.93,2.50,1.34
98,190389977,0.5049,0.5039,0.7520,-1.34,2.20,0.79
99,190394516,0.5059,0.5137,0.7500,0.12,2.01,0.18
100,190399516,0.5049,0.5210,0.7563,1.59,1.77,-0.49
101,190404518,0.5005,0.5293,0.7549,2.50,1.52,-1.46
102,190409515,0.4976,0.5249,0.7485,3.11,1.28,-2.44
103,190414516,0.4961,0.5244,0.7451,3.29,0.98,-3.41
104,190419515,0.4976,0.5225,0.7451,2.80,0.43,-4.33
105,190424659,0.4976,0.5229,0.7417,2.07,-0.12,-5.61
106,190429516,0.4893,0.5244,0.7402,0.85,-0.61,-6.83
107,190434515,0.4951,0.5308,0.7437,-0.61,-1.22,-8.17
108,190439516,0.4932,0.5396,0.7407,-2.32,-1.95,-9.57
109,190444515,0.4995,0.5459,0.7368,-4.09,-2.74,-11.10
110,190449516,0.4912,0.5474,0.7441,-5.85,-3.48,-12.56
111,190454515,0.4912,0.5527,0.7393,-7.50,-4.27,-14.27
112,190459517,0.4810,0.5562,0.7417,-9.15,-5.06,-15.73
113,190464515,0.4814,0.5620,0.7441,-10.49,-5.79,-17.50
114,190469516,0.4756,0.5693,0.7417,-11.65,-6.71,-19.15
115,190474516,0.4712,0.5732,0.7476,-12.56,-7.80,-21.10
116,190479516,0.4775,0.5811,0.7515,-13.23,-8.72,-22.68
117,190484515,0.4746,0.5938,0.7495,-13.78,-9.82,-24.51
118,190489516,0.4727,0.5942,0.7490,-14.27,-10.73,-26.34
119,190494515,0.4629,0.6025,0.7476,-14.94,-11.89,-28.23
120,190499516,0.4604,0.6021,0.7368,-15.67,-12.99,-30.06
121,190504517,0.4468,0.5986,0.7437,-16.52,-14.27,-31.77
122,190509516,0.4390,0.6001,0.7373,-17.56,-15.49,-33.54
123,190514515,0.4375,0.5947,0.7334,-18.90,-16.77,-35.12
124,190519516,0.4209,0.5977,0.7383,-20.24,-18.23,-36.77
125,190524515,0.4146,0.6055,0.7368,-21.71,-19.39,-38.29
126,190529516,0.4062,0.6177,0.7402,-23.29,-20.73,-39.76
127,190534515,0.4019,0.6333,0.7339,-24.57,-22.32,-41.34
128,190539516,0.3931,0.6514,0.7354,-25.67,-23.72,-42.93
129,190544515,0.3901,0.6655,0.7256,-26.52,-25.30,-44.39
130,190549516,0.3862,0.6768,0.7148,-27.01,-26.95,-45.85
131,190554515,0.3784,0.6812,0.7119,-27.44,-28.54,-47.32
132,190559516,0.3711,0.6865,0.7095,-27.44,-30.00,-48.66
133,190564515,0.3672,0.6851,0.7080,-27.44,-31.89,-50.06
134,190569516,0.3594,0.6821,0.7036,-27.26,-33.54,-51.10
135,190574515,0.3506,0.6826,0.7017,-26.95,-35.06,-52.01
136,190579516,0.3398,0.6826,0.7017,-26.46,-36.65,-52.87
137,190584515,0.3286,0.6919,0.6987,-25.85,-38.29,-53.78
138,190589516,0.3188,0.7012,0.6973,-25.06,-39.94,-54.33
139,190594516,0.3096,0.7163,0.6997,-24.27,-41.34,-55.06
140,190599516,0.3003,0.7319,0.6899,-23.66,-42.74,-55.79
141,190604564,0.2935,0.7441,0.6909,-22.93,-44.15,-56.40
142,190609516,0.2847,0.7607,0.6904,-22.38,-45.43,-57.13
143,190614515,0.2847,0.7788,0.6831,-21.89,-46.77,-57.87
144,190619516,0.2764,0.7900,0.6797,-21.22,-48.23,-58.54
145,190624517,0.2720,0.8008,0.6719,-20.73,-49.51,-59.27
146,190629516,0.2612,0.8076,0.6538,-20.06,-51.04,-59.82
147,190634515,0.2520,0.8135,0.6514,-19.21,-52.38,-60.24
148,190639517,0.2412,0.8213,0.6392,-18.17,-53.78,-60.67
149,190644515,0.2349,0.8252,0.6313,-16.83,-55.37,-61.04
150,190649516,0.2231,0.8267,0.6284,-15.55,-56.83,-61.28
151,190654903,0.2148,0.8262,0.6245,-14.27,-58.41,-61.34
152,190659516,0.2144,0.8247,0.6289,-13.35,-59.88,-61.46
153,190664516,0.2109,0.8218,0.6211,-12.44,-61.34,-61.52
154,190669516,0.2100,0.8276,0.6196,-11.65,-62.87,-61.59
155,190674514,0.2090,0.8398,0.6143,-11.28,-64.45,-61.71
156,190679516,0.2100,0.8511,0.6045,-11.04,-66.22,-61.83
157,190684517,0.2148,0.8618,0.6001,-11.10,-67.62,-62.13
158,190689516,0.2168,0.8711,0.5942,-11.22,-69.39,-62.32
159,190694514,0.2153,0.8813,0.5938,-11.34,-70.85,-62.68
160,190699517,0.2178,0.8872,0.5869,-11.59,-72.56,-62.93
161,190704517,0.2139,0.8940,0.5835,-11.77,-74.09,-63.23
162,190709516,0.2100,0.8979,0.5884,-11.77,-75.37,-63.54
163,190714515,0.2046,0.9019,0.5859,-11.83,-76.83,-63.72
164,190719516,0.1958,0.9058,0.5854,-11.71,-77.87,-63.96
165,190724516,0.1865,0.8999,0.5791,-11.46,-78.72,-64.09
166,190729516,0.1846,0.9043,0.5859,-11.28,-79.82,-64.21
167,190734515,0.1890,0.8989,0.5820,-10.67,-80.73,-64.15
168,190739516,0.1929,0.8926,0.5781,-10.18,-81.65,-64.15
169,190744608,0.2002,0.8887,0.5698,-9.70,-82.38,-64.09
170,190749516,0.2031,0.8950,0.5732,-9.21,-83.29,-64.09
171,190754515,0.2153,0.8940,0.5640,-8.41,-84.09,-63.96
172,190759516,0.2212,0.8931,0.5654,-7.68,-84.63,-63.96
173,190764516,0.2271,0.8853,0.5679,-7.07,-85.43,-63.84
174,190769516,0.2397,0.8823,0.5708,-6.28,-85.79,-63.78
175,190774515,0.2480,0.8730,0.5688,-5.49,-86.34,-63.60
176,190779517,0.2622,0.8765,0.5645,-4.82,-86.89,-63.35
177,190784518,0.2734,0.8789,0.5591,-4.33,-87.32,-63.17
178,190789516,0.2832,0.8784,0.5483,-3.78,-87.87,-63.05
179,190794516,0.2910,0.8843,0.5356,-3.35,-88.23,-62.87
180,190799516,0.3008,0.8887,0.5151,-3.17,-88.72,-62.93
181,190804515,0.3105,0.8940,0.5166,-3.29,-89.33,-62.80
182,190809517,0.3184,0.8999,0.5059,-3.23,-89.82,-62.74
183,190814552,0.3218,0.9028,0.4932,-3.41,-90.30,-62.93
184,190819516,0.3306,0.9189,0.4629,-3.41,-90.79,-63.17
185,190824515,0.3745,0.9609,0.3906,-3.05,-92.93,-63.84
186,190829516,0.3369,0.9019,0.4375,-2.50,-94.82,-64.76
187,190834517,0.3877,0.9307,0.1836,-1.22,-98.48,-65.55
188,190839516,0.4663,0.8618,0.3628,2.01,-105.18,-66.83
189,190844515,0.4902,0.7998,0.4702,3.60,-110.37,-67.44
190,190849516,0.4497,0.8193,0.5781,4.94,-113.11,-67.38
191,190854516,0.3740,0.8535,0.6382,6.89,-114.88,-67.26
192,190859516,0.3286,0.8760,0.5117,9.21,-117.32,-67.32
193,190864515,0.3228,0.8828,0.5098,11.71,-119.45,-67.56
194,190869516,0.3232,0.8984,0.6284,14.21,-120.37,-68.23
195,190874516,0.3369,0.9160,0.6182,16.16,-120.73,-69.02
196,190879516,0.3389,0.9243,0.5044,18.05,-121.40,-70.12
197,190884515,0.3242,0.9438,0.4922,19.09,-122.13,-71.34
198,190889516,0.3237,0.9595,0.5283,20.06,-122.26,-72.56
199,190894517,0.3359,0.9468,0.4873,20.73,-122.13,-73.96
200,190899516,0.3350,0.8945,0.4146,20.73,-122.44,-75.06
201,190904515,0.3335,0.8643,0.4272,19.88,-122.32,-75.18
202,190909516,0.3237,0.9023,0.4370,19.09,-121.89,-75.30
203,190914516,0.3315,0.8823,0.4302,17.93,-121.22,-75.37
204,190919516,0.3550,0.8428,0.4243,16.46,-120.24,-74.82
205,190924515,0.3252,0.8086,0.4106,14.88,-119.21,-73.23
206,190929516,0.3179,0.8052,0.3965,14.02,-118.35,-70.91
207,190934516,0.2949,0.7871,0.3110,13.54,-118.54,-67.68
208,190939516,0.2837,0.7969,0.2334,13.60,-120.06,-63.96
209,190944515,0.2656,0.8359,0.2886,13.72,-122.44,-60.18
210,190949516,0.2998,0.8735,0.3604,13.48,-124.33,-56.40
211,190954516,0.3306,0.9189,0.3594,12.80,-125.49,-52.99
212,190959516,0.3350,0.9888,0.3301,11.40,-126.28,-50.18
213,190964515,0.3179,1.0444,0.3213,9.63,-126.59,-48.23
214,190969516,0.2925,1.0498,0.2983,7.87,-127.13,-46.89
215,190974518,0.3154,1.0298,0.2788,5.98,-128.35,-45.43
216,190979516,0.3594,1.0112,0.2754,4.33,-129.33,-43.66
217,190984514,0.3984,1.0107,0.2915,2.80,-130.43,-41.95
218,190989515,0.4292,1.0137,0.3032,1.59,-131.22,-40.00
219,190994518,0.4478,1.0298,0.2915,0.85,-131.71,-38.41
220,190999515,0.4556,1.0454,0.2969,0.55,-131.95,-37.07
221,191004515,0.4688,1.0605,0.2988,0.79,-131.83,-35.98
222,191009516,0.4697,1.0674,0.3037,1.40,-131.22,-35.00
223,191014516,0.5059,1.0889,0.3047,2.38,-130.43,-34.09
224,191019516,0.5381,1.1069,0.2915,3.84,-129.27,-33.35
225,191024515,0.5557,1.1250,0.2710,5.73,-128.11,-32.44
226,191029516,0.5762,1.1387,0.2739,7.68,-126.71,-31.59
227,191034517,0.5991,1.1445,0.2793,10.00,-125.12,-30.79
228,191039516,0.6172,1.1558,0.2476,12.44,-123.48,-29.94
229,191044516,0.6250,1.1709,0.2275,15.30,-122.13,-29.21
230,191049516,0.6289,1.1870,0.2280,18.17,-120.37,-28.48
231,191054515,0.6299,1.1973,0.2202,21.04,-118.60,-27.93
232,191059516,0.6387,1.1904,0.2036,23.96,-116.83,-27.62
233,191064515,0.6460,1.1836,0.1938,26.22,-115.24,-27.44
234,191069518,0.6519,1.1694,0.1743,29.51,-112.99,-27.01
235,191074516,0.6436,1.1523,0.1621,32.13,-110.85,-26.59
236,191079516,0.6377,1.1353,0.1592,33.72,-109.02,-26.10
237,191084515,0.6250,1.1172,0.1533,35.73,-107.07,-25.37
238,191089517,0.6089,1.0972,0.1406,37.44,-104.88,-24.51
239,191094516,0.5942,1.0762,0.1235,38.78,-103.11,-23.29
240,191099516,0.5806,1.0518,0.1289,39.94,-101.52,-21.95
241,191104515,0.5625,1.0259,0.1167,40.91,-100.12,-20.18
242,191109516,0.5439,1.0103,0.1143,41.59,-98.90,-18.17
243,191114517,0.5239,0.9863,0.1250,42.20,-97.74,-15.91
244,191119518,0.5073,0.9819,0.1709,42.99,-96.65,-13.29
245,191124515,0.4585,0.9565,0.1567,43.90,-95.49,-10.61
246,191129515,0.4253,0.9224,0.1646,44.39,-93.78,-7.44
247,191134516,0.4111,0.9126,0.1846,44.63,-92.20,-4.21
248,191139516,0.4033,0.9136,0.2080,44.45,-90.06,-1.10
249,191144515,0.4224,0.9072,0.1753,43.78,-88.23,1.77
250,191149516,0.4380,0.9092,0.1602,42.80,-86.77,4.45
251,191154515,0.4541,0.9067,0.1655,41.22,-85.43,7.01
252,191159516,0.4404,0.9028,0.1758,39.51,-83.84,9.51
253,191164515,0.4629,0.9004,0.1533,37.68,-82.44,11.89
254,191169516,0.5000,0.8804,0.1406,35.61,-81.22,14.21
255,191174514,0.5186,0.9102,0.1558,33.48,-80.06,16.59
256,191179516,0.5269,0.9365,0.1587,31.10,-78.90,18.60
257,191184516,0.5308,0.9331,0.1392,28.35,-78.05,20.43
258,191189515,0.5371,0.9419,0.1367,25.61,-77.56,22.07
259,191194518,0.5244,0.9673,0.1665,23.05,-77.07,23.54
260,191199516,0.5146,0.9800,0.1646,20.30,-76.22,24.70
261,191204516,0.5098,0.9824,0.1426,17.68,-75.61,25.85
262,191209516,0.5190,0.9897,0.1641,15.18,-75.12,26.95
263,191214516,0.5137,0.9951,0.1587,12.80,-74.63,27.93
264,191219516,0.5249,1.0166,0.1743,10.43,-74.39,29.02
265,191224516,0.5176,1.0269,0.1709,8.29,-73.84,29.88
266,191229516,0.5278,1.0386,0.1665,6.34,-73.84,30.55
267,191234516,0.5552,1.0479,0.1553,4.63,-73.84,31.34
268,191239516,0.5552,1.0571,0.1636,3.23,-74.02,32.32
269,191244516,0.5596,1.0723,0.1514,2.38,-74.33,33.35
270,191249516,0.5669,1.0762,0.1504,1.71,-74.82,34.57
271,191254517,0.5708,1.0845,0.1475,1.83,-75.12,36.04
272,191259516,0.5522,1.0977,0.1460,2.68,-75.55,37.62
273,191264516,0.5547,1.1011,0.1411,4.09,-75.98,39.09
274,191269516,0.5610,1.0967,0.1436,6.34,-76.28,40.67
275,191274514,0.5703,1.0923,0.1406,9.09,-76.16,42.26
276,191279514,0.5830,1.0762,0.1343,12.44,-75.98,43.90
277,191284517,0.5869,1.0674,0.1274,16.04,-75.49,45.73
278,191289516,0.5942,1.0591,0.1191,20.00,-75.12,47.62
279,191294516,0.6021,1.0483,0.1055,24.02,-74.57,49.51
280,191299516,0.6069,1.0366,0.0977,28.23,-73.96,51.52
281,191304516,0.6055,1.0308,0.0918,32.80,-73.48,53.35
282,191309516,0.5840,1.0142,0.0981,37.26,-72.62,55.30
283,191314516,0.5752,1.0146,0.0645,41.83,-72.01,57.32
284,191319516,0.5791,1.0176,0.0518,46.71,-71.28,59.51
285,191324516,0.5942,1.0088,0.0542,52.01,-70.37,61.71
286,191329516,0.6167,0.9956,0.0562,57.62,-69.27,64.09
287,191334516,0.6323,0.9937,0.0396,63.29,-68.05,66.46
288,191339516,0.6479,0.9878,0.0273,68.90,-66.77,68.84
289,191344516,0.6621,0.9824,0.0225,74.39,-65.49,71.04
290,191349516,0.6748,0.9668,-0.0039,79.94,-63.96,73.23
291,191354516,0.6807,0.9434,-0.0205,85.24,-62.38,75.37
292,191359516,0.6836,0.9521,-0.0308,90.73,-60.67,77.62
293,191364516,0.6562,0.9839,-0.0522,95.85,-58.90,79.39
294,191369516,0.6558,0.9604,-0.0815,100.67,-57.32,80.98
295,191374514,0.6768,0.9277,-0.0913,105.00,-55.55,83.17
296,191379517,0.6958,0.9141,-0.1006,108.96,-53.66,85.37
297,191385447,0.7144,0.9146,-0.1440,112.99,-51.40,86.40
298,191389514,0.7104,0.9106,-0.1558,115.18,-49.88,87.13
299,191394514,0.7051,0.9019,-0.1729,117.32,-47.74,87.44
300,191399516,0.7080,0.8916,-0.1699,118.72,-45.73,89.39
301,191404516,0.7168,0.8774,-0.1885,119.63,-43.60,89.88
302,191409516,0.7256,0.8745,-0.2363,120.18,-41.77,90.61
303,191414515,0.7383,0.8677,-0.2524,120.61,-39.88,90.85
304,191419518,0.7441,0.8462,-0.2588,120.49,-37.87,91.28
305,191424515,0.7471,0.8354,-0.2681,119.94,-35.85,91.46
306,191429516,0.7524,0.8252,-0.2910,118.84,-33.72,91.46
307,191434515,0.7544,0.8091,-0.3262,117.68,-31.83,91.46
308,191439516,0.7539,0.7930,-0.3306,116.40,-29.70,91.28
309,191444515,0.7544,0.7788,-0.3350,115.12,-27.56,91.10
310,191449516,0.7505,0.7671,-0.3472,113.54,-25.43,91.10
311,191454515,0.7461,0.7471,-0.3496,111.65,-23.17,90.67
312,191459518,0.7446,0.7305,-0.3574,109.82,-20.79,90.55
313,191464515,0.7446,0.7192,-0.3662,107.80,-18.60,90.12
314,191469518,0.7432,0.7095,-0.3784,105.79,-16.40,90.00
315,191474514,0.7437,0.6978,-0.3667,103.72,-14.15,89.63
316,191479515,0.7476,0.6743,-0.3809,101.28,-11.89,89.21
317,191484516,0.7412,0.6514,-0.3950,98.48,-9.76,87.62
318,191489516,0.7305,0.6455,-0.4102,95.06,-7.99,86.89
319,191494516,0.7192,0.6226,-0.4233,91.28,-6.04,86.40
320,191499517,0.7051,0.5972,-0.4321,86.71,-4.15,86.65
321,191504516,0.6968,0.5630,-0.4443,81.95,-2.32,86.22
322,191509516,0.6802,0.5508,-0.4448,77.01,-0.55,84.63
323,191514517,0.6660,0.5425,-0.4438,72.26,1.16,83.05
324,191519516,0.6680,0.5142,-0.4443,67.44,2.99,81.65
325,191524516,0.6543,0.4897,-0.4448,62.87,4.94,80.24
326,191529517,0.6484,0.4800,-0.4390,58.48,6.65,78.90
327,191534811,0.6499,0.4614,-0.4375,53.54,8.90,77.07
328,191539516,0.6450,0.4395,-0.4390,50.55,10.18,75.85
329,191544515,0.6372,0.4370,-0.4375,47.01,11.89,74.27
330,191549516,0.5776,0.4404,-0.4380,43.66,13.41,72.56
331,191554516,0.6323,0.4175,-0.4272,40.49,14.82,70.91
332,191559516,0.6807,0.3979,-0.4209,37.87,16.10,69.27
333,191564515,0.6924,0.3696,-0.4141,35.61,17.50,67.74
334,191569518,0.6606,0.3804,-0.4224,33.90,18.90,66.22
335,191574515,0.6284,0.3726,-0.4131,32.87,20.06,64.45
336,191579516,0.6133,0.3535,-0.4146,32.20,21.28,62.38
337,191584516,0.6123,0.3350,-0.4004,32.07,22.74,60.43
338,191589515,0.6113,0.3296,-0.3892,31.95,23.72,58.54
339,191594516,0.6191,0.3203,-0.3853,31.95,24.76,56.46
340,191599517,0.6294,0.3149,-0.3721,32.07,25.85,54.39
341,191604514,0.6284,0.2969,-0.3545,32.13,26.95,52.26
342,191609516,0.6353,0.2905,-0.3447,32.07,27.87,49.88
343,191614516,0.6387,0.2749,-0.3315,31.77,28.54,47.56
344,191619516,0.6357,0.2632,-0.3101,31.46,29.15,45.43
345,191624516,0.6333,0.2559,-0.2979,30.55,29.82,43.23
346,191629515,0.6230,0.2441,-0.2744,29.15,30.73,41.16
347,191634516,0.6230,0.2324,-0.2598,27.13,31.34,39.15
348,191639515,0.6216,0.2202,-0.2607,24.45,31.95,37.32
349,191644516,0.6025,0.2207,-0.2441,20.79,32.50,35.55
350,191649635,0.5972,0.2490,-0.2505,16.71,32.80,33.84
351,191654516,0.5547,0.1562,-0.3149,12.80,32.26,32.32
352,191659516,0.5532,0.1963,-0.2036,9.45,31.83,31.59
353,191664516,0.6250,0.2368,-0.1748,5.85,32.13,30.18
354,191669516,0.5962,0.1890,-0.2715,2.07,31.65,28.84
355,191674516,0.5776,0.1978,-0.1899,-1.10,30.98,28.17
356,191679516,0.6084,0.2490,-0.1406,-3.48,30.79,27.38
357,191684515,0.6582,0.2456,-0.1475,-5.43,30.37,26.34
358,191689514,0.6182,0.1899,-0.1587,-6.71,30.06,25.61
359,191694518,0.5322,0.2095,-0.1538,-6.52,29.63,25.67
360,191699515,0.5059,0.1553,-0.1387,-5.18,29.02,25.79
361,191704514,0.5054,0.1270,-0.1631,-3.48,27.93,26.59
362,191709516,0.4888,0.1055,-0.1719,-1.16,26.40,27.87
363,191714516,0.4761,0.1226,-0.1362,1.71,24.94,29.27
364,191719515,0.4663,0.1523,-0.1050,4.82,23.78,30.43
365,191724517,0.4629,0.1538,-0.0942,8.48,22.68,31.34
366,191729516,0.4668,0.1396,-0.0962,12.62,21.95,32.20
367,191734516,0.4653,0.1162,-0.0737,17.07,21.10,32.87
368,191739516,0.4561,0.0957,-0.0674,21.46,20.55,33.84
369,191744516,0.3750,0.1035,-0.0571,26.04,20.12,34.63
370,191749516,0.3916,0.1172,-0.0630,30.18,19.51,34.88
371,191754516,0.4043,0.1172,-0.0869,33.84,18.60,34.27
372,191759516,0.4233,0.0952,-0.1099,36.95,17.01,33.72
373,191764516,0.4175,0.0796,-0.1177,39.76,14.57,32.80
374,191769516,0.3950,0.0405,-0.0518,42.74,12.62,31.71
375,191774516,0.3633,0.0293,-0.0190,45.55,10.85,30.67
376,191779516,0.3711,0.0264,-0.0347,47.87,9.09,29.09
377,191784516,0.4009,0.0459,-0.0747,49.51,6.28,26.77
378,191789516,0.4229,0.0020,-0.0391,50.24,3.17,23.90
379,191794516,0.4375,0.0107,-0.0361,50.30,0.06,20.67
380,191799516,0.4341,0.0000,-0.0356,50.12,-3.60,16.59
381,191804517,0.4429,-0.0332,0.0073,49.94,-7.13,12.07
382,191809816,0.4736,-0.0356,0.0317,49.63,-10.61,6.95
383,191814862,0.5239,-0.0410,0.0435,48.96,-13.96,1.16
384,191819516,0.5459,-0.0708,0.0547,48.17,-17.56,-4.94
385,191824515,0.5239,-0.0854,0.0698,47.80,-21.40,-11.46
386,191829516,0.4917,-0.1050,0.0835,47.80,-25.12,-18.05
387,191834515,0.4639,-0.1123,0.1001,48.60,-29.09,-25.00
388,191839516,0.4390,-0.1123,0.1118,49.94,-33.05,-32.20
389,191844515,0.4077,-0.1094,0.1216,51.83,-36.95,-39.45
390,191849516,0.3896,-0.1104,0.1294,53.60,-41.10,-47.07
391,191854515,0.3657,-0.0996,0.1440,55.85,-45.18,-54.76
392,191859518,0.3350,-0.0850,0.1562,57.87,-49.27,-62.80
393,191864515,0.3008,-0.0664,0.1523,59.57,-53.41,-70.98
394,191869516,0.2651,-0.0449,0.1699,60.73,-57.50,-79.21
395,191874515,0.2163,-0.0200,0.1704,60.98,-61.46,-87.68
396,191879516,0.1802,0.0171,0.1670,60.30,-65.73,-96.46
397,191884515,0.1421,0.0469,0.1680,58.41,-69.88,-105.43
398,191889518,0.0918,0.0767,0.1636,55.61,-73.96,-114.51
399,191894515,0.0503,0.1079,0.1553,51.95,-78.11,-123.66
400,191899515,0.0171,0.1367,0.1577,47.62,-82.01,-132.80
401,191904516,-0.0249,0.1709,0.1489,42.50,-86.04,-141.77
402,191909516,-0.0669,0.2007,0.1348,36.83,-90.24,-150.73
403,191914516,-0.1108,0.2305,0.1162,30.61,-93.90,-159.57
404,191919517,-0.1562,0.2539,0.1035,24.15,-97.93,-168.29
405,191924516,-0.2056,0.2861,0.0898,17.56,-102.01,-176.77
406,191929516,-0.2515,0.3218,0.0679,11.22,-105.91,-185.18
407,191934516,-0.2974,0.3643,0.0444,4.88,-109.82,-193.48
408,191939517,-0.3408,0.3862,0.0137,-0.91,-114.02,-201.65
409,191944516,-0.3843,0.4126,-0.0054,-5.85,-118.05,-209.63
410,191949516,-0.4365,0.4395,-0.0376,-9.94,-122.20,-217.32
411,191954516,-0.4805,0.4653,-0.0674,-13.17,-126.46,-224.82
412,191959516,-0.4858,0.5005,-0.0737,-15.73,-130.73,-232.20
413,191964516,-0.4868,0.5361,-0.0977,-17.87,-134.82,-239.51
414,191969516,-0.4902,0.5581,-0.1187,-19.76,-138.84,-246.59
415,191974516,-0.5239,0.5815,-0.1567,-21.83,-143.05,-253.48
416,191979516,-0.5732,0.6025,-0.2017,-24.39,-147.44,-259.88
417,191984516,-0.6113,0.6396,-0.2349,-27.44,-152.07,-265.91
418,191989516,-0.6392,0.6738,-0.2832,-30.73,-157.13,-271.77
419,191994516,-0.6567,0.7002,-0.3145,-34.70,-162.01,-277.56
420,191999516,-0.6860,0.7275,-0.3594,-38.90,-166.89,-282.87
421,192004516,-0.7158,0.7529,-0.3994,-43.54,-171.83,-288.05
422,192009516,-0.7505,0.7778,-0.4346,-48.54,-176.34,-292.87
423,192014516,-0.7593,0.8071,-0.4858,-53.60,-180.61,-297.50
424,192019516,-0.7949,0.8467,-0.5166,-58.72,-184.45,-301.89
425,192024516,-0.8359,0.8833,-0.5557,-63.84,-187.93,-306.28
426,192029517,-0.8540,0.9258,-0.5962,-68.90,-190.67,-310.55
427,192034516,-0.8613,0.9692,-0.6372,-73.78,-192.93,-314.70
428,192039516,-0.8726,1.0054,-0.6641,-78.78,-194.27,-318.72
429,192044516,-0.8809,1.0503,-0.6831,-83.90,-194.63,-322.56
430,192049516,-0.9082,1.0933,-0.7222,-89.57,-194.33,-326.65
431,192054516,-0.9351,1.1455,-0.7544,-96.22,-193.17,-330.55
432,192059516,-0.9595,1.2095,-0.7944,-104.15,-190.98,-334.70
433,192064517,-0.9629,1.2666,-0.8359,-113.84,-188.11,-339.21
434,192069516,-0.9697,1.3154,-0.8560,-125.00,-184.45,-343.78
435,192074516,-1.0015,1.3657,-0.8926,-137.68,-179.88,-348.17
436,192079517,-1.0747,1.4102,-0.9277,-151.83,-174.45,-352.62
437,192084516,-1.1914,1.5000,-0.9824,-167.26,-168.48,-357.13
438,192089517,-1.1709,1.5332,-0.9849,-183.48,-161.71,-362.01
439,192094514,-1.1694,1.6152,-0.9795,-200.18,-153.96,-367.07
440,192099514,-1.2056,1.6963,-0.9966,-217.26,-145.12,-372.56
441,192104516,-1.2690,1.7617,-0.9858,-234.33,-135.55,-378.11
442,192109516,-1.3257,1.8252,-0.9814,-250.67,-125.55,-383.29
443,192114516,-1.3696,1.8872,-0.9785,-266.10,-114.94,-388.54
444,192119518,-1.4014,1.9526,-0.9390,-280.12,-103.90,-393.48
445,192124516,-1.4331,2.0186,-0.9165,-292.44,-92.74,-398.05
446,192129515,-1.4736,2.0581,-0.8774,-302.20,-81.16,-401.95
447,192134516,-1.5063,2.1045,-0.8213,-309.15,-69.39,-404.76
448,192139515,-1.5269,2.1470,-0.7441,-313.54,-57.74,-406.65
449,192144518,-1.5449,2.1753,-0.6724,-315.91,-46.34,-407.44
450,192149515,-1.5708,2.2046,-0.5991,-317.32,-35.49,-407.13
451,192154516,-1.5991,2.2388,-0.5229,-318.48,-25.18,-406.46
452,192159515,-1.6284,2.2734,-0.4473,-320.00,-16.16,-405.00
453,192164516,-1.6709,2.3037,-0.3750,-321.22,-8.05,-403.17
454,192169516,-1.7261,2.3359,-0.2896,-321.89,-0.91,-400.73
455,192174516,-1.7920,2.3403,-0.1909,-321.04,5.55,-397.50
456,192179516,-1.8530,2.3403,-0.0610,-318.23,11.34,-393.48
457,192184517,-1.9009,2.3389,0.0430,-313.60,16.65,-388.48
458,192189514,-1.9341,2.3354,0.1489,-307.68,21.10,-382.74
459,192194519,-1.9727,2.3247,0.2358,-300.55,24.57,-376.10
460,192199516,-1.9976,2.3008,0.3242,-292.87,26.83,-368.66
461,192204517,-2.0093,2.2661,0.4233,-284.21,27.99,-360.18
462,192209516,-2.0083,2.2397,0.5430,-274.33,28.11,-350.73
463,192214514,-1.9980,2.2017,0.6426,-263.48,27.56,-340.37
464,192219553,-1.9995,2.1636,0.7363,-252.32,25.85,-329.63
465,192225058,-2.0156,2.1279,0.8057,-241.59,23.05,-318.35
466,192229516,-2.0205,2.0879,0.8721,-231.65,18.60,-307.01
467,192234516,-2.0542,2.0518,0.9189,-222.74,12.68,-295.30
468,192239516,-2.0488,2.0034,0.9932,-214.51,5.49,-283.41
469,192244516,-2.0503,1.9663,1.0713,-206.10,-2.74,-271.40
470,192249516,-2.0742,1.9165,1.1060,-197.56,-12.13,-259.21
471,192254516,-2.0703,1.8882,1.1626,-188.66,-22.93,-247.20
472,192259516,-2.0259,1.8628,1.2139,-179.15,-34.63,-235.24
473,192264516,-1.9639,1.8335,1.2490,-169.57,-47.56,-223.84
474,192269516,-1.9038,1.8105,1.2822,-159.70,-61.52,-212.93
475,192274514,-1.8560,1.7778,1.2983,-149.15,-76.65,-202.44
476,192279514,-1.7939,1.7437,1.3198,-138.17,-92.68,-192.20
477,192284516,-1.7397,1.7290,1.3774,-126.52,-109.09,-182.56
478,192289516,-1.6763,1.6836,1.3481,-114.09,-126.16,-172.87
479,192294517,-1.6509,1.6313,1.3657,-101.77,-144.02,-163.48
480,192299516,-1.6245,1.6030,1.3691,-89.33,-162.07,-154.39
481,192304518,-1.5933,1.5122,1.3818,-76.71,-180.24,-145.37
482,192309515,-1.5771,1.5308,1.3740,-63.17,-198.17,-136.10
483,192314518,-1.5928,1.4888,1.3584,-48.66,-215.61,-127.01
484,192319515,-1.5850,1.4521,1.3301,-34.45,-233.11,-118.05
485,192324784,-1.5869,1.4189,1.2837,-20.73,-250.18,-109.39
486,192329657,-1.5938,1.3931,1.2495,-7.44,-267.26,-100.98
487,192334516,-1.5967,1.3643,1.2212,4.70,-283.41,-92.87
488,192339515,-1.6089,1.3354,1.1689,15.98,-299.02,-84.94
489,192344516,-1.6187,1.3008,1.1245,25.67,-314.02,-77.13
490,192349515,-1.6274,1.2798,1.0684,33.72,-328.11,-69.57
491,192354516,-1.6426,1.2510,1.0068,40.06,-341.40,-62.26
492,192359516,-1.6543,1.2236,0.9600,45.06,-353.90,-55.06
493,192364516,-1.6553,1.1982,0.9082,48.72,-365.43,-48.17
494,192369515,-1.6470,1.1729,0.8511,51.28,-375.79,-41.28
495,192374518,-1.6396,1.1465,0.7974,52.50,-385.43,-34.63
496,192379515,-1.6377,1.1313,0.7422,52.87,-394.33,-28.48
497,192384516,-1.6260,1.1152,0.6855,51.89,-402.13,-22.50
498,192389515,-1.5996,1.0820,0.6367,50.18,-409.27,-16.89
499,192394516,-1.5850,1.0537,0.5908,47.74,-415.37,-11.52
500,192399516,-1.5708,1.0303,0.5420,44.51,-420.73,-6.52
501,192404514,-1.5576,1.0039,0.4937,40.79,-425.49,-1.65
502,192409949,-1.5503,0.9731,0.4546,36.65,-429.33,2.99
503,192414516,-1.5439,0.9492,0.4150,32.44,-432.62,7.50
504,192419516,-1.5371,0.9082,0.3813,28.35,-435.30,11.89
505,192424819,-1.5312,0.8799,0.3481,24.45,-437.32,16.34
506,192429516,-1.5142,0.8506,0.3071,21.04,-438.60,20.79
507,192434516,-1.4888,0.8252,0.2783,18.11,-439.39,25.37
508,192439516,-1.4614,0.7959,0.2524,15.73,-440.12,30.12
509,192444515,-1.4380,0.7705,0.2305,13.60,-439.94,34.76
510,192449516,-1.4058,0.7427,0.2104,11.89,-439.57,39.57
511,192454770,-1.3838,0.7207,0.1919,10.18,-438.78,44.33
512,192459516,-1.3599,0.7026,0.1748,8.41,-437.80,49.27
513,192464516,-1.3247,0.6836,0.1675,6.89,-436.52,54.02
514,192469516,-1.2876,0.6680,0.1543,5.55,-434.70,58.78
515,192474515,-1.2354,0.6587,0.1528,4.27,-432.50,63.60
516,192479516,-1.2285,0.6206,0.1519,2.99,-430.00,68.41
517,192484516,-1.1929,0.6035,0.1504,1.46,-427.26,73.23
518,192489516,-1.1494,0.5859,0.1479,0.06,-424.02,78.29
519,192494515,-1.1162,0.5776,0.1396,-1.89,-420.37,83.84
520,192499516,-1.0850,0.5669,0.1226,-4.27,-416.77,88.60
521,192504516,-1.0581,0.5547,0.1030,-7.38,-413.23,92.68
522,192509516,-1.0371,0.5493,0.0933,-11.16,-409.45,97.38
523,192514516,-1.0293,0.5420,0.0762,-15.00,-405.73,101.89
524,192519516,-1.0210,0.5371,0.0576,-18.96,-402.07,106.22
525,192524515,-0.9946,0.5283,0.0469,-22.87,-398.48,110.43
526,192529516,-0.9526,0.5234,0.0581,-26.34,-394.88,114.63
527,192534516,-0.9058,0.5225,0.0688,-29.02,-390.61,118.60
528,192539516,-0.8633,0.5098,0.0762,-31.10,-386.04,122.62
529,192544515,-0.8149,0.5073,0.0850,-32.50,-380.91,126.40
530,192549516,-0.7607,0.5010,0.1025,-33.78,-375.67,130.30
531,192554516,-0.7139,0.4849,0.0977,-34.94,-370.12,134.09
532,192559516,-0.6753,0.4814,0.1001,-36.52,-364.76,137.80
533,192564514,-0.6421,0.4766,0.0869,-38.29,-359.33,141.59
534,192569515,-0.6016,0.4678,0.0859,-40.73,-353.96,145.37
535,192574518,-0.5645,0.4609,0.0811,-43.72,-348.84,149.09
536,192579515,-0.5522,0.4634,0.0752,-47.07,-343.90,152.80
537,192584516,-0.5483,0.4512,0.0601,-50.55,-339.15,156.46
538,192589515,-0.5425,0.4531,0.0503,-54.21,-334.76,159.94
539,192594518,-0.5181,0.4526,0.0308,-57.50,-330.55,163.35
540,192599515,-0.4868,0.4492,0.0337,-60.43,-326.77,166.59
541,192604514,-0.4531,0.4453,0.0381,-62.07,-322.80,169.51
542,192609514,-0.4160,0.4404,0.0347,-62.50,-319.15,172.44
543,192614516,-0.3740,0.4287,0.0361,-61.77,-315.24,175.37
544,192619515,-0.3335,0.4185,0.0454,-59.63,-311.28,178.23
545,192624516,-0.2891,0.4023,0.0386,-56.71,-307.13,181.59
546,192629516,-0.2485,0.3838,0.0498,-53.05,-303.41,184.82
547,192634516,-0.2139,0.3662,0.0410,-49.21,-299.63,188.11
548,192639515,-0.1924,0.3506,0.0342,-45.49,-296.04,191.65
549,192644516,-0.1787,0.3359,0.0239,-42.01,-292.80,195.24
550,192649515,-0.1733,0.3242,0.0088,-38.96,-289.88,198.90
551,192654516,-0.1777,0.3193,0.0044,-36.46,-287.07,202.56
552,192659516,-0.1792,0.3037,-0.0142,-34.51,-284.70,206.16
553,192664514,-0.1758,0.3018,-0.0298,-32.68,-282.68,209.76
554,192669516,-0.1851,0.2930,-0.0410,-31.04,-280.67,213.29
555,192674516,-0.1948,0.2832,-0.0537,-28.96,-278.90,216.77
556,192679516,-0.1880,0.2690,-0.0601,-26.16,-277.26,220.12
557,192684515,-0.1724,0.2568,-0.0591,-22.93,-275.55,223.48
558,192689516,-0.1523,0.2349,-0.0610,-18.78,-273.96,226.83
559,192694516,-0.1313,0.2109,-0.0640,-13.84,-271.83,230.43
560,192699516,-0.1050,0.1855,-0.0601,-7.80,-269.63,234.51
561,192704517,-0.0845,0.1626,-0.0649,-1.40,-267.32,238.35
562,192709516,-0.0762,0.1348,-0.0767,5.49,-264.57,242.62
563,192714515,-0.0688,0.1172,-0.0757,12.38,-261.95,247.01
564,192719516,-0.0776,0.0923,-0.0859,19.51,-258.96,251.65
565,192724515,-0.0918,0.0698,-0.0986,26.34,-256.10,256.28
566,192729516,-0.1055,0.0518,-0.1055,33.23,-253.05,261.10
567,192734971,-0.1318,0.0425,-0.1118,40.18,-249.70,266.04
568,192739516,-0.1592,0.0259,-0.1152,46.95,-246.28,270.85
569,192744516,-0.1792,0.0068,-0.1128,53.78,-242.56,275.79
570,192749516,-0.1748,-0.0166,-0.1055,60.67,-238.35,280.73
571,192754778,-0.1685,-0.0435,-0.0972,67.68,-233.78,285.73
572,192759516,-0.1548,-0.0684,-0.0933,74.63,-229.02,290.73
573,192764515,-0.1421,-0.0991,-0.0923,81.46,-223.90,295.91
574,192769516,-0.1377,-0.1299,-0.0879,88.05,-218.54,301.22
575,192774516,-0.1348,-0.1543,-0.0874,94.09,-212.68,306.40
576,192779516,-0.1367,-0.1880,-0.0918,98.66,-208.23,310.73
577,192784516,-0.1460,-0.2222,-0.1016,104.27,-201.16,317.20
578,192789515,-0.1626,-0.2446,-0.1025,107.26,-196.52,321.71
579,192795044,-0.2056,-0.2715,-0.1016,111.04,-189.15,328.17
580,192799516,-0.2485,-0.2900,-0.0977,112.80,-184.21,332.44
581,192805006,-0.2983,-0.3203,-0.0845,114.39,-176.10,338.90
582,192809516,-0.3140,-0.3369,-0.0908,114.70,-170.79,343.05
583,192814516,-0.3325,-0.3555,-0.0840,113.60,-162.56,348.90
584,192819517,-0.3364,-0.3740,-0.0815,111.77,-157.20,352.68
585,192824517,-0.3643,-0.3916,-0.0957,107.50,-149.27,357.68
586,192829607,-0.4253,-0.4028,-0.0967,102.68,-142.80,361.40
587,192834514,-0.4531,-0.4287,-0.0942,98.35,-137.62,364.15
588,192839516,-0.4419,-0.4614,-0.1084,91.71,-130.12,368.17
589,192844516,-0.4893,-0.4707,-0.1025,85.61,-123.78,371.22
590,192849516,-0.5005,-0.5103,-0.1045,81.52,-118.84,373.54
591,192854516,-0.5010,-0.5356,-0.0903,75.85,-111.28,377.07
592,192859515,-0.5044,-0.5493,-0.1108,72.38,-106.40,379.27
593,192864514,-0.5312,-0.5601,-0.0967,68.48,-100.37,381.77
594,192869516,-0.5742,-0.5669,-0.0830,64.09,-93.17,384.39
595,192874516,-0.6035,-0.5679,-0.0933,61.16,-88.54,385.79
596,192879515,-0.6523,-0.5898,-0.0864,57.20,-82.99,387.38
597,192884518,-0.6611,-0.5918,-0.0757,53.35,-77.50,388.66
598,192889515,-0.6914,-0.5923,-0.0991,49.76,-72.44,389.39
599,192894514,-0.7095,-0.6177,-0.0679,46.04,-67.62,389.88
600,192899516,-0.7153,-0.6318,-0.0684,42.62,-62.68,390.18
601,192904516,-0.7090,-0.6104,-0.1216,39.88,-58.54,390.06
602,192909515,-0.7607,-0.6323,-0.0513,38.23,-54.21,389.76
603,192914516,-0.8184,-0.6587,-0.0186,37.56,-49.33,389.45
604,192919514,-0.8516,-0.6641,-0.0327,37.32,-44.15,389.27
605,192924516,-0.8994,-0.6890,0.0107,37.01,-38.96,388.84
606,192929516,-0.8989,-0.6880,0.0264,36.10,-33.35,388.17
607,192934514,-0.9111,-0.6846,-0.0029,34.27,-27.99,386.89
608,192939516,-0.9346,-0.6855,0.0078,30.49,-22.93,385.06
609,192944516,-0.9570,-0.6924,0.0122,25.12,-17.99,383.05
610,192949516,-0.9854,-0.7153,0.0249,17.93,-13.60,380.85
611,192954515,-0.9800,-0.7124,0.0337,9.33,-9.63,378.23
612,192959516,-0.9878,-0.7046,0.0469,-0.12,-6.10,375.12
613,192964779,-1.0132,-0.6899,0.0566,-12.74,-2.32,370.98
614,192969516,-1.0425,-0.6821,0.0640,-21.52,0.00,368.11
615,192974516,-1.0796,-0.6870,0.0669,-32.56,2.44,364.33
616,192979516,-1.1079,-0.6909,0.0767,-43.11,4.82,360.61
617,192984734,-1.1562,-0.6763,0.0776,-54.76,6.95,356.10
618,192989516,-1.1787,-0.6636,0.0835,-61.71,8.05,352.93
619,192994516,-1.2090,-0.6426,0.0840,-69.70,9.09,349.02
620,192999517,-1.2490,-0.6235,0.0781,-76.46,10.37,345.18
621,193004515,-1.2900,-0.6050,0.0791,-82.07,11.10,341.40
622,193009516,-1.3267,-0.5864,0.0791,-86.16,11.59,337.62
623,193014515,-1.3584,-0.5693,0.0659,-89.02,11.95,334.15
624,193019515,-1.3911,-0.5581,0.0718,-90.37,12.20,330.61
625,193024535,-1.4165,-0.5479,0.0845,-90.24,12.56,327.44
626,193029516,-1.4482,-0.5317,0.0991,-88.90,13.17,324.39
627,193034516,-1.4795,-0.5200,0.1001,-86.59,13.90,321.52
628,193039517,-1.5132,-0.5088,0.1060,-83.60,14.88,318.72
629,193044514,-1.5566,-0.4922,0.1147,-79.57,16.16,315.61
630,193049516,-1.5967,-0.4746,0.1221,-76.83,17.13,313.41
631,193054516,-1.6445,-0.4644,0.1245,-73.35,18.29,310.79
632,193059516,-1.7041,-0.4443,0.1255,-70.18,19.57,308.11
633,193064515,-1.7710,-0.4194,0.1138,-67.68,20.73,305.30
634,193069516,-1.8438,-0.3989,0.1064,-66.28,21.65,302.26
635,193074516,-1.9263,-0.3813,0.0898,-66.34,22.26,299.15
636,193079516,-2.0088,-0.3657,0.0869,-67.50,22.26,295.91
637,193084515,-2.0928,-0.3613,0.0728,-70.00,21.89,292.68
638,193089517,-2.1733,-0.3657,0.0752,-73.60,20.91,289.39
639,193094516,-2.2544,-0.3730,0.0684,-78.48,19.88,286.34
640,193099516,-2.3325,-0.3774,0.0615,-84.27,17.99,283.29
641,193104519,-2.3965,-0.3853,0.0542,-90.91,15.73,280.37
642,193109515,-2.4590,-0.3843,0.0435,-98.54,13.05,277.38
643,193114516,-2.5205,-0.3896,0.0225,-106.59,9.51,274.33
644,193119516,-2.5708,-0.3960,0.0176,-114.82,5.79,271.22
645,193124516,-2.6235,-0.4028,0.0059,-122.87,1.46,268.17
646,193129515,-2.6719,-0.4126,0.0039,-130.91,-3.17,265.06
647,193134516,-2.7026,-0.4253,0.0044,-138.60,-8.17,261.95
648,193139515,-2.7358,-0.4365,0.0034,-145.49,-13.17,258.90
649,193144518,-2.7681,-0.4395,0.0137,-151.40,-18.48,255.85
650,193149515,-2.7881,-0.4492,0.0215,-156.10,-23.72,252.80
651,193154516,-2.8174,-0.4639,0.0479,-159.57,-28.66,249.57
652,193159515,-2.8428,-0.4805,0.0762,-161.77,-33.11,246.40
653,193164517,-2.8511,-0.4990,0.0962,-162.99,-37.26,243.11
654,193169515,-2.8525,-0.5151,0.1128,-164.02,-40.73,239.39
655,193174516,-2.8418,-0.5308,0.1377,-165.12,-43.96,235.43
656,193179515,-2.8335,-0.5483,0.1396,-167.07,-46.95,230.73
657,193184517,-2.8076,-0.5630,0.1377,-170.12,-50.06,225.12
658,193189514,-2.7720,-0.5713,0.1260,-174.57,-52.93,218.84
659,193194521,-2.7412,-0.5752,0.1274,-180.85,-56.04,211.52
660,193199515,-2.7129,-0.5869,0.1226,-188.29,-59.39,203.23
661,193204516,-2.7061,-0.6074,0.1309,-196.89,-62.74,194.33
662,193209515,-2.7197,-0.6372,0.1567,-205.79,-65.67,184.76
663,193214516,-2.7598,-0.6636,0.1914,-214.63,-68.17,175.00
664,193219516,-2.8164,-0.6841,0.2163,-223.72,-70.00,165.06
665,193224514,-2.8755,-0.7129,0.2466,-233.05,-71.28,154.82
666,193229516,-2.9453,-0.7397,0.2656,-243.35,-71.95,144.51
667,193234518,-3.0146,-0.7593,0.2720,-254.88,-72.20,134.02
668,193239515,-3.0576,-0.7749,0.2441,-267.99,-72.50,123.11
669,193244516,-3.0703,-0.7949,0.2246,-281.83,-72.93,111.71
670,193249515,-3.0703,-0.7905,0.2017,-296.04,-73.72,99.51
671,193254516,-3.0713,-0.7803,0.1592,-310.06,-74.88,86.65
672,193259515,-3.0708,-0.7622,0.1284,-323.35,-76.28,73.23
673,193264516,-3.0596,-0.7651,0.0786,-335.49,-78.23,58.48
674,193269515,-3.0688,-0.7573,0.0488,-345.91,-80.18,43.23
675,193274516,-3.0962,-0.7544,0.0391,-354.63,-82.01,27.26
676,193279515,-3.1392,-0.7622,0.0103,-361.40,-83.72,11.16
677,193284516,-3.1938,-0.7754,-0.0205,-366.40,-84.76,-5.18
678,193289514,-3.2852,-0.7949,-0.0342,-369.63,-85.37,-21.22
679,193294516,-3.3882,-0.8154,-0.0649,-371.59,-85.37,-36.95
680,193299516,-3.4902,-0.8281,-0.0957,-372.62,-84.82,-52.38
681,193304519,-3.5752,-0.8359,-0.1294,-373.54,-83.66,-67.56
682,193309515,-3.6196,-0.8330,-0.1841,-375.06,-82.44,-82.68
683,193314516,-3.6250,-0.8135,-0.2349,-377.13,-81.16,-98.48
684,193319516,-3.6045,-0.7788,-0.2837,-380.49,-79.88,-115.12
685,193324516,-3.5532,-0.7437,-0.3481,-384.51,-78.54,-132.74
686,193329515,-3.4868,-0.7070,-0.4092,-388.35,-77.68,-151.52
687,193334518,-3.4106,-0.6738,-0.4668,-391.28,-76.34,-171.16
688,193339515,-3.3389,-0.6494,-0.5107,-392.87,-74.94,-191.59
689,193344514,-3.2739,-0.6255,-0.5547,-392.80,-72.80,-212.50
690,193349516,-3.2412,-0.6284,-0.5894,-390.85,-69.82,-233.78
691,193354516,-3.2251,-0.6289,-0.6084,-386.71,-65.91,-254.63
692,193359515,-3.2095,-0.6245,-0.6206,-380.85,-60.43,-274.94
693,193364518,-3.1797,-0.6016,-0.6528,-374.09,-53.90,-295.37
694,193369515,-3.1421,-0.5728,-0.7031,-366.95,-46.71,-315.85
695,193374516,-3.0776,-0.5317,-0.7363,-360.06,-38.78,-336.59
696,193379516,-3.0146,-0.4766,-0.7759,-352.80,-30.12,-357.93
697,193384516,-2.9395,-0.4072,-0.8145,-345.37,-20.61,-379.88
698,193389515,-2.8750,-0.3306,-0.8408,-337.62,-10.30,-402.62
699,193394518,-2.8140,-0.2520,-0.8643,-330.00,0.79,-426.46
700,193399515,-2.7383,-0.1851,-0.9014,-322.26,12.62,-450.98
701,193404516,-2.6631,-0.1230,-0.9395,-314.39,24.94,-476.04
702,193409515,-2.5894,-0.0610,-0.9644,-305.43,38.05,-501.59
703,193414516,-2.5396,0.0005,-0.9741,-294.63,51.71,-527.38
704,193419515,-2.5381,0.0645,-0.9614,-280.91,66.16,-552.87
705,193424516,-2.5708,0.1167,-0.9570,-264.02,81.95,-577.74
706,193429515,-2.6509,0.1758,-0.9458,-244.39,96.59,-602.01
707,193434516,-2.7646,0.2173,-0.9399,-222.50,112.26,-625.12
708,193439516,-2.8882,0.2568,-0.9448,-199.21,127.56,-646.65
709,193444514,-3.0078,0.3228,-0.9370,-175.24,142.32,-666.65
710,193449516,-3.1133,0.4072,-0.9243,-151.22,156.65,-685.30
711,193454516,-3.2246,0.5039,-0.8828,-127.68,169.88,-703.23
712,193459516,-3.3267,0.6104,-0.8647,-104.27,182.20,-720.24
713,193464516,-3.4209,0.7080,-0.8027,-81.10,194.09,-736.46
714,193469515,-3.5259,0.8252,-0.7559,-58.41,205.37,-752.20
715,193474518,-3.6650,0.9380,-0.7119,-36.40,215.67,-767.32
716,193479515,-3.7827,1.0171,-0.6504,-14.88,225.67,-781.95
717,193484516,-3.9253,1.0811,-0.5879,6.52,235.06,-795.06
718,193489515,-4.1177,1.1333,-0.5181,26.83,243.84,-806.95
719,193494518,-4.3154,1.1660,-0.4448,46.34,252.07,-816.89
720,193499515,-4.5439,1.1929,-0.3950,65.49,259.39,-824.70
721,193504516,-4.8174,1.2070,-0.3687,82.62,265.30,-830.00
722,193509514,-5.1309,1.2407,-0.3428,97.26,269.94,-832.74
723,193514516,-5.4399,1.3325,-0.3403,110.98,272.93,-832.62
724,193519515,-5.7222,1.4590,-0.2954,122.62,274.33,-831.04
725,193524516,-5.9775,1.6045,-0.2559,130.85,274.39,-828.23
726,193529515,-6.1182,1.7324,-0.2681,136.22,273.23,-824.27
727,193534630,-6.3550,1.8354,-0.2202,137.80,271.52,-818.90
728,193539516,-6.5532,1.9595,-0.1982,132.44,269.15,-813.05
729,193544516,-6.6357,2.0659,-0.1895,123.41,267.07,-806.46
730,193550059,-6.5942,2.1880,-0.1450,109.15,265.37,-796.65
731,193554516,-6.5391,2.2261,-0.0908,97.87,265.30,-789.09
732,193559515,-6.4639,2.2637,-0.0376,81.95,265.18,-778.11
733,193564516,-6.3047,2.3008,-0.0356,65.73,266.59,-764.57
734,193569515,-6.0698,2.2744,-0.0312,50.67,268.84,-747.99
735,193574517,-5.7939,2.2568,-0.0273,34.76,270.98,-728.41
736,193579515,-5.6514,2.2485,-0.0225,18.29,273.48,-706.71
737,193584516,-5.4199,2.2739,-0.0337,3.23,277.07,-682.80
738,193589515,-5.1265,2.2598,-0.0107,-11.28,281.04,-657.68
739,193594516,-4.7954,2.2344,-0.0317,-27.32,285.24,-632.62
740,193599515,-4.3730,2.2207,-0.1416,-44.21,288.96,-607.68
741,193604516,-3.8979,2.2017,-0.1108,-59.82,292.80,-582.68
742,193609515,-3.4775,2.1479,-0.1504,-75.00,296.71,-557.50
743,193614516,-3.0986,2.0566,-0.2007,-89.39,300.18,-531.40
744,193619515,-2.7021,1.9561,-0.2104,-101.95,303.35,-504.39
745,193624516,-2.2466,1.8394,-0.1846,-115.67,307.50,-471.40
746,193629516,-1.9692,1.7739,-0.1714,-124.15,310.61,-449.33
747,193634515,-1.6655,1.7197,-0.1548,-133.54,315.12,-422.01
748,193639516,-1.4912,1.6572,-0.0991,-142.01,320.00,-395.00
749,193644516,-1.4604,1.6021,-0.0796,-150.55,325.85,-368.41
750,193649516,-1.5044,1.5591,-0.0840,-159.94,332.20,-342.26
751,193654625,-1.6191,1.5068,-0.0723,-169.09,338.72,-316.34
752,193659516,-1.8115,1.4673,-0.0781,-177.44,345.00,-291.28
753,193664516,-2.0439,1.4585,-0.1050,-185.00,351.22,-267.26
754,193669516,-2.2832,1.4775,-0.1123,-191.04,356.89,-244.63
755,193674516,-2.4966,1.5171,-0.1118,-194.51,362.62,-224.33
756,193679516,-2.6846,1.5425,-0.0986,-194.76,368.60,-206.16
757,193684516,-2.8618,1.5356,-0.0947,-191.46,374.15,-189.70
758,193689516,-3.0430,1.5249,-0.1235,-184.51,379.21,-174.63
759,193694516,-3.1875,1.5464,-0.1494,-175.12,383.84,-161.04
760,193699516,-3.2812,1.5342,-0.1479,-163.35,387.80,-148.90
761,193704516,-3.3848,1.5273,-0.1489,-148.72,391.95,-137.80
762,193709515,-3.4829,1.5176,-0.1333,-130.30,396.28,-127.44
763,193714516,-3.5288,1.5098,-0.0991,-108.35,400.73,-117.74
764,193719515,-3.5220,1.5186,-0.0586,-82.74,405.55,-108.96
765,193724516,-3.4858,1.5332,-0.0054,-54.02,411.10,-101.40
766,193729515,-3.4346,1.5708,0.0718,-22.87,417.20,-95.73
767,193734514,-3.3457,1.6162,0.1543,9.82,423.90,-92.13
768,193739515,-3.2661,1.6738,0.2407,42.80,431.28,-91.34
769,193744516,-3.2476,1.7378,0.3042,74.88,439.09,-93.23
770,193749516,-3.3149,1.7988,0.3237,104.57,446.40,-97.56
771,193754762,-3.4399,1.8457,0.3135,131.10,452.62,-103.90
772,193759516,-3.5249,1.8667,0.2881,152.50,457.32,-111.65
773,193764516,-3.5435,1.8755,0.2739,170.00,460.55,-120.12
774,193769516,-3.5195,1.8589,0.2734,183.66,462.50,-128.48
775,193774516,-3.4976,1.8403,0.2593,193.54,463.17,-136.34
776,193779516,-3.4873,1.8164,0.2314,198.90,462.74,-143.05
777,193784516,-3.4780,1.8052,0.1953,199.45,461.10,-148.72
778,193789516,-3.4399,1.7949,0.1729,195.30,458.48,-152.93
779,193794516,-3.3755,1.7861,0.1650,187.44,455.49,-155.79
780,193799516,-3.3071,1.7832,0.1592,176.71,452.44,-157.38
781,193804516,-3.2676,1.7944,0.1670,163.96,449.88,-157.93
782,193809516,-3.2593,1.8208,0.1597,149.70,447.62,-157.74
783,193814516,-3.2808,1.8462,0.1396,134.70,446.40,-156.59
784,193819517,-3.3511,1.8823,0.1094,118.66,445.43,-155.00
785,193824516,-3.4321,1.8979,0.0654,101.46,444.82,-152.87
786,193829517,-3.4951,1.9082,0.0225,83.72,444.51,-150.49
787,193834516,-3.5269,1.9385,0.0073,65.67,444.57,-147.68
788,193839516,-3.5317,1.9282,-0.0527,47.80,444.94,-144.33
789,193844517,-3.5547,1.9136,-0.0845,30.61,445.55,-140.37
790,193849516,-3.5825,1.9038,-0.1050,14.39,446.28,-135.73
791,193854514,-3.5952,1.9023,-0.1343,-0.91,447.32,-130.85
792,193859516,-3.6060,1.9155,-0.1260,-14.15,449.15,-125.49
793,193864516,-3.6226,1.9385,-0.1221,-24.45,451.71,-120.00
794,193869515,-3.6504,1.9673,-0.1128,-31.77,455.37,-114.33
795,193874516,-3.7065,2.0000,-0.0894,-35.12,459.76,-108.17
796,193879515,-3.7554,2.0278,-0.0576,-34.57,465.06,-101.83
797,193884516,-3.8218,2.0483,-0.0410,-30.91,470.61,-95.06
798,193889516,-3.9082,2.0527,-0.0454,-25.55,476.16,-88.29
799,193894516,-3.8784,2.0151,-0.0693,-20.67,480.98,-81.22
800,193899515,-3.9111,2.0781,-0.0415,-17.80,485.00,-74.88
801,193904516,-3.9800,2.0566,-0.0742,-15.49,488.41,-68.11
802,193909515,-3.9883,2.0195,-0.0728,-15.30,490.67,-60.79
803,193914516,-4.0068,1.9893,-0.0732,-18.60,492.13,-53.48
804,193919515,-4.0078,1.9756,-0.1255,-24.76,492.44,-45.55
805,193924811,-3.9883,1.9536,-0.1387,-33.41,491.28,-37.50
806,193929516,-3.9497,1.9346,-0.1543,-44.63,489.02,-28.96
807,193934516,-3.9082,1.9131,-0.1943,-57.20,485.61,-20.00
808,193939516,-3.8843,1.8989,-0.2139,-70.91,480.98,-10.61
809,193944516,-3.8701,1.8921,-0.2344,-85.12,475.79,-0.91
810,193949515,-3.8696,1.8892,-0.2529,-99.51,470.00,8.78
811,193954516,-3.8809,1.8818,-0.2603,-113.96,463.66,18.78
812,193959516,-3.9014,1.8740,-0.2559,-127.74,457.07,29.02
813,193964516,-3.9531,1.8545,-0.2593,-140.85,450.67,39.70
814,193969516,-4.0400,1.8320,-0.2495,-152.80,444.27,50.79
815,193974516,-4.1279,1.8169,-0.2500,-163.84,437.87,62.20
816,193979516,-4.1978,1.7998,-0.2495,-173.60,431.71,73.90
817,193984516,-4.2290,1.7871,-0.2490,-181.89,425.49,85.91
818,193989516,-4.2544,1.7808,-0.2461,-187.93,419.39,96.83
819,193994516,-4.2700,1.7744,-0.2417,-191.65,413.23,107.93
820,193999516,-4.2915,1.7793,-0.2402,-192.50,407.20,118.72
821,194004516,-4.2974,1.7778,-0.2373,-190.67,401.28,128.90
822,194009516,-4.2910,1.7734,-0.2266,-186.04,395.49,138.29
823,194014516,-4.2607,1.7603,-0.2104,-179.09,390.06,147.20
824,194019516,-4.2026,1.7412,-0.2070,-170.12,384.21,155.67
825,194024516,-4.1074,1.7046,-0.2075,-159.88,378.66,163.78
826,194029516,-3.9858,1.6675,-0.2246,-149.70,372.62,171.46
827,194034516,-3.8516,1.6250,-0.2505,-140.00,366.10,178.78
828,194039517,-3.7305,1.5977,-0.2773,-132.68,358.72,185.61
829,194044514,-3.6162,1.5557,-0.3169,-127.93,350.43,191.77
830,194049516,-3.5161,1.5688,-0.3550,-126.46,341.52,197.26
831,194054516,-3.5063,1.5557,-0.3672,-128.17,332.01,201.83
832,194059514,-3.4912,1.5610,-0.3682,-132.26,322.87,205.85
833,194064516,-3.4854,1.5659,-0.3525,-137.62,313.96,209.39
834,194069516,-3.4717,1.5635,-0.3379,-143.54,305.73,212.56
835,194074516,-3.4282,1.5366,-0.3140,-149.15,298.29,216.10
836,194079516,-3.3682,1.5151,-0.3018,-153.96,291.28,219.88
837,194084900,-3.3213,1.4893,-0.2900,-157.80,285.00,223.96
838,194089516,-3.2700,1.4531,-0.2900,-160.67,278.84,228.54
839,194094516,-3.2036,1.4209,-0.2925,-162.50,273.23,233.48
840,194099516,-3.1328,1.3804,-0.2881,-163.72,267.80,238.78
841,194104518,-3.0654,1.3477,-0.2886,-164.15,262.44,244.57
842,194109516,-3.0020,1.3130,-0.2842,-164.09,257.01,250.30
843,194114516,-2.9424,1.2788,-0.2915,-164.02,251.77,256.28
844,194119516,-2.8760,1.2412,-0.2881,-163.84,246.65,262.01
845,194124516,-2.8062,1.2090,-0.2900,-163.48,241.34,267.44
846,194129515,-2.7397,1.1807,-0.2803,-162.99,236.10,272.62
847,194134516,-2.6729,1.1523,-0.2676,-162.32,230.85,277.44
848,194139515,-2.6104,1.1230,-0.2588,-161.83,225.61,281.71
849,194144516,-2.5396,1.0879,-0.2505,-161.83,220.37,285.73
850,194149515,-2.4771,1.0596,-0.2397,-162.13,215.24,289.21
851,194154516,-2.4141,1.0381,-0.2280,-162.99,210.00,292.20
852,194159515,-2.3433,1.0117,-0.2256,-164.09,204.70,294.51
853,194164516,-2.2676,0.9819,-0.2153,-165.85,199.39,296.46
854,194169516,-2.1968,0.9531,-0.2056,-168.48,193.96,297.99
855,194174516,-2.1211,0.9243,-0.1973,-171.83,188.54,298.78
856,194179516,-2.0352,0.8887,-0.1782,-175.91,182.93,299.33
857,194184516,-1.9512,0.8569,-0.1743,-180.24,177.20,299.57
858,194189514,-1.8696,0.8237,-0.1562,-184.88,171.46,299.57
859,194194516,-1.7632,0.5879,-0.0234,-189.33,165.79,299.39
860,194199516,-1.6919,0.2661,0.2183,-192.50,160.85,299.82
861,194204516,-1.5479,0.1558,0.3970,-195.24,155.85,298.84
862,194209516,-1.3794,0.2437,0.4419,-197.80,150.06,296.04
863,194214515,-1.5200,0.3555,0.4370,-201.22,142.87,292.32
864,194219516,-1.4238,0.4653,0.4805,-206.77,134.51,288.17
865,194224516,-1.1973,0.6201,0.6924,-213.35,125.00,284.02
866,194229516,-0.9644,0.7090,0.8638,-220.91,114.94,279.88
867,194234515,-0.8638,0.7158,0.8345,-229.27,103.72,276.16
868,194239516,-0.8682,0.6504,0.7207,-238.41,91.10,271.83
869,194244515,-0.9106,0.5596,0.5835,-247.07,79.51,267.07
870,194249514,-0.8135,0.4971,0.5347,-254.02,67.38,261.89
871,194254517,-0.7300,0.4937,0.5103,-258.17,56.28,256.59
872,194259516,-0.6509,0.5044,0.3901,-259.57,45.55,250.98
873,194264516,-0.7046,0.5264,0.2769,-258.78,35.24,245.67
874,194269516,-0.7407,0.5371,0.1543,-256.34,26.04,240.49
875,194274515,-0.6763,0.5840,0.0498,-252.20,17.38,235.61
876,194279516,-0.5342,0.6484,-0.0312,-245.79,9.76,231.04
877,194284516,-0.3452,0.6455,-0.0879,-237.56,2.74,227.07
878,194289516,-0.1802,0.6162,-0.1050,-227.87,-3.48,223.41
879,194294517,-0.0601,0.6216,-0.1313,-216.83,-8.72,220.12
880,194299516,-0.0625,0.6299,-0.1860,-204.82,-13.60,216.52
881,194304516,0.0098,0.6074,-0.1929,-192.38,-17.68,213.11
882,194309516,0.0327,0.5898,-0.2080,-180.18,-21.22,209.63
883,194314516,0.0059,0.5713,-0.2275,-168.66,-24.57,206.28
884,194319515,-0.0625,0.5347,-0.2163,-158.41,-27.62,202.50
885,194324518,-0.1182,0.4722,-0.2051,-149.94,-30.24,198.96
886,194329514,-0.1377,0.4312,-0.1909,-143.05,-32.87,195.18
887,194334516,-0.1392,0.4038,-0.1714,-137.50,-34.94,191.46
888,194339518,-0.1377,0.3960,-0.1445,-132.93,-37.01,187.74
889,194344517,-0.1333,0.3862,-0.1172,-129.39,-38.90,184.27
890,194349516,-0.1362,0.3623,-0.0981,-126.65,-40.49,180.79
891,194354697,-0.1328,0.3291,-0.0752,-124.33,-41.77,177.68
892,194359517,-0.1357,0.2974,-0.0610,-122.62,-43.11,174.63
893,194364516,-0.1318,0.2690,-0.0513,-121.40,-44.21,171.59
894,194369516,-0.1211,0.2520,-0.0444,-120.49,-45.00,168.72
895,194374518,-0.1035,0.2256,-0.0420,-120.00,-45.55,165.79
896,194379515,-0.0933,0.2026,-0.0386,-119.82,-45.85,162.93
897,194384516,-0.0825,0.1870,-0.0278,-119.70,-46.10,160.06
898,194389515,-0.0713,0.1782,-0.0195,-119.39,-45.85,157.13
899,194394575,-0.0713,0.1621,-0.0127,-118.96,-45.67,154.33
900,194399515,-0.0605,0.1509,0.0142,-118.29,-45.00,151.46
901,194404516,-0.0571,0.1421,0.0195,-117.07,-44.39,148.54
902,194409518,-0.0420,0.1445,0.0410,-115.73,-43.78,145.55
903,194414516,0.0093,0.1372,0.0752,-114.02,-42.74,142.50
904,194419515,0.0474,0.1265,0.0640,-111.83,-42.01,139.33
905,194424516,0.0776,0.1094,0.1079,-109.02,-40.73,136.34
906,194429516,0.1094,0.0952,0.1504,-105.61,-39.57,133.11
907,194434516,0.1328,0.0879,0.1675,-101.65,-38.48,130.00
908,194439515,0.1582,0.0771,0.1890,-97.38,-37.32,126.46
909,194444516,0.1611,0.0605,0.1982,-92.99,-35.98,122.93
910,194449516,0.1943,0.0674,0.2031,-88.48,-35.00,119.27
911,194454516,0.2529,0.0732,0.1943,-83.54,-33.90,115.61
912,194459516,0.3101,0.0552,0.2100,-78.78,-32.74,112.07
913,194464516,0.3052,0.0317,0.1646,-73.66,-31.89,108.35
914,194469571,0.3032,-0.0054,0.2344,-68.48,-31.10,105.06
915,194474516,0.3086,-0.0205,0.2612,-63.11,-30.00,101.77
916,194479516,0.2671,-0.0298,0.2646,-57.99,-28.72,98.35
917,194484514,0.3237,-0.1528,0.2949,-52.56,-27.38,95.85
918,194489516,0.3462,-0.0488,0.2500,-45.85,-25.73,93.48
919,194494516,0.3818,-0.0044,0.2988,-38.90,-24.33,90.37
920,194499516,0.4399,-0.0122,0.3472,-32.01,-22.99,86.77
921,194504515,0.4854,-0.0269,0.3960,-25.37,-22.07,83.23
922,194509517,0.4756,-0.0220,0.3984,-19.21,-20.85,78.72
923,194514516,0.4556,-0.0298,0.4766,-13.54,-20.00,73.78
924,194519516,0.4155,0.0234,0.4551,-9.09,-19.21,68.54
925,194524515,0.4189,0.0103,0.5063,-6.77,-18.54,62.74
926,194529516,0.5229,-0.0830,0.5420,-6.40,-17.93,57.26
927,194534516,0.6084,-0.1226,0.5684,-7.50,-17.50,51.71
928,194539516,0.6304,-0.1499,0.6108,-10.37,-17.38,45.91
929,194544515,0.6353,-0.1338,0.6890,-15.37,-17.20,40.06
930,194549516,0.6436,-0.1167,0.6533,-21.65,-17.20,33.84
931,194554516,0.6763,-0.2451,0.5972,-27.80,-17.68,27.80
932,194559516,0.6543,-0.3267,0.5938,-32.74,-18.60,24.51
933,194564515,0.5791,-0.1978,0.6211,-37.01,-19.21,22.01
934,194569516,0.5220,-0.1538,0.6226,-42.01,-19.33,18.96
935,194574516,0.5190,-0.1230,0.5708,-47.87,-20.00,15.24
936,194579517,0.5562,-0.0815,0.5723,-55.00,-20.61,10.18
937,194584515,0.6318,-0.0029,0.6265,-62.38,-21.40,3.60
938,194589517,0.6851,-0.1025,0.6821,-69.39,-22.26,-3.60
939,194594516,0.6968,-0.1274,0.6665,-76.34,-23.60,-10.18
940,194599516,0.6851,-0.0913,0.6362,-83.05,-24.70,-16.65
941,194604515,0.6689,-0.0635,0.6270,-89.33,-26.10,-23.23
942,194609516,0.7002,-0.0908,0.5947,-94.88,-27.99,-29.45
943,194614516,0.7451,-0.1406,0.5825,-99.63,-30.30,-34.76
944,194619516,0.7520,-0.1899,0.5317,-102.62,-32.74,-38.60
945,194624515,0.7104,-0.2769,0.5513,-103.11,-35.55,-40.73
946,194629516,0.7188,-0.3115,0.6094,-101.46,-38.35,-41.65
947,194634516,0.7388,-0.2471,0.5371,-97.99,-41.71,-42.01
948,194639516,0.7544,-0.2036,0.5068,-93.17,-45.49,-42.44
949,194644515,0.7583,-0.1699,0.5942,-87.68,-48.96,-42.87
950,194649517,0.7651,-0.1680,0.6260,-81.28,-52.13,-43.23
951,194654515,0.7681,-0.1802,0.5562,-74.21,-55.67,-43.72
952,194659514,0.7632,-0.1855,0.5337,-66.71,-59.63,-44.21
953,194664518,0.7505,-0.1851,0.5762,-58.96,-63.35,-44.51
954,194669515,0.7568,-0.1689,0.5522,-50.91,-67.38,-44.94
955,194674514,0.7461,-0.1484,0.4897,-42.68,-71.52,-45.49
956,194679518,0.7388,-0.1255,0.4814,-34.21,-75.98,-46.10
957,194684607,0.7397,-0.0942,0.4893,-25.55,-80.12,-46.83
958,194689517,0.7417,-0.0752,0.4590,-16.77,-84.39,-47.80
959,194694516,0.7407,-0.0537,0.4390,-8.11,-88.66,-48.96
960,194699516,0.7236,-0.0259,0.4331,0.30,-92.87,-50.30
961,194704518,0.7588,0.0112,0.4531,8.11,-96.95,-51.89
962,194709516,0.7710,0.0454,0.4351,15.30,-100.91,-53.72
963,194714516,0.7632,0.0889,0.4131,22.20,-104.76,-55.91
964,194719516,0.7598,0.1279,0.3984,28.29,-108.60,-58.29
965,194724516,0.7563,0.1416,0.3940,33.41,-112.56,-60.98
966,194729515,0.7656,0.1582,0.3667,37.56,-116.46,-63.66
967,194734516,0.7637,0.1646,0.3481,40.24,-120.06,-66.28
968,194739516,0.7632,0.1855,0.3389,42.01,-124.09,-69.09
969,194744516,0.7563,0.2007,0.3081,42.50,-127.80,-71.95
970,194749515,0.7529,0.2192,0.2764,42.20,-131.65,-74.88
971,194754514,0.7437,0.2251,0.2500,40.98,-135.43,-77.80
972,194759514,0.7285,0.2324,0.2476,39.09,-139.21,-80.73
973,194764516,0.7246,0.2388,0.2271,36.65,-142.87,-83.60
974,194769516,0.7173,0.2451,0.2075,33.66,-146.28,-86.40
975,194774514,0.7085,0.2534,0.1987,31.34,-148.84,-88.66
976,194779516,0.7002,0.2705,0.1768,27.56,-152.68,-91.95
977,194784516,0.6924,0.2812,0.1582,24.33,-155.67,-94.45
978,194789515,0.6890,0.2871,0.1484,21.77,-158.05,-96.46
979,194794516,0.6924,0.2988,0.1265,18.17,-161.52,-99.57
980,194799515,0.7065,0.3135,0.1187,16.16,-163.60,-101.46
981,194804517,0.7310,0.3447,0.0884,13.23,-166.77,-104.57
982,194809515,0.7485,0.3726,0.0679,11.83,-169.02,-106.71
983,194814516,0.7593,0.4038,0.0366,9.94,-172.26,-110.12
984,194819516,0.7739,0.4263,0.0078,8.90,-174.45,-112.38
985,194824516,0.7866,0.4502,-0.0269,7.99,-177.32,-115.43
986,194829515,0.7930,0.4702,-0.0493,7.44,-180.12,-118.41
987,194834516,0.7896,0.4800,-0.0835,7.13,-182.87,-121.46
988,194839515,0.7773,0.4873,-0.0996,7.13,-185.30,-124.45
989,194844516,0.7617,0.4878,-0.1113,7.38,-187.68,-127.07
990,194849515,0.7319,0.4771,-0.1172,7.68,-189.76,-129.57
991,194854516,0.6982,0.4683,-0.1191,8.17,-191.59,-131.77
992,194859514,0.6812,0.4648,-0.1284,9.02,-192.99,-133.78
993,194864514,0.6572,0.4668,-0.1406,10.24,-194.27,-135.73
994,194869516,0.6504,0.4829,-0.1660,11.28,-195.18,-136.89
995,194874516,0.6455,0.5059,-0.2041,12.74,-195.98,-138.35
996,194879517,0.6323,0.5283,-0.2402,14.70,-196.95,-139.70
997,194884515,0.6187,0.5430,-0.2720,16.59,-197.74,-140.85
998,194889516,0.6040,0.5542,-0.2847,18.60,-198.54,-142.13
999,194894516,0.5811,0.5610,-0.2979,20.37,-198.84,-143.17
1000,194899517,0.5610,0.5679,-0.3091,22.32,-198.96,-144.09
1001,194904515,0.5415,0.5854,-0.3086,24.33,-198.84,-144.88
1002,194909516,0.5220,0.6021,-0.3325,26.22,-198.60,-145.49
1003,194914516,0.5015,0.6138,-0.3496,28.29,-198.05,-146.04
1004,194919517,0.4712,0.6157,-0.3643,30.18,-197.32,-146.40
1005,194924515,0.4458,0.6069,-0.3726,32.13,-196.28,-146.52
1006,194929516,0.4292,0.6011,-0.3789,33.72,-195.24,-146.52
1007,194934516,0.4199,0.6099,-0.4146,35.06,-194.15,-146.22
1008,194939517,0.4160,0.6255,-0.4526,36.16,-192.93,-145.79
1009,194944515,0.4116,0.6348,-0.4961,37.13,-191.52,-145.30
1010,194949516,0.4038,0.6499,-0.5259,37.44,-190.24,-144.94
1011,194954516,0.3936,0.6641,-0.5459,37.68,-189.09,-144.51
1012,194959516,0.3896,0.6777,-0.5630,37.32,-187.80,-144.27
1013,194964514,0.3843,0.6948,-0.5786,36.46,-186.04,-144.02
1014,194969516,0.3745,0.7280,-0.6123,35.24,-184.09,-143.90
1015,194974518,0.3813,0.7705,-0.6499,33.78,-182.38,-143.96
1016,194979515,0.3975,0.8027,-0.6729,32.01,-180.67,-144.21
1017,194984516,0.3926,0.8203,-0.6709,30.18,-178.60,-144.39
1018,194989516,0.3979,0.8276,-0.6748,27.99,-176.46,-144.39
1019,194994516,0.3862,0.8379,-0.6797,25.79,-173.72,-144.21
1020,194999514,0.3784,0.8496,-0.6836,23.41,-170.61,-143.78
1021,195004516,0.3813,0.8501,-0.7041,20.79,-167.20,-143.11
1022,195009516,0.4014,0.8306,-0.7295,18.29,-163.72,-141.83
1023,195014516,0.4365,0.8179,-0.7388,16.40,-159.45,-139.45
1024,195019515,0.4688,0.8125,-0.7588,15.30,-154.70,-136.04
1025,195024516,0.5342,0.8218,-0.7974,15.37,-149.45,-131.40
1026,195029516,0.6089,0.8398,-0.8369,16.59,-143.96,-126.16
1027,195034516,0.7183,0.8730,-0.8838,18.90,-138.29,-120.37
1028,195039515,0.9263,0.8936,-0.9185,21.83,-132.13,-114.09
1029,195044516,1.1431,0.9404,-0.9565,25.43,-125.85,-107.62
1030,195049515,1.1670,1.0015,-1.0376,29.27,-119.63,-101.22
1031,195054516,0.8403,1.0620,-1.1196,33.23,-113.35,-95.00
1032,195059515,0.4185,1.1069,-1.1763,37.62,-106.46,-89.02
1033,195064516,0.2563,1.1245,-1.1992,42.44,-99.57,-83.11
1034,195069516,0.3003,1.0977,-1.1348,46.89,-92.20,-76.83
1035,195074516,0.3857,1.0732,-1.0488,50.18,-84.82,-70.67
1036,195079515,0.3945,1.0830,-0.9805,52.26,-77.93,-65.00
1037,195084514,0.3550,1.1123,-0.9795,53.17,-71.83,-60.06
1038,195089516,0.2969,1.1211,-0.9517,53.11,-66.52,-55.79
1039,195094516,0.2559,1.1138,-0.9224,51.89,-62.01,-51.71
1040,195099516,0.2378,1.0952,-0.8926,49.27,-57.68,-47.87
1041,195104518,0.2329,1.0737,-0.8716,45.18,-53.48,-44.21
1042,195109516,0.2378,1.0581,-0.8525,39.70,-50.00,-40.67
1043,195114517,0.2349,1.0527,-0.8604,33.35,-46.71,-37.50
1044,195119516,0.2285,1.0449,-0.8667,26.04,-43.96,-34.70
1045,195124516,0.2148,1.0410,-0.8745,18.29,-41.40,-32.26
1046,195129516,0.1948,1.0444,-0.8784,10.49,-39.21,-29.94
1047,195134516,0.1753,1.0396,-0.8823,2.74,-37.26,-27.93
1048,195139515,0.1660,1.0288,-0.8809,-4.45,-35.18,-26.10
1049,195144516,0.1675,1.0322,-0.8828,-11.16,-33.66,-24.39
1050,195149516,0.1694,1.0298,-0.8799,-17.07,-32.01,-22.80
1051,195154546,0.1655,1.0327,-0.8682,-21.65,-30.37,-21.28
1052,195159516,0.1665,1.0312,-0.8501,-25.12,-28.72,-19.76
1053,195164516,0.1577,1.0254,-0.8291,-27.38,-26.65,-18.29
1054,195169515,0.1499,1.0200,-0.8037,-28.48,-24.76,-16.71
1055,195174516,0.1494,1.0034,-0.7900,-28.48,-22.32,-15.00
1056,195179515,0.1460,0.9897,-0.7666,-27.56,-20.37,-13.23
1057,195184515,0.1455,0.9639,-0.7495,-26.04,-17.93,-11.46
1058,195189516,0.1406,0.9541,-0.7344,-23.72,-15.49,-9.57
1059,195195034,0.1396,0.9414,-0.7202,-20.12,-12.74,-7.13
1060,195199516,0.1382,0.9351,-0.7085,-17.32,-10.85,-5.49
1061,195204516,0.1357,0.9229,-0.6963,-13.48,-8.29,-3.35
1062,195209517,0.1401,0.9106,-0.6846,-9.15,-6.04,-1.40
1063,195214515,0.1484,0.9033,-0.6694,-4.70,-3.78,0.79
1064,195219516,0.1499,0.8892,-0.6631,-0.06,-1.46,2.93
1065,195224516,0.1523,0.8799,-0.6450,4.39,0.55,5.06
1066,195229516,0.1538,0.8657,-0.6421,9.02,2.68,7.13
1067,195234515,0.1538,0.8545,-0.6279,13.11,4.57,9.15
1068,195239517,0.1616,0.8442,-0.6211,17.01,6.52,11.04
1069,195244516,0.1665,0.8364,-0.6064,20.37,7.93,12.62
1070,195249516,0.1753,0.8267,-0.6030,23.48,9.33,14.09
1071,195254515,0.1758,0.8247,-0.5913,26.04,10.37,15.30
1072,195259517,0.1855,0.8179,-0.5879,28.17,11.52,16.28
1073,195264516,0.1860,0.8145,-0.5747,29.82,12.50,16.95
1074,195269517,0.1934,0.8076,-0.5737,30.85,13.29,17.44
1075,195274515,0.1948,0.8076,-0.5684,31.71,14.09,17.74
1076,195279517,0.2046,0.8008,-0.5591,31.83,14.45,18.05
1077,195284516,0.2041,0.7974,-0.5679,31.77,14.82,18.11
1078,195289516,0.2085,0.7964,-0.5649,31.34,15.24,18.11
1079,195294515,0.2124,0.7847,-0.5610,30.49,15.24,18.05
1080,195299517,0.2148,0.7778,-0.5552,29.27,15.37,17.99
1081,195304595,0.2241,0.7686,-0.5454,27.56,15.37,17.74
1082,195309516,0.2280,0.7617,-0.5469,25.79,15.18,17.74
1083,195314515,0.2334,0.7559,-0.5479,23.78,15.00,17.38
1084,195319516,0.2334,0.7520,-0.5410,21.52,14.70,17.26
1085,195324516,0.2422,0.7441,-0.5269,19.27,14.51,17.01
1086,195329516,0.2432,0.7378,-0.5312,16.95,14.09,16.77
1087,195334515,0.2451,0.7363,-0.5269,14.76,13.78,16.52
1088,195339516,0.2471,0.7314,-0.5293,12.56,13.41,16.40
1089,195344516,0.2476,0.7285,-0.5303,10.67,12.99,16.10
1090,195349542,0.2422,0.7231,-0.5239,8.96,12.74,16.04
1091,195354515,0.2456,0.7231,-0.5225,7.62,12.44,15.91
1092,195359517,0.2412,0.7173,-0.5156,6.46,12.26,15.79
1093,195364516,0.2437,0.7188,-0.5190,5.67,12.13,15.73
1094,195370152,0.2466,0.7148,-0.5205,5.24,12.32,15.73
1095,195374518,0.2432,0.7183,-0.5195,4.82,12.26,15.55
1096,195379516,0.2446,0.7148,-0.5146,4.63,12.13,15.37
1097,195384516,0.2446,0.7119,-0.5107,4.57,12.13,15.30
1098,195389516,0.2505,0.7070,-0.5103,4.27,12.32,15.30
1099,195394723,0.2495,0.7085,-0.5171,4.15,12.38,15.18
1100,195399516,0.2515,0.7065,-0.5103,3.96,12.56,15.00
1101,195404558,0.2554,0.7070,-0.5093,3.78,12.62,15.00
1102,195409516,0.2524,0.7026,-0.5024,3.60,12.56,14.63
1103,195414515,0.2510,0.7090,-0.5024,3.60,12.80,14.45
1104,195419516,0.2510,0.7090,-0.5063,3.41,12.99,14.21
1105,195424515,0.2510,0.7114,-0.5039,3.60,13.17,13.96
1106,195429517,0.2539,0.7119,-0.4917,3.84,13.41,13.60
1107,195434516,0.2520,0.7100,-0.4941,3.96,13.72,13.35
1108,195439516,0.2568,0.7109,-0.4946,4.15,13.84,12.99
1109,195444515,0.2559,0.7114,-0.5000,4.51,13.84,12.56
1110,195449516,0.2622,0.7129,-0.4976,4.88,14.09,12.13
1111,195454516,0.2607,0.7129,-0.5015,5.24,14.15,11.77
1112,195459516,0.2593,0.7134,-0.4985,5.43,14.27,11.28
1113,195464515,0.2637,0.7173,-0.4976,5.73,14.21,10.85
1114,195469516,0.2568,0.7104,-0.4961,5.98,14.33,10.43
1115,195474516,0.2622,0.7085,-0.4956,6.04,14.51,10.00
1116,195479516,0.2617,0.7061,-0.4937,6.04,14.51,9.57
1117,195484515,0.2637,0.7075,-0.4863,5.91,14.70,9.21
1118,195489516,0.2627,0.7061,-0.4868,5.73,14.70,8.60
1119,195494515,0.2646,0.7075,-0.4907,5.49,14.70,8.05
1120,195499517,0.2637,0.7119,-0.4922,5.18,14.88,7.74
1121,195504801,0.2642,0.7158,-0.4902,5.12,15.06,7.13
1122,195509517,0.2627,0.7236,-0.4844,4.70,15.30,6.59
1123,195514516,0.2607,0.7173,-0.4741,4.70,15.43,6.10
1124,195519516,0.2598,0.7168,-0.4824,4.45,15.73,5.61
1125,195524515,0.2651,0.7153,-0.4717,3.96,16.04,5.06
1126,195529516,0.2607,0.7124,-0.4736,3.29,16.34,4.76
1127,195534516,0.2646,0.7090,-0.4683,2.68,16.59,4.33
1128,195539517,0.2676,0.7065,-0.4717,1.83,16.83,3.84
1129,195544515,0.2690,0.7100,-0.4663,0.98,17.07,3.41
1130,195549516,0.2729,0.7109,-0.4751,0.06,17.13,2.99
1131,195554515,0.2725,0.7104,-0.4775,-0.91,17.20,2.68
1132,195559517,0.2739,0.7095,-0.4717,-1.77,17.26,2.07
1133,195564516,0.2749,0.7134,-0.4741,-2.62,17.32,1.77
1134,195569516,0.2759,0.7134,-0.4756,-3.60,17.26,1.28
1135,195574515,0.2798,0.7139,-0.4746,-4.33,17.32,0.85
1136,195579517,0.2817,0.7119,-0.4658,-5.12,17.26,0.37
1137,195584516,0.2822,0.7104,-0.4644,-5.79,17.20,0.00
1138,195589516,0.2852,0.7085,-0.4600,-6.34,17.32,-0.49
1139,195594515,0.2861,0.7104,-0.4600,-6.77,17.26,-0.73
1140,195599516,0.2886,0.7168,-0.4653,-7.38,17.26,-1.22
1141,195604516,0.2905,0.7207,-0.4712,-7.56,17.01,-1.52
1142,195609517,0.2954,0.7236,-0.4702,-7.62,16.95,-1.95
1143,195614515,0.2954,0.7280,-0.4609,-7.44,16.77,-2.20
1144,195619516,0.2930,0.7285,-0.4658,-7.13,16.89,-2.50
1145,195624516,0.2910,0.7300,-0.4648,-6.65,16.65,-2.62
1146,195629516,0.2949,0.7310,-0.4575,-6.16,16.83,-2.93
1147,195634515,0.2998,0.7271,-0.4595,-5.55,16.83,-2.87
1148,195639517,0.2954,0.7256,-0.4575,-5.00,16.83,-2.93
1149,195644516,0.2969,0.7261,-0.4639,-4.45,16.83,-2.93
1150,195649516,0.3022,0.7271,-0.4619,-4.02,16.89,-2.99
1151,195654515,0.3013,0.7373,-0.4590,-3.54,16.71,-2.99
1152,195659516,0.3047,0.7334,-0.4580,-3.17,16.65,-2.99
1153,195664973,0.3076,0.7339,-0.4614,-2.74,16.52,-3.05
1154,195669517,0.2979,0.7344,-0.4624,-2.38,16.52,-2.99
1155,195674516,0.3018,0.7412,-0.4600,-2.13,16.22,-3.11
1156,195679516,0.3047,0.7393,-0.4634,-1.89,16.16,-3.05
1157,195684515,0.3062,0.7397,-0.4570,-1.71,16.04,-3.05
1158,195689517,0.3105,0.7441,-0.4536,-1.59,15.85,-3.17
1159,195694516,0.3086,0.7476,-0.4585,-1.52,15.49,-3.23
1160,195699516,0.3066,0.7441,-0.4580,-1.40,15.24,-3.11
1161,195704515,0.3091,0.7456,-0.4546,-1.40,14.94,-3.29
1162,195709517,0.3110,0.7446,-0.4565,-1.28,14.88,-3.17
1163,195714516,0.3159,0.7471,-0.4546,-1.34,14.51,-3.17
1164,195719516,0.3140,0.7480,-0.4429,-1.40,14.09,-3.11
1165,195724515,0.3145,0.7446,-0.4473,-1.52,13.96,-2.93
1166,195729516,0.3140,0.7456,-0.4521,-1.65,13.72,-2.99
1167,195734516,0.3115,0.7437,-0.4521,-2.07,13.35,-2.87
1168,195739517,0.3071,0.7407,-0.4536,-2.44,12.99,-2.62
1169,195744515,0.3115,0.7412,-0.4565,-2.74,12.68,-2.50
1170,195749516,0.3125,0.7407,-0.4497,-3.29,12.44,-2.32
1171,195754516,0.3105,0.7427,-0.4492,-3.60,12.01,-2.20
1172,195759517,0.3145,0.7412,-0.4502,-3.84,11.71,-2.01
1173,195764515,0.3110,0.7461,-0.4517,-4.02,11.34,-1.83
1174,195769516,0.3174,0.7422,-0.4458,-4.27,10.98,-1.65
1175,195774516,0.3145,0.7437,-0.4497,-4.45,10.55,-1.46
1176,195779516,0.3154,0.7456,-0.4448,-4.39,10.18,-1.40
1177,195784515,0.3159,0.7485,-0.4434,-4.21,9.76,-1.10
1178,195789516,0.3174,0.7505,-0.4443,-4.15,9.33,-1.04
1179,195794516,0.3184,0.7520,-0.4443,-3.84,8.84,-0.91
1180,195799516,0.3140,0.7534,-0.4409,-3.60,8.41,-0.85
1181,195804515,0.3145,0.7529,-0.4414,-3.17,8.11,-0.73
1182,195809517,0.3174,0.7510,-0.4468,-3.05,7.56,-0.61
1183,195814516,0.3174,0.7505,-0.4385,-2.68,7.20,-0.49
1184,195819516,0.3179,0.7490,-0.4487,-2.32,6.83,-0.37
