# skilleye imu stream v1
# device=xiao_esp32c6 imu=mpu6050 addr=0x68
# rate_hz=200 accel_range_g=16 gyro_range_dps=2000 dlpf_hz=94
# units: accel in g, gyro in deg/s, t_us in microseconds since boot (monotonic)
# no shared clock with the camera -- tap the racket once before each take
# so both recordings share a spike to align on
seq,t_us,ax,ay,az,gx,gy,gz
0,407109787,0.8062,0.5747,0.2329,-1.10,3.54,5.06
1,407114789,0.8091,0.5737,0.2388,-0.55,3.72,5.06
2,407119789,0.8071,0.5693,0.2363,-0.30,3.96,4.88
3,407124787,0.8062,0.5679,0.2383,0.12,4.15,4.82
4,407129785,0.8057,0.5654,0.2378,0.61,4.45,4.70
5,407134938,0.8027,0.5625,0.2402,1.16,4.63,4.33
6,407139787,0.8013,0.5581,0.2393,1.65,4.88,4.15
7,407144786,0.8008,0.5557,0.2388,2.01,4.94,4.02
8,407149787,0.7998,0.5532,0.2407,2.44,5.12,3.72
9,407154785,0.7954,0.5454,0.2368,2.80,5.12,3.54
10,407159787,0.8018,0.5454,0.2358,3.11,5.24,3.29
11,407165076,0.7993,0.5410,0.2363,3.35,5.43,3.05
12,407169787,0.8018,0.5386,0.2378,3.60,5.37,2.80
13,407175315,0.7988,0.5361,0.2407,4.02,5.43,2.56
14,407179789,0.8027,0.5400,0.2378,4.21,5.43,2.26
15,407184786,0.8013,0.5410,0.2441,4.57,5.73,1.83
16,407189787,0.8052,0.5454,0.2402,5.00,5.73,1.52
17,407194786,0.8110,0.5488,0.2412,5.30,5.91,1.04
18,407199787,0.8149,0.5493,0.2373,5.61,6.10,0.79
19,407204787,0.8120,0.5586,0.2378,6.16,6.10,0.43
20,407209785,0.8120,0.5586,0.2412,6.40,6.34,0.00
21,407214787,0.8145,0.5615,0.2437,6.89,6.59,-0.30
22,407219787,0.8140,0.5625,0.2397,7.07,6.52,-0.55
23,407224785,0.8135,0.5635,0.2441,7.38,6.65,-0.67
24,407229787,0.8159,0.5708,0.2505,7.74,6.65,-0.85
25,407234785,0.8154,0.5742,0.2485,7.93,6.89,-1.04
26,407239847,0.8145,0.5762,0.2510,7.93,7.01,-1.28
27,407244786,0.8159,0.5776,0.2510,7.93,7.01,-1.34
28,407249787,0.8213,0.5728,0.2500,7.87,7.26,-1.34
29,407254785,0.8184,0.5757,0.2524,7.68,7.38,-1.34
30,407259785,0.8198,0.5762,0.2563,7.50,7.56,-1.34
31,407264786,0.8228,0.5850,0.2598,7.32,7.56,-1.34
32,407269789,0.8203,0.5854,0.2627,6.95,7.62,-1.22
33,407274787,0.8237,0.5898,0.2607,6.65,7.68,-1.10
34,407279786,0.8213,0.5923,0.2646,6.28,7.87,-1.10
35,407284824,0.8208,0.5918,0.2690,5.85,7.99,-0.91
36,407289787,0.8218,0.6001,0.2661,5.49,8.05,-0.85
37,407294785,0.8174,0.6021,0.2656,5.12,8.05,-0.85
38,407299785,0.8174,0.6060,0.2725,4.70,7.99,-0.79
39,407304785,0.8105,0.6035,0.2729,4.39,8.11,-0.61
40,407309785,0.8164,0.6055,0.2700,3.96,7.99,-0.43
41,407314789,0.8096,0.6069,0.2700,3.54,7.93,-0.37
42,407319786,0.8052,0.6069,0.2744,2.99,7.80,-0.18
43,407324785,0.8027,0.6108,0.2725,2.56,7.87,0.00
44,407329787,0.8022,0.6089,0.2739,2.01,7.38,0.18
45,407334785,0.7993,0.6123,0.2744,1.52,7.50,0.30
46,407339785,0.7964,0.6099,0.2803,1.04,7.44,0.43
47,407344785,0.7988,0.6064,0.2710,0.61,7.13,0.61
48,407349785,0.7949,0.6108,0.2856,0.24,6.95,0.73
49,407354787,0.7939,0.6104,0.2812,-0.18,6.89,0.85
50,407359787,0.7925,0.6108,0.2798,-0.30,6.59,0.98
51,407364787,0.7891,0.6094,0.2837,-0.37,6.59,0.98
52,407369785,0.7920,0.6089,0.2812,-0.43,6.46,1.16
53,407374785,0.7964,0.6089,0.2856,-0.37,6.40,1.34
54,407379787,0.7910,0.6099,0.2773,-0.18,6.28,1.40
55,407384785,0.7930,0.6128,0.2832,0.12,6.16,1.46
56,407389787,0.7959,0.6128,0.2832,0.37,5.98,1.52
57,407394786,0.7935,0.6152,0.2803,0.61,5.85,1.71
58,407399787,0.7983,0.6138,0.2852,1.10,5.67,1.83
59,407404785,0.7974,0.6089,0.2808,1.65,5.43,2.07
60,407409785,0.7988,0.6099,0.2881,2.07,5.30,2.32
61,407414787,0.7935,0.6079,0.2881,2.62,5.00,2.56
62,407419787,0.8003,0.6084,0.2842,3.11,4.88,2.80
63,407424787,0.8022,0.6069,0.2769,3.66,4.82,3.05
64,407429786,0.8062,0.6021,0.2822,4.09,4.57,3.17
65,407434785,0.8115,0.6016,0.2837,4.63,4.51,3.35
66,407439785,0.8096,0.6050,0.2812,5.06,4.39,3.66
67,407445357,0.8120,0.6030,0.2847,5.43,4.33,3.84
68,407449787,0.8145,0.6040,0.2832,5.91,4.27,4.15
69,407454787,0.8149,0.6055,0.2832,6.22,4.09,4.27
70,407459789,0.8125,0.6030,0.2793,6.46,4.27,4.33
71,407464787,0.8105,0.5996,0.2891,6.65,4.21,4.39
72,407469787,0.8101,0.6006,0.2881,6.83,4.09,4.51
73,407475307,0.8149,0.6006,0.2871,6.71,4.09,4.63
74,407479787,0.8115,0.5991,0.2871,6.77,4.15,4.70
75,407484786,0.8086,0.5957,0.2930,6.71,3.96,4.70
76,407489788,0.8091,0.5903,0.2842,6.46,3.78,4.76
77,407494785,0.8071,0.5957,0.2827,6.28,3.72,4.82
78,407499789,0.7993,0.5898,0.2891,5.98,3.66,4.88
79,407504786,0.8081,0.5903,0.2891,5.91,3.29,4.94
80,407509787,0.8071,0.5864,0.2876,5.55,3.35,4.88
81,407514785,0.8076,0.5923,0.2886,5.30,3.05,4.82
82,407519787,0.8066,0.5889,0.2876,5.18,2.99,4.76
83,407524787,0.8066,0.5854,0.2900,4.94,2.93,4.63
84,407529785,0.8091,0.5859,0.2881,4.82,2.56,4.51
85,407534787,0.8062,0.5845,0.2886,4.70,2.38,4.27
86,407539786,0.8037,0.5854,0.2891,4.70,2.13,4.02
87,407544785,0.8057,0.5791,0.2930,4.76,2.01,3.78
88,407549787,0.8047,0.5786,0.2944,4.82,1.77,3.54
89,407555102,0.8037,0.5771,0.2910,4.82,1.52,3.23
90,407559787,0.8071,0.5737,0.2974,4.88,1.34,2.99
91,407564785,0.8052,0.5742,0.2983,5.00,0.98,2.56
92,407569787,0.8081,0.5708,0.2964,5.12,0.85,2.26
93,407574787,0.8086,0.5728,0.3037,5.30,0.61,1.95
94,407579787,0.8135,0.5713,0.3027,5.49,0.24,1.52
95,407584785,0.8130,0.5684,0.2974,5.73,-0.06,1.28
96,407589789,0.8091,0.5693,0.2988,6.04,-0.12,0.98
97,407594786,0.8149,0.5718,0.2944,6.16,-0.24,0.67
98,407599789,0.8135,0.5693,0.2935,6.28,-0.43,0.37
99,407604785,0.8213,0.5708,0.2959,6.40,-0.55,0.12
100,407609785,0.8252,0.5728,0.2910,6.34,-0.49,-0.12
101,407614787,0.8262,0.5698,0.2847,6.28,-0.61,-0.24
102,407619788,0.8276,0.5659,0.2886,5.85,-0.55,-0.37
103,407624787,0.8252,0.5625,0.2842,5.18,-0.49,-0.49
104,407629786,0.8247,0.5615,0.2837,4.51,-0.30,-0.61
105,407634787,0.8203,0.5610,0.2803,3.60,0.00,-0.67
106,407639785,0.8159,0.5566,0.2822,2.74,0.18,-0.67
107,407644785,0.8193,0.5557,0.2871,1.59,0.55,-0.79
108,407649787,0.8149,0.5474,0.2866,0.37,0.98,-0.79
109,407654787,0.8149,0.5469,0.2764,-1.04,1.34,-0.91
110,407659787,0.8145,0.5469,0.2793,-2.38,1.77,-0.98
111,407664787,0.8159,0.5454,0.2793,-3.72,2.20,-1.10
112,407669787,0.8169,0.5356,0.2754,-5.37,2.44,-1.16
113,407674923,0.8145,0.5347,0.2676,-6.83,2.80,-1.46
114,407679789,0.8149,0.5293,0.2666,-8.48,3.17,-1.71
115,407684786,0.8154,0.5254,0.2656,-9.94,3.35,-1.89
116,407689787,0.8125,0.5200,0.2705,-11.40,3.66,-2.26
117,407694786,0.8062,0.5186,0.2661,-12.93,3.60,-2.50
118,407699789,0.8076,0.5142,0.2705,-14.51,3.84,-2.74
119,407705047,0.8047,0.5093,0.2759,-15.98,3.84,-3.11
120,407709787,0.8013,0.5054,0.2749,-17.44,3.90,-3.54
121,407714786,0.7993,0.5024,0.2817,-18.78,3.96,-4.02
122,407719787,0.7974,0.4990,0.2739,-20.18,4.15,-4.45
123,407724785,0.7964,0.5010,0.2749,-21.10,4.15,-4.94
124,407729787,0.7930,0.4990,0.2798,-22.56,4.27,-5.49
125,407734786,0.7998,0.4951,0.2798,-23.48,4.15,-5.91
126,407740696,0.7974,0.4941,0.2749,-24.76,4.27,-6.46
127,407744785,0.7935,0.4937,0.2764,-25.49,4.27,-6.77
128,407749785,0.7944,0.4961,0.2764,-26.34,4.27,-7.13
129,407754787,0.7871,0.4961,0.2827,-26.83,4.51,-7.56
130,407759787,0.7852,0.4946,0.2847,-27.50,4.88,-7.80
131,407764787,0.7803,0.4917,0.2935,-27.87,5.06,-7.93
132,407769788,0.7793,0.4883,0.2881,-28.41,5.49,-7.99
133,407774787,0.7773,0.4878,0.2915,-28.90,5.91,-8.05
134,407779787,0.7832,0.4849,0.2935,-29.63,6.28,-8.05
135,407784787,0.7817,0.4810,0.3047,-30.18,6.59,-8.11
136,407789786,0.7837,0.4785,0.2988,-30.98,7.01,-8.17
137,407794787,0.7886,0.4756,0.3057,-31.95,7.50,-8.23
138,407799787,0.7915,0.4746,0.3071,-32.62,8.05,-8.35
139,407804787,0.7949,0.4785,0.3140,-33.66,8.72,-8.48
140,407809787,0.7896,0.4854,0.3198,-34.63,9.09,-8.78
141,407814786,0.7959,0.4927,0.3262,-35.61,9.63,-9.02
142,407819787,0.7954,0.4902,0.3359,-36.46,10.18,-9.45
143,407824785,0.7979,0.4956,0.3447,-37.44,10.37,-9.88
144,407829787,0.7998,0.5059,0.3540,-38.35,11.04,-10.37
145,407834786,0.8032,0.5020,0.3550,-39.39,11.28,-10.85
146,407839787,0.8047,0.5093,0.3687,-40.37,11.59,-11.40
147,407844785,0.8047,0.5132,0.3638,-41.40,12.01,-12.13
148,407849785,0.8037,0.5161,0.3765,-42.32,12.26,-12.62
149,407854785,0.7983,0.5122,0.3813,-43.66,12.32,-13.11
150,407859787,0.7949,0.5137,0.3945,-44.88,12.32,-13.60
151,407864786,0.7876,0.5044,0.3950,-45.98,12.50,-13.96
152,407869787,0.7793,0.5034,0.4062,-47.13,12.50,-14.27
153,407874789,0.7720,0.5020,0.4023,-48.48,12.44,-14.45
154,407879785,0.7681,0.4995,0.4072,-49.70,12.20,-14.51
155,407884787,0.7632,0.5010,0.4233,-50.79,11.95,-14.70
156,407889787,0.7529,0.4932,0.4194,-52.01,11.52,-14.76
157,407894785,0.7529,0.4985,0.4229,-52.80,11.10,-14.57
158,407899788,0.7524,0.5039,0.4282,-53.66,10.61,-14.51
159,407904785,0.7534,0.4966,0.4312,-54.21,10.30,-14.27
160,407909789,0.7495,0.4951,0.4302,-54.51,9.76,-13.90
161,407914786,0.7451,0.4961,0.4424,-54.45,8.96,-13.48
162,407919786,0.7368,0.5010,0.4404,-54.27,8.60,-13.05
163,407924787,0.7378,0.5034,0.4434,-53.66,8.05,-12.38
164,407929785,0.7368,0.5112,0.4434,-52.74,7.74,-11.59
165,407934787,0.7319,0.5200,0.4463,-51.59,7.13,-10.91
166,407939787,0.7290,0.5273,0.4390,-50.06,6.89,-10.37
167,407944787,0.7344,0.5400,0.4409,-48.29,6.28,-9.70
168,407949785,0.7402,0.5498,0.4434,-46.46,5.98,-8.96
169,407954785,0.7441,0.5591,0.4346,-44.39,5.55,-8.48
170,407959789,0.7466,0.5693,0.4209,-42.32,4.88,-7.93
171,407964787,0.7441,0.5781,0.4351,-40.18,4.57,-7.50
172,407969787,0.7437,0.5898,0.4326,-37.74,4.33,-7.20
173,407974788,0.7446,0.5986,0.4209,-35.18,3.66,-6.95
174,407979786,0.7397,0.6069,0.4287,-32.56,3.29,-6.77
175,407984787,0.7363,0.6138,0.4331,-29.82,3.05,-6.65
176,407989787,0.7344,0.6230,0.4414,-27.01,2.62,-6.40
177,407994789,0.7339,0.6216,0.4482,-24.09,2.32,-6.34
178,407999787,0.7256,0.6230,0.4443,-21.22,1.95,-6.46
179,408004785,0.7256,0.6250,0.4492,-18.48,1.71,-6.59
180,408009787,0.7271,0.6240,0.4492,-15.85,1.34,-6.71
181,408015244,0.7241,0.6196,0.4409,-13.11,0.85,-6.95
182,408019787,0.7231,0.6162,0.4336,-11.59,0.43,-7.01
183,408024826,0.7227,0.6187,0.4302,-9.70,-0.24,-7.20
184,408029787,0.7261,0.6147,0.4292,-8.41,-0.73,-7.50
185,408034786,0.7192,0.6094,0.4287,-7.32,-1.52,-7.74
186,408039787,0.7124,0.6108,0.4272,-6.46,-2.38,-7.99
187,408044785,0.7090,0.6177,0.4277,-5.67,-3.05,-8.23
188,408049787,0.7100,0.6201,0.4297,-5.30,-3.78,-8.54
189,408054785,0.7070,0.6191,0.4331,-4.94,-4.82,-8.78
190,408059787,0.7080,0.6172,0.4302,-4.57,-5.67,-9.02
191,408064787,0.7031,0.6152,0.4360,-4.39,-6.40,-9.27
192,408069787,0.7036,0.6216,0.4380,-4.27,-7.26,-9.57
193,408074785,0.7051,0.6270,0.4409,-4.15,-8.05,-9.82
194,408079787,0.7031,0.6401,0.4355,-3.96,-9.02,-10.06
195,408084787,0.6992,0.6479,0.4390,-3.60,-9.88,-10.18
196,408089789,0.7017,0.6528,0.4463,-3.17,-10.67,-10.55
197,408094787,0.6953,0.6558,0.4487,-2.32,-11.34,-10.73
198,408099787,0.6958,0.6602,0.4570,-1.52,-11.77,-10.91
199,408104787,0.6870,0.6660,0.4639,-0.49,-12.38,-10.85
200,408109787,0.6826,0.6670,0.4580,0.73,-12.80,-11.10
201,408114787,0.6846,0.6694,0.4536,2.01,-13.29,-11.10
202,408119787,0.6851,0.6704,0.4570,3.60,-13.78,-11.16
203,408124788,0.6807,0.6689,0.4536,5.37,-14.33,-10.85
204,408129786,0.6733,0.6758,0.4468,7.38,-14.76,-10.79
205,408134787,0.6675,0.6772,0.4438,9.51,-15.30,-10.55
206,408139786,0.6660,0.6826,0.4600,11.89,-15.91,-10.18
207,408144787,0.6636,0.6831,0.4531,14.33,-16.28,-9.94
208,408149787,0.6602,0.6953,0.4517,16.77,-16.71,-9.45
209,408154786,0.6543,0.6963,0.4565,19.45,-17.26,-8.96
210,408159865,0.6528,0.7046,0.4565,21.89,-17.56,-8.66
211,408164787,0.6582,0.7163,0.4492,24.51,-17.68,-8.17
212,408169786,0.6577,0.7217,0.4531,27.07,-17.93,-7.80
213,408174787,0.6592,0.7329,0.4473,29.70,-18.35,-7.32
214,408179787,0.6616,0.7437,0.4473,32.38,-18.48,-6.77
215,408184788,0.6631,0.7539,0.4517,34.70,-18.66,-6.40
216,408189785,0.6675,0.7554,0.4404,36.71,-18.90,-5.91
217,408194791,0.6660,0.7622,0.4380,38.48,-18.84,-5.30
218,408199787,0.6689,0.7612,0.4390,40.00,-19.09,-4.88
219,408204787,0.6748,0.7681,0.4346,41.04,-19.15,-4.45
220,408209787,0.6743,0.7661,0.4209,41.77,-19.15,-3.90
221,408215036,0.6729,0.7715,0.4263,42.07,-19.09,-3.48
222,408219787,0.6733,0.7729,0.4248,41.65,-19.02,-2.99
223,408224787,0.6699,0.7661,0.4185,41.04,-19.02,-2.50
224,408229787,0.6699,0.7593,0.4219,40.00,-19.09,-1.89
225,408234786,0.6704,0.7529,0.4224,38.41,-18.84,-1.52
226,408239787,0.6621,0.7437,0.4253,36.40,-18.54,-0.98
227,408244787,0.6641,0.7412,0.4253,33.96,-18.29,-0.49
228,408249787,0.6646,0.7354,0.4160,31.16,-17.74,0.06
229,408254785,0.6655,0.7271,0.4160,28.05,-17.38,0.61
230,408259787,0.6621,0.8086,0.3506,24.94,-17.50,0.30
231,408264787,0.6675,0.7793,0.3140,22.56,-19.09,-1.77
232,408269786,0.7007,0.7520,0.2637,20.24,-21.71,-4.33
233,408274785,0.7212,0.7485,0.3652,17.44,-23.96,-6.46
234,408279787,0.7275,0.6587,0.5005,14.15,-25.12,-8.23
235,408284785,0.7188,0.6196,0.4526,10.30,-25.73,-9.09
236,408289787,0.6909,0.6250,0.4424,6.22,-26.22,-10.06
237,408294788,0.6616,0.6133,0.5337,2.13,-26.22,-11.22
238,408299787,0.6411,0.6240,0.5615,-2.26,-25.49,-12.56
239,408304786,0.6367,0.6377,0.5244,-6.77,-24.70,-14.33
240,408309787,0.6431,0.6475,0.5234,-11.40,-23.66,-16.22
241,408314792,0.6411,0.6528,0.5630,-16.04,-22.32,-18.54
242,408319787,0.6343,0.6558,0.5562,-20.67,-20.73,-21.16
243,408324786,0.6304,0.6533,0.5317,-25.00,-19.02,-24.02
244,408329787,0.6104,0.5166,0.4976,-29.51,-17.26,-26.52
245,408334787,0.6274,0.3989,0.4854,-35.24,-16.16,-26.28
246,408339786,0.5728,0.5581,0.4824,-40.00,-15.24,-26.59
247,408344787,0.5684,0.4971,0.4541,-43.96,-14.27,-27.44
248,408349785,0.5610,0.4937,0.4648,-47.68,-13.48,-27.44
249,408354787,0.5498,0.5059,0.4863,-50.91,-12.87,-27.32
250,408359787,0.5439,0.4961,0.5010,-54.15,-12.32,-27.32
251,408364787,0.5508,0.4556,0.5088,-57.01,-11.83,-27.26
252,408369786,0.5654,0.4668,0.5151,-59.21,-11.34,-27.38
253,408374787,0.6221,0.5742,0.4888,-60.79,-10.91,-27.93
254,408379786,0.6401,0.5645,0.5342,-63.78,-10.43,-29.63
255,408384788,0.6191,0.5566,0.6035,-67.99,-9.51,-30.98
256,408389786,0.6177,0.5557,0.6987,-73.66,-7.99,-33.05
257,408394787,0.5962,0.5337,0.7285,-81.59,-6.10,-35.06
258,408399786,0.6060,0.5244,0.6968,-90.18,-3.96,-37.20
259,408404785,0.6221,0.5122,0.6396,-99.33,-2.26,-39.33
260,408409788,0.6323,0.4932,0.5767,-109.15,-0.98,-41.22
261,408414789,0.6255,0.5254,0.5488,-120.49,-0.12,-43.35
262,408419786,0.6426,0.5376,0.4619,-132.68,0.43,-45.61
263,408424891,0.6382,0.5195,0.3818,-145.18,-0.18,-48.11
264,408429787,0.6489,0.4888,0.2925,-158.05,-1.71,-50.43
265,408434788,0.6602,0.4810,0.2974,-171.10,-3.48,-52.80
266,408439787,0.6572,0.5151,0.3838,-183.84,-4.57,-55.06
267,408444788,0.6396,0.5791,0.4263,-196.10,-4.51,-57.68
268,408449787,0.6309,0.6406,0.4365,-207.13,-3.96,-60.61
269,408454787,0.6216,0.6797,0.4595,-216.65,-2.93,-63.72
270,408459789,0.6216,0.6831,0.5000,-223.96,-1.34,-66.34
271,408464787,0.6392,0.5483,0.6221,-230.06,0.67,-68.54
272,408469787,0.6714,0.4639,0.6387,-236.22,3.17,-69.70
273,408474786,0.6450,0.4214,0.5913,-241.28,5.12,-70.73
274,408479787,0.6055,0.4341,0.6343,-245.06,7.26,-71.46
275,408484787,0.5742,0.4829,0.6938,-247.99,9.94,-72.01
276,408489787,0.5640,0.5073,0.6748,-250.06,12.44,-72.62
277,408495058,0.5801,0.5264,0.6519,-251.40,14.51,-72.80
278,408499787,0.6001,0.5220,0.6772,-252.44,16.40,-72.68
279,408504787,0.6006,0.5117,0.6924,-253.48,18.23,-72.44
280,408509788,0.5806,0.4976,0.7007,-254.02,20.06,-72.13
281,408514786,0.5571,0.5103,0.7148,-254.33,21.52,-71.83
282,408519788,0.5015,0.5713,0.7754,-254.15,22.68,-71.52
283,408524787,0.5181,0.6392,0.8540,-253.05,23.78,-71.10
284,408529787,0.4868,0.6460,0.8833,-251.16,24.21,-69.94
285,408534786,0.4941,0.6963,0.9346,-248.78,24.27,-68.35
286,408539787,0.5464,0.6777,0.9980,-245.55,23.66,-66.04
287,408544788,0.5986,0.6831,1.0518,-241.28,22.38,-63.29
288,408549787,0.6255,0.6875,1.1182,-235.55,20.55,-60.06
289,408554787,0.6392,0.6709,1.2222,-227.01,18.35,-56.59
290,408559787,0.6460,0.6323,1.2983,-215.18,15.67,-53.05
291,408564786,0.6440,0.5933,1.3066,-200.49,12.32,-49.51
292,408569787,0.6392,0.5591,1.2778,-184.57,8.29,-46.28
293,408574786,0.6333,0.5317,1.2690,-168.17,4.15,-43.66
294,408579787,0.6152,0.4922,1.2725,-152.13,0.00,-41.46
295,408584787,0.5625,0.4199,1.2471,-136.95,-4.27,-39.57
296,408589785,0.5171,0.3721,1.2456,-123.41,-8.29,-38.23
297,408594787,0.5063,0.3354,1.2666,-112.07,-12.01,-37.26
298,408599786,0.5063,0.2939,1.2788,-102.93,-15.73,-36.59
299,408604785,0.5103,0.2529,1.3047,-95.79,-19.39,-36.22
300,408609786,0.5034,0.2261,1.3350,-90.43,-22.93,-36.28
301,408614788,0.4883,0.1831,1.3560,-86.71,-26.77,-36.83
302,408619786,0.4995,0.1909,1.3604,-84.45,-30.61,-37.26
303,408624787,0.4961,0.1816,1.3799,-83.78,-34.70,-38.05
304,408629785,0.5098,0.1851,1.3936,-84.76,-38.90,-38.96
305,408634785,0.5205,0.1909,1.3950,-87.44,-42.87,-39.88
306,408639785,0.5273,0.1973,1.3989,-91.40,-46.71,-40.98
307,408645004,0.5288,0.2148,1.3911,-96.65,-50.79,-41.95
308,408649787,0.5273,0.2246,1.3945,-102.99,-54.94,-42.93
309,408654787,0.5088,0.2246,1.3809,-110.43,-58.96,-43.96
310,408659787,0.5034,0.2217,1.3735,-119.15,-62.62,-44.88
311,408664786,0.5093,0.2295,1.3740,-128.72,-66.40,-45.98
312,408669787,0.5225,0.2290,1.3799,-138.66,-69.82,-47.32
313,408674787,0.5239,0.2378,1.3867,-148.66,-72.87,-48.23
314,408679787,0.5361,0.2515,1.3838,-158.29,-75.67,-49.27
315,408684786,0.5449,0.2646,1.3862,-167.99,-78.48,-50.30
316,408689788,0.5439,0.2886,1.4072,-177.87,-80.73,-52.01
317,408694786,0.5679,0.2749,1.4160,-187.80,-82.87,-54.02
318,408699787,0.6465,0.2935,1.4868,-197.68,-84.27,-56.34
319,408704787,0.6724,0.2505,1.4375,-205.43,-85.24,-58.23
320,408709787,0.6958,0.2231,1.4326,-214.57,-86.71,-60.55
321,408714846,0.6846,0.2383,1.3916,-224.39,-88.48,-63.23
322,408719787,0.6821,0.2329,1.3779,-230.18,-89.51,-64.88
323,408724788,0.6797,0.2480,1.3706,-236.34,-90.91,-67.07
324,408729787,0.6646,0.2588,1.3809,-241.46,-92.13,-69.21
325,408734787,0.6411,0.2725,1.4102,-245.67,-92.38,-71.52
326,408739787,0.6396,0.2720,1.4043,-249.09,-92.62,-73.78
327,408744908,0.6445,0.2607,1.3979,-252.01,-92.68,-76.71
328,408749787,0.6553,0.2490,1.4121,-253.17,-92.62,-78.72
329,408754786,0.6523,0.2397,1.4341,-253.90,-92.13,-81.16
330,408759787,0.6494,0.2339,1.4385,-254.21,-90.55,-83.66
331,408764787,0.6548,0.1987,1.4521,-254.57,-88.66,-85.85
332,408769787,0.6865,0.1807,1.4766,-254.45,-86.22,-87.74
333,408774785,0.6880,0.1694,1.4873,-254.21,-83.23,-89.27
334,408779787,0.6846,0.1592,1.4917,-254.57,-80.00,-90.49
335,408784787,0.6978,0.1572,1.4551,-255.06,-76.52,-91.04
336,408789788,0.6934,0.1519,1.4219,-255.91,-73.29,-91.10
337,408795309,0.6890,0.1494,1.3452,-257.50,-70.43,-90.06
338,408799787,0.6821,0.1509,1.2720,-258.66,-69.70,-89.15
339,408804787,0.6689,0.1909,1.2222,-260.12,-70.37,-87.62
340,408809787,0.6445,0.2139,1.1987,-261.40,-72.87,-86.77
341,408814787,0.6406,0.2129,1.2212,-261.59,-76.22,-86.28
342,408819786,0.6143,0.2021,1.2578,-260.67,-80.18,-86.22
343,408824787,0.5815,0.1841,1.3125,-258.60,-84.02,-86.52
344,408829787,0.5386,0.1733,1.3628,-256.10,-87.13,-86.95
345,408834785,0.4980,0.1826,1.3892,-253.23,-90.00,-87.74
346,408840336,0.4741,0.1792,1.3906,-249.76,-92.32,-88.90
347,408844787,0.4717,0.1509,1.4062,-248.05,-93.66,-89.70
348,408849786,0.4800,0.1445,1.3745,-245.98,-95.30,-90.49
349,408854787,0.4961,0.1592,1.3555,-244.39,-97.07,-91.22
350,408859786,0.5186,0.1616,1.3481,-243.05,-98.78,-92.07
351,408864787,0.5518,0.1567,1.3452,-241.83,-100.49,-92.93
352,408869786,0.5703,0.1680,1.3442,-241.16,-101.65,-93.78
353,408874785,0.5698,0.1743,1.3340,-240.55,-102.80,-94.70
354,408879790,0.5728,0.1753,1.3101,-239.63,-104.21,-95.49
355,408884787,0.5708,0.1802,1.3042,-238.72,-105.24,-96.04
356,408889786,0.5747,0.1836,1.2856,-237.20,-106.59,-96.16
357,408894785,0.5762,0.1978,1.2749,-235.43,-107.80,-96.28
358,408899787,0.5737,0.2183,1.2622,-233.35,-109.02,-96.16
359,408904787,0.5718,0.2368,1.2368,-230.91,-110.18,-95.73
360,408909787,0.5742,0.2476,1.2207,-228.23,-111.22,-95.06
361,408914786,0.5771,0.2632,1.2046,-225.49,-112.38,-94.27
362,408919788,0.5796,0.2744,1.1934,-222.74,-113.35,-93.11
363,408924786,0.5801,0.2905,1.1626,-219.51,-114.33,-91.89
364,408929788,0.5874,0.3081,1.1460,-217.68,-115.06,-90.98
365,408934786,0.6011,0.3125,1.1289,-215.55,-115.73,-89.76
366,408939787,0.6108,0.3306,1.1172,-213.72,-116.04,-88.41
367,408944787,0.6245,0.3394,1.0928,-212.26,-116.46,-87.07
368,408949787,0.6309,0.3506,1.0889,-211.16,-116.59,-85.79
369,408954786,0.6411,0.3643,1.0557,-210.12,-116.40,-84.45
370,408959787,0.6528,0.3638,1.0195,-209.09,-116.77,-83.05
371,408964787,0.6631,0.3745,1.0195,-207.87,-116.77,-81.34
372,408969787,0.6606,0.3877,1.0068,-206.16,-116.46,-79.57
373,408974787,0.6631,0.3906,0.9761,-204.33,-116.10,-77.50
374,408979787,0.6807,0.3999,0.9521,-202.13,-115.67,-75.18
375,408984787,0.6958,0.4062,0.9175,-199.82,-115.49,-72.80
376,408989787,0.7080,0.4150,0.9131,-196.89,-115.00,-70.06
377,408994785,0.7100,0.4282,0.8960,-193.72,-114.15,-67.38
378,408999790,0.7080,0.4473,0.8691,-190.49,-113.48,-64.33
379,409004879,0.7041,0.4653,0.8374,-187.44,-112.80,-61.28
380,409009786,0.6958,0.4917,0.8101,-184.63,-112.26,-58.23
381,409015207,0.6777,0.5068,0.7812,-181.59,-111.65,-54.57
382,409019787,0.6699,0.5190,0.7686,-179.76,-111.10,-52.20
383,409024786,0.6655,0.5205,0.7495,-177.87,-110.85,-49.15
384,409029787,0.6538,0.5181,0.7285,-176.40,-110.43,-46.22
385,409034788,0.6646,0.4541,0.7334,-175.06,-110.06,-43.23
386,409039787,0.6782,0.4248,0.7148,-172.74,-109.70,-40.37
387,409044949,0.6768,0.4165,0.7100,-170.18,-109.39,-37.87
388,409049787,0.6909,0.3911,0.6899,-167.38,-108.84,-35.55
389,409054786,0.7075,0.3706,0.6636,-164.45,-108.29,-33.35
390,409059787,0.7271,0.3545,0.6440,-161.16,-107.74,-31.28
391,409064786,0.7495,0.3257,0.6255,-157.93,-106.95,-29.45
392,409069787,0.7700,0.3242,0.6118,-154.88,-106.04,-27.87
393,409074786,0.7925,0.2739,0.6001,-152.62,-104.76,-26.46
394,409079785,0.8169,0.2559,0.5762,-150.73,-103.41,-25.18
395,409085055,0.8374,0.2588,0.5381,-148.84,-101.65,-24.09
396,409089787,0.8516,0.2690,0.5205,-147.13,-99.70,-23.29
397,409094787,0.8687,0.2788,0.4873,-145.67,-97.68,-22.56
398,409099788,0.8701,0.2856,0.4473,-144.57,-95.85,-22.01
399,409104787,0.8706,0.2769,0.4341,-143.54,-93.60,-21.40
400,409109787,0.8638,0.2539,0.4292,-143.29,-91.52,-21.04
401,409114785,0.8633,0.2241,0.4116,-143.84,-89.63,-20.61
402,409119789,0.8608,0.2163,0.3716,-144.70,-87.74,-20.37
403,409124786,0.8789,0.1670,0.3706,-146.22,-85.73,-20.30
404,409129788,0.9033,0.1558,0.3618,-148.60,-83.78,-20.06
405,409134787,0.9126,0.1499,0.3618,-151.71,-81.71,-20.37
406,409139787,0.9233,0.1333,0.3477,-154.88,-79.51,-20.85
407,409144785,0.8960,0.2168,0.4131,-158.11,-77.32,-21.10
408,409149787,0.9141,0.1260,0.3159,-159.21,-75.24,-21.22
409,409154786,0.9668,0.0425,0.3257,-161.04,-73.66,-20.67
410,409159787,0.9429,0.0625,0.3618,-163.72,-71.59,-20.55
411,409164785,0.9136,0.0728,0.2998,-166.59,-69.94,-20.30
412,409169787,0.9331,0.0552,0.2959,-169.51,-68.35,-20.12
413,409174786,0.9653,0.0200,0.3198,-173.05,-66.34,-19.88
414,409179785,0.9531,0.0132,0.2979,-177.32,-64.21,-19.82
415,409184917,0.9375,0.0054,0.2607,-181.83,-62.32,-19.94
416,409189787,0.9209,0.0049,0.2817,-186.65,-60.55,-20.24
417,409194789,0.9102,0.0146,0.2881,-191.46,-58.54,-20.37
418,409199787,0.8975,0.0288,0.2485,-196.04,-57.01,-20.79
419,409205053,0.8872,0.0435,0.2505,-200.73,-55.49,-21.16
420,409209787,0.8765,0.0547,0.2593,-205.43,-54.09,-21.71
421,409214786,0.8691,0.0610,0.2559,-210.12,-52.74,-22.32
422,409219785,0.8652,0.0713,0.2407,-214.63,-51.28,-23.05
423,409224787,0.8613,0.0791,0.2466,-219.02,-50.00,-23.84
424,409229786,0.8564,0.0801,0.2368,-222.87,-48.66,-24.63
425,409234787,0.8477,0.0874,0.2300,-226.46,-47.44,-25.49
426,409239788,0.8398,0.0898,0.2271,-229.33,-46.10,-26.22
427,409244785,0.8413,0.0967,0.2266,-231.83,-44.88,-27.07
428,409249787,0.8398,0.1025,0.2212,-233.90,-43.48,-27.87
429,409254787,0.8325,0.1030,0.2124,-235.49,-42.32,-28.48
430,409259786,0.8247,0.1108,0.2139,-236.46,-41.10,-29.27
431,409264787,0.8105,0.1196,0.2134,-237.32,-40.00,-30.06
432,409269787,0.8042,0.1235,0.1938,-237.62,-38.90,-30.91
433,409274787,0.7944,0.1274,0.1919,-237.62,-37.56,-31.65
434,409279785,0.7949,0.1406,0.1899,-237.44,-36.65,-32.56
435,409284785,0.7944,0.1528,0.1865,-236.95,-35.67,-33.41
436,409289789,0.7930,0.1655,0.1816,-236.22,-34.70,-34.39
437,409294787,0.7979,0.1714,0.1738,-235.37,-33.66,-35.55
438,409299788,0.8022,0.1826,0.1694,-234.45,-32.68,-36.59
439,409304785,0.8076,0.1924,0.1626,-233.35,-31.71,-37.80
440,409309787,0.8037,0.2007,0.1553,-232.20,-30.79,-38.96
441,409315120,0.8052,0.2109,0.1528,-230.91,-29.88,-40.18
442,409319789,0.8013,0.2241,0.1553,-229.70,-28.60,-41.46
443,409324786,0.7925,0.2354,0.1426,-228.35,-27.62,-42.87
444,409329789,0.7778,0.2407,0.1499,-226.83,-26.52,-44.33
445,409334786,0.7632,0.2480,0.1479,-225.06,-25.24,-45.79
446,409339789,0.7529,0.2524,0.1421,-223.05,-24.39,-47.38
447,409344785,0.7417,0.2490,0.1401,-220.85,-23.17,-48.54
448,409349785,0.7246,0.2510,0.1382,-218.41,-22.13,-49.70
449,409354787,0.7148,0.2520,0.1382,-216.04,-21.16,-50.67
450,409359793,0.7090,0.2681,0.1431,-213.78,-20.30,-51.77
451,409364787,0.7236,0.2803,0.1299,-211.89,-19.27,-52.80
452,409369786,0.7373,0.2905,0.1025,-210.67,-18.60,-54.09
453,409374787,0.7383,0.3115,0.1514,-210.30,-17.56,-55.67
454,409379785,0.7388,0.3193,0.1616,-210.37,-16.04,-57.44
455,409384785,0.7505,0.3242,0.1470,-210.49,-14.57,-59.15
456,409389787,0.7593,0.3374,0.1577,-210.73,-13.05,-60.98
457,409394787,0.7686,0.3481,0.1538,-211.10,-11.71,-62.80
458,409399786,0.7646,0.3638,0.1489,-211.46,-10.12,-64.82
459,409404787,0.7456,0.3755,0.1318,-211.95,-8.90,-67.07
460,409409787,0.7256,0.3784,0.1431,-212.38,-7.56,-69.27
461,409414785,0.7051,0.3862,0.1411,-212.68,-6.10,-71.52
462,409419883,0.6860,0.3794,0.1382,-212.62,-4.70,-73.72
463,409424806,0.6689,0.3696,0.1362,-211.95,-3.48,-75.61
464,409429787,0.6523,0.3613,0.1392,-211.10,-2.13,-77.38
465,409434787,0.6416,0.3647,0.1328,-209.70,-0.79,-78.84
466,409439852,0.6309,0.3662,0.1294,-207.68,0.43,-80.43
467,409444788,0.6143,0.3682,0.1343,-205.55,1.77,-81.83
468,409449787,0.6011,0.3677,0.1382,-203.17,2.93,-83.29
469,409454785,0.5898,0.3853,0.1152,-201.10,3.90,-84.76
470,409459787,0.5698,0.3784,0.1406,-199.15,4.94,-86.34
471,409464786,0.5645,0.3784,0.1470,-197.13,6.04,-87.62
472,409469787,0.5552,0.3828,0.1343,-195.12,7.13,-89.09
473,409474785,0.5356,0.3955,0.1465,-193.05,8.11,-90.73
474,409479787,0.5303,0.4087,0.1548,-190.79,9.27,-92.50
475,409484786,0.5181,0.4189,0.1548,-188.35,10.00,-94.33
476,409489785,0.5132,0.4126,0.1392,-185.61,10.91,-96.22
477,409494787,0.5059,0.4062,0.1357,-182.56,11.77,-98.05
478,409500087,0.5044,0.4102,0.1479,-179.09,12.50,-99.94
479,409504787,0.5049,0.4126,0.1455,-175.43,13.17,-101.89
480,409509786,0.4980,0.4165,0.1489,-171.59,14.09,-103.78
481,409514788,0.4819,0.4165,0.1470,-167.80,14.94,-105.85
482,409519787,0.4771,0.4253,0.1396,-163.78,15.67,-107.80
483,409524785,0.4761,0.4429,0.1494,-159.82,16.65,-110.12
484,409529787,0.4722,0.4624,0.1440,-156.04,17.44,-112.50
485,409534793,0.4531,0.4644,0.1528,-152.13,18.54,-114.94
486,409539788,0.4194,0.4634,0.1562,-148.35,19.63,-117.20
487,409544785,0.3940,0.4619,0.1597,-144.76,20.91,-119.33
488,409549787,0.3979,0.4897,0.1660,-141.22,22.01,-121.59
489,409554786,0.4062,0.5063,0.1660,-137.74,23.11,-123.90
490,409559787,0.4033,0.5210,0.1582,-134.27,24.39,-126.34
491,409565252,0.3862,0.5327,0.1572,-130.91,25.30,-128.78
492,409569789,0.3716,0.5420,0.1465,-127.56,26.28,-131.34
493,409574786,0.3540,0.5503,0.1562,-123.96,27.32,-133.84
494,409579787,0.3423,0.5557,0.1602,-120.43,28.41,-136.34
495,409584785,0.3428,0.5576,0.1606,-116.89,29.70,-138.66
496,409589787,0.3535,0.5903,0.1572,-113.35,30.79,-141.22
497,409594785,0.3403,0.6104,0.1938,-110.61,32.38,-143.72
498,409599789,0.3203,0.6128,0.1846,-107.62,34.02,-146.34
499,409604787,0.2983,0.6074,0.1772,-104.76,35.67,-148.66
500,409609787,0.2808,0.6118,0.1792,-101.52,37.38,-151.10
501,409614787,0.2710,0.6328,0.1924,-98.23,39.09,-153.29
502,409619787,0.2671,0.6577,0.2100,-94.88,41.28,-155.30
503,409624787,0.2666,0.6860,0.2202,-91.71,43.29,-157.50
504,409629787,0.2651,0.7104,0.2407,-88.41,45.55,-159.70
505,409634787,0.2529,0.7236,0.2368,-85.12,48.23,-161.83
506,409639787,0.2456,0.7544,0.2534,-82.44,50.37,-163.72
507,409644787,0.2319,0.7534,0.2329,-78.84,53.35,-166.22
508,409649788,0.2241,0.7627,0.2549,-76.28,55.49,-167.80
509,409654785,0.1978,0.7788,0.2734,-73.35,58.05,-169.33
510,409659787,0.1641,0.7832,0.2749,-70.43,60.85,-170.55
511,409664787,0.1270,0.7993,0.2832,-67.26,63.96,-171.77
512,409669786,0.1089,0.8062,0.3013,-65.30,66.16,-172.56
513,409674787,0.0879,0.8228,0.2939,-63.29,68.90,-173.17
514,409679787,0.0801,0.8462,0.3027,-61.34,71.46,-173.72
515,409684787,0.0752,0.8750,0.3154,-60.06,74.15,-174.27
516,409689785,0.0737,0.9126,0.3271,-58.90,76.89,-174.88
517,409694785,0.0728,0.9399,0.3325,-58.35,79.76,-175.55
518,409699787,0.0659,0.9731,0.3242,-58.17,82.13,-176.34
519,409704787,0.0552,0.9990,0.3394,-58.11,85.67,-176.83
520,409709787,0.0405,1.0195,0.3506,-58.29,86.04,-177.38
521,409714788,0.0254,1.0464,0.3706,-58.90,89.09,-177.80
522,409719788,0.0166,1.0630,0.3618,-59.57,91.59,-178.05
523,409724785,-0.0073,1.0649,0.3511,-60.18,93.66,-177.99
524,409729787,-0.0508,1.0708,0.3672,-60.18,95.55,-177.68
525,409734786,-0.0840,1.0752,0.3779,-59.82,97.01,-177.01
526,409739787,-0.1055,1.0879,0.3770,-58.78,98.66,-176.40
527,409745087,-0.1274,1.0952,0.3887,-56.77,100.12,-175.37
528,409749787,-0.1504,1.1143,0.3970,-54.94,101.04,-174.57
529,409754785,-0.1709,1.1201,0.4116,-52.56,102.01,-173.54
530,409759787,-0.1948,1.1260,0.4111,-49.82,103.11,-172.26
531,409764786,-0.2227,1.1348,0.4209,-46.77,103.90,-170.67
532,409769787,-0.2378,1.1333,0.4424,-43.60,105.00,-168.84
533,409774785,-0.2578,1.1270,0.4380,-40.37,105.73,-166.65
534,409779787,-0.2783,1.1240,0.4448,-37.32,106.40,-164.02
535,409784786,-0.2886,1.1245,0.4497,-34.33,107.20,-161.04
536,409789787,-0.3008,1.1255,0.4585,-31.77,108.05,-157.68
537,409794785,-0.3169,1.1260,0.4751,-29.88,109.02,-154.33
538,409799787,-0.3242,1.1284,0.4824,-28.54,110.30,-150.73
539,409804787,-0.3296,1.1309,0.4893,-27.74,111.52,-147.07
540,409809787,-0.3457,1.1392,0.5020,-27.56,112.99,-143.48
541,409814787,-0.3462,1.1670,0.5249,-28.05,114.88,-140.18
542,409819787,-0.3525,1.1865,0.5361,-29.02,116.77,-137.20
543,409824787,-0.3608,1.2012,0.5488,-30.55,119.15,-134.45
544,409829839,-0.3745,1.2051,0.5688,-32.38,121.28,-131.77
545,409834787,-0.3838,1.2051,0.5845,-34.39,123.90,-129.09
546,409839787,-0.4023,1.2070,0.6079,-36.16,126.77,-126.22
547,409845271,-0.4248,1.2139,0.6284,-38.11,130.37,-122.62
548,409849787,-0.4473,1.2178,0.6416,-39.15,132.80,-120.30
549,409854787,-0.4785,1.2197,0.6602,-39.88,135.67,-117.26
550,409859785,-0.5127,1.2207,0.6641,-39.88,138.48,-114.21
551,409864787,-0.5449,1.2183,0.6797,-39.27,141.16,-110.91
552,409869786,-0.5825,1.2114,0.6973,-37.74,143.84,-107.68
553,409874787,-0.6206,1.2021,0.7036,-35.61,146.16,-104.15
554,409879787,-0.6558,1.1978,0.7178,-33.05,148.35,-100.49
555,409884787,-0.6890,1.1885,0.7271,-30.30,150.43,-96.52
556,409889787,-0.7251,1.1743,0.7402,-27.68,152.07,-92.50
557,409894785,-0.7505,1.1660,0.7520,-25.30,154.09,-88.48
558,409899785,-0.7822,1.1519,0.7593,-23.48,155.67,-84.27
559,409904787,-0.8145,1.1484,0.7651,-22.20,157.44,-80.18
560,409909787,-0.8442,1.1489,0.7803,-21.95,159.02,-76.10
561,409914787,-0.8730,1.1396,0.7803,-22.32,160.67,-71.95
562,409919788,-0.9067,1.1304,0.7915,-23.54,162.20,-67.68
563,409924787,-0.9360,1.1177,0.7930,-25.24,163.96,-63.35
564,409929787,-0.9565,1.1108,0.8003,-27.68,165.55,-58.78
565,409934787,-0.9712,1.0967,0.8066,-30.55,167.44,-53.96
566,409939787,-0.9917,1.0918,0.8188,-33.84,169.63,-49.27
567,409944788,-1.0083,1.0933,0.8140,-37.32,171.95,-44.21
568,409949787,-1.0181,1.0972,0.8164,-41.10,174.45,-39.33
569,409954787,-1.0146,1.0962,0.8125,-44.76,177.13,-34.45
570,409959787,-1.0083,1.0898,0.8218,-48.23,180.06,-29.45
571,409964798,-1.0020,1.0889,0.8223,-51.34,183.35,-24.21
572,409969787,-0.9902,1.0801,0.8198,-54.09,186.89,-18.84
573,409974787,-0.9888,1.0723,0.8188,-56.46,190.67,-13.11
574,409979787,-0.9971,1.0679,0.8247,-58.54,194.82,-7.50
575,409984787,-1.0151,1.0581,0.8271,-60.37,199.09,-1.65
576,409989787,-1.0356,1.0571,0.8413,-62.07,203.66,4.15
577,409994785,-1.0566,1.0576,0.8545,-64.15,208.66,9.82
578,409999785,-1.0850,1.0625,0.8638,-66.22,213.78,15.49
579,410004785,-1.1128,1.0664,0.8750,-68.60,219.15,21.16
580,410009787,-1.1440,1.0630,0.8813,-71.10,224.63,26.71
581,410014786,-1.1758,1.0645,0.8911,-73.41,230.30,32.38
582,410019787,-1.2070,1.0605,0.9038,-75.49,236.22,37.99
583,410024785,-1.2407,1.0591,0.9165,-77.32,242.01,43.60
584,410029789,-1.2734,1.0576,0.9263,-78.78,247.99,49.27
585,410034786,-1.3120,1.0576,0.9331,-79.88,253.96,55.00
586,410039787,-1.3394,1.0532,0.9448,-80.49,259.88,60.79
587,410044786,-1.3760,1.0474,0.9600,-80.67,265.79,66.89
588,410049787,-1.4233,1.0435,0.9678,-80.73,271.52,72.99
589,410054786,-1.4731,1.0342,0.9824,-80.67,277.44,79.39
590,410059788,-1.5386,1.0308,0.9917,-80.49,283.29,86.22
591,410064787,-1.5908,1.0288,1.0151,-80.24,289.51,91.95
592,410069787,-1.6401,1.0249,1.0391,-80.12,295.67,98.35
593,410074788,-1.6904,1.0229,1.0674,-80.24,302.13,104.88
594,410079787,-1.7305,1.0327,1.0938,-80.55,308.78,111.34
595,410084787,-1.7734,1.0396,1.1230,-81.22,315.37,117.62
596,410089787,-1.8203,1.0435,1.1455,-81.71,322.20,123.84
597,410094787,-1.8682,1.0493,1.1616,-81.89,328.84,129.94
598,410099785,-1.9209,1.0337,1.1826,-81.83,335.43,136.04
599,410104785,-1.9790,1.0205,1.2061,-80.98,341.89,142.26
600,410109789,-2.0400,1.0127,1.2192,-79.33,348.23,148.72
601,410114860,-2.1089,1.0029,1.2466,-77.38,354.57,155.37
602,410119788,-2.1797,0.9951,1.2622,-75.18,361.10,162.26
603,410124785,-2.2500,0.9980,1.2866,-72.50,367.56,168.96
604,410129788,-2.3149,1.0063,1.3032,-69.94,374.09,175.67
605,410134787,-2.3599,1.0200,1.3340,-67.87,380.85,182.13
606,410139786,-2.3950,1.0303,1.3726,-65.98,387.93,188.48
607,410144787,-2.4292,1.0439,1.3911,-64.70,395.06,194.70
608,410149786,-2.4844,1.0527,1.4155,-63.60,402.13,200.67
609,410154788,-2.5381,1.0645,1.4336,-62.38,408.96,206.52
610,410159787,-2.5947,1.0693,1.4580,-60.98,415.67,212.13
611,410164785,-2.6353,1.0757,1.4863,-59.15,422.20,217.62
612,410169787,-2.6763,1.0762,1.5151,-56.77,428.66,222.99
613,410174787,-2.7314,1.0801,1.5396,-53.72,434.94,228.29
614,410179787,-2.8262,1.0771,1.5459,-49.88,440.43,233.41
615,410184786,-2.9282,1.0767,1.5552,-45.18,445.73,238.41
616,410189786,-2.9878,1.0688,1.5669,-40.24,450.18,243.66
617,410194790,-3.0405,1.0615,1.5972,-35.18,454.70,248.78
618,410199787,-3.1187,1.0581,1.6094,-30.61,458.78,253.84
619,410204785,-3.2241,1.0527,1.6104,-26.04,462.50,258.84
620,410210099,-3.3174,1.0488,1.6235,-22.56,465.30,263.78
621,410214787,-3.3628,1.0571,1.6572,-19.51,467.99,268.72
622,410219786,-3.4004,1.0718,1.6870,-17.38,470.43,273.29
623,410224787,-3.4390,1.0825,1.7227,-15.73,472.80,277.38
624,410229787,-3.4824,1.0967,1.7495,-13.90,474.94,281.40
625,410234787,-3.5239,1.1284,1.7720,-12.50,476.71,285.00
626,410239786,-3.5625,1.1294,1.8003,-10.49,478.17,288.66
627,410244787,-3.6006,1.1470,1.8081,-7.62,479.39,292.32
628,410249786,-3.6426,1.1577,1.8188,-4.70,480.24,296.04
629,410254788,-3.6440,1.1660,1.8237,-1.28,480.61,299.88
630,410259786,-3.6250,1.2114,1.8398,1.89,480.98,303.66
631,410264789,-3.6318,1.2388,1.8389,4.33,481.10,307.38
632,410269786,-3.6538,1.2422,1.8340,7.62,481.16,311.04
633,410274787,-3.6807,1.2598,1.8379,11.83,480.98,314.82
634,410279786,-3.7114,1.2681,1.8306,16.52,480.85,319.02
635,410284787,-3.7275,1.2617,1.8379,22.38,480.61,323.41
636,410289786,-3.7515,1.2852,1.8384,28.72,480.73,327.74
637,410294787,-3.7783,1.3076,1.8564,34.45,480.98,332.32
638,410299786,-3.7915,1.3091,1.8696,40.24,481.52,336.59
639,410304785,-3.8115,1.3394,1.8901,45.91,482.20,340.85
640,410309787,-3.8452,1.3608,1.8984,50.49,482.74,345.06
641,410314787,-3.8843,1.3618,1.8999,55.30,482.93,349.21
642,410319786,-3.9175,1.3765,1.9092,60.18,483.17,353.48
643,410324787,-3.9546,1.3833,1.9131,64.39,482.74,357.87
644,410329786,-3.9731,1.3784,1.9023,68.48,482.44,362.44
645,410334787,-3.9824,1.3906,1.8955,72.32,481.71,367.20
646,410339786,-3.9883,1.4009,1.8872,75.06,481.04,372.13
647,410344788,-3.9600,1.3984,1.8599,76.89,480.18,377.38
648,410349785,-3.9268,1.3921,1.8452,77.74,479.39,383.11
649,410354789,-3.9160,1.4004,1.8511,76.89,478.78,389.21
650,410359786,-3.9150,1.4033,1.8247,74.88,478.05,395.79
651,410364787,-3.8789,1.4092,1.8286,71.28,477.13,402.62
652,410369787,-3.9141,1.4346,1.8564,65.85,475.91,409.45
653,410374787,-4.0298,1.4155,1.8379,59.45,474.15,416.22
654,410379786,-3.9731,1.4497,1.9277,53.41,471.83,422.62
655,410384787,-4.0127,1.4487,1.9331,48.90,469.21,429.02
656,410389785,-4.0615,1.4507,1.9346,46.83,465.98,435.73
657,410394786,-4.0391,1.4463,1.9458,47.32,462.62,442.74
658,410399787,-4.0327,1.4121,1.9429,49.21,459.02,450.06
659,410404786,-4.0005,1.3740,1.9375,51.40,455.24,457.80
660,410409787,-3.9863,1.3442,1.9180,53.90,451.77,466.04
661,410414787,-4.0005,1.3135,1.9155,53.78,448.05,474.21
662,410419787,-4.0044,1.2788,1.9209,50.79,444.02,482.68
663,410424786,-4.0430,1.2456,1.9258,45.06,439.57,491.34
664,410429787,-4.0796,1.1973,1.9390,36.59,434.33,500.06
665,410434787,-4.1294,1.1670,1.9585,24.51,428.23,509.09
666,410439787,-4.1807,1.1362,1.9829,9.45,420.61,518.23
667,410444786,-4.2212,1.0845,1.9780,-7.80,411.71,527.99
668,410449787,-4.2456,1.0381,1.9912,-26.65,401.59,537.87
669,410454786,-4.2368,0.9873,1.9917,-47.13,389.88,548.23
670,410459789,-4.2163,0.9170,1.9663,-68.78,377.01,559.15
671,410465271,-4.1694,0.8418,1.9463,-91.77,363.11,570.55
672,410469787,-4.1338,0.7720,1.9268,-115.06,348.11,582.50
673,410474786,-4.0874,0.6885,1.8936,-138.72,332.26,594.88
674,410479785,-4.0171,0.6055,1.8550,-163.48,315.49,607.01
675,410484789,-3.9805,0.5151,1.8203,-187.87,297.50,619.39
676,410489786,-3.9712,0.4434,1.8013,-210.79,278.23,631.83
677,410494786,-3.9570,0.3511,1.7900,-232.38,257.80,643.84
678,410499787,-3.9302,0.2632,1.7139,-252.99,236.04,655.37
679,410504787,-3.9282,0.1782,1.7095,-272.20,212.87,666.10
680,410509787,-3.9268,0.1152,1.6626,-289.94,188.78,676.10
681,410514786,-3.9141,0.0537,1.6113,-306.10,163.96,684.70
682,410519787,-3.2256,-0.5645,5.5933,-322.13,142.44,692.80
683,410524787,-1.3369,-1.4150,4.6240,-341.16,115.85,701.46
684,410529787,-2.7036,-1.4585,3.5815,-370.61,70.06,708.05
685,410534844,-4.0337,-1.0073,3.9263,-405.18,35.37,710.12
686,410539787,-3.4326,-0.5186,2.6357,-435.61,1.34,709.45
687,410544787,-3.0498,-0.2261,1.8394,-457.93,-35.79,705.61
688,410549787,-3.3862,-0.2910,1.9785,-467.62,-70.30,700.73
689,410554793,-3.6704,-0.4185,1.8232,-469.33,-103.48,696.16
690,410559787,-3.7197,-0.4956,1.9360,-472.07,-137.99,689.82
691,410564787,-3.7339,-0.6328,1.8491,-478.17,-170.12,682.32
692,410569787,-3.7793,-0.6343,1.4111,-482.38,-202.13,675.00
693,410574789,-3.7959,-0.5220,1.0986,-482.68,-234.15,665.61
694,410579787,-3.8037,-0.4326,0.9878,-477.38,-263.48,654.51
695,410584787,-3.8638,-0.2178,0.8110,-467.38,-290.55,641.28
696,410589787,-3.8887,-0.0522,0.5874,-453.66,-315.91,625.43
697,410594786,-3.8174,0.0005,0.4482,-435.37,-339.15,607.99
698,410599787,-3.7114,-0.1538,0.4600,-411.83,-359.33,589.39
699,410604787,-3.5244,-0.3379,0.4028,-382.93,-376.65,571.10
700,410609787,-3.3848,-0.4834,0.4600,-357.07,-388.23,556.10
701,410614786,-3.1543,-0.7490,0.4814,-316.40,-401.95,532.99
702,410619787,-3.0674,-0.9155,0.4907,-289.70,-408.84,517.26
703,410624787,-3.0312,-1.0952,0.4609,-258.60,-415.12,496.52
704,410629787,-2.9854,-1.1982,0.3447,-230.91,-419.33,474.94
705,410634787,-2.8657,-1.2856,0.2378,-204.21,-422.07,448.11
706,410639787,-2.8042,-1.3452,0.1914,-190.67,-423.23,429.76
707,410644786,-2.6650,-1.3882,0.0635,-174.94,-423.72,402.13
708,410649787,-2.6050,-1.3975,0.0171,-166.89,-423.60,384.21
709,410654787,-2.5376,-1.3359,-0.0215,-159.02,-422.20,362.01
710,410659787,-2.5967,-1.2979,-0.1709,-153.17,-420.30,340.55
711,410664786,-2.6211,-1.2109,-0.2637,-149.51,-418.23,319.94
712,410670225,-2.6333,-1.1411,-0.4062,-147.99,-414.88,296.10
713,410674789,-2.6729,-1.1621,-0.5171,-149.21,-412.07,281.22
714,410679787,-2.7969,-1.1802,-0.7104,-152.74,-408.60,263.41
715,410684787,-2.9038,-1.2437,-0.8618,-158.72,-404.51,246.65
716,410689786,-3.0415,-1.3374,-1.0317,-166.83,-399.45,230.49
717,410694787,-3.1343,-1.4277,-1.1719,-175.79,-393.72,214.57
718,410699786,-3.2026,-1.6108,-1.3555,-185.12,-387.20,198.90
719,410704787,-3.3174,-1.8403,-1.4834,-193.05,-380.24,184.45
720,410709786,-3.2119,-2.0049,-1.4868,-199.57,-371.65,170.24
721,410714787,-3.3174,-2.1328,-1.5010,-206.34,-360.49,155.67
722,410719786,-3.4131,-2.2393,-1.5103,-214.33,-347.80,140.79
723,410724787,-3.3745,-2.2754,-1.5381,-222.99,-333.96,125.43
724,410729786,-3.2017,-2.2554,-1.6523,-229.02,-319.82,109.94
725,410734785,-2.9946,-2.1758,-1.7056,-230.91,-305.49,93.96
726,410739789,-2.7446,-2.0752,-1.6646,-227.50,-290.06,78.11
727,410744787,-2.4531,-2.0205,-1.6504,-218.48,-273.66,62.07
728,410749786,-2.1973,-1.9551,-1.6553,-205.00,-256.22,46.16
729,410754789,-1.8960,-1.8901,-1.6260,-188.05,-237.80,30.73
730,410759786,-1.6538,-1.7881,-1.5962,-168.66,-218.60,15.30
731,410764788,-1.4121,-1.6631,-1.5742,-147.93,-199.02,0.06
732,410769786,-1.1919,-1.5581,-1.5566,-127.38,-179.57,-15.06
733,410774787,-1.0078,-1.4595,-1.5220,-107.62,-160.24,-29.82
734,410780111,-0.7930,-1.3643,-1.4692,-86.65,-137.74,-47.32
735,410784787,-0.6758,-1.3057,-1.4370,-74.82,-123.23,-58.90
736,410789786,-0.5498,-1.2505,-1.3892,-62.87,-105.73,-72.99
737,410794787,-0.4448,-1.2114,-1.3374,-53.96,-88.78,-86.89
738,410799786,-0.3735,-1.1704,-1.2852,-47.80,-72.32,-100.43
739,410804785,-0.3359,-1.1416,-1.2339,-43.72,-56.59,-113.48
740,410809787,-0.3271,-1.1084,-1.1821,-40.73,-41.59,-125.73
741,410814787,-0.3330,-1.0742,-1.1187,-37.38,-24.45,-139.57
742,410819787,-0.3442,-1.0630,-1.0488,-34.57,-13.35,-148.05
743,410824789,-0.3608,-1.0503,-1.0107,-29.70,-0.37,-157.80
744,410829786,-0.3979,-1.0308,-0.9541,-23.23,12.01,-166.65
745,410834787,-0.4204,-1.0229,-0.8882,-15.61,23.48,-174.57
746,410839786,-0.4619,-1.0122,-0.8516,-7.07,34.02,-181.71
747,410844787,-0.5107,-0.9961,-0.8120,1.83,43.60,-188.05
748,410849787,-0.5332,-0.9917,-0.7607,10.91,52.26,-193.78
749,410854787,-0.5640,-0.9824,-0.7290,20.12,60.12,-198.90
750,410859787,-0.5942,-0.9727,-0.6919,28.66,66.95,-203.48
751,410864785,-0.6323,-0.9634,-0.6475,38.23,74.45,-208.29
752,410869787,-0.6460,-0.9556,-0.6167,43.90,78.54,-211.22
753,410874787,-0.6660,-0.9507,-0.5840,50.18,83.11,-214.27
754,410879787,-0.6846,-0.9463,-0.5547,55.61,86.16,-217.20
755,410884787,-0.6992,-0.9458,-0.5273,60.12,90.12,-219.63
756,410889787,-0.7134,-0.9502,-0.4995,63.35,93.11,-221.77
757,410894786,-0.7163,-0.9497,-0.4736,65.61,95.61,-223.60
758,410899787,-0.7173,-0.9565,-0.4443,66.77,97.68,-225.06
759,410904787,-0.7124,-0.9673,-0.4209,67.26,99.39,-226.52
760,410909787,-0.6963,-0.9805,-0.3916,67.20,100.98,-227.74
761,410914787,-0.6689,-0.9868,-0.3696,66.77,102.32,-228.66
762,410919787,-0.6479,-0.9902,-0.3438,66.04,103.48,-229.57
763,410924787,-0.6265,-0.9956,-0.3086,65.61,104.57,-230.18
764,410929787,-0.6108,-0.9907,-0.2812,65.43,105.73,-230.61
765,410934790,-0.6235,-0.9966,-0.2534,65.43,106.77,-230.98
766,410939787,-0.5889,-0.9800,-0.2363,65.85,107.62,-231.16
767,410944787,-0.5557,-0.9658,-0.2070,66.65,108.17,-231.28
768,410949787,-0.5239,-0.9609,-0.1865,67.87,108.48,-231.28
769,410954789,-0.5044,-0.9565,-0.1582,69.39,108.66,-230.91
770,410959786,-0.4927,-0.9458,-0.1255,71.22,108.72,-230.55
771,410964787,-0.4722,-0.9346,-0.1079,72.99,108.60,-230.12
772,410969786,-0.4502,-0.9111,-0.0845,74.70,108.54,-229.70
773,410974822,-0.4199,-0.8931,-0.0688,76.34,108.17,-229.21
774,410979787,-0.3882,-0.8711,-0.0498,77.93,107.56,-228.78
775,410984926,-0.3589,-0.8486,-0.0210,79.27,106.95,-228.54
776,410989787,-0.3286,-0.8301,-0.0034,80.61,106.16,-228.23
777,410994789,-0.3008,-0.8130,0.0132,81.95,105.18,-227.87
778,410999787,-0.2808,-0.7910,0.0308,83.23,104.33,-227.56
779,411004785,-0.2568,-0.7773,0.0488,84.63,103.17,-227.32
780,411009787,-0.2358,-0.7637,0.0713,85.98,102.01,-226.95
781,411014787,-0.2100,-0.7456,0.0928,87.56,100.91,-226.65
782,411019787,-0.1885,-0.7290,0.1162,89.33,99.76,-226.28
783,411024785,-0.1650,-0.7158,0.1416,91.04,98.66,-226.04
784,411029789,-0.1460,-0.6948,0.1587,93.29,97.26,-225.73
785,411034787,-0.1338,-0.6841,0.1675,95.12,96.04,-225.30
786,411039786,-0.1221,-0.6738,0.1836,97.26,94.88,-224.94
787,411044785,-0.1050,-0.6665,0.1924,99.51,93.17,-224.57
788,411049787,-0.0786,-0.6489,0.2002,101.22,91.22,-224.21
789,411054786,-0.0508,-0.6343,0.2168,102.56,89.09,-224.02
790,411059787,-0.0146,-0.6206,0.2319,103.41,87.32,-224.09
791,411064787,0.0190,-0.6055,0.2500,103.60,85.24,-224.27
792,411069787,0.0542,-0.5913,0.2593,103.48,83.35,-224.63
793,411074787,0.0903,-0.5903,0.2563,102.87,80.24,-225.06
794,411079789,0.1235,-0.5815,0.2681,102.20,77.38,-225.73
795,411084786,0.1519,-0.5488,0.2861,101.83,74.76,-226.52
796,411089785,0.1826,-0.5498,0.2915,102.01,72.20,-227.20
797,411094786,0.2080,-0.5454,0.3057,102.26,69.45,-227.74
798,411099787,0.2319,-0.5239,0.3350,102.99,66.89,-228.35
799,411104787,0.2578,-0.5112,0.3599,104.21,64.39,-228.78
800,411109787,0.2744,-0.4902,0.3882,105.61,62.20,-229.15
801,411114786,0.2905,-0.4692,0.4014,107.56,60.06,-229.45
802,411119788,0.2979,-0.4399,0.4224,109.76,57.99,-229.70
803,411124786,0.3096,-0.4248,0.4487,112.20,55.85,-229.63
804,411129785,0.3154,-0.3989,0.4521,115.30,53.35,-229.33
805,411134787,0.3213,-0.3882,0.4556,117.62,51.65,-229.09
806,411139786,0.3335,-0.3667,0.4663,120.49,49.39,-228.60
807,411144787,0.3472,-0.3408,0.4712,123.35,47.26,-227.87
808,411149787,0.3135,-0.3066,0.4722,126.52,45.18,-227.13
809,411154787,0.3208,-0.2817,0.4658,130.06,43.17,-226.22
810,411159786,0.3618,-0.2593,0.4639,132.38,41.22,-225.24
811,411164787,0.4102,-0.2280,0.4536,135.85,39.15,-224.09
812,411169786,0.4370,-0.2026,0.4556,139.27,37.50,-222.80
813,411174788,0.4302,-0.1768,0.4526,142.26,35.98,-221.59
814,411179786,0.4126,-0.1670,0.4473,144.82,34.27,-220.18
815,411184788,0.4727,-0.1655,0.4487,146.95,32.68,-218.78
816,411189785,0.5190,-0.1572,0.4561,148.60,31.40,-217.20
817,411194790,0.5234,-0.1396,0.4668,149.70,30.18,-215.73
818,411199787,0.4258,-0.1519,0.4946,150.12,29.27,-214.51
819,411204787,0.4038,-0.1401,0.4741,150.12,28.05,-212.99
820,411209787,0.2432,-0.0742,0.4712,150.24,27.01,-211.59
821,411214786,0.3081,-0.0493,0.3965,150.61,25.49,-210.43
822,411219787,0.1372,-0.0840,0.3564,150.67,24.09,-208.96
823,411224786,0.0610,-0.0972,0.2905,149.94,22.44,-207.62
824,411229785,0.1094,-0.0957,0.2769,148.48,20.85,-206.28
825,411234786,0.1890,-0.0737,0.2632,145.73,19.82,-205.30
826,411239788,0.2656,-0.0317,0.2563,142.32,18.78,-204.70
827,411244787,0.3599,0.0327,0.2607,138.23,17.80,-204.21
828,411249828,0.4893,0.1274,0.2798,134.09,17.26,-203.90
829,411254843,0.5884,0.1763,0.2842,128.84,16.71,-203.72
830,411259787,0.5942,0.1904,0.2935,125.73,16.59,-203.23
831,411264789,0.5273,0.1841,0.3032,121.46,16.40,-202.38
832,411269786,0.4609,0.1987,0.3237,117.44,16.59,-201.28
833,411274961,0.4639,0.2388,0.3384,113.54,17.13,-200.24
834,411279787,0.5190,0.2661,0.3311,109.88,17.62,-198.96
835,411284889,0.5913,0.2749,0.3247,106.16,18.23,-197.50
836,411289787,0.6084,0.2681,0.3271,102.62,18.72,-195.55
837,411294786,0.5933,0.2661,0.3125,98.54,18.90,-193.72
838,411299787,0.5801,0.2793,0.3242,94.45,19.33,-191.83
839,411304787,0.5635,0.2705,0.3223,89.70,19.76,-189.94
840,411309787,0.5293,0.2524,0.3071,84.70,20.49,-188.05
841,411314786,0.5186,0.2275,0.3242,79.15,21.04,-185.85
842,411319787,0.5054,0.2231,0.3203,73.23,21.83,-183.78
843,411324787,0.5381,0.2236,0.3325,66.59,22.74,-181.59
844,411329787,0.5981,0.2256,0.3574,59.15,24.21,-179.39
845,411335116,0.6450,0.2373,0.4033,51.04,26.16,-176.89
846,411339787,0.6880,0.2485,0.4473,42.07,28.60,-174.39
847,411344787,0.7300,0.2661,0.4663,32.32,31.34,-171.95
848,411349787,0.7568,0.3271,0.5293,22.07,34.57,-169.63
849,411354786,0.7568,0.2881,0.5522,11.83,38.41,-167.99
850,411359787,0.7915,0.2734,0.5674,1.52,42.26,-165.85
851,411364787,0.8501,0.2905,0.5981,-9.51,45.98,-163.11
852,411369787,0.9111,0.3062,0.6177,-20.98,49.82,-160.18
853,411374787,0.9385,0.4351,0.6206,-32.62,53.48,-157.74
854,411379787,0.9102,0.4604,0.4971,-42.32,55.55,-157.13
855,411384786,0.8560,0.7036,0.5908,-50.61,57.87,-157.93
856,411389788,0.7954,0.6377,0.4424,-55.79,60.43,-160.43
857,411394787,0.7139,0.6216,0.4209,-59.39,62.32,-162.93
858,411399787,0.6333,0.6753,0.3408,-61.95,63.66,-165.43
859,411404786,0.6309,0.6699,0.2334,-65.12,63.48,-168.41
860,411409787,0.6333,0.6602,0.2363,-68.84,62.62,-171.28
861,411414787,0.6660,0.6846,0.4033,-73.66,62.38,-173.90
862,411419787,0.6846,0.6279,0.5786,-79.70,63.11,-176.28
863,411424786,0.6816,0.5293,0.6089,-86.04,64.21,-177.99
864,411429787,0.6606,0.3970,0.6309,-91.89,65.06,-178.48
865,411434785,0.6113,0.3135,0.6787,-97.07,66.34,-178.11
866,411439787,0.5737,0.3066,0.6763,-101.28,67.26,-176.77
867,411444789,0.5420,0.3813,0.6143,-104.27,67.68,-175.43
868,411449786,0.5366,0.4785,0.6064,-106.28,67.68,-174.39
869,411454785,0.5605,0.5830,0.6704,-107.74,67.50,-173.66
870,411459787,0.6001,0.6602,0.6948,-108.35,67.44,-173.23
871,411464787,0.6357,0.7061,0.6567,-108.41,67.07,-172.99
872,411469788,0.6484,0.7476,0.6611,-107.68,66.34,-172.74
873,411474788,0.6279,0.7690,0.6724,-106.28,65.67,-172.26
874,411479788,0.5977,0.7759,0.6787,-104.02,64.51,-171.52
875,411484787,0.5654,0.7764,0.6865,-101.40,63.29,-170.37
876,411489788,0.5303,0.7773,0.7510,-97.99,62.13,-168.78
877,411494857,0.4863,0.7773,0.8022,-93.96,61.16,-166.59
878,411499787,0.4526,0.7754,0.8232,-89.45,60.49,-163.90
879,411504787,0.4194,0.7681,0.8604,-84.15,59.76,-160.79
880,411509796,0.3901,0.7690,0.8940,-78.48,59.21,-157.26
881,411514787,0.3735,0.7783,0.9170,-72.01,58.96,-153.35
882,411519788,0.3555,0.7988,0.9238,-65.06,58.54,-149.33
883,411524789,0.3579,0.8154,0.9297,-57.87,57.93,-145.12
884,411529787,0.3604,0.8325,0.9629,-50.43,57.74,-140.79
885,411534787,0.3677,0.8330,0.9814,-43.05,57.68,-136.34
886,411539788,0.3726,0.8257,0.9756,-35.85,57.20,-131.59
887,411544787,0.3643,0.8237,0.9868,-29.09,56.95,-126.59
888,411549788,0.3438,0.8213,1.0049,-22.44,56.65,-121.34
889,411554787,0.3203,0.8262,1.0088,-15.67,56.28,-115.61
890,411559787,0.2988,0.8291,1.0024,-8.96,55.55,-109.88
891,411564789,0.2886,0.8467,1.0127,-2.32,54.88,-104.02
892,411569786,0.2954,0.8643,1.0186,4.21,53.78,-98.05
893,411574785,0.3076,0.8823,1.0137,9.51,53.11,-93.41
894,411579785,0.3413,0.9077,1.0347,17.62,51.83,-86.59
895,411584788,0.3540,0.9248,1.0518,24.21,50.49,-81.28
896,411589787,0.3784,0.9404,1.0688,30.67,49.39,-76.10
897,411594787,0.3950,0.9482,1.0776,35.73,48.29,-72.13
898,411599787,0.4175,0.9536,1.0815,41.52,47.01,-67.50
899,411604787,0.4365,0.9590,1.0811,46.65,45.67,-63.05
900,411609786,0.4473,0.9634,1.0752,50.98,44.09,-58.90
901,411614835,0.4604,0.9688,1.0664,55.24,42.20,-54.15
902,411619787,0.4683,0.9648,1.0654,57.32,40.85,-51.22
903,411625017,0.4883,0.9604,1.0674,59.27,38.84,-46.89
904,411629787,0.4932,0.9541,1.0610,59.88,37.32,-44.27
905,411634787,0.5063,0.9546,1.0615,60.18,35.37,-40.98
906,411639787,0.5195,0.9614,1.0635,59.88,33.35,-37.99
907,411644787,0.5337,0.9727,1.0615,59.15,31.59,-35.30
908,411649787,0.5483,0.9849,1.0688,58.35,29.82,-32.99
909,411654789,0.5649,0.9878,1.0708,57.38,28.05,-30.85
910,411659787,0.5854,0.9863,1.0640,55.91,26.40,-29.02
911,411664789,0.5996,0.9873,1.0610,54.51,24.82,-27.32
912,411669786,0.6113,0.9819,1.0586,52.93,23.35,-25.98
913,411674787,0.6279,0.9766,1.0566,51.28,21.95,-24.63
914,411679785,0.6323,0.9692,1.0439,49.21,20.61,-23.29
915,411684800,0.6421,0.9668,1.0386,47.87,19.39,-22.38
916,411689789,0.6440,0.9595,1.0234,46.16,18.23,-21.46
917,411694787,0.6450,0.9497,1.0161,44.70,17.13,-20.49
918,411699787,0.6440,0.9341,1.0078,43.48,15.91,-19.39
919,411704787,0.6484,0.9199,0.9922,42.32,15.00,-18.54
920,411709787,0.6470,0.9072,0.9844,41.40,13.84,-17.44
921,411714787,0.6475,0.8945,0.9683,40.79,12.74,-16.40
922,411719787,0.6509,0.8901,0.9634,40.30,11.77,-15.30
923,411724790,0.6489,0.8740,0.9575,40.37,10.85,-14.39
924,411729787,0.6484,0.8628,0.9487,40.18,9.88,-13.29
925,411734787,0.6426,0.8521,0.9341,40.55,8.78,-12.32
926,411739787,0.6353,0.8335,0.9233,40.85,7.87,-11.28
927,411744831,0.6294,0.8247,0.9106,41.52,7.07,-10.12
928,411749789,0.6250,0.8130,0.8896,42.32,6.10,-9.02
929,411754787,0.6143,0.8047,0.8877,43.11,5.37,-7.87
930,411759787,0.6016,0.8008,0.8779,43.96,4.63,-6.71
931,411764788,0.5938,0.7930,0.8672,44.63,3.72,-5.55
932,411769787,0.5811,0.7739,0.8589,45.30,2.68,-4.39
933,411774839,0.5767,0.7651,0.8457,45.85,1.83,-3.17
934,411779787,0.5654,0.7559,0.8340,46.22,0.91,-2.01
935,411784848,0.5562,0.7466,0.8223,46.52,0.06,-0.79
936,411789786,0.5542,0.7402,0.8096,46.83,-0.91,0.37
937,411794787,0.5513,0.7368,0.8062,46.95,-1.95,1.59
938,411799787,0.5444,0.7363,0.7993,47.01,-2.99,2.68
939,411804787,0.5405,0.7314,0.7954,47.01,-3.96,3.84
940,411809787,0.5312,0.7344,0.7803,47.01,-4.82,4.76
941,411814787,0.5181,0.7319,0.7729,46.65,-5.98,5.79
942,411819786,0.5112,0.7280,0.7769,46.46,-6.95,6.59
943,411824871,0.5059,0.7256,0.7759,45.98,-7.99,7.38
944,411829786,0.5005,0.7275,0.7695,45.43,-9.09,8.23
945,411834787,0.4907,0.7266,0.7700,44.76,-10.06,8.84
946,411839786,0.4785,0.7231,0.7695,44.15,-11.10,9.39
947,411844926,0.4644,0.7192,0.7715,43.41,-12.20,9.88
948,411849787,0.4468,0.7144,0.7622,42.50,-13.23,10.24
949,411854787,0.4385,0.7075,0.7632,41.59,-14.15,10.55
950,411859787,0.4312,0.6978,0.7583,40.37,-15.06,10.91
951,411864787,0.4214,0.6963,0.7568,39.15,-16.16,11.16
952,411869787,0.4141,0.6997,0.7485,37.99,-17.26,11.52
953,411874787,0.4038,0.7026,0.7476,36.71,-18.23,11.46
954,411879787,0.3906,0.7036,0.7549,35.61,-19.45,11.34
955,411884786,0.3799,0.7046,0.7456,34.33,-20.43,11.28
956,411889787,0.3696,0.7090,0.7520,33.35,-21.52,11.04
957,411894787,0.3647,0.7051,0.7554,32.20,-22.56,10.73
958,411899788,0.3623,0.7070,0.7563,31.28,-23.60,10.24
959,411904785,0.3599,0.7104,0.7515,30.43,-24.76,9.57
960,411909785,0.3540,0.7114,0.7568,29.57,-25.67,8.96
961,411914787,0.3472,0.7202,0.7573,29.09,-26.83,8.29
962,411919786,0.3389,0.7246,0.7451,28.78,-27.93,7.26
963,411924787,0.3364,0.7261,0.7500,28.72,-29.15,6.28
964,411929786,0.3354,0.7212,0.7437,28.72,-30.00,5.18
965,411934789,0.3350,0.7256,0.7319,28.84,-31.16,4.27
966,411939787,0.3364,0.7217,0.7358,29.15,-32.07,3.23
967,411944787,0.3467,0.7266,0.7256,29.82,-33.23,2.20
968,411949787,0.3467,0.7236,0.7158,30.49,-34.33,1.16
969,411954787,0.3569,0.7266,0.7056,31.46,-35.49,0.24
970,411959786,0.3647,0.7246,0.6973,32.50,-36.46,-0.73
971,411964787,0.3735,0.7251,0.6836,33.90,-37.68,-1.77
972,411969786,0.3828,0.7314,0.6719,35.24,-38.72,-2.56
973,411974787,0.4004,0.7285,0.6636,36.77,-39.94,-3.48
974,411979786,0.4058,0.7290,0.6572,38.23,-41.04,-4.27
975,411984787,0.4121,0.7285,0.6475,40.00,-42.13,-4.82
976,411989786,0.4185,0.7305,0.6416,41.59,-43.11,-5.30
977,411994788,0.4248,0.7266,0.6333,43.35,-44.09,-5.73
978,411999786,0.4277,0.7280,0.6279,45.06,-44.94,-6.16
979,412004789,0.4277,0.7271,0.6294,46.89,-45.43,-6.52
980,412009786,0.4351,0.7363,0.6318,48.72,-46.04,-6.71
981,412014886,0.4355,0.7393,0.6250,50.55,-46.28,-6.77
982,412019786,0.4414,0.7388,0.6089,52.68,-46.28,-6.83
983,412024785,0.4395,0.7437,0.6079,54.45,-46.34,-6.89
984,412029787,0.4414,0.7446,0.6021,56.22,-46.22,-6.65
985,412034787,0.4424,0.7471,0.5996,58.11,-45.98,-6.65
986,412039787,0.4429,0.7544,0.5942,59.63,-45.67,-6.22
987,412044786,0.4409,0.7559,0.5835,61.10,-45.18,-5.98
988,412049787,0.4429,0.7661,0.5820,62.56,-44.63,-5.55
989,412054787,0.4409,0.7715,0.5747,63.72,-44.21,-5.00
990,412059787,0.4570,0.7769,0.5625,64.63,-43.41,-4.63
991,412064786,0.4712,0.7749,0.5732,65.43,-42.62,-4.02
992,412069835,0.4888,0.7817,0.5669,66.28,-41.65,-3.66
993,412074787,0.4922,0.7861,0.5557,66.89,-40.37,-3.05
994,412079787,0.5029,0.8018,0.5566,67.32,-39.02,-2.62
995,412084786,0.5181,0.8086,0.5386,67.44,-37.38,-2.13
996,412089787,0.5312,0.8159,0.5273,67.50,-35.91,-1.59
997,412094787,0.5469,0.8130,0.5298,67.26,-33.96,-1.16
998,412099838,0.5630,0.8232,0.5181,66.71,-32.13,-0.67
999,412104788,0.5776,0.8262,0.5049,65.79,-30.06,-0.24
1000,412109787,0.5957,0.8345,0.5000,64.63,-27.93,0.12
1001,412115260,0.6167,0.8398,0.5024,62.93,-25.24,0.37
1002,412119788,0.6304,0.8477,0.4980,61.34,-23.17,0.73
1003,412124787,0.6416,0.8530,0.4902,59.02,-20.61,0.91
1004,412129787,0.6411,0.8633,0.4824,56.46,-18.11,0.98
1005,412134786,0.6455,0.8652,0.4731,53.41,-15.61,1.16
1006,412139787,0.6489,0.8643,0.4565,50.00,-13.23,1.28
1007,412144787,0.6484,0.8647,0.4468,46.16,-11.34,1.28
1008,412149787,0.6460,0.8657,0.4385,41.89,-9.39,1.46
1009,412154786,0.6392,0.8618,0.4336,37.32,-7.99,1.59
1010,412159787,0.6343,0.8633,0.4341,32.32,-6.71,1.89
1011,412164787,0.6201,0.8638,0.4272,27.20,-5.73,2.26
1012,412169787,0.6060,0.8608,0.4258,21.89,-5.00,2.62
1013,412174786,0.5957,0.8564,0.4258,16.71,-4.09,3.05
1014,412179787,0.5825,0.8550,0.4238,11.46,-3.66,3.66
1015,412184787,0.5703,0.8589,0.4282,6.59,-3.23,4.09
1016,412189786,0.5581,0.8599,0.4346,1.65,-2.99,4.63
1017,412194789,0.5439,0.8540,0.4263,-2.87,-2.62,5.18
1018,412199787,0.5288,0.8496,0.4351,-7.01,-2.50,5.73
1019,412204786,0.5171,0.8506,0.4390,-10.73,-2.50,6.34
1020,412209788,0.5059,0.8486,0.4468,-14.02,-2.50,6.89
1021,412214787,0.5039,0.8467,0.4463,-16.71,-2.44,7.32
1022,412219787,0.4941,0.8477,0.4478,-19.21,-2.26,7.80
1023,412224788,0.4888,0.8413,0.4556,-20.73,-2.32,8.35
1024,412229787,0.4785,0.8394,0.4600,-21.83,-2.13,8.78
1025,412234787,0.4688,0.8311,0.4595,-22.32,-2.07,9.15
1026,412239787,0.4673,0.8271,0.4673,-22.38,-1.89,9.57
1027,412244786,0.4634,0.8179,0.4775,-21.89,-1.77,9.76
1028,412249787,0.4580,0.8101,0.4741,-20.98,-1.46,10.12
1029,412254787,0.4609,0.8101,0.4775,-19.63,-1.16,10.43
1030,412259787,0.4609,0.8037,0.4736,-18.05,-0.98,10.49
1031,412264786,0.4634,0.7998,0.4844,-16.34,-0.73,10.55
1032,412269787,0.4712,0.7935,0.4824,-14.27,-0.67,10.67
1033,412274787,0.4692,0.7871,0.4824,-12.20,-0.61,10.67
1034,412279787,0.4761,0.7832,0.4819,-9.94,-0.55,10.61
1035,412284787,0.4775,0.7793,0.4800,-7.68,-0.49,10.49
1036,412289787,0.4844,0.7715,0.4844,-5.37,-0.61,10.55
1037,412294786,0.4868,0.7729,0.4785,-3.17,-0.61,10.37
1038,412299787,0.4932,0.7695,0.4839,-0.98,-0.67,10.30
1039,412304788,0.4966,0.7739,0.4741,1.10,-0.85,10.06
1040,412309787,0.5010,0.7715,0.4795,3.17,-0.98,9.76
1041,412314785,0.5020,0.7715,0.4775,5.06,-1.04,9.51
1042,412319787,0.5024,0.7646,0.4731,6.71,-1.22,9.33
1043,412324787,0.5098,0.7607,0.4800,8.23,-1.28,9.09
1044,412329787,0.5083,0.7617,0.4761,9.39,-1.59,8.90
1045,412334786,0.5112,0.7646,0.4790,10.67,-1.46,8.60
1046,412339787,0.5142,0.7627,0.4844,11.46,-1.59,8.48
1047,412344787,0.5098,0.7637,0.4810,12.26,-1.59,8.17
1048,412349786,0.5151,0.7676,0.4775,12.62,-1.59,7.87
1049,412354786,0.5098,0.7671,0.4834,12.99,-1.65,7.68
1050,412359787,0.5137,0.7642,0.4829,13.05,-1.52,7.56
1051,412364787,0.5137,0.7632,0.4834,12.80,-1.46,7.26
1052,412369787,0.5215,0.7612,0.4829,12.44,-1.52,7.01
1053,412374786,0.5239,0.7632,0.4795,11.95,-1.40,6.77
1054,412379788,0.5254,0.7656,0.4805,11.22,-1.46,6.52
1055,412384787,0.5225,0.7690,0.4849,10.49,-1.40,6.28
1056,412389788,0.5234,0.7700,0.4854,9.76,-1.40,5.85
1057,412394786,0.5225,0.7695,0.4780,8.78,-1.22,5.55
1058,412399787,0.5215,0.7710,0.4819,7.93,-1.16,5.18
1059,412404787,0.5181,0.7725,0.4878,6.95,-1.16,4.70
