# skilleye imu stream v1
# device=xiao_esp32c6 imu=mpu6050 addr=0x68
# rate_hz=200 accel_range_g=16 gyro_range_dps=2000 dlpf_hz=94
# units: accel in g, gyro in deg/s, t_us in microseconds since boot (monotonic)
# no shared clock with the camera -- tap the racket once before each take
# so both recordings share a spike to align on
seq,t_us,ax,ay,az,gx,gy,gz
0,393374785,0.6855,0.5757,0.4175,-6.65,3.29,10.37
1,393379790,0.6816,0.5669,0.4155,-7.20,3.29,9.63
2,393384786,0.6768,0.5615,0.4248,-7.62,3.48,8.96
3,393389787,0.6812,0.5610,0.4316,-7.87,3.41,8.11
4,393394785,0.6875,0.5591,0.4292,-8.11,3.54,7.44
5,393399787,0.6895,0.5664,0.4287,-8.17,3.48,6.59
6,393404786,0.6914,0.5669,0.4248,-8.17,3.41,5.91
7,393409785,0.6997,0.5688,0.4282,-8.17,3.48,5.12
8,393414785,0.7007,0.5767,0.4243,-7.93,3.41,4.51
9,393419787,0.7046,0.5815,0.4243,-7.62,3.29,3.96
10,393424786,0.7124,0.5850,0.4263,-7.26,3.17,3.48
11,393429787,0.7144,0.5835,0.4282,-6.83,3.11,3.05
12,393434785,0.7188,0.5864,0.4253,-6.52,3.05,2.80
13,393439787,0.7261,0.5913,0.4263,-6.04,2.93,2.44
14,393444791,0.7275,0.5942,0.4263,-5.43,2.68,2.32
15,393449786,0.7319,0.6001,0.4263,-4.88,2.56,2.32
16,393454785,0.7305,0.6050,0.4277,-4.33,2.50,2.56
17,393459788,0.7354,0.6064,0.4272,-3.66,2.44,2.56
18,393464786,0.7378,0.6094,0.4297,-3.17,2.13,2.68
19,393469787,0.7407,0.6104,0.4321,-2.50,1.89,2.80
20,393474785,0.7427,0.6143,0.4307,-1.95,1.65,2.93
21,393479787,0.7383,0.6128,0.4404,-1.46,1.59,3.11
22,393484787,0.7383,0.6104,0.4414,-0.85,1.16,3.17
23,393489787,0.7368,0.6113,0.4326,-0.43,1.10,3.35
24,393494785,0.7310,0.6123,0.4438,0.06,0.91,3.29
25,393499787,0.7275,0.6138,0.4473,0.49,0.49,3.29
26,393504786,0.7236,0.6118,0.4463,0.67,0.49,3.23
27,393509785,0.7202,0.6084,0.4521,1.22,-0.06,3.05
28,393514785,0.7109,0.6069,0.4512,1.40,-0.30,2.87
29,393519787,0.7002,0.6016,0.4546,1.71,-0.79,2.62
30,393524786,0.6929,0.5981,0.4604,1.89,-1.16,2.32
31,393529787,0.6851,0.5923,0.4692,2.26,-1.65,1.83
32,393534787,0.6792,0.5874,0.4707,2.38,-2.01,1.28
33,393539787,0.6641,0.5845,0.4751,2.56,-2.26,0.61
34,393544786,0.6616,0.5845,0.4824,2.68,-2.74,-0.06
35,393549787,0.6514,0.5859,0.4897,3.05,-2.99,-0.73
36,393554785,0.6475,0.5811,0.4907,3.29,-3.35,-1.46
37,393559787,0.6426,0.5845,0.4951,3.48,-3.60,-2.26
38,393564787,0.6411,0.5864,0.4966,3.60,-3.72,-3.11
39,393569787,0.6392,0.5820,0.5054,3.78,-3.84,-3.90
40,393574787,0.6343,0.5830,0.5024,3.78,-3.90,-4.70
41,393579785,0.6323,0.5845,0.5093,3.90,-4.09,-5.61
42,393584787,0.6294,0.5840,0.5166,4.02,-4.21,-6.59
43,393589786,0.6270,0.5903,0.5112,4.02,-4.15,-7.32
44,393594787,0.6313,0.5947,0.5156,4.02,-4.15,-8.29
45,393599787,0.6343,0.5981,0.5137,3.84,-4.15,-9.15
46,393604787,0.6387,0.5942,0.5127,3.78,-4.15,-9.88
47,393609785,0.6426,0.5981,0.5146,3.66,-4.27,-10.67
48,393614785,0.6465,0.5991,0.5142,3.54,-4.45,-11.22
49,393619785,0.6567,0.6016,0.5088,3.17,-4.63,-11.59
50,393624786,0.6631,0.6099,0.5063,3.05,-4.88,-11.95
51,393629787,0.6685,0.6172,0.5083,2.93,-5.12,-12.20
52,393634786,0.6753,0.6240,0.5068,2.87,-5.37,-12.44
53,393639787,0.6860,0.6396,0.5068,2.99,-5.67,-12.62
54,393644785,0.6904,0.6479,0.5103,3.11,-5.85,-12.68
55,393649787,0.7002,0.6504,0.5078,3.23,-6.28,-12.80
56,393654786,0.7114,0.6602,0.5049,3.54,-6.59,-12.68
57,393659787,0.7236,0.6685,0.5049,3.72,-6.71,-12.62
58,393664786,0.7363,0.6797,0.5039,4.02,-7.20,-12.68
59,393669785,0.7437,0.6895,0.4951,4.21,-7.62,-12.38
60,393674787,0.7510,0.6934,0.4893,4.39,-7.99,-12.07
61,393679787,0.7588,0.7026,0.4922,4.70,-8.11,-11.77
62,393684787,0.7632,0.7109,0.4858,5.12,-8.41,-11.22
63,393689787,0.7607,0.7178,0.4844,5.73,-8.54,-10.67
64,393694787,0.7651,0.7251,0.4800,6.34,-8.54,-10.00
65,393699787,0.7617,0.7354,0.4814,7.26,-8.54,-8.96
66,393704787,0.7622,0.7495,0.4800,8.17,-8.23,-7.87
67,393709786,0.7563,0.7637,0.4761,9.39,-7.93,-6.59
68,393714787,0.7500,0.7676,0.4746,10.49,-7.32,-5.49
69,393719787,0.7368,0.7861,0.4790,12.44,-6.65,-3.60
70,393724786,0.7354,0.7935,0.4736,13.60,-6.04,-2.13
71,393729787,0.7246,0.8022,0.4678,15.37,-5.12,-0.37
72,393734785,0.7119,0.8154,0.4658,16.89,-4.21,1.65
73,393739785,0.7002,0.8179,0.4619,18.41,-3.23,3.60
74,393744787,0.6904,0.8237,0.4648,19.76,-2.26,5.73
75,393749787,0.6792,0.8276,0.4580,21.10,-1.04,7.80
76,393754787,0.6675,0.8306,0.4565,22.20,0.00,9.82
77,393759786,0.6572,0.8203,0.4546,23.05,1.22,12.01
78,393764787,0.6489,0.8164,0.4507,23.72,2.38,13.90
79,393769786,0.6460,0.8105,0.4604,24.02,3.72,15.85
80,393774787,0.6416,0.7988,0.4580,24.15,4.70,17.62
81,393779786,0.6348,0.7822,0.4551,24.09,6.04,19.39
82,393784785,0.6289,0.7710,0.4521,23.78,7.32,21.16
83,393789787,0.6294,0.7559,0.4492,23.23,8.11,22.32
84,393794787,0.6294,0.7451,0.4512,22.38,9.15,23.54
85,393799787,0.6304,0.7334,0.4531,21.46,10.06,24.70
86,393804785,0.6309,0.7114,0.4507,20.43,11.04,25.61
87,393809787,0.6323,0.6934,0.4478,19.09,11.95,26.34
88,393814786,0.6333,0.6782,0.4478,17.74,12.56,26.89
89,393819787,0.6362,0.6650,0.4531,16.34,13.48,27.44
90,393824787,0.6426,0.6460,0.4482,14.94,14.09,27.74
91,393829787,0.6470,0.6294,0.4502,13.48,14.57,27.80
92,393834786,0.6484,0.6187,0.4497,12.07,15.18,27.80
93,393839787,0.6553,0.6016,0.4482,10.79,15.67,27.62
94,393844785,0.6616,0.5942,0.4502,9.39,16.10,27.26
95,393849787,0.6704,0.5835,0.4546,8.11,16.65,26.83
96,393854786,0.6729,0.5742,0.4619,6.89,16.95,26.28
97,393859787,0.6782,0.5674,0.4590,5.85,17.38,25.61
98,393864785,0.6860,0.5605,0.4609,4.76,17.68,24.76
99,393869788,0.6895,0.5552,0.4639,4.02,18.05,23.78
100,393874786,0.6973,0.5518,0.4639,3.23,18.48,22.74
101,393879785,0.7036,0.5498,0.4746,2.44,18.66,21.77
102,393884787,0.6992,0.5425,0.4766,1.89,18.84,20.55
103,393889787,0.7017,0.5308,0.4751,1.16,18.96,19.33
104,393894786,0.6997,0.5312,0.4800,0.67,18.96,18.17
105,393899787,0.6963,0.5327,0.4888,0.30,18.78,16.95
106,393904785,0.6992,0.5269,0.4888,-0.12,18.84,15.61
107,393909787,0.6943,0.5259,0.4888,-0.37,18.60,14.39
108,393914786,0.6963,0.5269,0.4907,-0.55,18.41,12.99
109,393919789,0.6953,0.5327,0.4956,-0.61,18.11,11.71
110,393924785,0.7046,0.5342,0.4971,-0.73,17.74,10.43
111,393929787,0.7017,0.5322,0.5020,-0.61,17.44,9.15
112,393934786,0.7051,0.5361,0.5000,-0.24,16.89,7.93
113,393939787,0.7026,0.5391,0.5034,-0.06,16.40,6.59
114,393944787,0.7046,0.5410,0.5093,0.30,15.79,5.37
115,393949787,0.7070,0.5415,0.5073,0.61,15.12,4.02
116,393954786,0.7051,0.5479,0.5059,1.04,14.51,2.93
117,393959787,0.7070,0.5493,0.5127,1.59,14.02,1.77
118,393964785,0.7080,0.5522,0.5107,2.20,13.29,0.79
119,393969787,0.7036,0.5547,0.5132,2.93,12.87,-0.24
120,393974786,0.7085,0.5571,0.5156,3.72,12.32,-1.10
121,393979787,0.7075,0.5654,0.5176,4.63,11.77,-2.07
122,393984785,0.7041,0.5688,0.5249,5.73,11.34,-2.80
123,393990321,0.7041,0.5762,0.5410,7.13,10.98,-3.90
124,393994787,0.7017,0.5840,0.5376,8.17,10.85,-4.39
125,394000312,0.7026,0.5986,0.5322,9.88,10.37,-5.18
126,394004791,0.7026,0.6084,0.5347,10.98,10.18,-5.73
127,394009785,0.7021,0.6230,0.5439,12.38,9.70,-6.34
128,394015055,0.7104,0.6367,0.5371,13.72,9.39,-6.89
129,394019786,0.7124,0.6470,0.5352,15.12,8.96,-7.38
130,394024786,0.7183,0.6538,0.5376,16.28,8.35,-7.87
131,394029789,0.7168,0.6562,0.5239,17.20,7.56,-8.11
132,394034787,0.7153,0.6548,0.5132,17.74,6.52,-8.35
133,394039787,0.7139,0.6572,0.5068,18.05,5.55,-8.29
134,394044786,0.7100,0.6577,0.5137,18.17,4.45,-7.99
135,394049787,0.7065,0.6528,0.4956,17.99,3.41,-7.68
136,394054787,0.7026,0.6475,0.5010,17.56,2.20,-7.32
137,394059785,0.6997,0.6445,0.4785,16.89,0.79,-6.59
138,394064787,0.6997,0.6416,0.4814,16.04,-0.55,-5.79
139,394069787,0.7031,0.6401,0.4932,14.88,-1.65,-4.94
140,394074787,0.7007,0.6421,0.4731,13.78,-2.87,-4.02
141,394079785,0.7104,0.6387,0.4619,12.38,-4.27,-3.11
142,394084787,0.7119,0.6436,0.4761,10.73,-5.61,-2.20
143,394089787,0.7168,0.6426,0.4727,9.21,-6.89,-1.46
144,394094787,0.7153,0.6440,0.4717,7.56,-8.05,-0.43
145,394099786,0.7217,0.6465,0.4722,6.10,-9.02,0.18
146,394104787,0.7231,0.6465,0.4722,4.51,-10.12,0.79
147,394109786,0.7261,0.6494,0.4824,3.17,-11.10,1.52
148,394114787,0.7314,0.6489,0.4780,1.77,-11.95,1.89
149,394119788,0.7339,0.6509,0.4746,0.73,-12.68,2.38
150,394124787,0.7324,0.6440,0.4771,0.00,-13.23,2.62
151,394129785,0.7388,0.6504,0.4819,-0.67,-13.72,2.93
152,394134789,0.7456,0.6523,0.4790,-1.10,-14.33,3.17
153,394139786,0.7490,0.6494,0.4731,-1.34,-14.39,3.35
154,394144787,0.7505,0.6543,0.4800,-1.22,-14.70,3.35
155,394150176,0.7544,0.6558,0.4731,-0.91,-14.76,3.41
156,394154787,0.7598,0.6587,0.4761,-0.12,-14.63,3.35
157,394159786,0.7603,0.6646,0.4795,0.91,-14.63,3.48
158,394164787,0.7637,0.6636,0.4766,1.95,-14.33,3.48
159,394169787,0.7632,0.6655,0.4761,3.60,-13.96,3.35
160,394174788,0.7671,0.6655,0.4829,5.43,-13.60,3.35
161,394179786,0.7642,0.6724,0.4775,7.38,-12.87,3.48
162,394184787,0.7666,0.6631,0.4819,9.63,-12.32,3.35
163,394189785,0.7607,0.6582,0.4761,12.13,-11.52,3.41
164,394194790,0.7573,0.6489,0.4736,14.33,-10.91,3.54
165,394199787,0.7559,0.6411,0.4717,16.65,-10.37,3.72
166,394204787,0.7520,0.6353,0.4644,18.54,-9.76,4.15
167,394209786,0.7437,0.6265,0.4707,20.49,-9.33,4.70
168,394214787,0.7397,0.6172,0.4624,22.13,-8.90,5.12
169,394219787,0.7363,0.6177,0.4556,23.54,-8.78,5.73
170,394224785,0.7378,0.6143,0.4478,24.63,-8.41,6.52
171,394229785,0.7363,0.6113,0.4448,25.67,-8.17,7.13
172,394234787,0.7432,0.6060,0.4487,26.28,-8.11,7.87
173,394239787,0.7393,0.6045,0.4414,26.65,-7.99,8.66
174,394244789,0.7456,0.5991,0.4404,26.95,-7.87,9.21
175,394249787,0.7500,0.5977,0.4351,26.95,-7.93,9.88
176,394254787,0.7520,0.5933,0.4341,26.77,-7.68,10.43
177,394259787,0.7568,0.5928,0.4346,26.40,-7.50,10.98
178,394264788,0.7568,0.5874,0.4351,25.85,-7.26,11.46
179,394269789,0.7612,0.5884,0.4346,25.18,-7.01,11.77
180,394274787,0.7617,0.5825,0.4307,24.51,-6.83,12.20
181,394279788,0.7632,0.5786,0.4316,23.66,-6.28,12.50
182,394284786,0.7646,0.5791,0.4355,22.68,-5.91,12.56
183,394289787,0.7651,0.5718,0.4326,21.71,-5.43,12.74
184,394294787,0.7686,0.5742,0.4326,20.43,-4.82,12.87
185,394299787,0.7656,0.5771,0.4370,19.39,-4.21,12.93
186,394304786,0.7666,0.5742,0.4282,18.11,-3.66,12.99
187,394309787,0.7686,0.5703,0.4321,16.95,-2.93,12.93
188,394314786,0.7671,0.5723,0.4326,15.61,-2.32,12.80
189,394319787,0.7695,0.5732,0.4312,14.39,-1.59,12.68
190,394324786,0.7715,0.5752,0.4331,13.11,-1.04,12.62
191,394329785,0.7720,0.5747,0.4272,11.95,-0.24,12.32
192,394334785,0.7705,0.5708,0.4277,10.61,0.37,12.20
193,394339789,0.7739,0.5713,0.4292,9.27,0.79,11.83
194,394344786,0.7778,0.5732,0.4370,8.23,1.40,11.52
195,394349787,0.7822,0.5771,0.4248,6.89,1.52,11.28
196,394354787,0.7832,0.5713,0.4331,5.67,2.01,11.16
197,394360107,0.7827,0.5713,0.4302,4.63,2.32,10.55
198,394364787,0.7832,0.5747,0.4316,3.60,2.44,10.30
199,394369787,0.7856,0.5732,0.4302,2.74,2.50,10.12
200,394374787,0.7793,0.5723,0.4390,1.89,2.56,9.76
201,394379821,0.7739,0.5698,0.4380,1.22,2.56,9.39
202,394384787,0.7705,0.5654,0.4365,0.55,2.56,9.33
203,394389787,0.7729,0.5674,0.4375,0.12,2.56,9.09
204,394394787,0.7642,0.5669,0.4390,-0.30,2.26,8.72
205,394400221,0.7593,0.5630,0.4434,-0.55,2.32,8.66
206,394404787,0.7588,0.5630,0.4478,-0.91,2.26,8.48
207,394409787,0.7524,0.5630,0.4429,-0.85,2.20,8.29
208,394414787,0.7480,0.5625,0.4502,-0.67,2.01,8.05
209,394419787,0.7466,0.5615,0.4512,-0.55,1.95,7.99
210,394424787,0.7412,0.5625,0.4521,-0.30,1.71,7.80
211,394429785,0.7349,0.5605,0.4531,-0.06,1.59,7.68
212,394434785,0.7344,0.5562,0.4556,0.24,1.46,7.56
213,394439787,0.7300,0.5571,0.4507,0.61,1.22,7.56
214,394444789,0.7334,0.5557,0.4478,1.04,1.04,7.44
215,394449787,0.7314,0.5537,0.4551,1.16,0.79,7.38
216,394454787,0.7349,0.5547,0.4561,1.52,0.49,7.44
217,394459787,0.7305,0.5542,0.4561,1.77,0.24,7.38
218,394464787,0.7295,0.5576,0.4551,2.07,0.06,7.32
219,394470202,0.7290,0.5605,0.4541,2.26,-0.30,7.32
220,394474787,0.7295,0.5596,0.4629,2.44,-0.61,7.26
221,394479787,0.7339,0.5645,0.4619,2.62,-0.85,7.07
222,394484787,0.7344,0.5669,0.4624,2.80,-1.16,7.01
223,394489787,0.7290,0.5708,0.4658,3.05,-1.34,6.89
224,394494787,0.7271,0.5752,0.4590,3.17,-1.59,6.71
225,394499785,0.7251,0.5781,0.4580,3.48,-1.95,6.46
226,394504789,0.7319,0.5801,0.4692,3.78,-1.95,6.34
227,394509787,0.7295,0.5854,0.4609,4.02,-2.38,6.10
228,394514786,0.7290,0.5908,0.4653,4.45,-2.44,5.85
229,394519787,0.7275,0.5898,0.4658,4.88,-2.62,5.49
230,394524787,0.7290,0.5903,0.4629,5.24,-2.68,5.24
231,394529787,0.7310,0.5864,0.4658,5.79,-2.99,5.00
232,394534787,0.7261,0.5908,0.4634,6.40,-3.05,4.76
233,394539785,0.7295,0.5918,0.4673,6.65,-3.29,4.51
234,394544785,0.7256,0.5903,0.4653,7.01,-3.54,4.27
235,394549785,0.7290,0.5879,0.4663,7.20,-3.66,3.90
236,394554787,0.7300,0.5864,0.4639,7.44,-3.84,3.72
237,394559785,0.7290,0.5840,0.4678,7.56,-4.02,3.48
238,394564785,0.7358,0.5859,0.4595,7.44,-4.33,3.29
239,394569785,0.7422,0.5874,0.4609,7.50,-4.57,3.05
240,394575018,0.7529,0.5928,0.4604,7.32,-4.70,2.80
241,394579789,0.7559,0.5923,0.4634,7.07,-5.06,2.44
242,394584786,0.7598,0.5986,0.4575,6.89,-5.30,2.20
243,394589785,0.7656,0.5967,0.4624,6.71,-5.49,1.89
244,394594792,0.7681,0.5996,0.4502,6.34,-5.73,1.52
245,394599785,0.7681,0.6016,0.4507,6.22,-6.04,1.10
246,394604785,0.7725,0.6040,0.4551,5.79,-6.22,0.79
247,394609787,0.7754,0.6060,0.4536,5.61,-6.71,0.49
248,394614786,0.7764,0.6113,0.4541,5.49,-6.95,0.06
249,394619787,0.7788,0.6069,0.4609,5.30,-7.01,-0.43
250,394624786,0.7827,0.6074,0.4580,5.24,-7.26,-0.79
251,394629790,0.7847,0.6079,0.4600,5.06,-7.74,-0.91
252,394634787,0.7881,0.6016,0.4619,4.94,-8.11,-1.22
253,394639785,0.7905,0.6011,0.4561,4.82,-8.48,-1.52
254,394645183,0.7935,0.5972,0.4531,4.70,-8.60,-1.71
255,394649792,0.7949,0.6040,0.4531,4.57,-8.96,-1.95
256,394654786,0.8018,0.6079,0.4585,4.45,-9.51,-2.01
257,394659787,0.8032,0.6084,0.4546,4.33,-9.82,-2.01
258,394664787,0.8062,0.6118,0.4619,4.21,-10.12,-2.20
259,394669787,0.8081,0.6133,0.4521,4.02,-10.49,-2.26
260,394674787,0.8096,0.6177,0.4502,3.66,-10.91,-2.20
261,394679787,0.8154,0.6172,0.4512,3.48,-11.34,-2.20
262,394684786,0.8179,0.6216,0.4492,3.05,-11.71,-2.26
263,394689788,0.8188,0.6230,0.4458,2.68,-12.07,-2.20
264,394694786,0.8174,0.6235,0.4473,2.32,-12.32,-2.20
265,394699787,0.8184,0.6304,0.4473,1.89,-12.68,-2.07
266,394704787,0.8169,0.6309,0.4385,1.16,-12.93,-1.95
267,394709787,0.8164,0.6289,0.4395,0.73,-13.23,-1.71
268,394714787,0.8145,0.6270,0.4331,0.37,-13.35,-1.46
269,394719787,0.8071,0.6270,0.4360,-0.49,-13.54,-1.10
270,394724786,0.8022,0.6240,0.4297,-0.98,-13.60,-0.67
271,394729800,0.7979,0.6265,0.4341,-1.71,-13.72,-0.18
272,394734787,0.7920,0.6245,0.4238,-2.26,-13.66,0.24
273,394739786,0.7905,0.6240,0.4233,-2.87,-13.72,0.61
274,394744785,0.7788,0.6240,0.4180,-3.54,-13.72,1.22
275,394750187,0.7725,0.6191,0.4214,-4.45,-13.96,1.77
276,394754787,0.7671,0.6157,0.4209,-5.06,-13.90,2.07
277,394759787,0.7593,0.6133,0.4209,-5.98,-14.27,2.50
278,394764785,0.7495,0.6074,0.4175,-6.83,-14.51,2.99
279,394769787,0.7471,0.6011,0.4185,-7.62,-14.76,3.29
280,394774786,0.7368,0.5894,0.4209,-8.48,-15.18,3.60
281,394779787,0.7251,0.5752,0.4282,-9.33,-15.37,3.90
282,394784786,0.7173,0.5635,0.4199,-9.94,-15.61,4.27
283,394789789,0.7100,0.5537,0.4263,-10.67,-15.98,4.51
284,394794788,0.7080,0.5498,0.4268,-11.34,-16.16,4.88
285,394799787,0.7036,0.5405,0.4282,-11.95,-16.34,5.12
286,394804787,0.6997,0.5342,0.4224,-12.44,-16.59,5.30
287,394809788,0.7012,0.5239,0.4214,-12.87,-16.77,5.55
288,394814786,0.7017,0.5176,0.4180,-13.17,-16.95,5.67
289,394819787,0.7061,0.5098,0.4258,-13.48,-17.13,5.79
290,394824786,0.7070,0.5049,0.4185,-13.78,-17.38,6.04
291,394829787,0.7041,0.5000,0.4175,-14.02,-17.50,6.16
292,394834786,0.7085,0.4956,0.4248,-14.33,-17.68,6.28
293,394839787,0.7095,0.4937,0.4253,-14.39,-17.80,6.28
294,394844786,0.7119,0.4956,0.4160,-14.39,-17.80,6.22
295,394849785,0.7134,0.4834,0.4194,-14.27,-17.80,6.16
296,394854787,0.7114,0.4829,0.4204,-14.02,-17.99,6.10
297,394859838,0.7085,0.4805,0.4248,-13.90,-17.93,6.10
298,394864787,0.7051,0.4731,0.4292,-13.54,-17.80,5.79
299,394869787,0.7021,0.4697,0.4224,-12.93,-17.74,5.67
300,394874786,0.7007,0.4663,0.4292,-12.13,-17.44,5.24
301,394879789,0.7007,0.4648,0.4316,-11.34,-17.20,5.12
302,394884786,0.6992,0.4634,0.4224,-10.37,-16.95,4.76
303,394889785,0.6978,0.4590,0.4282,-9.33,-16.59,4.39
304,394894787,0.6958,0.4517,0.4355,-8.05,-16.34,3.90
305,394899786,0.7026,0.4526,0.4360,-6.71,-15.91,3.48
306,394904787,0.7021,0.4526,0.4458,-5.37,-15.37,2.87
307,394909785,0.7129,0.4546,0.4453,-3.72,-14.76,2.32
308,394914787,0.7158,0.4565,0.4546,-2.20,-14.02,1.65
309,394919787,0.7227,0.4609,0.4487,-0.67,-13.72,0.98
310,394924786,0.7246,0.4658,0.4590,1.10,-12.87,0.12
311,394929787,0.7300,0.4697,0.4609,2.56,-12.26,-0.79
312,394934786,0.7275,0.4688,0.4634,4.09,-11.46,-1.77
313,394939846,0.7324,0.4741,0.4575,5.49,-10.61,-2.87
314,394944786,0.7363,0.4775,0.4639,6.83,-9.94,-4.15
315,394949787,0.7368,0.4795,0.4663,8.11,-9.21,-5.12
316,394954786,0.7368,0.4761,0.4644,9.21,-8.11,-6.40
317,394959785,0.7300,0.4761,0.4619,10.37,-7.44,-7.80
318,394964787,0.7300,0.4780,0.4580,11.22,-6.59,-9.15
319,394969787,0.7241,0.4761,0.4556,11.77,-5.67,-10.61
320,394974787,0.7256,0.4829,0.4556,12.32,-4.82,-12.13
321,394979787,0.7217,0.4922,0.4478,12.62,-4.27,-13.72
322,394984786,0.7207,0.4995,0.4536,12.62,-3.41,-15.43
323,394989787,0.7139,0.5073,0.4531,12.44,-2.74,-17.07
324,394994786,0.7056,0.5137,0.4492,11.89,-2.20,-18.78
325,394999855,0.6963,0.5249,0.4463,10.85,-1.65,-20.79
326,395004870,0.6904,0.5464,0.4443,9.09,-0.67,-23.05
327,395009792,0.6938,0.5596,0.4487,6.89,-0.12,-25.12
328,395014787,0.6885,0.5698,0.4463,4.88,0.37,-26.83
329,395019787,0.6846,0.5825,0.4302,1.71,1.04,-28.96
330,395024787,0.6846,0.5918,0.4219,-1.95,1.59,-31.28
331,395029787,0.6821,0.6025,0.4170,-6.22,2.01,-33.35
332,395034788,0.6880,0.6104,0.4023,-11.10,2.38,-35.73
333,395039785,0.6899,0.6104,0.3906,-16.59,2.56,-38.11
334,395044789,0.6953,0.6128,0.3896,-23.48,2.74,-40.79
335,395049787,0.6870,0.6465,0.3872,-28.29,3.05,-42.56
336,395054786,0.6748,0.6577,0.3716,-34.76,3.11,-45.00
337,395059787,0.6636,0.6641,0.3628,-41.34,2.99,-47.32
338,395064786,0.6572,0.6665,0.3613,-48.23,2.99,-49.82
339,395069787,0.6553,0.6714,0.3696,-55.18,3.17,-52.13
340,395074786,0.6470,0.6846,0.3613,-62.50,3.05,-54.45
341,395080202,0.6353,0.6846,0.3569,-71.16,2.99,-56.95
342,395084788,0.6323,0.6875,0.3574,-77.13,3.05,-58.48
343,395089787,0.6270,0.6851,0.3535,-84.21,2.74,-60.49
344,395094787,0.6191,0.6797,0.3472,-91.40,2.56,-62.20
345,395099787,0.6172,0.6738,0.3423,-98.35,2.50,-63.84
346,395104787,0.6191,0.6743,0.3408,-105.30,2.01,-65.43
347,395109787,0.6143,0.6763,0.3389,-111.95,1.77,-66.71
348,395114788,0.6094,0.6865,0.3359,-118.41,1.52,-68.05
349,395119788,0.6016,0.7178,0.3442,-124.21,1.22,-69.33
350,395124787,0.6104,0.7295,0.3418,-129.39,0.91,-70.79
351,395129787,0.6167,0.7178,0.3247,-134.09,0.24,-71.89
352,395134788,0.6289,0.7168,0.3223,-138.11,-0.06,-72.99
353,395139788,0.6265,0.7070,0.3350,-141.65,-0.79,-73.84
354,395144787,0.6230,0.7065,0.3423,-144.39,-1.28,-74.33
355,395149787,0.6152,0.7051,0.3516,-146.65,-1.71,-74.82
356,395154787,0.6011,0.7041,0.3682,-148.23,-2.32,-75.00
357,395159787,0.5864,0.6978,0.3765,-148.90,-2.68,-74.94
358,395164786,0.5767,0.6860,0.3872,-148.84,-3.11,-74.63
359,395169787,0.5693,0.6772,0.4014,-148.05,-3.35,-74.21
360,395174787,0.5625,0.6714,0.4170,-146.40,-3.60,-73.35
361,395179787,0.5493,0.6763,0.4287,-143.96,-3.90,-72.44
362,395184787,0.5352,0.6772,0.4380,-140.67,-4.02,-71.28
363,395189787,0.5371,0.6875,0.4507,-136.52,-4.27,-70.18
364,395194790,0.5410,0.6992,0.4736,-131.59,-4.39,-68.72
365,395199787,0.5430,0.7183,0.4927,-125.73,-4.70,-67.38
366,395204787,0.5244,0.7290,0.5078,-119.15,-4.88,-65.98
367,395209787,0.5347,0.7446,0.5161,-111.95,-5.12,-64.51
368,395214788,0.5410,0.7622,0.5215,-104.15,-5.12,-63.05
369,395219787,0.5361,0.7749,0.5356,-96.16,-5.43,-61.52
370,395224788,0.5327,0.7900,0.5371,-87.68,-5.73,-60.18
371,395229787,0.5337,0.8076,0.5430,-79.15,-6.10,-58.78
372,395234787,0.5488,1.3936,-0.0581,-69.51,-11.77,-60.67
373,395240242,0.6885,1.4785,-0.4370,-59.39,-30.85,-74.33
374,395244787,0.8994,0.3408,0.6509,-51.59,-51.10,-85.43
375,395249788,0.9053,0.0654,0.9766,-44.88,-59.51,-85.49
376,395254787,0.6704,0.3091,0.9932,-37.26,-61.16,-82.26
377,395259787,0.3721,0.5942,0.8989,-27.74,-61.28,-80.00
378,395264788,0.2051,0.7549,0.8096,-16.89,-61.16,-78.96
379,395269787,0.1997,0.8252,0.7817,-5.61,-61.10,-78.41
380,395274787,0.3008,0.8438,0.7173,4.82,-60.98,-77.68
381,395279792,0.4199,0.8496,0.6143,14.02,-61.34,-76.22
382,395284787,0.4854,0.8633,0.5776,21.89,-61.83,-74.51
383,395289787,0.4932,0.9004,0.5952,28.78,-62.07,-72.62
384,395294786,0.4648,0.9185,0.5459,34.76,-62.32,-70.37
385,395299787,0.4189,0.8394,0.5962,40.37,-61.83,-66.71
386,395304787,0.3970,1.0527,0.4697,45.18,-60.91,-63.54
387,395309786,0.3804,1.0747,0.5171,49.27,-60.43,-61.77
388,395314787,0.3940,1.0049,0.5723,52.07,-59.27,-59.76
389,395319787,0.4263,0.9829,0.5425,53.54,-57.56,-57.26
390,395324787,0.4448,0.9580,0.5669,53.23,-56.10,-54.51
391,395329787,0.4438,0.9736,0.6001,51.65,-54.02,-52.26
392,395334787,0.4639,0.9180,0.6074,48.66,-51.89,-50.06
393,395339788,0.4800,0.8701,0.5596,44.33,-50.24,-47.44
394,395344787,0.4849,0.8882,0.5493,38.90,-49.27,-44.51
395,395349787,0.4932,0.8931,0.5342,32.87,-48.35,-41.71
396,395354787,0.5039,0.9033,0.5386,26.28,-48.11,-38.78
397,395359787,0.5127,0.9346,0.5322,19.09,-47.93,-36.28
398,395364788,0.5400,0.9526,0.5098,11.40,-47.80,-34.27
399,395369792,0.5586,0.9585,0.4897,3.23,-47.93,-32.68
400,395374787,0.5752,0.9561,0.4766,-5.37,-48.66,-31.34
401,395379787,0.5815,0.9380,0.4771,-14.15,-49.51,-30.37
402,395384787,0.5879,0.9189,0.4810,-22.93,-50.43,-29.63
403,395389787,0.5884,0.9009,0.4819,-31.95,-51.34,-28.90
404,395394787,0.5957,0.8818,0.5132,-40.30,-52.20,-28.41
405,395400285,0.6001,0.8608,0.5112,-47.50,-52.74,-28.11
406,395404787,0.5811,0.8374,0.5146,-53.29,-53.29,-27.87
407,395409787,0.5659,0.8174,0.5273,-57.80,-53.60,-27.62
408,395414787,0.5586,0.8071,0.5273,-60.98,-53.72,-27.38
409,395419785,0.5674,0.7891,0.5244,-62.87,-53.66,-27.07
410,395424785,0.5869,0.7842,0.5254,-63.35,-53.54,-27.01
411,395429785,0.5986,0.7808,0.5342,-63.23,-52.93,-26.89
412,395434789,0.5601,0.7446,0.5278,-62.38,-52.50,-26.65
413,395439787,0.6064,0.8872,0.5332,-61.22,-51.83,-26.77
414,395444787,0.5483,0.8599,0.6880,-62.80,-50.85,-27.44
415,395449787,0.5054,0.8159,0.7500,-66.34,-49.57,-27.87
416,395454787,0.5376,0.7407,0.6606,-69.88,-48.66,-28.17
417,395459785,0.5708,0.6807,0.5723,-73.23,-48.60,-28.11
418,395464789,0.5864,0.6558,0.5444,-76.22,-49.02,-27.99
419,395469787,0.5889,0.6538,0.5151,-78.66,-48.84,-28.11
420,395474786,0.5190,0.6538,0.5054,-81.52,-48.54,-28.48
421,395479785,0.4946,0.6758,0.4673,-85.24,-47.99,-29.21
422,395484787,0.4985,0.6885,0.3999,-88.60,-47.38,-30.18
423,395489786,0.4922,0.7148,0.3589,-91.65,-46.77,-31.10
424,395494787,0.5229,0.7319,0.3799,-94.02,-45.85,-31.95
425,395499787,0.5513,0.7241,0.3916,-95.24,-44.33,-32.56
426,395504787,0.5513,0.7075,0.3896,-95.67,-42.74,-32.99
427,395509787,0.5073,0.6729,0.4087,-95.79,-40.73,-33.29
428,395514787,0.5098,0.6646,0.4365,-95.79,-38.66,-33.48
429,395519785,0.5435,0.4849,0.4702,-95.37,-36.65,-33.78
430,395524787,0.5879,0.4668,0.4683,-96.16,-34.39,-33.72
431,395529787,0.5708,0.5254,0.5054,-96.89,-32.26,-34.33
432,395534786,0.5630,0.6123,0.5327,-97.44,-30.24,-35.00
433,395540185,0.5508,0.6743,0.4854,-97.44,-28.41,-35.85
434,395544787,0.5337,0.7124,0.4458,-97.26,-26.71,-37.07
435,395549787,0.4575,0.5283,0.5137,-97.07,-25.37,-37.93
436,395554787,0.4604,0.4780,0.5293,-97.80,-23.66,-38.29
437,395559785,0.4277,0.4663,0.5215,-98.60,-22.26,-38.72
438,395564785,0.4185,0.4893,0.5376,-98.66,-20.79,-39.09
439,395569787,0.4189,0.5239,0.5498,-98.41,-19.70,-39.27
440,395574786,0.4370,0.5498,0.4878,-97.80,-18.48,-39.51
441,395579787,0.4614,0.5771,0.4541,-96.77,-17.99,-39.57
442,395584788,0.4624,0.5845,0.5005,-95.37,-17.20,-39.82
443,395589787,0.4634,0.5928,0.5269,-93.78,-16.10,-39.70
444,395594786,0.4644,0.6060,0.5122,-92.20,-15.06,-39.70
445,395599787,0.4531,0.6162,0.5195,-90.18,-13.84,-39.45
446,395604786,0.4336,0.6304,0.5518,-87.93,-12.50,-39.27
447,395609788,0.4229,0.6509,0.5820,-85.73,-11.04,-38.96
448,395614787,0.4053,0.6812,0.6133,-83.72,-9.02,-38.90
449,395619785,0.3745,0.7075,0.6582,-81.52,-6.89,-38.84
450,395624785,0.3765,0.6807,0.7178,-79.63,-4.27,-39.15
451,395629787,0.4028,0.6646,0.7451,-78.05,-1.65,-39.21
452,395634786,0.4111,0.7144,0.7666,-76.52,1.16,-39.63
453,395639789,0.4419,0.7139,0.8306,-75.24,4.02,-40.43
454,395644786,0.4956,0.6655,0.8760,-74.15,7.32,-41.40
455,395649785,0.5708,0.5928,0.9136,-73.84,10.37,-42.20
456,395654785,0.6357,0.5107,0.9160,-74.33,13.11,-42.38
457,395659789,0.6841,0.4438,0.9160,-75.61,15.49,-42.01
458,395664787,0.7139,0.4072,0.9131,-77.38,17.01,-41.40
459,395669787,0.7119,0.3857,0.9111,-79.51,18.11,-40.37
460,395674787,0.6704,0.3721,0.9233,-82.07,18.78,-39.39
461,395679787,0.6001,0.3555,0.9536,-84.51,19.27,-38.29
462,395684788,0.5146,0.3379,0.9785,-86.95,19.57,-37.13
463,395689787,0.4395,0.3296,0.9990,-89.63,19.88,-35.73
464,395694788,0.3799,0.3179,1.0298,-92.38,20.12,-34.02
465,395699787,0.3418,0.3105,1.0591,-95.43,20.30,-32.56
466,395704787,0.3135,0.2983,1.0884,-98.60,20.18,-30.73
467,395709785,0.3008,0.2969,1.1362,-102.32,19.70,-29.15
468,395714787,0.2910,0.3003,1.2051,-106.40,19.21,-27.87
469,395719786,0.2979,0.2817,1.2524,-109.94,18.41,-27.26
470,395724787,0.2920,0.2568,1.3726,-114.45,16.71,-26.89
471,395729786,0.2778,0.2290,1.4810,-116.28,14.88,-26.83
472,395734787,0.2646,0.1553,1.6079,-115.91,11.16,-27.62
473,395739787,0.2778,0.1240,1.6406,-113.78,7.38,-28.48
474,395744787,0.2974,0.0840,1.6929,-109.57,1.83,-29.88
475,395749787,0.3032,0.0679,1.7285,-103.90,-4.02,-31.95
476,395754787,0.3213,0.0874,1.6860,-97.44,-10.55,-34.51
477,395759911,0.2886,0.1313,1.7085,-89.33,-17.62,-38.48
478,395764787,0.2515,0.1372,1.7080,-84.45,-22.01,-41.28
479,395769787,0.2144,0.1406,1.6626,-79.27,-27.80,-44.76
480,395774787,0.1738,0.1548,1.6328,-75.61,-33.66,-48.17
481,395779787,0.1553,0.1904,1.6431,-73.48,-39.02,-51.40
482,395784787,0.1577,0.2275,1.6499,-71.95,-44.09,-54.88
483,395789787,0.1670,0.2695,1.6826,-70.73,-49.15,-58.23
484,395794787,0.1807,0.3179,1.7056,-69.33,-53.60,-61.52
485,395799787,0.1978,0.3687,1.7202,-68.05,-58.35,-64.94
486,395804787,0.2207,0.3916,1.7021,-66.59,-62.93,-68.17
487,395809787,0.2734,0.4131,1.6953,-65.49,-68.23,-71.22
488,395814786,0.3101,0.4277,1.7012,-64.82,-73.96,-73.90
489,395819787,0.2954,0.4404,1.7129,-64.82,-79.70,-76.65
490,395824786,0.2583,0.4722,1.7275,-66.04,-85.37,-79.27
491,395829785,0.2710,0.4932,1.7310,-68.41,-90.73,-82.13
492,395834787,0.2988,0.5000,1.7358,-72.13,-95.79,-85.06
493,395839789,0.3032,0.5312,1.7837,-77.07,-100.55,-88.11
494,395844786,0.3145,0.5400,1.8306,-83.60,-104.76,-91.04
495,395849787,0.3462,0.5425,1.7915,-91.89,-109.15,-93.60
496,395854786,0.3535,0.5459,1.7603,-101.59,-113.29,-95.67
497,395859787,0.3521,0.5508,1.7612,-112.93,-117.13,-97.74
498,395864787,0.3413,0.5752,1.7871,-125.12,-120.18,-99.57
499,395869785,0.3496,0.5977,1.7402,-137.80,-122.87,-101.16
500,395874787,0.3350,0.6211,1.7524,-150.55,-125.18,-102.56
501,395879787,0.2944,0.6436,1.7695,-163.17,-127.13,-103.60
502,395884787,0.2598,0.6519,1.7466,-175.98,-128.96,-104.21
503,395889787,0.2349,0.6851,1.7280,-188.41,-131.16,-104.63
504,395894787,0.2373,0.7144,1.6997,-200.37,-133.11,-104.76
505,395899827,0.2354,0.7261,1.6909,-210.79,-135.49,-104.57
506,395904788,0.2236,0.7432,1.6934,-219.88,-137.56,-104.02
507,395909787,0.2158,0.7388,1.6846,-227.68,-139.51,-103.41
508,395914788,0.2065,0.7295,1.6689,-234.39,-141.52,-102.56
509,395919787,0.2158,0.7485,1.6680,-240.18,-143.41,-101.59
510,395924787,0.2271,0.7471,1.6655,-245.00,-145.00,-100.49
511,395929785,0.2236,0.7573,1.6797,-249.21,-146.46,-99.15
512,395934789,0.2236,0.7666,1.6719,-253.11,-147.74,-97.87
513,395939787,0.2202,0.8140,1.6880,-256.95,-148.66,-96.65
514,395944787,0.2192,0.8296,1.6646,-260.43,-149.82,-95.55
515,395949787,0.2173,0.8594,1.6538,-263.84,-151.22,-94.45
516,395954789,0.2017,0.8613,1.6553,-266.89,-152.62,-93.35
517,395959787,0.2168,0.8687,1.6304,-269.76,-154.39,-92.44
518,395964786,0.2017,0.8789,1.6367,-272.07,-156.40,-91.52
519,395969785,0.2168,0.8706,1.6138,-273.66,-158.54,-90.67
520,395975080,0.1953,0.8848,1.6138,-274.94,-161.40,-89.63
521,395979787,0.2168,0.8496,1.5830,-275.37,-163.29,-88.90
522,395984786,0.1938,0.8706,1.5742,-275.30,-165.61,-88.11
523,395989787,0.2212,0.8555,1.5435,-275.18,-167.74,-87.26
524,395994786,0.1948,0.8682,1.5474,-274.63,-169.88,-86.40
525,395999787,0.2280,0.8589,1.5078,-274.09,-171.77,-85.73
526,396004787,0.2202,0.8701,1.4971,-273.29,-173.54,-84.82
527,396009787,0.2661,0.8706,1.4761,-272.62,-174.94,-84.21
528,396014786,0.2622,0.8564,1.4497,-271.71,-175.98,-83.48
529,396019788,0.3091,0.8740,1.4473,-270.85,-176.71,-82.93
530,396024786,0.3384,0.9141,1.4668,-269.82,-177.13,-82.32
531,396030146,0.3438,0.8618,1.4326,-268.41,-177.20,-81.59
532,396034787,0.3726,0.8921,1.4497,-267.93,-177.44,-80.91
533,396039786,0.4175,0.8608,1.5205,-267.44,-177.26,-80.18
534,396044787,0.3721,0.7837,1.6372,-267.13,-177.07,-79.15
535,396049787,0.2749,0.8369,1.5469,-267.56,-177.20,-77.99
536,396054786,0.3179,0.9121,1.3506,-269.39,-178.35,-77.20
537,396059787,0.3423,0.9360,1.1899,-273.11,-179.21,-76.28
538,396064787,0.3521,0.9375,1.0977,-278.35,-179.45,-75.55
539,396069787,0.3223,0.9287,1.0732,-284.45,-178.84,-74.70
540,396074785,0.3252,0.9565,1.0522,-290.91,-177.56,-73.96
541,396079789,0.3584,1.0005,1.0225,-296.95,-175.67,-73.23
542,396084786,0.3745,1.0176,1.0107,-302.13,-173.23,-72.20
543,396089787,0.3926,1.0220,1.0161,-305.43,-170.55,-71.16
544,396094787,0.4507,1.0215,1.0229,-307.44,-167.50,-69.82
545,396099787,0.4946,0.9814,1.0439,-307.80,-164.15,-67.68
546,396104787,0.5396,0.9561,1.0093,-306.46,-161.04,-65.30
547,396109787,0.5029,0.9565,1.0356,-303.41,-157.93,-62.99
548,396114786,0.5142,0.8560,1.0000,-298.54,-155.12,-60.61
549,396119788,0.5298,0.8071,0.9741,-292.26,-152.50,-57.62
550,396124787,0.5215,0.7905,0.9419,-285.67,-150.67,-54.57
551,396129787,0.4746,0.7568,0.9023,-278.90,-149.39,-51.28
552,396134788,0.5024,0.7666,0.8667,-271.83,-148.78,-47.44
553,396139785,0.5298,0.7065,0.8530,-264.57,-148.66,-43.60
554,396144787,0.5171,0.7007,0.8408,-256.28,-148.60,-39.39
555,396149787,0.4761,0.7285,0.8057,-247.50,-148.54,-35.79
556,396154786,0.4448,0.7412,0.7593,-238.48,-148.54,-32.44
557,396159787,0.4131,0.7051,0.7075,-228.84,-148.66,-29.39
558,396164786,0.3809,0.6382,0.6597,-219.02,-149.15,-26.40
559,396169787,0.3784,0.5645,0.6309,-208.84,-149.51,-23.17
560,396174785,0.3965,0.5103,0.6064,-198.84,-149.27,-20.24
561,396179785,0.4390,0.4487,0.5762,-189.15,-148.96,-17.68
562,396184787,0.4707,0.3872,0.5464,-180.00,-148.23,-15.55
563,396189787,0.4863,0.3057,0.5249,-171.77,-146.77,-13.90
564,396194789,0.5151,0.2471,0.5088,-164.57,-145.12,-12.62
565,396199787,0.5845,0.2085,0.5259,-158.60,-143.11,-11.83
566,396204786,0.6440,0.1392,0.5522,-154.27,-140.43,-11.52
567,396209787,0.6851,0.1206,0.5215,-152.32,-137.87,-11.59
568,396214787,0.6826,0.0835,0.5000,-152.38,-135.37,-12.13
569,396219787,0.7002,0.0249,0.4858,-153.84,-132.50,-12.68
570,396224786,0.7236,-0.0181,0.4233,-156.77,-129.63,-13.54
571,396229787,0.7397,-0.0386,0.3853,-160.79,-126.89,-14.70
572,396234786,0.7329,-0.0425,0.3882,-165.98,-124.09,-15.98
573,396239787,0.7266,-0.0303,0.3716,-171.95,-121.22,-17.50
574,396244787,0.7236,-0.0195,0.3359,-178.48,-118.66,-19.15
575,396249800,0.7222,-0.0186,0.3291,-185.30,-115.98,-20.85
576,396254787,0.7124,-0.0254,0.3301,-192.20,-113.29,-22.56
577,396259787,0.6968,-0.0303,0.3140,-199.33,-110.73,-24.33
578,396264787,0.6807,-0.0332,0.3081,-206.59,-108.11,-26.10
579,396269786,0.6616,-0.0371,0.2993,-213.84,-105.30,-27.80
580,396274787,0.6465,-0.0298,0.2827,-221.40,-102.68,-29.57
581,396279785,0.6416,-0.0254,0.2759,-228.96,-100.00,-31.46
582,396284789,0.6343,-0.0166,0.2622,-236.89,-97.44,-33.41
583,396289787,0.6328,-0.0054,0.2607,-244.57,-94.76,-35.55
584,396294787,0.6333,0.0010,0.2505,-251.95,-92.20,-37.74
585,396299785,0.6387,0.0068,0.2285,-258.54,-89.57,-40.06
586,396304787,0.6396,0.0098,0.2197,-264.33,-86.89,-42.32
587,396309787,0.6421,0.0098,0.2124,-268.90,-84.21,-44.45
588,396314787,0.6450,0.0137,0.2085,-272.44,-81.52,-46.59
589,396319787,0.6504,0.0269,0.2017,-274.88,-78.84,-48.78
590,396324788,0.6548,0.0347,0.1973,-276.52,-75.91,-50.85
591,396329786,0.6558,0.0483,0.1929,-277.38,-72.93,-52.93
592,396334787,0.6543,0.0557,0.1787,-277.93,-70.24,-55.24
593,396339786,0.6558,0.0718,0.1797,-278.11,-67.32,-57.38
594,396344785,0.6553,0.0806,0.1694,-277.87,-64.39,-59.63
595,396349787,0.6558,0.0903,0.1553,-277.50,-61.59,-61.89
596,396354786,0.6587,0.0991,0.1401,-277.13,-58.66,-64.15
597,396359787,0.6592,0.1177,0.1465,-276.89,-56.10,-66.65
598,396364786,0.6724,0.1309,0.1387,-276.16,-53.29,-68.96
599,396369785,0.6812,0.1421,0.1294,-275.30,-50.61,-71.46
600,396374787,0.6934,0.1538,0.1274,-274.33,-48.11,-74.09
601,396379785,0.6938,0.1587,0.1299,-272.99,-45.18,-76.46
602,396384787,0.6968,0.1660,0.1240,-271.46,-42.44,-78.84
603,396389787,0.6938,0.1768,0.1152,-269.76,-39.70,-81.28
604,396394786,0.6880,0.1870,0.1143,-267.93,-36.89,-83.60
605,396399787,0.6812,0.1958,0.1050,-266.04,-34.33,-85.85
606,396404786,0.6655,0.2021,0.0986,-264.02,-31.65,-88.17
607,396409787,0.6533,0.2144,0.0938,-261.95,-28.96,-90.49
608,396414786,0.6406,0.2222,0.0942,-259.57,-26.34,-92.62
609,396419787,0.6201,0.2285,0.0845,-257.20,-23.72,-94.82
610,396424785,0.6089,0.2329,0.0820,-254.39,-21.34,-97.13
611,396429788,0.5972,0.2344,0.0728,-251.40,-18.96,-98.90
612,396434786,0.5811,0.2402,0.0737,-247.80,-16.77,-100.85
613,396439785,0.5713,0.2427,0.0693,-244.09,-14.57,-102.62
614,396444785,0.5635,0.2549,0.0703,-240.06,-12.26,-104.33
615,396449787,0.5601,0.2637,0.0796,-235.91,-9.94,-106.28
616,396454787,0.5596,0.2720,0.0767,-231.40,-7.50,-108.11
617,396459786,0.5625,0.2861,0.0752,-226.46,-5.18,-110.12
618,396464787,0.5737,0.3042,0.0913,-221.34,-2.74,-112.20
619,396469804,0.5703,0.3193,0.1016,-215.85,0.12,-114.51
620,396474787,0.5679,0.3306,0.1094,-210.00,3.05,-116.77
621,396479785,0.5552,0.3403,0.1167,-203.84,5.91,-119.27
622,396484785,0.5371,0.3457,0.0996,-196.89,8.66,-121.71
623,396489787,0.5137,0.3501,0.0981,-189.51,11.10,-124.21
624,396494787,0.4966,0.3594,0.0854,-181.28,13.41,-126.83
625,396499786,0.4722,0.3638,0.0913,-172.56,15.61,-129.51
626,396504787,0.4536,0.3657,0.0806,-163.35,17.80,-132.26
627,396509787,0.4263,0.3652,0.0767,-153.66,19.63,-134.88
628,396514787,0.4077,0.3677,0.0835,-143.78,21.52,-137.62
629,396519788,0.3955,0.3755,0.0903,-133.48,23.60,-140.49
630,396524787,0.3950,0.3921,0.0928,-123.17,25.43,-143.60
631,396529787,0.3940,0.4058,0.1060,-113.17,27.56,-146.71
632,396534787,0.3892,0.4175,0.1128,-103.66,29.63,-150.30
633,396539786,0.3755,0.4302,0.1211,-94.94,31.52,-153.72
634,396544785,0.3486,0.4336,0.1250,-87.01,33.17,-156.95
635,396549789,0.3203,0.4390,0.1211,-79.88,34.76,-160.18
636,396554787,0.3032,0.4546,0.1279,-73.54,35.98,-163.17
637,396559788,0.2988,0.4761,0.1338,-68.11,37.07,-166.28
638,396564840,0.2920,0.4902,0.1465,-63.72,38.05,-169.45
639,396569787,0.2695,0.5034,0.1455,-60.12,38.90,-172.38
640,396574787,0.2666,0.5205,0.1509,-57.50,39.94,-175.24
641,396579787,0.2510,0.5273,0.1484,-55.61,40.55,-177.99
642,396584785,0.2354,0.5396,0.1484,-54.63,40.98,-179.94
643,396589785,0.2256,0.5586,0.1499,-54.15,41.65,-182.62
644,396594789,0.2085,0.5693,0.1470,-54.27,42.44,-185.55
645,396599786,0.1924,0.5796,0.1494,-54.76,42.99,-187.38
646,396604787,0.1719,0.5864,0.1411,-56.10,43.48,-189.94
647,396609787,0.1602,0.5894,0.1348,-57.13,43.96,-191.59
648,396614787,0.1460,0.6138,0.1382,-58.78,44.63,-193.84
649,396619786,0.1519,0.6353,0.1523,-60.30,45.18,-195.24
650,396624787,0.1543,0.6626,0.1641,-62.32,46.16,-197.20
651,396629787,0.1357,0.6792,0.1753,-64.51,47.01,-199.02
652,396634787,0.0986,0.6860,0.1724,-66.65,47.99,-200.49
653,396639786,0.0693,0.6978,0.1748,-68.60,48.84,-201.46
654,396644785,0.0347,0.7085,0.1816,-70.43,49.39,-201.95
655,396649785,0.0098,0.7173,0.1885,-71.89,49.63,-202.38
656,396654787,-0.0186,0.7305,0.1924,-72.80,50.00,-202.26
657,396659791,-0.0469,0.7393,0.2041,-73.60,50.12,-201.89
658,396664786,-0.0630,0.7456,0.2104,-73.90,50.12,-201.28
659,396669786,-0.0845,0.7573,0.2075,-74.15,49.94,-200.55
660,396674787,-0.0986,0.7822,0.2275,-74.33,49.76,-199.57
661,396679789,-0.1035,0.8149,0.2529,-74.82,49.76,-198.60
662,396684786,-0.1021,0.8481,0.2686,-75.67,49.88,-197.74
663,396689858,-0.1182,0.8716,0.2788,-76.89,50.06,-196.83
664,396694787,-0.1465,0.8940,0.2837,-78.54,50.00,-195.61
665,396699790,-0.1714,0.9058,0.2778,-80.30,49.63,-193.96
666,396704785,-0.1895,0.9209,0.2959,-82.13,49.21,-191.95
667,396709790,-0.2090,0.9399,0.3223,-84.02,48.84,-189.63
668,396714785,-0.2139,0.9688,0.3467,-85.67,48.72,-187.13
669,396719785,-0.2192,1.0015,0.3643,-87.13,48.60,-184.70
670,396724785,-0.2295,1.0308,0.3770,-88.60,48.35,-182.26
671,396729787,-0.2427,1.0615,0.3926,-89.70,48.41,-180.00
672,396734956,-0.2480,1.0796,0.4170,-90.43,48.60,-177.44
673,396739787,-0.2471,1.0894,0.4277,-90.73,48.90,-175.49
674,396744785,-0.2539,1.1011,0.4551,-90.61,49.39,-173.11
675,396749787,-0.2603,1.1284,0.4707,-90.30,50.24,-170.55
676,396754786,-0.2617,1.1660,0.4902,-90.18,51.10,-168.29
677,396759786,-0.2642,1.1987,0.5122,-90.49,52.07,-166.10
678,396764787,-0.2656,1.2256,0.5264,-91.04,52.99,-163.84
679,396769786,-0.2812,1.2480,0.5513,-91.83,53.90,-161.34
680,396774785,-0.2915,1.2646,0.5732,-92.62,54.94,-158.66
681,396779786,-0.3022,1.2852,0.5913,-93.35,56.16,-155.67
682,396784785,-0.3086,1.3047,0.5962,-93.84,57.26,-152.50
683,396789785,-0.3140,1.3130,0.6152,-94.27,58.23,-149.09
684,396795004,-0.3267,1.3369,0.6299,-94.63,59.88,-145.00
685,396799787,-0.3296,1.3457,0.6396,-94.57,60.85,-142.26
686,396804787,-0.3359,1.3516,0.6421,-94.63,62.44,-138.72
687,396809787,-0.3374,1.3564,0.6553,-94.09,63.54,-135.18
688,396814786,-0.3413,1.3652,0.6748,-93.41,65.24,-131.59
689,396819787,-0.3413,1.3843,0.7002,-92.68,66.89,-128.11
690,396824801,-0.3545,1.4038,0.7104,-92.20,68.66,-124.82
691,396829787,-0.3682,1.4136,0.7080,-91.22,70.55,-121.40
692,396834787,-0.3760,1.4224,0.7236,-90.12,72.01,-117.99
693,396839787,-0.3760,1.4243,0.7290,-88.48,73.54,-114.63
694,396844786,-0.3784,1.4272,0.7490,-86.34,75.37,-110.98
695,396849787,-0.3838,1.4360,0.7612,-83.90,77.07,-107.26
696,396854786,-0.3901,1.4399,0.7593,-81.16,78.84,-103.60
697,396859785,-0.4038,1.4478,0.7568,-78.35,80.43,-99.82
698,396864785,-0.4077,1.4502,0.7583,-75.24,81.59,-96.10
699,396869785,-0.4150,1.4473,0.7549,-72.20,83.41,-92.01
700,396874787,-0.4233,1.4385,0.7583,-69.15,85.61,-87.93
701,396879786,-0.4272,1.4282,0.7578,-66.40,86.10,-83.66
702,396884787,-0.4287,1.4141,0.7422,-64.02,85.91,-79.15
703,396889785,-0.4365,1.4062,0.7427,-62.20,88.29,-74.70
704,396894786,-0.4385,1.3931,0.7334,-60.98,89.70,-70.00
705,396899787,-0.4404,1.3838,0.7305,-60.18,91.52,-65.37
706,396904786,-0.4463,1.3828,0.7266,-59.82,93.35,-60.61
707,396909789,-0.4438,1.3774,0.7310,-59.94,95.24,-55.98
708,396914786,-0.4565,1.3691,0.7295,-60.55,97.20,-51.34
709,396919787,-0.4604,1.3560,0.7305,-61.40,99.45,-46.95
710,396924814,-0.4673,1.3569,0.7261,-62.26,101.77,-42.13
711,396929787,-0.4702,1.3496,0.7285,-63.23,104.33,-37.68
712,396934785,-0.4814,1.3521,0.7222,-64.15,106.95,-33.17
713,396939785,-0.4966,1.3462,0.7280,-64.88,109.82,-28.60
714,396944785,-0.5098,1.3403,0.7290,-65.12,112.56,-24.15
715,396949787,-0.5200,1.3340,0.7354,-65.00,115.43,-19.51
716,396954787,-0.5327,1.3223,0.7354,-64.27,118.54,-14.82
717,396959787,-0.5479,1.3135,0.7339,-62.93,121.83,-10.12
718,396964787,-0.5693,1.3003,0.7363,-61.16,125.12,-5.43
719,396969787,-0.5894,1.2847,0.7236,-59.27,128.66,-0.61
720,396974786,-0.6104,1.2646,0.7261,-57.38,132.38,4.15
721,396979787,-0.6284,1.2476,0.7310,-55.79,136.28,9.21
722,396984787,-0.6382,1.2295,0.7280,-54.51,140.67,14.02
723,396989787,-0.6465,1.2168,0.7285,-53.72,144.88,19.09
724,396994785,-0.6611,1.2129,0.7412,-53.84,149.57,23.78
725,396999786,-0.6675,1.2148,0.7422,-54.57,154.57,28.35
726,397004788,-0.6743,1.2119,0.7480,-55.79,159.63,32.80
727,397009787,-0.6836,1.2129,0.7539,-57.26,165.00,37.07
728,397014787,-0.6875,1.2046,0.7607,-58.35,170.37,41.40
729,397019788,-0.6968,1.1948,0.7676,-59.02,175.85,45.67
730,397024786,-0.7085,1.1816,0.7749,-58.72,181.71,50.06
731,397029900,-0.7295,1.1694,0.7881,-57.62,187.62,54.51
732,397034787,-0.7593,1.1582,0.7920,-55.18,193.72,58.96
733,397039787,-0.8003,1.1470,0.8057,-51.95,200.00,63.54
734,397044786,-0.8350,1.1187,0.8184,-47.87,206.46,68.05
735,397049787,-0.8779,1.1016,0.8340,-43.29,212.99,72.68
736,397054786,-0.9268,1.0811,0.8384,-38.60,219.57,77.44
737,397059785,-0.9609,1.0737,0.8594,-34.45,226.16,82.20
738,397064786,-1.0063,1.0620,0.8633,-30.85,232.74,86.46
739,397069787,-1.0479,1.0542,0.8799,-28.41,239.39,89.88
740,397074787,-1.0840,1.0532,0.8887,-26.65,245.91,93.90
741,397079788,-1.1187,1.0488,0.8979,-25.79,251.95,97.62
742,397084788,-1.1631,1.0435,0.9146,-25.30,258.05,101.16
743,397089787,-1.1987,1.0352,0.9341,-25.06,264.15,104.76
744,397094785,-1.2329,1.0273,0.9531,-24.51,269.94,108.35
745,397099785,-1.2651,1.0142,0.9771,-23.78,275.79,112.13
746,397104789,-1.3101,1.0063,0.9961,-22.38,282.01,115.85
747,397109786,-1.3623,0.9961,1.0083,-20.43,287.87,119.94
748,397114787,-1.4165,0.9824,1.0298,-18.11,293.66,123.84
749,397119789,-1.4663,0.9731,1.0479,-15.61,299.45,127.87
750,397124787,-1.5103,0.9697,1.0723,-12.93,305.49,131.83
751,397129788,-1.5625,0.9683,1.0972,-10.49,311.28,135.73
752,397134787,-1.6187,0.9644,1.1235,-8.60,317.01,139.45
753,397139788,-1.6812,0.9648,1.1436,-7.01,322.80,143.17
754,397144787,-1.7451,0.9663,1.1699,-5.91,328.23,146.77
755,397149787,-1.8188,0.9712,1.1978,-5.06,333.60,150.18
756,397154785,-1.9009,0.9751,1.2207,-4.39,338.96,153.66
757,397159785,-1.9790,0.9658,1.2344,-3.72,344.21,157.20
758,397165036,-2.0396,0.9644,1.2607,-2.68,349.15,160.98
759,397169789,-2.0952,0.9580,1.2886,-1.34,354.27,164.82
760,397174787,-2.1392,0.9526,1.3062,0.24,359.39,168.78
761,397179787,-2.1987,0.9526,1.3120,2.26,364.70,172.68
762,397184787,-2.2637,0.9546,1.3247,4.39,369.76,176.52
763,397189786,-2.3281,0.9551,1.3467,6.71,374.94,180.61
764,397194788,-2.3984,0.9517,1.3618,8.72,379.82,184.45
765,397199785,-2.4849,0.9653,1.3794,10.91,384.51,188.29
766,397204787,-2.5596,0.9878,1.4048,12.56,389.51,192.20
767,397209787,-2.6284,1.0195,1.4194,13.41,394.27,195.73
768,397214787,-2.7227,1.0537,1.4443,13.54,399.02,199.09
769,397219787,-2.8286,1.0825,1.4644,13.48,403.60,202.38
770,397224787,-2.9346,1.1099,1.4834,13.72,408.29,206.04
771,397229787,-3.0249,1.1377,1.4951,13.90,413.05,210.06
772,397234787,-3.0918,1.1553,1.4966,14.27,417.80,214.39
773,397239787,-3.1538,1.2017,1.4907,15.00,422.87,219.27
774,397244787,-3.2246,1.2500,1.5010,15.73,427.80,224.39
775,397249787,-3.3052,1.2964,1.4976,16.10,433.05,229.63
776,397254787,-3.3281,1.3320,1.5024,14.76,438.90,235.06
777,397259788,-3.3584,1.3208,1.4624,12.32,444.45,241.77
778,397264785,-3.4033,1.3457,1.4868,9.88,449.76,249.51
779,397269789,-3.3647,1.3862,1.5488,7.68,456.10,257.68
780,397274787,-3.3560,1.4312,1.5601,6.52,462.93,266.04
781,397279787,-3.4487,1.4814,1.5688,6.77,469.15,274.33
782,397284787,-3.5444,1.5063,1.6064,9.09,474.88,282.68
783,397289787,-3.6348,1.5210,1.6348,13.90,480.67,291.16
784,397294787,-3.7495,1.5483,1.6733,20.18,485.98,299.76
785,397299787,-3.8491,1.5444,1.6938,27.68,490.43,308.48
786,397304787,-3.9028,1.5552,1.7539,36.10,494.70,317.13
787,397309789,-3.9165,1.5820,1.8091,43.96,499.02,325.61
788,397314787,-3.9131,1.6025,1.8530,51.40,503.11,333.48
789,397319787,-3.9316,1.6201,1.8994,58.11,506.89,340.91
790,397324931,-3.9658,1.6279,1.9463,63.66,510.43,347.93
791,397329787,-4.0234,1.6265,1.9790,68.54,513.23,354.70
792,397334786,-4.0903,1.6250,2.0205,71.95,515.24,361.40
793,397339787,-4.1743,1.6177,2.0757,74.70,516.10,367.87
794,397344787,-4.2627,1.6123,2.1172,76.22,516.52,374.33
795,397349786,-4.3315,1.6079,2.1782,76.28,515.85,380.91
796,397354965,-4.3853,1.6094,2.2368,75.24,514.94,387.26
797,397359786,-4.4155,1.6221,2.2861,74.02,513.23,393.48
798,397364785,-4.4229,1.6353,2.3447,72.56,510.98,399.27
799,397369787,-4.4258,1.6333,2.3882,71.95,508.11,405.00
800,397374786,-4.4468,1.6445,2.4111,73.17,504.45,410.37
801,397379855,-4.4766,1.6323,2.4321,76.40,500.49,415.79
802,397384787,-4.4570,1.6167,2.4272,80.43,496.10,421.10
803,397389785,-4.4053,1.6118,2.4307,86.10,491.52,426.34
804,397394785,-4.3501,1.6006,2.4229,92.93,487.13,431.65
805,397399789,-4.3027,1.5845,2.4102,98.35,482.93,436.71
806,397404971,-4.2285,1.5776,2.3828,102.93,478.90,442.01
807,397409787,-4.1533,1.5664,2.3687,106.83,475.06,447.26
808,397414785,-4.0811,1.5410,2.3618,108.48,471.28,452.20
809,397419787,-4.0278,1.5454,2.3633,107.99,467.50,457.26
810,397424787,-3.9912,1.5386,2.3506,106.22,463.29,462.13
811,397429788,-3.9429,1.5264,2.3540,103.72,458.48,466.77
812,397434873,-3.8882,1.5034,2.3433,101.71,453.17,471.71
813,397439788,-3.8364,1.4683,2.3164,100.85,447.38,476.65
814,397444786,-3.7964,1.4482,2.2988,101.40,441.83,481.77
815,397449789,-3.7603,1.4287,2.2695,102.56,436.46,487.38
816,397454786,-3.7012,1.3779,2.2197,103.84,431.16,493.23
817,397459785,-3.6641,1.3394,2.1934,105.30,426.83,499.94
818,397464785,-3.6631,1.3027,2.1665,105.24,423.05,507.07
819,397469785,-3.6934,1.2612,2.1694,101.46,419.33,514.88
820,397474789,-3.7642,1.2183,2.1699,93.48,415.18,522.99
821,397479787,-3.8623,1.1851,2.1738,80.98,410.00,531.34
822,397484786,-3.9614,1.1494,2.1851,64.02,403.23,540.00
823,397489787,-4.0210,1.1021,2.1729,43.11,394.76,549.39
824,397494787,-4.0303,1.0562,2.1484,18.96,384.76,559.39
825,397499786,-4.0430,1.0098,2.1157,-8.41,373.29,570.06
826,397504787,-4.0386,0.9629,2.0693,-37.38,360.73,581.59
827,397509789,-4.0142,0.8862,2.0093,-67.26,346.65,593.72
828,397514787,-4.0088,0.8086,1.9487,-97.56,332.32,606.89
829,397519787,-3.9868,0.7466,1.8975,-128.35,317.07,620.49
830,397524787,-3.9639,0.6753,1.8262,-159.33,300.73,634.21
831,397529787,-3.9702,0.6079,1.7559,-189.94,283.54,647.87
832,397534787,-3.9771,0.5376,1.6914,-219.94,265.18,661.22
833,397539787,-3.9761,0.4917,1.6797,-248.66,245.61,674.15
834,397544787,-3.8579,0.4009,1.6958,-277.99,223.84,685.98
835,397549786,-3.8354,0.4751,2.4897,-306.83,202.80,697.01
836,397554789,-3.4053,0.2505,4.0630,-338.96,182.68,707.01
837,397559786,-2.6719,-0.7524,2.5420,-375.43,156.71,715.98
838,397564785,-3.0020,-0.9082,4.2710,-425.06,122.99,726.77
839,397569785,-3.1313,-0.3975,2.9990,-470.55,90.79,732.26
840,397574785,-3.4282,-0.0771,2.2988,-511.10,43.17,734.57
841,397579788,-3.7051,-0.0410,2.1494,-528.17,3.84,735.49
842,397584787,-3.7988,-0.1973,1.8516,-533.11,-25.49,736.04
843,397589787,-3.7852,-0.3433,1.5732,-533.84,-62.26,735.98
844,397594831,-3.8174,-0.4727,1.5215,-532.93,-97.38,734.21
845,397599787,-3.9399,-0.5332,1.4136,-532.62,-130.73,730.12
846,397604787,-3.9829,-0.6338,1.2988,-533.41,-163.60,723.11
847,397609786,-3.9536,-0.7148,1.2485,-533.84,-195.49,713.41
848,397614787,-3.8579,-0.7363,1.1855,-531.95,-225.85,700.67
849,397619786,-3.7583,-0.7354,1.1079,-524.51,-254.21,684.94
850,397624794,-3.6299,-0.7334,1.0547,-509.63,-280.61,666.46
851,397629787,-3.5034,-0.7852,1.0044,-486.77,-303.90,645.18
852,397634785,-3.3833,-0.8789,0.9717,-455.73,-328.54,621.77
853,397639785,-3.2598,-0.9741,0.8726,-419.63,-341.95,596.59
854,397644789,-3.0225,-1.0142,0.8052,-377.87,-356.28,569.82
855,397649786,-2.7188,-1.1211,0.7031,-332.93,-367.38,541.83
856,397654785,-2.5322,-1.2363,0.6675,-287.38,-375.37,513.90
857,397659787,-2.4111,-1.3037,0.6167,-243.23,-380.85,486.04
858,397664786,-2.2661,-1.3511,0.5703,-203.11,-384.15,458.23
859,397669786,-2.1455,-1.3872,0.4858,-168.72,-385.24,431.22
860,397674787,-2.0337,-1.2925,0.4551,-142.13,-385.98,404.82
861,397679789,-1.9292,-1.1426,0.3931,-124.39,-385.24,378.60
862,397684787,-1.8237,-1.0317,0.3647,-114.51,-383.84,353.11
863,397689786,-1.7671,-0.9097,0.3442,-112.62,-382.50,328.72
864,397694785,-1.7305,-0.7065,0.3208,-118.66,-380.91,304.45
865,397699789,-1.7222,-0.6333,0.1226,-131.40,-380.43,281.52
866,397704787,-1.7612,-0.5117,0.0713,-147.74,-380.55,259.09
867,397709791,-1.8125,-0.4521,-0.0049,-166.46,-380.12,236.95
868,397714835,-1.8735,-0.3628,-0.0654,-185.18,-379.63,215.55
869,397719787,-1.9585,-0.3521,-0.1553,-201.71,-378.54,195.06
870,397724787,-2.0664,-0.3774,-0.2383,-214.45,-377.38,175.98
871,397729787,-2.2510,-0.3984,-0.3276,-223.23,-374.76,157.56
872,397734790,-2.5010,-0.4727,-0.4805,-228.84,-370.73,136.71
873,397739787,-2.6797,-0.5483,-0.6221,-229.70,-367.50,123.66
874,397744787,-2.9082,-0.6772,-0.7910,-227.74,-362.93,108.84
875,397749788,-3.0752,-0.8130,-0.9111,-222.99,-357.13,95.24
876,397754787,-3.2427,-0.9634,-1.0054,-216.16,-350.18,84.02
877,397759786,-3.3823,-1.1943,-1.1157,-208.90,-341.83,73.35
878,397764787,-3.5483,-1.4214,-1.2607,-201.59,-332.13,64.82
879,397769786,-3.6060,-1.5938,-1.3105,-195.55,-320.30,57.68
880,397774785,-3.5923,-1.7139,-1.3677,-194.45,-307.20,50.79
881,397779787,-3.2896,-1.8599,-1.5142,-199.21,-293.78,44.09
882,397784786,-3.1392,-1.9204,-1.4766,-207.07,-279.76,37.56
883,397789787,-2.9590,-1.9062,-1.4775,-216.83,-264.09,30.79
884,397795307,-2.7070,-1.7983,-1.5220,-227.80,-244.39,21.71
885,397799787,-2.5342,-1.7349,-1.5259,-232.38,-231.22,15.06
886,397804787,-2.3203,-1.6665,-1.4668,-232.50,-214.51,6.89
887,397809787,-2.0742,-1.6030,-1.4204,-225.67,-197.62,-1.10
888,397814786,-1.8154,-1.5410,-1.3506,-212.56,-180.79,-8.66
889,397819787,-1.5811,-1.4575,-1.2715,-194.09,-163.84,-15.91
890,397824787,-1.3711,-1.3530,-1.2251,-172.56,-146.83,-23.23
891,397829787,-1.1870,-1.2480,-1.1660,-149.39,-130.43,-30.37
892,397834787,-1.0391,-1.1367,-1.0952,-126.22,-114.21,-37.44
893,397839787,-0.8955,-1.0474,-1.0337,-103.66,-98.48,-44.33
894,397845168,-0.7441,-0.9219,-0.9585,-79.51,-80.61,-52.62
895,397849788,-0.6685,-0.8525,-0.9282,-66.22,-69.45,-58.29
896,397854787,-0.5801,-0.7734,-0.8643,-53.17,-55.91,-65.49
897,397859787,-0.5029,-0.7178,-0.8184,-44.21,-43.23,-72.87
898,397864787,-0.4404,-0.6704,-0.7803,-39.33,-31.16,-80.43
899,397869787,-0.4160,-0.6519,-0.7559,-37.80,-19.88,-87.62
900,397874787,-0.3857,-0.6558,-0.7158,-38.60,-9.27,-94.57
901,397879788,-0.3652,-0.6562,-0.6772,-41.22,0.79,-101.34
902,397884787,-0.3579,-0.6567,-0.6528,-44.63,10.30,-107.80
903,397889787,-0.3604,-0.6582,-0.6260,-47.62,19.27,-113.78
904,397894787,-0.3677,-0.6680,-0.5928,-49.63,27.80,-119.33
905,397899787,-0.3662,-0.6885,-0.5732,-49.82,35.67,-124.51
906,397904787,-0.3638,-0.7100,-0.5479,-48.35,43.23,-129.15
907,397909787,-0.3633,-0.7334,-0.5283,-45.12,50.06,-133.41
908,397914785,-0.3647,-0.7549,-0.5088,-40.37,56.40,-137.32
909,397919786,-0.3682,-0.7725,-0.4932,-34.51,62.26,-140.91
910,397924785,-0.3726,-0.7944,-0.4746,-27.50,67.50,-144.15
911,397929789,-0.3696,-0.7969,-0.4541,-19.45,72.01,-147.13
912,397934787,-0.3672,-0.8071,-0.4536,-10.18,76.28,-150.06
913,397939786,-0.3828,-0.7603,-0.4541,0.67,79.51,-152.80
914,397944787,-0.3848,-0.8149,-0.4614,13.35,82.68,-155.43
915,397949786,-0.3682,-0.8628,-0.4463,26.34,85.00,-157.56
916,397954787,-0.3672,-0.8965,-0.4141,38.78,85.91,-159.57
917,397959787,-0.3560,-0.9307,-0.3921,49.82,85.98,-161.46
918,397964787,-0.3467,-0.9448,-0.3730,59.45,88.35,-163.41
919,397969786,-0.3315,-0.9629,-0.3643,67.38,88.90,-165.43
920,397974785,-0.3550,-0.9878,-0.3545,73.29,89.70,-167.44
921,397979974,-0.3965,-1.0068,-0.3564,77.99,89.82,-169.33
922,397984787,-0.3823,-1.0083,-0.3354,81.22,89.76,-171.46
923,397989786,-0.3623,-1.0332,-0.2861,83.05,89.76,-173.60
924,397995104,-0.3364,-1.0801,-0.2866,84.02,88.54,-175.61
925,397999787,-0.3369,-1.0967,-0.2793,83.72,87.20,-177.26
926,398004786,-0.3506,-1.1050,-0.2612,82.80,86.22,-178.90
927,398009785,-0.3438,-1.1152,-0.2251,80.49,85.49,-180.67
928,398014785,-0.3394,-1.1138,-0.2139,77.80,85.43,-182.32
929,398019785,-0.3062,-1.1138,-0.2021,74.88,85.24,-183.90
930,398024787,-0.2910,-1.1108,-0.1821,72.07,82.87,-185.12
931,398029788,-0.3091,-1.0586,-0.2007,69.94,81.65,-186.34
932,398034787,-0.3433,-1.0513,-0.1821,69.33,80.18,-187.20
933,398039787,-0.3252,-1.0781,-0.1313,69.76,79.02,-187.74
934,398044787,-0.2988,-1.0913,-0.1187,70.43,77.93,-188.11
935,398049787,-0.2798,-1.0742,-0.1270,71.04,76.46,-188.05
936,398054945,-0.2690,-1.0527,-0.1035,72.26,75.00,-187.99
937,398059787,-0.2642,-1.0273,-0.0869,73.84,73.54,-187.80
938,398064786,-0.2559,-1.0078,-0.0952,76.59,72.07,-187.62
939,398069787,-0.2417,-0.9922,-0.0981,78.54,70.98,-187.44
940,398075265,-0.2236,-0.9634,-0.0981,80.85,69.88,-187.32
941,398079787,-0.2466,-0.9268,-0.1118,83.96,68.90,-187.26
942,398084786,-0.2183,-0.9160,-0.1128,87.50,67.56,-186.89
943,398089787,-0.1899,-0.9146,-0.0903,90.91,66.46,-186.52
944,398094787,-0.1763,-0.9028,-0.0781,94.02,65.06,-185.91
945,398099787,-0.1680,-0.8999,-0.0732,96.52,63.78,-185.18
946,398104787,-0.1626,-0.8887,-0.0576,98.60,62.62,-184.45
947,398109788,-0.1587,-0.8740,-0.0342,100.43,61.46,-183.78
948,398114787,-0.1367,-0.8657,-0.0249,101.95,60.24,-182.93
949,398119787,-0.1201,-0.8579,-0.0195,103.48,58.78,-182.20
950,398124785,-0.0806,-0.8555,-0.0117,104.27,57.20,-181.46
951,398129790,-0.0586,-0.8472,0.0107,104.09,55.91,-180.55
952,398134787,-0.0537,-0.8354,0.0239,103.11,54.57,-179.88
953,398139787,-0.0420,-0.8257,0.0469,101.04,53.54,-179.45
954,398144787,-0.0215,-0.8169,0.0493,98.48,52.56,-178.96
955,398149787,-0.0010,-0.8022,0.0439,95.55,51.59,-178.60
956,398154787,0.0181,-0.7935,0.0488,92.26,50.55,-178.23
957,398159787,0.0386,-0.7856,0.0562,88.66,50.00,-177.80
958,398164787,0.0498,-0.7729,0.0464,85.12,49.21,-177.44
959,398169787,0.0596,-0.7661,0.0381,81.65,48.66,-176.89
960,398174787,0.0625,-0.7563,0.0415,78.11,48.29,-176.34
961,398179787,0.0659,-0.7402,0.0332,74.70,47.93,-175.61
962,398184786,0.0693,-0.7227,0.0356,71.10,47.99,-175.06
963,398190185,0.0845,-0.7134,0.0542,67.87,47.93,-174.39
964,398194787,0.0786,-0.6836,0.0767,65.30,48.29,-173.66
965,398199786,0.1172,-0.6973,0.0688,63.60,48.72,-172.93
966,398204787,0.1675,-0.6997,0.0791,61.89,49.21,-172.07
967,398209786,0.1841,-0.6968,0.0923,60.12,49.82,-171.28
968,398214787,0.2075,-0.6812,0.1260,58.05,50.73,-170.67
969,398219786,0.2231,-0.6782,0.1279,55.91,51.95,-170.06
970,398224785,0.2510,-0.6821,0.1357,53.66,52.93,-169.51
971,398229789,0.2656,-0.6743,0.1470,51.22,54.21,-169.02
972,398234787,0.2534,-0.6670,0.1543,48.90,55.18,-168.60
973,398239786,0.2827,-0.6494,0.1665,46.65,56.59,-168.41
974,398244787,0.3057,-0.6328,0.1777,44.45,57.87,-168.05
975,398249789,0.3394,-0.6240,0.1914,42.07,59.45,-167.99
976,398254786,0.3662,-0.6177,0.1875,39.88,60.98,-167.68
977,398259789,0.3857,-0.6030,0.1948,37.62,62.50,-167.44
978,398264787,0.3760,-0.5767,0.2148,35.18,64.33,-167.38
979,398269786,0.3774,-0.5547,0.2217,32.80,66.22,-167.50
980,398274864,0.4023,-0.5620,0.2251,30.73,68.11,-167.50
981,398279786,0.4111,-0.5381,0.2241,28.78,70.30,-167.44
982,398284785,0.3843,-0.5044,0.2314,27.07,72.38,-167.38
983,398289789,0.3501,-0.4346,0.2373,25.55,74.57,-167.68
984,398294786,0.2051,-0.3755,0.2251,26.10,76.71,-168.23
985,398299787,0.2661,-0.3691,0.2075,27.80,78.48,-168.35
986,398304787,0.3369,-0.3345,0.1934,30.61,79.63,-168.11
987,398309787,0.3706,-0.3003,0.1787,33.54,80.61,-167.93
988,398314786,0.3872,-0.2832,0.1860,36.46,81.34,-167.99
989,398319787,0.3804,-0.2700,0.2017,39.21,82.56,-168.05
990,398324787,0.3760,-0.2549,0.1919,41.65,83.96,-168.23
991,398329788,0.3721,-0.2368,0.1841,43.72,83.96,-168.72
992,398334965,0.3618,-0.2231,0.2051,45.55,85.61,-169.21
993,398339787,0.3564,-0.2021,0.2007,47.26,85.79,-169.88
994,398344787,0.3350,-0.1860,0.1973,48.72,85.73,-170.67
995,398349786,0.3115,-0.1685,0.2085,50.12,85.67,-171.28
996,398354786,0.2847,-0.1553,0.2212,51.46,85.67,-172.01
997,398359787,0.2754,-0.1592,0.2095,53.11,85.91,-172.56
998,398364787,0.2871,-0.1602,0.2041,54.51,87.87,-173.11
999,398369787,0.2798,-0.1475,0.2109,55.67,87.38,-173.41
1000,398374786,0.2764,-0.1421,0.2222,56.34,88.41,-173.96
1001,398379787,0.2695,-0.1362,0.2134,56.83,88.78,-174.33
1002,398385285,0.3057,-0.0742,0.2212,56.95,88.35,-174.45
1003,398389787,0.5166,0.0327,0.2632,56.10,89.15,-174.63
1004,398394788,0.5864,0.2041,0.2993,54.82,88.35,-174.57
1005,398399787,0.6294,0.2534,0.2808,53.35,88.72,-174.33
1006,398404786,0.6113,0.2192,0.3267,51.40,88.48,-173.17
1007,398409787,0.6040,0.2168,0.3950,49.27,88.23,-171.89
1008,398414787,0.5728,0.2168,0.4004,46.77,86.59,-170.37
1009,398419787,0.5586,0.2119,0.4336,43.96,86.34,-168.23
1010,398424785,0.5859,0.2373,0.4995,40.12,85.55,-166.04
1011,398429785,0.6704,0.2524,0.6226,35.06,85.55,-163.66
1012,398434788,0.8057,0.1914,0.7686,28.60,85.61,-160.98
1013,398439785,1.0020,0.0347,0.9634,21.65,85.67,-157.87
1014,398444787,1.3369,-0.2275,1.3638,13.35,85.61,-154.45
1015,398450225,1.6323,-0.5049,1.6050,1.65,85.37,-150.91
1016,398454787,1.5439,-0.6411,1.5044,-13.60,84.51,-148.11
1017,398459787,1.0425,-0.5215,1.2407,-28.72,79.82,-146.71
1018,398464788,0.5381,-0.3452,1.0142,-41.40,76.10,-146.28
1019,398469785,0.3110,-0.1841,0.8730,-51.34,73.96,-146.16
1020,398474785,0.3228,-0.0552,0.7417,-59.82,73.05,-146.28
1021,398479787,0.4370,0.0498,0.6904,-66.83,72.50,-146.46
1022,398484786,0.5605,0.0879,0.6631,-72.38,72.13,-146.34
1023,398489785,0.6587,0.1230,0.6357,-76.71,71.89,-145.61
1024,398495023,0.6914,0.1167,0.6172,-80.06,71.52,-143.96
1025,398499787,0.6948,0.1548,0.6016,-82.56,71.22,-141.65
1026,398504787,0.7070,0.1924,0.6270,-84.09,70.91,-139.02
1027,398509787,0.7222,0.2139,0.6660,-84.94,71.28,-136.10
1028,398514786,0.7339,0.2285,0.6685,-85.06,71.89,-132.80
1029,398519787,0.7334,0.2837,0.7939,-83.11,73.60,-129.88
1030,398524787,0.8579,0.3271,0.6177,-79.02,75.00,-127.32
1031,398529787,0.9243,0.3652,0.6348,-72.44,74.51,-126.22
1032,398534786,1.0552,0.2720,0.6294,-63.54,73.05,-126.16
1033,398539787,1.1255,0.1621,0.6123,-53.66,70.30,-126.28
1034,398544787,1.1504,0.1196,0.7080,-42.62,67.26,-126.40
1035,398549787,1.1440,0.1484,0.7524,-30.98,64.63,-126.46
1036,398554786,1.1299,0.2036,0.7349,-21.04,62.07,-126.77
1037,398559787,1.1191,0.2183,0.7783,-8.41,59.09,-127.07
1038,398564786,1.1133,0.2114,0.8037,4.45,56.04,-127.62
1039,398569787,1.1191,0.2007,0.7759,16.52,52.74,-128.05
1040,398574786,1.1289,0.2046,0.7651,28.17,49.09,-128.23
1041,398579788,1.1348,0.2192,0.7700,38.60,45.30,-128.48
1042,398584786,1.1309,0.2446,0.7598,48.05,41.22,-128.72
1043,398589787,1.1245,0.2695,0.7363,56.40,36.89,-128.66
1044,398594786,1.1118,0.2959,0.7437,63.54,32.56,-128.78
1045,398600086,1.0889,0.3193,0.7578,70.43,27.32,-128.78
1046,398604787,1.0786,0.3311,0.7568,73.96,24.21,-128.60
1047,398609787,1.0615,0.3403,0.7637,77.38,20.24,-128.17
1048,398614787,1.0435,0.3540,0.7637,79.70,16.22,-127.56
1049,398619786,1.0229,0.3687,0.7749,81.10,12.56,-126.65
1050,398624787,1.0073,0.3789,0.7593,81.83,8.78,-125.73
1051,398629787,0.9844,0.3926,0.7515,81.89,5.18,-124.27
1052,398634787,0.9609,0.3994,0.7476,81.28,1.89,-122.68
1053,398639836,0.9414,0.4106,0.7461,80.30,-1.34,-121.04
1054,398644786,0.9170,0.4165,0.7397,78.90,-4.33,-118.96
1055,398649789,0.9038,0.4263,0.7383,77.38,-7.44,-116.71
1056,398654786,0.8853,0.4341,0.7354,75.55,-10.24,-114.45
1057,398659789,0.8672,0.4448,0.7397,73.54,-12.93,-112.01
1058,398664786,0.8525,0.4663,0.7339,71.59,-15.30,-109.39
1059,398669787,0.8418,0.4756,0.7383,69.39,-17.32,-106.89
1060,398674786,0.8335,0.4941,0.7407,67.01,-19.45,-104.57
1061,398679787,0.8247,0.5122,0.7422,64.70,-21.04,-102.07
1062,398684786,0.8218,0.5283,0.7466,62.32,-22.50,-99.82
1063,398689785,0.8232,0.5366,0.7466,59.82,-23.78,-97.44
1064,398694787,0.8203,0.5474,0.7393,57.20,-24.94,-95.18
1065,398699786,0.8130,0.5483,0.7344,54.70,-25.91,-92.99
1066,398704787,0.8071,0.5459,0.7285,52.20,-26.59,-90.55
1067,398709787,0.7993,0.5400,0.7290,49.63,-27.32,-88.17
1068,398714787,0.7925,0.5356,0.7188,47.32,-27.87,-85.67
1069,398719787,0.7905,0.5332,0.7197,44.88,-28.29,-83.05
1070,398724786,0.7915,0.5386,0.7163,42.99,-28.60,-80.55
1071,398729787,0.7964,0.5469,0.7124,41.10,-28.66,-77.99
1072,398734785,0.7988,0.5566,0.7144,39.70,-28.72,-75.49
1073,398739785,0.8071,0.5669,0.7153,38.35,-28.48,-72.93
1074,398744787,0.8091,0.5791,0.7188,37.32,-28.41,-70.49
1075,398749787,0.8130,0.5898,0.7197,36.46,-28.05,-68.11
1076,398754787,0.8120,0.5894,0.7173,35.85,-27.32,-65.85
1077,398759787,0.8145,0.5889,0.7095,35.18,-26.95,-63.60
1078,398764787,0.8198,0.5869,0.7148,34.63,-26.34,-61.40
1079,398769786,0.8203,0.5859,0.7041,33.96,-25.67,-59.33
1080,398774787,0.8242,0.5845,0.6992,33.05,-25.00,-57.01
1081,398779787,0.8281,0.5820,0.6934,32.38,-24.27,-55.12
1082,398784787,0.8340,0.5884,0.6777,31.52,-23.54,-53.17
1083,398789786,0.8325,0.5898,0.6665,30.61,-22.93,-51.46
1084,398794787,0.8320,0.5879,0.6616,29.63,-22.13,-49.70
1085,398799787,0.8394,0.5845,0.6553,28.54,-21.59,-48.11
1086,398804788,0.8398,0.5913,0.6431,27.56,-21.10,-46.46
1087,398809786,0.8467,0.5884,0.6357,26.52,-20.37,-45.00
1088,398814787,0.8457,0.5894,0.6279,25.55,-20.00,-43.60
1089,398819787,0.8467,0.5928,0.6270,24.45,-19.33,-42.44
1090,398824787,0.8521,0.5933,0.6133,23.60,-18.78,-41.22
1091,398829786,0.8516,0.5879,0.6001,22.80,-18.17,-40.06
1092,398834788,0.8452,0.5864,0.5942,22.20,-17.62,-38.96
1093,398839786,0.8452,0.5791,0.5859,21.34,-16.95,-37.93
1094,398844787,0.8403,0.5771,0.5718,20.73,-16.59,-37.01
1095,398849787,0.8267,0.5664,0.5625,20.00,-16.16,-35.91
1096,398854787,0.8252,0.5601,0.5630,19.45,-15.67,-34.88
1097,398859787,0.8223,0.5498,0.5391,18.66,-15.43,-33.78
1098,398864787,0.8271,0.5435,0.5312,18.05,-15.18,-32.80
1099,398869787,0.8208,0.5415,0.5327,17.74,-15.00,-31.65
1100,398874787,0.8154,0.5415,0.5254,17.50,-14.63,-30.55
1101,398879786,0.8115,0.5449,0.5156,17.38,-14.27,-29.70
1102,398884788,0.8022,0.5425,0.5146,17.74,-13.78,-28.72
1103,398889787,0.8018,0.5376,0.5088,18.23,-13.66,-27.74
1104,398894787,0.8013,0.5342,0.5020,18.90,-13.11,-27.01
1105,398899785,0.8042,0.5337,0.4941,19.51,-12.74,-26.16
1106,398904787,0.8037,0.5273,0.4888,20.24,-12.32,-25.24
1107,398910136,0.7998,0.5181,0.4888,21.34,-11.83,-24.39
1108,398914787,0.7998,0.5156,0.4771,22.32,-11.59,-23.48
1109,398919787,0.8018,0.5146,0.4712,23.35,-11.22,-22.74
1110,398924787,0.7988,0.5122,0.4624,24.51,-10.85,-21.83
1111,398929786,0.7964,0.5127,0.4648,25.49,-10.37,-21.10
1112,398934787,0.7959,0.5093,0.4565,26.59,-10.00,-20.18
1113,398940160,0.7905,0.5073,0.4546,27.74,-9.76,-19.39
1114,398944787,0.7842,0.5010,0.4468,28.84,-9.39,-18.54
1115,398949787,0.7778,0.4951,0.4512,30.00,-9.09,-17.68
1116,398954787,0.7690,0.4858,0.4448,31.04,-8.84,-16.77
1117,398959786,0.7646,0.4780,0.4434,32.07,-8.66,-15.98
1118,398964787,0.7544,0.4785,0.4404,33.05,-8.29,-15.12
1119,398969787,0.7515,0.4766,0.4468,34.15,-7.99,-14.27
1120,398974788,0.7510,0.4790,0.4497,35.12,-7.68,-13.66
1121,398979786,0.7490,0.4863,0.4492,36.04,-7.32,-12.99
1122,398984788,0.7520,0.4946,0.4546,36.95,-6.89,-12.50
1123,398989787,0.7578,0.4995,0.4478,38.05,-6.52,-12.01
1124,398994787,0.7612,0.5068,0.4551,39.02,-6.22,-11.77
1125,398999786,0.7598,0.5220,0.4497,40.24,-5.98,-11.65
1126,399004787,0.7651,0.5273,0.4556,41.34,-5.55,-11.65
1127,399009787,0.7651,0.5298,0.4580,42.50,-5.37,-11.59
1128,399014789,0.7656,0.5317,0.4541,43.54,-4.94,-11.71
1129,399019787,0.7671,0.5327,0.4521,44.39,-4.63,-11.71
1130,399024786,0.7690,0.5317,0.4536,45.24,-4.27,-11.71
1131,399029787,0.7710,0.5366,0.4478,46.04,-4.02,-11.83
1132,399034786,0.7773,0.5361,0.4507,46.52,-3.78,-11.95
1133,399039787,0.7769,0.5396,0.4551,46.77,-3.48,-12.13
1134,399044787,0.7827,0.5469,0.4604,47.07,-3.05,-12.32
1135,399049787,0.7827,0.5591,0.4580,47.32,-2.62,-12.68
1136,399054787,0.7866,0.5684,0.4653,47.44,-2.07,-13.05
1137,399059787,0.7886,0.5767,0.4756,47.38,-1.46,-13.54
1138,399064786,0.7920,0.5874,0.4771,47.26,-0.73,-14.15
1139,399069787,0.7954,0.5981,0.4727,47.01,-0.18,-14.94
1140,399074786,0.7959,0.6016,0.4834,46.59,0.61,-15.61
1141,399079787,0.8022,0.6089,0.4883,46.16,1.40,-16.46
1142,399084786,0.8052,0.6128,0.4863,45.49,2.13,-17.38
1143,399089787,0.8037,0.6167,0.4766,44.70,2.87,-18.29
1144,399094788,0.8037,0.6191,0.4844,43.72,3.60,-19.27
1145,399099787,0.8027,0.6147,0.4746,42.44,4.15,-20.43
1146,399104787,0.8018,0.6147,0.4712,40.79,4.88,-21.22
1147,399110299,0.8008,0.6094,0.4668,38.96,5.43,-22.07
1148,399114787,0.7925,0.6050,0.4697,36.89,5.79,-22.87
1149,399119788,0.7905,0.5962,0.4609,34.51,6.22,-23.60
1150,399124787,0.7783,0.5913,0.4663,31.95,6.77,-24.39
1151,399129786,0.7739,0.5874,0.4590,29.57,7.20,-25.06
1152,399134787,0.7715,0.5923,0.4668,26.89,7.80,-25.67
1153,399139786,0.7632,0.5928,0.4644,24.39,8.17,-26.34
1154,399144785,0.7563,0.5913,0.4736,21.89,8.78,-26.83
1155,399149787,0.7505,0.6021,0.4775,18.78,9.57,-27.56
1156,399154787,0.7480,0.6016,0.4785,16.95,9.88,-28.17
1157,399159787,0.7505,0.6030,0.4814,14.76,10.37,-28.72
1158,399164787,0.7471,0.6108,0.4805,12.68,10.98,-29.09
1159,399169786,0.7476,0.6147,0.4805,10.79,11.40,-29.45
1160,399174787,0.7446,0.6230,0.4731,9.15,11.77,-29.94
1161,399179787,0.7446,0.6240,0.4785,7.50,12.01,-30.12
1162,399184793,0.7466,0.6284,0.4717,6.16,12.13,-30.12
1163,399189785,0.7500,0.6318,0.4761,5.00,12.26,-30.00
1164,399194788,0.7510,0.6372,0.4668,4.02,12.01,-29.63
1165,399199787,0.7549,0.6450,0.4624,3.41,11.65,-29.02
1166,399204786,0.7568,0.6553,0.4609,2.99,11.28,-28.23
1167,399209790,0.7583,0.6562,0.4653,2.87,10.67,-27.13
1168,399214790,0.7646,0.6670,0.4639,3.23,10.06,-25.85
1169,399219789,0.7661,0.6768,0.4600,3.72,9.39,-24.45
1170,399224789,0.7661,0.6826,0.4624,4.63,8.66,-22.74
1171,399229787,0.7681,0.6929,0.4604,5.73,7.93,-21.10
1172,399234787,0.7676,0.7026,0.4644,7.26,7.07,-19.21
1173,399239814,0.7769,0.7104,0.4707,9.02,6.28,-17.38
1174,399244785,0.7749,0.7207,0.4819,10.91,5.55,-15.49
1175,399249788,0.7754,0.7344,0.4834,13.11,4.82,-13.60
1176,399254789,0.7783,0.7417,0.4941,15.18,4.27,-11.71
1177,399259787,0.7783,0.7490,0.5000,17.56,3.54,-9.88
1178,399264786,0.7847,0.7588,0.4985,19.76,2.99,-8.17
1179,399269787,0.7808,0.7603,0.5010,21.83,2.44,-6.59
1180,399274786,0.7827,0.7622,0.5015,23.78,1.95,-4.94
1181,399279787,0.7769,0.7603,0.5005,25.37,1.71,-3.48
1182,399284786,0.7729,0.7603,0.5107,26.83,1.22,-2.01
1183,399290243,0.7681,0.7690,0.5093,27.87,0.91,-0.79
1184,399294787,0.7646,0.7622,0.5098,28.72,0.67,0.24
1185,399299787,0.7617,0.7622,0.5083,29.09,0.43,1.34
1186,399304787,0.7554,0.7529,0.5054,29.09,0.06,2.38
1187,399309785,0.7471,0.7529,0.5020,28.84,-0.24,3.35
1188,399314789,0.7388,0.7441,0.4995,28.35,-0.55,4.02
1189,399319787,0.7324,0.7402,0.4883,27.32,-0.79,4.88
1190,399324787,0.7266,0.7324,0.4941,25.98,-1.10,5.55
1191,399329786,0.7227,0.7251,0.4897,24.51,-1.28,6.16
1192,399334788,0.7197,0.7139,0.4805,22.62,-1.59,6.77
1193,399339786,0.7080,0.7070,0.4746,20.55,-1.95,7.26
1194,399344787,0.7100,0.6997,0.4688,18.54,-2.13,7.74
1195,399349785,0.6987,0.6948,0.4629,16.34,-2.56,8.35
1196,399354786,0.6978,0.6880,0.4683,14.27,-2.56,8.66
1197,399359787,0.6943,0.6836,0.4609,12.13,-2.56,9.15
1198,399364787,0.6855,0.6724,0.4575,10.18,-2.74,9.45
1199,399369787,0.6836,0.6670,0.4565,8.23,-2.68,9.82
1200,399374786,0.6836,0.6562,0.4526,6.40,-2.68,10.18
1201,399379787,0.6787,0.6523,0.4482,4.76,-2.62,10.61
1202,399384787,0.6768,0.6489,0.4600,3.35,-2.38,10.79
1203,399389787,0.6763,0.6440,0.4526,2.07,-2.13,10.98
1204,399394787,0.6802,0.6411,0.4526,1.04,-2.07,11.10
1205,399399788,0.6841,0.6367,0.4565,0.12,-1.83,11.34
1206,399404785,0.6812,0.6318,0.4575,-0.49,-1.52,11.46
1207,399409786,0.6831,0.6279,0.4517,-0.91,-1.22,11.59
1208,399414785,0.6885,0.6230,0.4487,-1.28,-1.04,11.65
1209,399419787,0.6924,0.6138,0.4517,-1.46,-0.85,11.65
1210,399424787,0.6943,0.6143,0.4507,-1.52,-0.61,11.65
1211,399429787,0.7002,0.6128,0.4463,-1.46,-0.30,11.46
1212,399434786,0.7036,0.6089,0.4434,-1.28,-0.30,11.28
1213,399439787,0.7075,0.6011,0.4429,-1.10,0.00,10.98
1214,399444786,0.7095,0.5962,0.4404,-0.98,0.18,10.79
1215,399449785,0.7129,0.5913,0.4409,-0.61,0.37,10.55
1216,399454785,0.7197,0.5908,0.4404,-0.37,0.61,10.18
1217,399459789,0.7256,0.5918,0.4473,-0.06,0.61,9.70
1218,399464787,0.7251,0.5889,0.4409,0.30,0.73,9.15
1219,399469787,0.7261,0.5864,0.4399,0.79,0.91,8.72
1220,399474788,0.7280,0.5820,0.4468,1.10,1.04,8.11
1221,399479786,0.7266,0.5825,0.4448,1.40,1.16,7.68
1222,399484787,0.7275,0.5864,0.4473,1.77,1.28,6.95
1223,399489787,0.7285,0.5820,0.4497,2.13,1.34,6.46
1224,399494787,0.7300,0.5879,0.4546,2.38,1.22,5.73
1225,399499788,0.7236,0.5884,0.4521,2.68,1.40,5.06
1226,399504787,0.7266,0.5928,0.4502,2.93,1.22,4.51
1227,399509786,0.7236,0.5918,0.4531,3.05,1.10,3.60
1228,399514787,0.7231,0.5942,0.4619,3.17,1.04,2.93
1229,399520256,0.7207,0.5918,0.4536,3.41,0.98,2.20
1230,399524787,0.7227,0.5952,0.4590,3.41,0.61,1.65
1231,399529787,0.7202,0.5967,0.4526,3.41,0.55,0.98
