# skilleye imu stream v1
# device=xiao_esp32c6 imu=mpu6050 addr=0x68
# rate_hz=200 accel_range_g=16 gyro_range_dps=2000 dlpf_hz=94
# units: accel in g, gyro in deg/s, t_us in microseconds since boot (monotonic)
# no shared clock with the camera -- tap the racket once before each take
# so both recordings share a spike to align on
seq,t_us,ax,ay,az,gx,gy,gz
0,143421984,0.1230,-0.9390,0.3901,13.66,10.06,11.77
1,143426985,0.1260,-0.9355,0.3931,15.18,9.27,11.95
2,143431984,0.1323,-0.9351,0.3843,16.65,8.35,12.26
3,143436984,0.1436,-0.9341,0.3843,18.11,7.56,12.50
4,143441984,0.1519,-0.9404,0.3809,19.57,6.34,12.62
5,143446984,0.1592,-0.9419,0.3765,20.85,5.37,12.74
6,143451982,0.1729,-0.9448,0.3745,21.83,4.21,12.93
7,143456984,0.1826,-0.9448,0.3770,22.74,2.87,12.93
8,143462471,0.1943,-0.9556,0.3745,23.35,1.10,13.05
9,143466984,0.2031,-0.9517,0.3682,23.54,-0.18,13.05
10,143471984,0.2134,-0.9575,0.3735,23.54,-1.59,12.99
11,143476984,0.2241,-0.9556,0.3691,23.11,-3.23,12.93
12,143482367,0.2354,-0.9604,0.3706,22.32,-4.57,12.74
13,143486984,0.2397,-0.9644,0.3730,21.28,-5.98,12.44
14,143491984,0.2456,-0.9717,0.3711,19.88,-7.26,12.01
15,143496984,0.2520,-0.9756,0.3774,17.87,-8.29,11.65
16,143501984,0.2495,-0.9766,0.3735,15.98,-9.15,11.10
17,143506984,0.2529,-0.9849,0.3750,13.90,-10.06,10.37
18,143511984,0.2505,-0.9863,0.3745,11.77,-10.61,9.76
19,143516984,0.2471,-0.9907,0.3716,9.51,-10.85,8.90
20,143521984,0.2446,-0.9922,0.3647,7.44,-11.10,7.93
21,143526985,0.2480,-0.9888,0.3682,5.67,-11.16,6.83
22,143531984,0.2417,-0.9980,0.3672,4.33,-11.04,5.85
23,143536984,0.2212,-1.0073,0.3604,2.87,-10.91,4.76
24,143541983,0.2075,-1.0044,0.3760,1.59,-10.55,3.72
25,143546984,0.1982,-1.0083,0.3755,0.30,-10.06,2.56
26,143551982,0.1963,-1.0127,0.3716,-0.79,-9.70,1.34
27,143556982,0.1938,-1.0112,0.3638,-1.83,-9.21,0.12
28,143561984,0.1860,-1.0098,0.3770,-2.56,-8.78,-1.04
29,143566983,0.1787,-1.0093,0.3804,-3.60,-8.23,-2.32
30,143571982,0.1689,-1.0029,0.3740,-4.21,-7.87,-3.29
31,143577402,0.1680,-1.0000,0.3833,-4.88,-7.32,-4.27
32,143581984,0.1631,-0.9946,0.3882,-5.37,-7.01,-5.18
33,143586984,0.1611,-0.9849,0.3867,-5.73,-6.65,-5.85
34,143591984,0.1567,-0.9814,0.3867,-5.98,-6.40,-6.52
35,143596984,0.1558,-0.9785,0.3911,-6.34,-6.16,-7.13
36,143601984,0.1519,-0.9678,0.3901,-6.28,-5.98,-7.50
37,143606984,0.1431,-0.9609,0.3989,-6.40,-5.67,-7.87
38,143612433,0.1401,-0.9478,0.3984,-6.34,-5.49,-8.05
39,143616984,0.1416,-0.9360,0.3979,-6.10,-5.49,-7.99
40,143621984,0.1445,-0.9248,0.4038,-6.04,-5.30,-7.99
41,143626984,0.1348,-0.9185,0.4028,-5.79,-5.30,-7.80
42,143631984,0.1362,-0.9058,0.4058,-5.43,-5.00,-7.56
43,143636984,0.1367,-0.8984,0.4126,-5.18,-4.88,-7.32
44,143641985,0.1401,-0.8882,0.4097,-4.63,-4.76,-6.77
45,143647004,0.1382,-0.8823,0.4165,-4.39,-4.63,-6.16
46,143651984,0.1396,-0.8740,0.4180,-4.15,-4.27,-5.30
47,143656984,0.1421,-0.8604,0.4204,-3.60,-3.90,-4.57
48,143661984,0.1392,-0.8589,0.4258,-3.17,-3.84,-3.48
49,143666984,0.1416,-0.8511,0.4194,-2.44,-3.48,-2.32
50,143671984,0.1431,-0.8501,0.4253,-1.89,-3.23,-1.28
51,143676984,0.1367,-0.8408,0.4331,-0.91,-3.23,0.43
52,143681984,0.1401,-0.8418,0.4277,-0.12,-2.99,1.40
53,143686984,0.1401,-0.8428,0.4341,0.98,-2.87,2.87
54,143691984,0.1401,-0.8403,0.4360,2.07,-2.74,4.39
55,143696984,0.1372,-0.8433,0.4409,3.29,-2.62,5.73
56,143701984,0.1362,-0.8457,0.4434,4.63,-2.50,7.32
57,143706984,0.1411,-0.8467,0.4468,6.16,-2.62,8.96
58,143711984,0.1372,-0.8525,0.4512,7.87,-2.56,10.49
59,143716984,0.1372,-0.8525,0.4482,9.45,-2.56,12.13
60,143721984,0.1372,-0.8555,0.4507,11.16,-2.80,13.66
61,143726984,0.1382,-0.8584,0.4580,12.87,-3.05,15.24
62,143731984,0.1362,-0.8677,0.4585,14.70,-3.23,16.83
63,143736984,0.1362,-0.8711,0.4580,16.52,-3.48,18.17
64,143741984,0.1333,-0.8755,0.4634,18.35,-3.66,19.70
65,143746984,0.1284,-0.8828,0.4614,20.24,-3.96,21.10
66,143751984,0.1216,-0.8901,0.4653,22.07,-4.45,22.50
67,143756984,0.1235,-0.8936,0.4678,23.72,-4.70,23.78
68,143761984,0.1123,-0.8979,0.4683,25.30,-5.06,25.00
69,143767120,0.1079,-0.9082,0.4746,27.01,-5.49,26.16
70,143771984,0.1016,-0.9092,0.4746,28.41,-5.91,27.32
71,143776984,0.0981,-0.9150,0.4775,29.70,-6.10,28.41
72,143781984,0.0928,-0.9199,0.4819,30.91,-6.52,29.21
73,143787293,0.0894,-0.9375,0.4775,32.32,-6.77,30.24
74,143791984,0.0854,-0.9399,0.4775,33.17,-7.01,30.85
75,143796984,0.0835,-0.9468,0.4780,34.27,-7.13,31.77
76,143802472,0.0703,-0.9561,0.4858,35.37,-7.62,32.50
77,143806984,0.0649,-0.9639,0.4819,36.10,-7.62,32.93
78,143811984,0.0562,-0.9673,0.4878,36.89,-7.99,33.23
79,143817336,0.0464,-0.9712,0.4844,37.99,-8.17,33.78
80,143821984,0.0415,-0.9780,0.4844,38.72,-8.11,33.84
81,143826984,0.0278,-0.9863,0.4790,39.63,-8.35,34.02
82,143831984,0.0234,-0.9946,0.4800,40.73,-8.35,34.02
83,143836984,0.0088,-0.9966,0.4775,41.46,-8.54,33.90
84,143841984,0.0000,-1.0010,0.4810,42.26,-8.72,33.72
85,143846984,-0.0059,-1.0034,0.4731,43.17,-8.90,33.29
86,143851984,-0.0137,-1.0068,0.4736,43.90,-9.09,32.99
87,143856982,-0.0190,-1.0068,0.4727,44.45,-9.33,32.38
88,143861982,-0.0259,-1.0088,0.4722,44.88,-9.51,31.77
89,143866982,-0.0312,-1.0107,0.4707,45.30,-9.94,31.04
90,143871982,-0.0366,-1.0132,0.4634,45.67,-10.24,30.37
91,143877488,-0.0322,-1.0171,0.4629,45.91,-10.61,29.45
92,143881984,-0.0317,-1.0137,0.4644,46.16,-11.04,28.84
93,143886984,-0.0332,-1.0151,0.4604,46.16,-11.34,28.05
94,143891984,-0.0288,-1.0137,0.4600,46.28,-11.83,27.20
95,143896984,-0.0269,-1.0137,0.4595,45.98,-12.26,26.52
96,143901984,-0.0171,-1.0171,0.4609,45.61,-12.68,25.73
97,143906984,-0.0151,-1.0210,0.4614,45.24,-13.23,25.00
98,143911984,-0.0112,-1.0215,0.4629,44.70,-13.96,24.33
99,143916984,-0.0024,-1.0244,0.4653,44.02,-14.51,23.84
100,143921984,0.0010,-1.0269,0.4692,43.17,-15.12,23.23
101,143926984,0.0039,-1.0298,0.4712,42.20,-15.67,22.74
102,143931984,0.0063,-1.0303,0.4668,41.04,-16.52,22.20
103,143936984,0.0063,-1.0303,0.4722,39.82,-17.07,21.71
104,143941984,0.0063,-1.0352,0.4790,38.29,-17.74,21.22
105,143946985,0.0044,-1.0366,0.4829,36.71,-18.35,20.91
106,143951984,0.0034,-1.0317,0.4824,35.00,-19.09,20.24
107,143956984,-0.0024,-1.0283,0.4824,33.23,-19.76,19.70
108,143961984,-0.0049,-1.0264,0.4805,31.34,-20.37,18.90
109,143966984,-0.0073,-1.0288,0.4819,29.21,-21.04,18.17
110,143971984,-0.0122,-1.0269,0.4902,27.20,-21.52,17.44
111,143977438,-0.0132,-1.0200,0.4912,24.63,-22.01,16.40
112,143981984,-0.0142,-1.0171,0.4907,22.99,-22.38,15.67
113,143986984,-0.0181,-1.0151,0.4922,20.85,-22.74,14.76
114,143991984,-0.0181,-1.0117,0.5000,19.02,-23.23,13.66
115,143996984,-0.0146,-1.0112,0.4946,17.38,-23.48,12.62
116,144001984,-0.0122,-1.0088,0.4858,15.79,-23.72,11.65
117,144006984,-0.0068,-1.0020,0.4946,14.57,-24.09,10.55
118,144011984,-0.0068,-0.9990,0.4946,13.66,-24.27,9.51
119,144016984,-0.0049,-0.9985,0.4878,12.99,-24.51,8.66
120,144021984,-0.0068,-0.9946,0.4858,12.62,-24.82,7.56
121,144026984,-0.0020,-0.9932,0.4932,12.44,-25.06,6.77
122,144031984,0.0059,-0.9922,0.4932,12.44,-25.37,5.91
123,144036984,0.0088,-0.9897,0.4932,12.62,-25.67,5.18
124,144041984,0.0171,-0.9956,0.4966,12.87,-26.10,4.27
125,144047474,0.0254,-0.9932,0.4976,13.29,-26.28,3.66
126,144051984,0.0293,-0.9878,0.4980,13.66,-26.71,3.05
127,144056984,0.0269,-0.9917,0.5000,14.09,-26.95,2.50
128,144061984,0.0361,-0.9907,0.4946,14.70,-27.20,2.01
129,144066984,0.0376,-0.9902,0.4907,15.06,-27.62,1.28
130,144071984,0.0420,-0.9873,0.4956,15.55,-27.87,0.73
131,144076987,0.0430,-0.9805,0.4937,15.98,-28.35,0.06
132,144081984,0.0405,-0.9854,0.4946,16.16,-28.60,-0.43
133,144086984,0.0405,-0.9824,0.4937,16.04,-28.96,-1.04
134,144091984,0.0361,-0.9824,0.4922,15.55,-29.33,-1.83
135,144096984,0.0371,-0.9810,0.5020,14.45,-29.57,-2.74
136,144101984,0.0444,-0.9844,0.5093,12.80,-29.88,-3.54
137,144106984,0.0498,-0.9814,0.5132,10.98,-30.12,-4.63
138,144111984,0.0562,-0.9814,0.5215,8.54,-30.55,-5.55
139,144116985,0.0557,-0.9819,0.5283,5.98,-30.79,-6.59
140,144121984,0.0601,-0.9863,0.5308,2.50,-31.10,-7.80
141,144126984,0.0625,-0.9888,0.5288,0.43,-31.40,-8.54
142,144131983,0.0659,-0.9946,0.5317,-2.32,-31.65,-9.33
143,144136984,0.0693,-0.9941,0.5254,-4.82,-32.01,-10.24
144,144141984,0.0791,-0.9961,0.5225,-7.32,-32.56,-11.10
145,144146984,0.0859,-0.9985,0.5205,-9.57,-33.05,-11.89
146,144151984,0.0869,-1.0000,0.5225,-11.34,-33.96,-12.68
147,144156982,0.0952,-1.0029,0.5166,-12.87,-34.70,-13.41
148,144161982,0.1025,-1.0010,0.5122,-14.02,-35.73,-14.21
149,144166982,0.1094,-1.0034,0.5156,-14.76,-36.46,-14.94
150,144171984,0.1377,-1.0049,0.4722,-15.00,-37.68,-15.73
151,144176984,0.1362,-1.0093,0.4946,-14.88,-38.84,-16.40
152,144181984,0.1172,-1.0244,0.5103,-15.12,-40.06,-17.01
153,144186984,0.1045,-1.0303,0.4995,-15.55,-41.10,-17.68
154,144191982,0.1152,-1.0347,0.4907,-15.98,-42.13,-18.35
155,144196987,0.1567,-1.0215,0.4780,-16.22,-43.17,-19.02
156,144201982,0.1494,-1.0327,0.4932,-17.01,-44.21,-19.76
157,144206984,0.1377,-1.0327,0.5186,-17.93,-45.24,-20.49
158,144211984,0.1426,-1.0049,0.4878,-18.35,-45.79,-21.46
159,144216984,0.1602,-1.0586,0.4678,-19.21,-47.01,-22.50
160,144221984,0.1431,-1.0703,0.4990,-20.79,-47.99,-23.29
161,144226984,0.1328,-1.0474,0.5225,-22.38,-48.54,-24.33
162,144231984,0.1343,-1.0371,0.5171,-24.15,-48.96,-25.67
163,144236984,0.1489,-1.0420,0.5093,-25.91,-49.33,-26.77
164,144241984,0.1670,-1.0557,0.5146,-27.44,-49.76,-28.05
165,144246984,0.1797,-1.0610,0.4995,-28.84,-50.00,-28.96
166,144251984,0.1904,-1.0723,0.4829,-30.06,-50.43,-29.76
167,144256984,0.1963,-1.0781,0.4766,-31.04,-50.85,-30.67
168,144261984,0.2002,-1.0723,0.4668,-32.07,-51.65,-31.65
169,144266984,0.2212,-1.0830,0.4473,-32.68,-52.20,-32.32
170,144271985,0.2158,-1.0913,0.4434,-32.93,-53.17,-33.23
171,144276984,0.2290,-1.0830,0.4424,-33.05,-54.02,-34.09
172,144281984,0.2363,-1.0737,0.4263,-32.68,-54.76,-34.88
173,144286984,0.2539,-1.0747,0.4023,-32.13,-55.73,-35.98
174,144291984,0.2612,-1.0552,0.4053,-31.46,-56.95,-36.95
175,144296984,0.2651,-1.0601,0.4053,-30.73,-57.93,-37.99
176,144301984,0.2607,-1.0903,0.3428,-30.37,-59.15,-38.96
177,144306984,0.2695,-1.0498,0.3970,-29.88,-60.30,-39.94
178,144311984,0.2769,-1.0518,0.4023,-29.45,-61.22,-41.46
179,144316984,0.2871,-1.0518,0.4058,-28.66,-61.95,-42.80
180,144321984,0.2891,-1.0488,0.4033,-27.93,-62.44,-44.09
181,144326984,0.2891,-1.0361,0.3809,-27.07,-62.93,-45.37
182,144331984,0.2925,-1.0337,0.3892,-25.85,-63.48,-46.59
183,144336984,0.2983,-1.0415,0.3984,-24.63,-63.78,-47.80
184,144341984,0.2983,-1.0488,0.3843,-23.23,-64.21,-49.02
185,144346984,0.3115,-1.0464,0.3618,-21.71,-64.45,-50.18
186,144351984,0.3345,-1.0435,0.3589,-20.12,-64.88,-51.34
187,144356984,0.3564,-1.0518,0.3530,-18.48,-65.30,-52.50
188,144361984,0.3521,-1.0571,0.3325,-16.65,-65.85,-53.35
189,144366984,0.3496,-1.0391,0.3076,-15.18,-66.52,-54.45
190,144371984,0.3628,-1.0244,0.3110,-13.78,-66.89,-55.55
191,144376984,0.3560,-1.0254,0.3125,-12.38,-67.38,-57.01
192,144381984,0.3486,-1.0059,0.2837,-11.16,-67.87,-58.29
193,144386984,0.3667,-0.9761,0.2407,-9.94,-68.54,-60.00
194,144391984,0.3662,-0.9805,0.2397,-8.41,-69.33,-61.77
195,144396984,0.3672,-0.9883,0.2295,-7.07,-70.18,-63.66
196,144401984,0.3667,-0.9917,0.1997,-6.16,-71.34,-65.55
197,144406984,0.3652,-0.9917,0.1675,-5.18,-72.50,-67.38
198,144411984,0.3604,-0.9941,0.1782,-4.63,-73.54,-69.02
199,144416984,0.3633,-0.9917,0.1733,-4.51,-74.76,-70.73
200,144421984,0.3794,-0.9878,0.1455,-4.76,-75.85,-72.26
201,144427097,0.3955,-0.9824,0.1665,-5.18,-76.77,-73.60
202,144431984,0.4038,-0.9663,0.2256,-5.73,-76.89,-74.82
203,144436984,0.3784,-1.0190,0.3022,-6.16,-76.22,-75.67
204,144441984,0.3584,-0.9492,0.2358,-6.10,-74.88,-76.34
205,144446984,0.3428,-0.9561,0.2725,-5.49,-73.72,-76.89
206,144451984,0.3145,-0.9019,0.3428,-4.33,-71.46,-77.44
207,144456984,0.3135,-0.8979,0.3154,-2.01,-69.21,-78.05
208,144461983,0.3130,-0.9019,0.3013,0.49,-66.77,-78.48
209,144466984,0.3003,-0.8843,0.3354,3.35,-63.96,-78.72
210,144471982,0.2983,-0.8599,0.3496,6.40,-60.79,-78.78
211,144477027,0.2861,-0.8267,0.3271,9.70,-57.74,-78.72
212,144481984,0.2832,-0.8008,0.3271,13.54,-54.63,-78.41
213,144486984,0.2764,-0.7793,0.3613,17.32,-51.10,-78.11
214,144492350,0.2646,-0.7646,0.3711,21.40,-47.26,-77.56
215,144497463,0.2705,-0.7622,0.3433,25.55,-43.60,-76.65
216,144501984,0.2803,-0.7441,0.3530,30.06,-39.88,-75.49
217,144506984,0.3013,-0.7324,0.3745,34.88,-36.10,-73.84
218,144511984,0.3149,-0.7212,0.3594,39.88,-32.32,-72.01
219,144516984,0.3325,-0.7197,0.3101,45.18,-28.96,-69.82
220,144521984,0.3638,-0.7227,0.2695,50.37,-26.28,-67.13
221,144526984,0.3960,-0.6914,0.2695,55.06,-24.02,-64.02
222,144531984,0.4312,-0.6631,0.2256,59.51,-22.32,-61.04
223,144536984,0.4731,-0.6592,0.1846,63.11,-21.40,-57.93
224,144541984,0.5269,-0.6450,0.1631,66.10,-20.73,-54.63
225,144546984,0.5288,-0.6499,0.1255,68.48,-20.67,-51.34
226,144551984,0.5400,-0.6665,0.0845,70.00,-21.10,-47.80
227,144556984,0.5142,-0.6392,0.0781,70.85,-21.89,-44.21
228,144561984,0.4580,-0.6333,0.1030,71.40,-22.44,-40.73
229,144566984,0.4746,-0.7202,0.1602,71.16,-22.50,-37.01
230,144571984,0.4009,-0.6597,0.1562,69.76,-21.95,-32.87
231,144576984,0.3169,-0.6484,0.1660,67.50,-21.28,-29.15
232,144581984,0.2607,-0.6714,0.1968,64.15,-20.37,-25.30
233,144586984,0.2300,-0.6704,0.2290,59.21,-18.84,-21.22
234,144591984,0.2524,-0.6113,0.2017,52.68,-16.95,-17.44
235,144596984,0.2876,-0.5347,0.1421,44.51,-15.49,-14.39
236,144601984,0.3223,-0.5283,0.1299,35.55,-14.27,-11.89
237,144606984,0.3462,-0.5044,0.1338,25.37,-13.11,-9.51
238,144611984,0.3530,-0.5063,0.1265,15.06,-11.89,-7.38
239,144616984,0.3301,-0.5132,0.1309,4.70,-10.49,-5.18
240,144621984,0.2964,-0.5225,0.1172,-5.67,-9.09,-2.87
241,144626984,0.2764,-0.5225,0.0947,-15.85,-7.74,-0.67
242,144631985,0.2588,-0.5298,0.0874,-25.85,-6.34,1.65
243,144636984,0.2441,-0.5376,0.0913,-35.91,-5.00,4.33
244,144641984,0.2402,-0.5249,0.1113,-45.73,-3.29,6.89
245,144646984,0.2476,-0.5278,0.0981,-55.73,-1.40,9.39
246,144651984,0.2759,-0.5156,0.0771,-65.79,0.49,12.07
247,144656984,0.3140,-0.5269,0.0767,-75.85,2.20,14.57
248,144661985,0.3276,-0.5537,0.0630,-86.04,3.96,17.38
249,144666983,0.3389,-0.5552,0.0371,-95.73,5.55,20.06
250,144671984,0.3442,-0.5635,0.0249,-104.94,6.83,22.74
251,144676984,0.3379,-0.5947,0.0601,-113.48,8.05,25.37
252,144681984,0.3403,-0.5820,0.0283,-121.40,9.27,28.11
253,144686984,0.3555,-0.5977,0.0161,-128.11,10.24,30.79
254,144691984,0.3789,-0.6411,0.0444,-133.72,11.10,33.29
255,144696984,0.4141,-0.6562,0.0259,-137.87,11.83,35.91
256,144701984,0.4438,-0.6543,-0.0073,-140.12,11.65,38.29
257,144706984,0.4658,-0.6841,-0.0029,-140.73,11.04,40.12
258,144711987,0.4917,-0.7305,0.0225,-139.45,9.82,41.89
259,144716984,0.5181,-0.7681,0.0322,-136.22,8.23,43.35
260,144721984,0.5410,-0.7988,0.0376,-131.10,6.10,44.51
261,144726984,0.5508,-0.8169,0.0640,-124.09,3.54,45.30
262,144731987,0.5298,-0.8311,0.0840,-115.24,0.61,45.98
263,144736984,0.5186,-0.8032,0.0605,-105.00,-2.93,46.16
264,144742198,0.4839,-0.9629,0.2319,-93.84,-6.10,46.40
265,144746984,0.4629,-0.9761,0.1396,-82.13,-8.78,47.38
266,144751984,0.4219,-0.9663,0.1294,-70.37,-11.52,48.29
267,144756983,0.3823,-0.9443,0.2231,-58.96,-13.66,49.27
268,144761982,0.3545,-0.9185,0.2285,-48.17,-15.18,50.00
269,144766982,0.3364,-0.9194,0.1660,-37.93,-17.26,50.49
270,144771984,0.3208,-0.9370,0.1641,-28.29,-19.33,50.61
271,144778175,0.3042,-0.9326,0.2021,-18.17,-21.34,50.30
272,144781984,0.3071,-0.9585,0.2344,-12.13,-22.38,49.88
273,144786984,0.3237,-0.9424,0.2002,-5.24,-24.02,48.84
274,144791984,0.3423,-0.9258,0.2256,0.43,-25.67,47.44
275,144796984,0.3447,-0.9146,0.2783,5.06,-26.95,45.73
276,144801984,0.3477,-0.9136,0.2734,8.41,-28.29,43.84
277,144806984,0.3423,-0.9282,0.2783,10.49,-29.63,41.59
278,144811984,0.3433,-0.9414,0.3110,11.40,-30.85,39.27
279,144816984,0.3442,-0.9453,0.3315,11.28,-31.65,36.89
280,144822357,0.3550,-0.9487,0.3081,10.06,-32.56,34.63
281,144826984,0.3618,-0.9541,0.2993,7.99,-33.48,32.50
282,144831984,0.3647,-0.9526,0.3218,5.49,-34.15,30.24
283,144836984,0.3574,-0.9468,0.3198,2.13,-34.51,28.05
284,144841984,0.3525,-0.9492,0.3003,-1.65,-34.70,25.61
285,144846984,0.3496,-0.9458,0.2871,-5.49,-35.00,23.29
286,144851984,0.3447,-0.9473,0.2949,-9.33,-34.94,20.85
287,144856984,0.3452,-0.9531,0.2915,-12.87,-34.82,18.48
288,144861984,0.3574,-0.9556,0.2573,-16.28,-34.63,16.34
289,144866984,0.3687,-0.9624,0.2397,-19.15,-34.45,14.45
290,144871984,0.3931,-0.9668,0.2437,-21.59,-34.33,12.62
291,144876984,0.4204,-0.9644,0.2314,-23.96,-34.02,11.16
292,144881984,0.4438,-0.9673,0.2300,-26.65,-33.48,9.63
293,144886984,0.4736,-0.9790,0.2373,-28.35,-33.11,8.60
294,144891984,0.4937,-0.9854,0.2295,-30.79,-32.56,7.62
295,144896984,0.4883,-0.9990,0.2339,-33.29,-31.89,6.95
296,144901984,0.5137,-1.0151,0.2300,-35.73,-31.22,6.52
297,144906984,0.5444,-1.0244,0.2251,-38.72,-30.30,6.34
298,144911984,0.5586,-1.0303,0.2231,-42.01,-29.39,6.34
299,144916984,0.5649,-1.0425,0.2212,-45.37,-28.17,6.40
300,144921984,0.6001,-1.0479,0.2183,-48.90,-26.89,6.77
301,144926984,0.6113,-1.0557,0.2065,-52.38,-25.61,6.95
302,144931984,0.6147,-1.0669,0.1851,-55.85,-24.33,7.32
303,144936984,0.6021,-1.0620,0.1650,-58.96,-23.17,7.62
304,144941984,0.6030,-1.0591,0.1416,-61.46,-22.13,7.80
305,144946984,0.6011,-1.0464,0.1240,-63.35,-21.40,8.05
306,144951984,0.6211,-1.0210,0.0972,-64.63,-20.79,7.93
307,144956984,0.6436,-1.0083,0.0747,-65.55,-20.24,7.74
308,144961984,0.6572,-0.9985,0.0635,-66.10,-20.06,7.32
309,144966984,0.6582,-0.9990,0.0361,-66.65,-19.82,6.52
310,144971984,0.6558,-0.9980,0.0278,-67.07,-19.76,5.67
311,144976984,0.6514,-0.9951,0.0161,-67.44,-19.70,4.57
312,144981983,0.6479,-0.9800,-0.0024,-67.80,-19.63,3.35
313,144986984,0.6440,-0.9819,-0.0176,-68.17,-19.63,1.95
314,144991984,0.6270,-1.0703,-0.0830,-68.66,-20.00,1.04
315,144996984,0.6313,-1.0171,-0.0166,-69.39,-20.24,0.73
316,145001984,0.6484,-0.9766,-0.0103,-70.85,-20.00,-0.06
317,145006984,0.6440,-0.9512,-0.0273,-72.62,-19.94,-0.85
318,145011984,0.6489,-0.9395,-0.0264,-74.94,-19.33,-1.95
319,145016984,0.6333,-0.9253,-0.0112,-77.68,-18.60,-3.05
320,145021984,0.6279,-0.8926,-0.0278,-80.85,-17.80,-4.33
321,145026984,0.6255,-0.8701,-0.0508,-84.15,-16.95,-5.79
322,145031984,0.6265,-0.8384,-0.0615,-87.44,-15.98,-7.44
323,145036984,0.6211,-0.8315,-0.0674,-90.61,-15.06,-9.33
324,145041983,0.6123,-0.8198,-0.0762,-93.41,-14.09,-11.10
325,145046997,0.5967,-0.7842,-0.0947,-95.67,-13.35,-12.93
326,145051982,0.5933,-0.7520,-0.1973,-96.28,-13.35,-15.00
327,145056982,0.5938,-0.7109,-0.2378,-94.88,-14.39,-17.26
328,145061982,0.5830,-0.6772,-0.2466,-92.32,-16.16,-19.70
329,145066984,0.5513,-0.6553,-0.1987,-89.02,-17.93,-22.38
330,145071984,0.5181,-0.6499,-0.1377,-86.10,-19.15,-25.00
331,145076983,0.4873,-0.6387,-0.1162,-83.66,-19.88,-27.56
332,145081984,0.4727,-0.6274,-0.1060,-81.95,-20.43,-30.06
333,145087317,0.4614,-0.6138,-0.0830,-80.85,-20.37,-32.62
334,145091984,0.4546,-0.5967,-0.0645,-80.85,-20.12,-34.88
335,145096984,0.4507,-0.5981,-0.0684,-81.77,-19.76,-37.20
336,145101984,0.4458,-0.6284,-0.0596,-83.54,-19.02,-39.39
337,145106984,0.4346,-0.6519,-0.0469,-85.91,-18.17,-40.85
338,145111984,0.4326,-0.6626,-0.0327,-88.11,-17.32,-41.89
339,145116985,0.4331,-0.6562,-0.0342,-91.28,-16.16,-42.93
340,145121984,0.4238,-0.6499,-0.0244,-94.94,-15.24,-43.96
341,145126984,0.4058,-0.6958,-0.0225,-98.78,-13.90,-44.57
342,145131984,0.4111,-0.7671,-0.0454,-102.80,-12.62,-44.70
343,145136984,0.4248,-0.7949,-0.0771,-107.56,-11.52,-43.78
344,145141984,0.4453,-0.7891,-0.0708,-110.55,-10.79,-43.05
345,145146984,0.4517,-0.7837,-0.0483,-114.21,-9.76,-42.07
346,145151984,0.4683,-0.7935,-0.0522,-117.80,-8.90,-40.85
347,145156984,0.4800,-0.8359,-0.0933,-121.40,-7.99,-39.39
348,145161986,0.4937,-0.8760,-0.1245,-125.24,-7.68,-37.68
349,145166984,0.4912,-0.9106,-0.1387,-129.27,-7.62,-35.73
350,145171984,0.5029,-0.9419,-0.1558,-133.41,-7.56,-33.54
351,145177042,0.5439,-0.9814,-0.2134,-137.80,-7.74,-31.22
352,145181984,0.5732,-1.0122,-0.2373,-141.89,-8.05,-28.66
353,145186984,0.5962,-1.0415,-0.2314,-145.85,-8.48,-25.98
354,145191983,0.6104,-1.0640,-0.2432,-149.27,-8.72,-23.48
355,145196986,0.6313,-1.0752,-0.2461,-152.13,-8.54,-20.91
356,145201984,0.6328,-1.0767,-0.2236,-154.63,-7.68,-18.66
357,145206984,0.6309,-1.0610,-0.2153,-155.98,-6.22,-16.71
358,145211984,0.6260,-1.0420,-0.2266,-156.46,-4.27,-15.24
359,145216984,0.6294,-1.0273,-0.2603,-155.91,-1.65,-14.15
360,145221984,0.6387,-1.0063,-0.2847,-154.09,1.28,-13.48
361,145226984,0.6504,-0.9863,-0.3218,-151.28,4.70,-13.35
362,145231984,0.6519,-0.9639,-0.3647,-147.26,8.54,-13.54
363,145236984,0.6504,-0.9424,-0.3984,-142.93,12.74,-14.51
364,145241984,0.6445,-0.9287,-0.4194,-137.74,17.50,-15.79
365,145246984,0.6406,-0.9194,-0.4580,-132.38,22.50,-17.44
366,145251984,0.6357,-0.8931,-0.4912,-126.52,28.17,-19.63
367,145256984,0.6289,-0.8774,-0.5269,-120.12,34.09,-22.07
368,145261984,0.6265,-0.8677,-0.5576,-113.60,40.24,-24.88
369,145266984,0.6431,-0.8525,-0.5889,-106.95,46.71,-27.80
370,145271984,0.6602,-0.8481,-0.6299,-99.88,53.41,-30.91
371,145276984,0.6768,-0.8447,-0.6616,-93.29,59.70,-33.96
372,145281984,0.6924,-0.8315,-0.6631,-86.65,65.98,-37.01
373,145286984,0.7344,-0.7446,-0.7280,-80.18,72.13,-40.12
374,145291984,0.7080,-0.8091,-0.8447,-75.06,77.38,-44.27
375,145296984,0.6963,-0.9473,-0.6519,-70.79,83.78,-46.52
376,145301984,0.7070,-0.8413,-0.7183,-66.71,88.11,-49.09
377,145306984,0.7329,-0.7485,-0.7090,-62.87,93.66,-51.22
378,145311984,0.7480,-0.6934,-0.7153,-59.45,98.66,-53.23
379,145316984,0.7637,-0.7368,-0.7441,-56.89,102.99,-54.70
380,145321984,0.7715,-0.8086,-0.7402,-55.61,106.59,-55.55
381,145326984,0.7812,-0.8047,-0.7192,-55.37,110.79,-56.04
382,145331984,0.7881,-0.7881,-0.9458,-55.55,112.93,-55.91
383,145336984,0.7881,-0.5420,-1.2266,-53.54,113.54,-56.65
384,145341984,0.9351,-0.4531,-0.9966,-51.40,114.76,-58.41
385,145346984,1.0547,-0.5073,-1.0288,-54.02,116.95,-60.12
386,145351983,1.0605,-0.5928,-1.0146,-60.98,118.41,-60.98
387,145356982,0.9907,-0.6143,-0.9771,-70.24,119.94,-60.98
388,145361982,0.9077,-0.6235,-0.9404,-80.85,121.28,-60.91
389,145366982,0.8550,-0.6201,-0.7529,-92.01,123.11,-60.85
390,145371982,0.8242,-0.5508,-0.5308,-101.40,126.28,-60.55
391,145376983,0.7871,-0.5000,-0.5625,-108.05,130.06,-60.37
392,145381984,0.7563,-0.4995,-0.5854,-112.07,133.11,-59.82
393,145387223,0.7344,-0.4790,-0.5264,-113.90,135.85,-59.09
394,145391984,0.7314,-0.4741,-0.4712,-114.09,137.80,-58.48
395,145396984,0.7080,-0.4287,-0.4990,-113.35,139.51,-57.87
396,145401984,0.6768,-0.3833,-0.4717,-111.77,141.16,-57.32
397,145406984,0.6226,-0.3608,-0.3848,-109.02,142.68,-56.95
398,145411984,0.5854,-0.3516,-0.3481,-105.61,144.21,-56.28
399,145416984,0.6045,-0.3535,-0.3198,-101.71,145.73,-55.49
400,145421984,0.6499,-0.3999,-0.2388,-97.50,146.95,-54.39
401,145427462,0.6758,-0.3608,-0.1636,-92.13,149.02,-52.74
402,145431984,0.6665,-0.3638,-0.1445,-88.17,150.37,-51.71
403,145436984,0.6392,-0.3560,-0.1426,-83.29,151.71,-50.24
404,145441984,0.6177,-0.3560,-0.0952,-78.29,152.62,-48.72
405,145446984,0.5972,-0.3389,-0.0488,-73.48,153.90,-47.07
406,145451984,0.5801,-0.3257,-0.0234,-68.78,155.24,-45.43
407,145456984,0.5791,-0.3311,-0.0190,-64.63,156.22,-43.66
408,145461984,0.5854,-0.3442,0.0151,-60.91,157.32,-41.59
409,145466983,0.5918,-0.3525,0.0371,-57.87,158.11,-39.45
410,145471982,0.5972,-0.3594,0.0381,-55.24,158.84,-37.13
411,145476984,0.6069,-0.3589,0.0430,-53.17,159.57,-34.57
412,145481982,0.6167,-0.3525,0.0669,-51.59,160.18,-32.07
413,145486984,0.6167,-0.3462,0.0869,-50.30,160.73,-29.45
414,145491984,0.6089,-0.3359,0.0781,-49.39,161.28,-26.59
415,145496984,0.5952,-0.3198,0.0981,-48.60,161.89,-23.66
416,145501984,0.5918,-0.3120,0.1299,-48.17,162.50,-20.85
417,145506984,0.5796,-0.2998,0.1396,-47.74,163.23,-17.74
418,145511984,0.5747,-0.2959,0.1475,-47.50,163.84,-14.88
419,145516984,0.5518,-0.3052,0.1553,-47.26,164.45,-11.65
420,145521984,0.5376,-0.3062,0.1646,-47.07,165.12,-8.41
421,145527041,0.5200,-0.2949,0.1748,-46.40,165.79,-4.39
422,145531984,0.5088,-0.2979,0.1826,-45.91,166.16,-1.71
423,145536984,0.5034,-0.2856,0.1924,-45.30,166.71,1.65
424,145541984,0.4990,-0.2944,0.2163,-44.51,167.01,5.00
425,145546984,0.4976,-0.2900,0.2393,-43.96,167.56,8.35
426,145551984,0.5005,-0.2749,0.2588,-43.41,168.11,11.65
427,145556984,0.4868,-0.2676,0.2798,-42.74,168.66,14.94
428,145561984,0.4785,-0.2671,0.2837,-42.01,169.15,18.35
429,145566984,0.4575,-0.2739,0.2783,-41.22,169.51,21.89
430,145571984,0.4492,-0.2793,0.3071,-40.55,169.63,25.24
431,145576984,0.4473,-0.2837,0.3286,-39.70,169.94,28.84
432,145581984,0.4512,-0.2920,0.3228,-39.15,170.00,32.50
433,145587181,0.4624,-0.2935,0.3247,-38.29,169.82,36.89
434,145591985,0.4731,-0.3018,0.3320,-37.62,169.51,40.67
435,145596986,0.4756,-0.3091,0.3511,-37.07,168.96,43.78
436,145601984,0.4746,-0.3286,0.3579,-36.46,168.35,47.80
437,145606984,0.4448,-0.3145,0.3789,-35.55,167.80,51.89
438,145611984,0.4658,-0.3706,0.3809,-34.09,167.01,55.85
439,145616984,0.4990,-0.3867,0.4058,-32.68,166.16,60.43
440,145621984,0.5337,-0.4004,0.4233,-31.59,165.24,64.88
441,145626984,0.5415,-0.4175,0.4404,-30.79,163.90,69.51
442,145631985,0.5376,-0.4233,0.4668,-29.88,162.44,75.12
443,145636984,0.5317,-0.4326,0.4990,-29.33,160.98,79.94
444,145641984,0.5220,-0.4346,0.5210,-28.96,159.82,84.33
445,145646984,0.5186,-0.4385,0.5244,-28.29,158.11,88.48
446,145651982,0.5068,-0.4238,0.5425,-27.68,156.46,92.93
447,145656985,0.4902,-0.4131,0.5732,-27.07,154.45,97.56
448,145661983,0.4917,-0.4077,0.5947,-26.04,152.50,101.83
449,145666982,0.4810,-0.4233,0.6055,-24.09,150.30,106.16
450,145671982,0.4492,-0.4243,0.6328,-21.40,147.80,110.43
451,145676982,0.4229,-0.4229,0.6436,-17.99,145.37,114.21
452,145681984,0.3955,-0.4126,0.6680,-13.05,142.44,118.78
453,145686984,0.3960,-0.4414,0.6792,-8.60,139.70,122.32
454,145691986,0.3682,-0.4590,0.7280,-4.15,137.07,125.85
455,145696984,0.3330,-0.4731,0.7734,0.12,134.33,129.39
456,145701983,0.3169,-0.4839,0.7705,3.41,132.01,132.20
457,145706984,0.3008,-0.5044,0.8193,8.54,128.48,136.22
458,145711985,0.2944,-0.5269,0.8604,12.74,125.79,139.51
459,145716984,0.2803,-0.5347,0.8721,16.71,122.87,142.62
460,145721983,0.2451,-0.5493,0.9155,20.73,119.63,145.61
461,145726984,0.2324,-0.5532,0.9619,24.94,116.28,148.41
462,145731984,0.2173,-0.5767,1.0020,29.15,112.99,150.98
463,145736984,0.2026,-0.5928,1.0107,33.35,109.27,153.78
464,145741984,0.1899,-0.6104,1.0288,37.13,105.06,156.22
465,145746986,0.1772,-0.6250,1.0684,40.30,100.61,158.60
466,145752027,0.1543,-0.6392,1.0967,43.41,95.49,160.91
467,145756984,0.1362,-0.6426,1.0913,46.22,90.30,162.99
468,145761984,0.1299,-0.6724,1.1343,48.66,84.88,165.00
469,145766982,0.1235,-0.7183,1.2026,50.98,79.15,167.07
470,145771984,0.1279,-0.7583,1.1772,52.80,72.32,169.57
471,145776984,0.1348,-0.8022,1.1680,54.70,65.24,172.26
472,145781985,0.1289,-0.8228,1.2524,56.71,58.11,175.18
473,145786982,0.1279,-0.8262,1.2964,59.15,50.85,178.41
474,145791984,0.1152,-0.8364,1.2739,62.13,42.99,181.46
475,145796984,0.0850,-0.8564,1.2979,65.79,34.94,184.70
476,145801984,0.0537,-0.8730,1.3770,69.82,27.13,187.68
477,145806984,0.0278,-0.8911,1.4043,74.57,19.27,190.49
478,145811984,0.0005,-0.9111,1.4121,79.76,11.22,193.23
479,145816984,-0.0215,-0.9189,1.4785,85.37,3.23,195.73
480,145821987,-0.0342,-0.9248,1.5444,91.10,-4.27,198.11
481,145826984,-0.0532,-0.9492,1.5654,97.07,-11.89,200.24
482,145831984,-0.0796,-0.9736,1.5918,103.11,-19.51,202.13
483,145836984,-0.1118,-1.0034,1.6528,109.57,-26.95,204.02
484,145841984,-0.1367,-1.0332,1.7329,116.34,-34.27,205.73
485,145846984,-0.1592,-1.0713,1.7656,123.48,-41.34,207.32
486,145851984,-0.1870,-1.1152,1.8052,130.91,-48.60,208.96
487,145856984,-0.2236,-1.1646,1.8628,138.35,-56.22,210.67
488,145861985,-0.2329,-1.2148,1.9033,146.22,-63.90,212.68
489,145866984,-0.2378,-1.2637,1.9331,153.90,-71.77,214.70
490,145871984,-0.2456,-1.3105,1.9741,160.85,-80.18,217.07
491,145876984,-0.2515,-1.3579,2.0142,167.13,-88.84,219.45
492,145881984,-0.2261,-1.4072,2.0073,172.56,-97.68,222.01
493,145886984,-0.2720,-1.4634,2.0645,176.59,-107.56,224.57
494,145891984,-0.3042,-1.5073,2.1157,180.24,-116.77,227.32
495,145896984,-0.3018,-1.5498,2.1245,183.96,-126.83,229.82
496,145901984,-0.3301,-1.6074,2.1025,187.74,-137.50,232.26
497,145906983,-0.3569,-1.6519,2.0952,191.40,-149.09,234.39
498,145911984,-0.3765,-1.6812,2.1006,195.49,-160.91,236.40
499,145916984,-0.3716,-1.7183,2.0737,198.72,-173.72,238.11
500,145921984,-0.4170,-1.7778,2.0415,201.59,-186.77,240.12
501,145926984,-0.4409,-1.8081,2.0073,204.15,-200.30,242.07
502,145931984,-0.4897,-1.8408,2.0068,205.98,-213.54,243.90
503,145936984,-0.5420,-1.8823,1.9556,207.50,-226.77,245.43
504,145941984,-0.5815,-1.9170,1.8745,208.84,-240.06,246.59
505,145946984,-0.6265,-1.9351,1.8271,210.00,-252.99,247.32
506,145951983,-0.7202,-1.8843,1.7671,210.61,-265.67,246.71
507,145956982,-0.7241,-2.0195,1.6782,209.88,-277.80,246.04
508,145961983,-0.7573,-2.0244,1.5923,208.35,-289.57,245.06
509,145966982,-0.7700,-2.0693,1.4961,205.12,-300.91,243.41
510,145971983,-0.7988,-2.0884,1.4043,199.76,-312.13,240.91
511,145976984,-0.8203,-2.1040,1.2964,192.32,-322.99,237.87
512,145981984,-0.8223,-2.1211,1.2075,183.11,-333.48,233.84
513,145986984,-0.8296,-2.1387,1.1123,172.56,-343.48,229.02
514,145991984,-0.8281,-2.1528,1.0200,160.91,-353.23,223.17
515,145996984,-0.8203,-2.1553,0.9224,148.66,-362.56,216.52
516,146002175,-0.8101,-2.1689,0.8291,136.71,-370.98,209.27
517,146007423,-0.8022,-2.1714,0.7231,125.12,-379.09,201.28
518,146011984,-0.8071,-2.1812,0.6157,113.48,-386.52,192.87
519,146016984,-0.8120,-2.1660,0.5166,103.17,-393.23,184.02
520,146021984,-0.8091,-2.1226,0.4395,94.27,-399.33,174.82
521,146026984,-0.8169,-2.1260,0.3423,87.32,-404.33,165.43
522,146031984,-0.8438,-2.1299,0.2349,82.13,-408.41,156.10
523,146036984,-0.8496,-2.0723,0.1553,78.84,-411.77,146.83
524,146041984,-0.8525,-2.0630,0.0781,76.59,-413.96,137.26
525,146046984,-0.8535,-2.0215,0.0215,75.00,-415.49,127.74
526,146051984,-0.8335,-1.9971,-0.0640,73.96,-415.61,118.29
527,146056984,-0.7959,-1.9380,-0.1157,73.48,-414.27,109.15
528,146061984,-0.7559,-1.8979,-0.1885,73.90,-411.77,99.88
529,146066984,-0.7334,-1.8696,-0.2832,74.45,-407.87,90.12
530,146071984,-0.7222,-1.8779,-0.4180,75.43,-403.05,81.59
531,146076984,-0.7129,-1.8540,-0.5405,76.16,-396.95,72.20
532,146081985,-0.6943,-1.8403,-0.6172,76.52,-389.76,62.68
533,146086984,-0.6816,-1.8291,-0.7036,76.89,-381.40,52.99
534,146091984,-0.6611,-1.8169,-0.8081,77.07,-371.28,43.23
535,146096984,-0.6299,-1.8135,-0.9126,77.07,-360.49,33.29
536,146101984,-0.6289,-1.7744,-0.9263,76.83,-349.27,23.48
537,146106984,-0.5942,-1.6538,-0.8511,76.71,-337.20,13.41
538,146111984,-0.5117,-1.5674,-1.0649,76.28,-323.78,3.05
539,146116985,-0.5088,-1.5015,-1.1240,74.94,-310.00,-7.13
540,146121984,-0.3970,-1.5352,-1.1245,74.76,-296.52,-16.52
541,146126984,-0.3755,-1.5254,-1.0718,73.78,-283.11,-25.43
542,146131984,-0.2725,-1.4873,-1.1953,72.56,-269.21,-33.96
543,146136984,-0.2070,-1.4199,-1.2188,70.24,-256.16,-42.01
544,146141984,-0.1587,-1.3350,-1.1426,66.77,-243.11,-49.82
545,146146984,-0.1211,-1.2656,-1.1528,62.20,-230.18,-56.65
546,146151984,-0.0596,-1.2524,-1.1665,56.71,-218.17,-62.87
547,146156983,-0.0273,-1.2104,-1.1362,50.12,-206.52,-68.35
548,146161984,0.0186,-1.1777,-1.0879,43.48,-195.12,-73.05
549,146166984,0.0581,-1.1230,-1.0645,37.13,-184.27,-77.32
550,146172494,0.0923,-1.0757,-1.0625,30.85,-173.90,-80.85
551,146176983,0.0933,-1.0020,-1.0254,24.63,-163.78,-83.90
552,146181984,0.1304,-0.9629,-0.9570,18.90,-154.27,-86.52
553,146186984,0.1699,-0.9292,-0.9263,14.70,-144.82,-88.48
554,146191983,0.1948,-0.8677,-0.9282,11.10,-135.98,-89.70
555,146196986,0.2241,-0.8340,-0.8711,8.11,-127.44,-90.73
556,146201984,0.2485,-0.8477,-0.8037,6.28,-118.96,-90.98
557,146207163,0.2563,-0.7896,-0.8354,5.00,-110.67,-90.49
558,146211985,0.2998,-0.7310,-0.8135,4.63,-103.54,-89.88
559,146216984,0.3291,-0.7080,-0.7061,5.18,-95.79,-88.48
560,146221984,0.3340,-0.6465,-0.6982,5.18,-88.35,-86.71
561,146226984,0.3530,-0.6196,-0.7202,5.73,-81.65,-84.76
562,146231984,0.3755,-0.5850,-0.6577,6.71,-75.49,-82.20
563,146236984,0.3955,-0.5605,-0.5913,7.62,-68.84,-79.21
564,146241984,0.4019,-0.5137,-0.5942,8.17,-62.68,-75.79
565,146246984,0.4238,-0.5000,-0.5806,8.41,-56.83,-72.32
566,146251983,0.4404,-0.4976,-0.5151,8.66,-51.22,-68.48
567,146256982,0.4678,-0.4902,-0.5054,8.60,-45.85,-64.21
568,146261982,0.4888,-0.4766,-0.5103,8.05,-40.91,-59.76
569,146266982,0.4990,-0.4639,-0.4746,7.26,-36.28,-55.12
570,146271983,0.5122,-0.4453,-0.4399,5.67,-31.89,-50.43
571,146277290,0.5254,-0.4341,-0.4292,3.90,-27.62,-45.61
572,146281986,0.5415,-0.4302,-0.4072,1.59,-23.78,-40.79
573,146286983,0.5444,-0.4272,-0.3818,-1.34,-20.06,-35.79
574,146291984,0.5469,-0.4258,-0.3501,-4.45,-16.59,-30.91
575,146296984,0.5562,-0.4224,-0.3379,-7.74,-13.35,-25.98
576,146302102,0.5708,-0.4170,-0.3130,-11.16,-10.37,-21.28
577,146306984,0.5845,-0.4189,-0.2959,-14.63,-7.68,-16.59
578,146311984,0.5903,-0.4199,-0.2705,-18.29,-5.00,-11.95
579,146316984,0.5942,-0.4248,-0.2593,-21.83,-2.50,-7.56
580,146321984,0.5996,-0.4272,-0.2446,-25.30,-0.18,-3.23
581,146326984,0.6021,-0.4390,-0.2139,-28.90,1.65,0.98
582,146331984,0.6064,-0.4404,-0.1943,-32.32,3.48,4.94
583,146336984,0.6060,-0.4443,-0.1738,-35.79,5.24,8.78
584,146341984,0.6035,-0.4551,-0.1567,-39.15,6.77,12.38
585,146346984,0.6030,-0.4619,-0.1348,-41.95,8.35,15.73
586,146351984,0.6069,-0.4702,-0.1143,-44.70,9.70,18.90
587,146356984,0.6167,-0.4727,-0.0952,-46.65,10.98,21.83
588,146361984,0.6162,-0.4849,-0.0767,-48.17,12.13,24.57
589,146366984,0.6167,-0.4946,-0.0532,-49.27,13.35,27.26
590,146371984,0.6099,-0.5083,-0.0464,-50.12,14.27,29.76
591,146377271,0.6113,-0.5229,-0.0381,-50.61,15.06,32.07
592,146381984,0.6172,-0.5454,-0.0195,-50.98,15.73,34.27
593,146386984,0.6182,-0.5630,-0.0039,-51.34,16.40,36.46
594,146391984,0.6182,-0.5762,0.0034,-51.65,16.95,38.41
595,146396984,0.6211,-0.5864,0.0137,-51.95,17.38,40.12
596,146401984,0.6094,-0.6074,0.0264,-52.26,17.56,41.83
597,146406984,0.6133,-0.6143,0.0298,-52.44,17.74,43.41
598,146411984,0.6094,-0.6235,0.0264,-52.80,17.68,45.00
599,146416983,0.6074,-0.6348,0.0327,-53.23,17.50,46.22
600,146421984,0.6011,-0.6533,0.0493,-53.23,17.32,47.38
601,146426984,0.5913,-0.6699,0.0386,-53.60,16.89,48.41
602,146431984,0.5845,-0.6807,0.0234,-54.21,16.34,49.33
603,146436984,0.5718,-0.6943,0.0210,-54.88,15.61,50.24
604,146441984,0.5586,-0.7041,0.0332,-55.85,15.00,51.04
605,146446984,0.5444,-0.7085,0.0220,-57.26,14.27,51.65
606,146451984,0.5273,-0.7075,0.0083,-59.02,13.23,52.13
607,146456984,0.5254,-0.7124,0.0205,-61.04,12.32,52.50
608,146461984,0.5303,-0.7163,0.0259,-63.60,11.34,52.62
609,146466984,0.5327,-0.7290,0.0195,-66.22,10.30,52.80
610,146471984,0.5381,-0.7427,0.0156,-69.82,9.09,53.11
611,146476984,0.5312,-0.7520,0.0210,-72.32,8.29,53.35
612,146481984,0.5254,-0.7632,0.0303,-75.67,7.13,53.41
613,146486984,0.5195,-0.7715,0.0181,-78.66,5.85,53.72
614,146491984,0.5068,-0.7852,0.0117,-81.77,4.70,54.02
615,146497298,0.4790,-0.8022,0.0166,-84.63,3.54,54.39
616,146501984,0.4639,-0.8052,0.0127,-87.32,2.32,54.76
617,146506984,0.4707,-0.7949,-0.0010,-89.70,1.28,55.06
618,146511985,0.4653,-0.7871,0.0034,-91.59,0.06,55.18
619,146516984,0.4468,-0.7866,0.0156,-93.35,-0.98,55.24
620,146521984,0.4268,-0.7866,-0.0073,-94.51,-1.95,55.37
621,146526983,0.4307,-0.7837,-0.0312,-95.43,-3.05,55.24
622,146531985,0.4277,-0.7837,-0.0200,-96.04,-3.90,55.18
623,146536984,0.4175,-0.7886,-0.0249,-96.52,-4.57,55.06
624,146541984,0.3994,-0.7808,-0.0337,-96.95,-5.30,55.06
625,146546984,0.3838,-0.7734,-0.0239,-97.20,-5.61,54.82
626,146551983,0.3911,-0.7646,-0.0337,-97.44,-5.91,54.27
627,146556982,0.3843,-0.7593,-0.0645,-97.80,-6.10,53.90
628,146561982,0.3862,-0.7617,-0.0771,-98.05,-6.28,53.48
629,146566982,0.3955,-0.7544,-0.0688,-98.05,-6.10,53.11
630,146571984,0.4023,-0.7520,-0.0640,-98.11,-6.10,52.80
631,146576983,0.4155,-0.7471,-0.1045,-98.17,-5.98,52.38
632,146581983,0.4165,-0.7559,-0.1108,-98.72,-6.16,51.83
633,146586984,0.4189,-0.7568,-0.0942,-99.70,-6.22,51.52
634,146591983,0.4111,-0.7681,-0.1113,-100.98,-6.46,51.16
635,146596984,0.4077,-0.7603,-0.1270,-102.87,-6.65,50.73
636,146601984,0.4058,-0.7583,-0.1294,-105.18,-6.95,50.30
637,146607020,0.3926,-0.7754,-0.1147,-107.62,-7.20,49.94
638,146611984,0.3823,-0.7871,-0.1118,-110.30,-7.32,49.57
639,146616984,0.3750,-0.7969,-0.1099,-112.99,-7.13,49.45
640,146621984,0.3652,-0.8003,-0.1060,-115.43,-7.01,49.33
641,146626983,0.3662,-0.8057,-0.1079,-117.50,-6.40,49.21
642,146631984,0.3599,-0.8062,-0.1021,-119.51,-5.91,49.39
643,146636984,0.3618,-0.8105,-0.1001,-120.61,-5.49,49.39
644,146641984,0.3755,-0.8101,-0.0981,-121.46,-4.63,49.63
645,146646985,0.3940,-0.8071,-0.1089,-121.95,-3.96,50.18
646,146651984,0.4009,-0.7925,-0.1206,-122.50,-2.93,50.49
647,146656984,0.4033,-0.7686,-0.1313,-122.99,-1.89,50.79
648,146661984,0.3989,-0.7681,-0.1543,-123.41,-0.98,51.28
649,146666984,0.3901,-0.7754,-0.1772,-123.78,-0.06,51.71
650,146671984,0.3896,-0.7754,-0.1699,-123.96,0.98,52.50
651,146676984,0.3838,-0.7832,-0.1792,-124.27,1.83,53.23
652,146681984,0.3765,-0.7871,-0.1978,-124.57,2.87,54.02
653,146686984,0.3618,-0.7983,-0.2134,-124.88,3.72,54.88
654,146691984,0.3555,-0.7988,-0.2192,-125.30,4.39,55.91
655,146696985,0.3540,-0.8105,-0.2241,-125.91,5.12,57.07
656,146701984,0.3550,-0.8086,-0.2300,-126.71,5.91,58.29
657,146706984,0.3564,-0.8066,-0.2383,-127.56,6.65,59.51
658,146711984,0.3594,-0.8062,-0.2388,-128.35,7.50,60.79
659,146716984,0.3677,-0.8037,-0.2432,-129.39,8.41,62.26
660,146721984,0.3701,-0.8042,-0.2485,-130.55,9.21,63.54
661,146726984,0.3672,-0.7974,-0.2437,-131.65,10.12,64.88
662,146731984,0.3730,-0.7891,-0.2422,-132.93,11.04,65.98
663,146736984,0.3706,-0.7793,-0.2490,-134.33,12.07,67.32
664,146741984,0.3799,-0.7783,-0.2583,-135.67,12.93,68.72
665,146746983,0.3765,-0.7700,-0.2686,-137.07,13.66,69.88
666,146751982,0.3784,-0.7651,-0.2632,-138.60,14.51,71.16
667,146756984,0.3750,-0.7627,-0.2754,-140.00,15.43,72.50
668,146761982,0.3652,-0.7534,-0.2739,-141.65,16.10,73.78
669,146766984,0.3555,-0.7495,-0.2979,-143.23,16.89,75.00
670,146771985,0.3433,-0.7461,-0.3086,-145.06,17.44,76.22
671,146776984,0.3301,-0.7446,-0.3018,-147.01,17.68,77.32
672,146781984,0.3223,-0.7432,-0.3091,-149.33,18.05,78.54
673,146786984,0.3169,-0.7427,-0.3232,-151.89,18.54,79.76
674,146791984,0.3125,-0.7427,-0.3174,-154.76,18.78,80.79
675,146796984,0.3096,-0.7461,-0.3115,-157.99,18.96,81.65
676,146801984,0.3008,-0.7495,-0.3115,-161.34,19.21,82.80
677,146806986,0.2988,-0.7549,-0.3120,-165.18,19.51,83.90
678,146811987,0.2979,-0.7578,-0.3057,-169.70,19.82,85.37
679,146816984,0.2939,-0.7544,-0.3018,-172.74,20.06,86.65
680,146821984,0.2939,-0.7510,-0.2964,-176.40,20.43,87.62
681,146826983,0.2964,-0.7510,-0.3013,-180.00,20.91,87.32
682,146831984,0.2969,-0.7622,-0.3101,-183.11,21.10,87.87
683,146836984,0.2959,-0.7681,-0.3140,-185.61,21.22,89.70
684,146841984,0.2969,-0.7690,-0.3203,-187.62,21.28,91.46
685,146846984,0.3003,-0.7656,-0.3315,-189.02,21.16,93.17
686,146851983,0.3042,-0.7632,-0.3394,-189.57,20.85,94.88
687,146856982,0.3062,-0.7642,-0.3516,-189.63,20.18,96.65
688,146861982,0.3096,-0.7695,-0.3584,-189.27,19.33,98.66
689,146866982,0.3140,-0.7759,-0.3740,-188.35,17.99,100.85
690,146871982,0.3174,-0.7896,-0.3804,-187.13,16.59,103.23
691,146876982,0.3271,-0.8047,-0.3926,-185.79,14.94,105.73
692,146881984,0.3320,-0.8135,-0.4092,-184.27,13.11,108.60
693,146886984,0.3345,-0.8262,-0.4189,-182.32,10.91,111.46
694,146891984,0.3477,-0.8374,-0.4165,-180.37,8.54,114.45
695,146896984,0.3496,-0.8403,-0.4316,-178.29,6.22,117.62
696,146901983,0.3555,-0.8472,-0.4360,-176.10,3.72,120.61
697,146906984,0.3584,-0.8481,-0.4414,-173.54,0.91,123.60
698,146911984,0.3525,-0.8389,-0.4438,-170.73,-1.59,126.65
699,146916984,0.3452,-0.8320,-0.4585,-167.62,-4.33,129.45
700,146921984,0.3315,-0.8228,-0.4673,-164.27,-6.95,132.01
701,146926984,0.3169,-0.8101,-0.4692,-160.37,-9.70,134.39
702,146931984,0.3086,-0.7915,-0.4795,-156.40,-12.13,136.65
703,146936984,0.2988,-0.7754,-0.4839,-151.95,-14.63,138.66
704,146941984,0.2866,-0.7573,-0.4844,-147.44,-16.89,140.30
705,146946984,0.2744,-0.7368,-0.4878,-142.68,-19.15,141.71
706,146951984,0.2563,-0.7251,-0.4907,-137.99,-20.98,142.93
707,146956984,0.2344,-0.7080,-0.4985,-133.23,-22.93,143.84
708,146961985,0.2080,-0.6938,-0.4990,-128.66,-24.27,144.63
709,146966984,0.1929,-0.6709,-0.4897,-124.33,-25.55,145.24
710,146971984,0.1772,-0.6577,-0.4868,-120.30,-26.71,145.67
711,146976984,0.1753,-0.6514,-0.4990,-116.77,-27.56,146.10
712,146981984,0.1509,-0.6611,-0.5063,-113.54,-28.41,146.22
713,146986985,0.1270,-0.6479,-0.5181,-110.79,-29.27,146.52
714,146991984,0.1094,-0.6455,-0.5259,-108.60,-29.88,146.71
715,146996982,0.1030,-0.6577,-0.5386,-106.71,-30.61,147.13
716,147001984,0.1006,-0.6738,-0.5273,-105.12,-30.98,147.56
717,147006984,0.1162,-0.6982,-0.5430,-104.15,-31.65,148.29
718,147011984,0.1245,-0.7261,-0.5713,-103.35,-32.20,149.27
719,147016984,0.1313,-0.7500,-0.5845,-102.74,-32.99,150.55
720,147021984,0.1323,-0.7573,-0.5918,-102.07,-33.72,152.07
721,147026984,0.1323,-0.7554,-0.5952,-101.16,-34.39,153.96
722,147031984,0.1304,-0.7534,-0.6079,-100.00,-35.12,155.67
723,147036982,0.1230,-0.7476,-0.6118,-98.60,-35.61,157.56
724,147041984,0.1152,-0.7358,-0.6035,-96.52,-36.28,159.57
725,147046984,0.1128,-0.7202,-0.6104,-94.21,-36.59,161.46
726,147051984,0.1025,-0.7056,-0.6113,-91.40,-37.07,163.23
727,147056984,0.0898,-0.6914,-0.6045,-88.17,-37.50,164.88
728,147061984,0.0786,-0.6724,-0.5991,-84.21,-37.87,166.59
729,147066984,0.0601,-0.6592,-0.6128,-79.88,-38.17,168.05
730,147071984,0.0503,-0.6484,-0.6089,-74.94,-38.54,169.45
731,147076984,0.0371,-0.6387,-0.6040,-69.82,-38.96,170.85
732,147081984,0.0312,-0.6421,-0.6177,-64.45,-39.15,172.13
733,147086984,0.0293,-0.6548,-0.6338,-58.78,-39.57,173.66
734,147092462,0.0239,-0.6650,-0.6528,-51.65,-40.00,175.61
735,147096984,0.0181,-0.6670,-0.6602,-46.71,-40.18,176.77
736,147101984,0.0029,-0.6685,-0.6729,-40.18,-40.24,178.29
737,147106984,0.0083,-0.6582,-0.6641,-33.60,-40.37,179.76
738,147111984,0.0083,-0.6694,-0.6992,-26.89,-40.18,181.22
739,147116985,-0.0371,-0.6602,-0.7388,-19.82,-40.12,182.80
740,147121984,-0.0659,-0.6592,-0.7437,-12.38,-40.06,184.21
741,147126989,-0.0654,-0.6655,-0.7324,-4.63,-39.76,185.30
742,147131984,-0.0601,-0.6675,-0.7510,5.06,-38.90,186.89
743,147136984,-0.0591,-0.6660,-0.7720,11.52,-38.41,187.87
744,147141984,-0.0645,-0.6626,-0.7686,19.57,-37.68,189.02
745,147146984,-0.0811,-0.6611,-0.7554,27.26,-36.71,190.30
746,147151982,-0.1021,-0.6646,-0.7734,34.76,-35.91,191.34
747,147156982,-0.1128,-0.6704,-0.7866,41.71,-34.82,192.50
748,147161982,-0.1362,-0.6670,-0.7861,49.51,-33.23,193.72
749,147166984,-0.1475,-0.6724,-0.7681,54.27,-32.07,194.45
750,147171983,-0.1602,-0.6743,-0.7754,59.70,-30.73,195.55
751,147176984,-0.1724,-0.6797,-0.7944,64.57,-29.09,196.59
752,147181984,-0.1890,-0.6875,-0.7979,69.02,-27.44,197.50
753,147186984,-0.2065,-0.6948,-0.7974,73.17,-25.67,198.48
754,147191983,-0.2095,-0.7075,-0.8179,76.46,-23.78,199.39
755,147196985,-0.2227,-0.7202,-0.8403,79.63,-22.32,200.49
756,147201984,-0.2324,-0.7271,-0.8408,82.38,-20.67,201.28
757,147206984,-0.2441,-0.7344,-0.8491,84.94,-18.66,202.01
758,147211984,-0.2583,-0.7373,-0.8584,87.13,-16.95,202.74
759,147216984,-0.2583,-0.7285,-0.8369,89.09,-15.12,203.23
760,147222078,-0.2739,-0.7383,-0.8486,90.49,-12.68,203.90
761,147226984,-0.3037,-0.7305,-0.8647,91.28,-11.10,204.09
762,147231984,-0.3247,-0.7295,-0.8594,92.13,-9.09,204.27
763,147236983,-0.3374,-0.7305,-0.8467,93.23,-7.07,204.57
764,147241984,-0.3418,-0.7266,-0.8340,93.54,-5.06,204.57
765,147246984,-0.3467,-0.7129,-0.8408,93.66,-3.23,204.33
766,147251984,-0.3511,-0.6670,-0.8574,93.54,-1.77,203.23
767,147256984,-0.3647,-0.6465,-0.8242,92.80,-0.79,201.28
768,147261985,-0.3931,-0.6460,-0.8203,90.91,0.49,198.96
769,147266984,-0.4429,-0.6470,-0.8394,87.99,0.98,196.16
770,147271984,-0.4673,-0.6504,-0.8335,84.09,1.46,192.56
771,147276984,-0.4814,-0.6504,-0.8125,79.27,1.52,188.48
772,147281984,-0.4795,-0.6460,-0.7959,73.60,1.59,183.84
773,147286986,-0.4800,-0.6387,-0.8032,66.83,0.98,178.41
774,147291984,-0.4819,-0.6387,-0.7949,59.70,0.43,172.68
775,147296984,-0.4907,-0.6406,-0.7720,51.77,-0.43,166.59
776,147301984,-0.4917,-0.6401,-0.7559,43.72,-1.40,160.30
777,147306984,-0.4990,-0.6514,-0.7632,33.72,-2.74,152.93
778,147311985,-0.4980,-0.6528,-0.7612,25.37,-3.96,146.77
779,147316984,-0.5083,-0.6582,-0.7524,17.13,-5.18,140.85
780,147321984,-0.5098,-0.6587,-0.7295,9.15,-6.04,135.30
781,147326984,-0.5063,-0.6611,-0.7397,1.40,-6.65,130.06
782,147331984,-0.5103,-0.6572,-0.7388,-6.04,-7.68,125.24
783,147336984,-0.5098,-0.6597,-0.7261,-12.68,-8.17,120.98
784,147341984,-0.5103,-0.6592,-0.7275,-18.66,-8.78,116.95
785,147346984,-0.5054,-0.6675,-0.7354,-24.02,-9.63,113.60
786,147351985,-0.5171,-0.6685,-0.7295,-28.96,-10.30,110.73
787,147356984,-0.5308,-0.6704,-0.7231,-32.99,-10.79,108.35
788,147361984,-0.5405,-0.6733,-0.7285,-36.40,-11.46,106.22
789,147366984,-0.5415,-0.6763,-0.7383,-39.09,-12.07,104.45
790,147371984,-0.5488,-0.6802,-0.7275,-41.28,-12.74,103.11
791,147376984,-0.5312,-0.6860,-0.7339,-42.74,-13.17,102.01
792,147382053,-0.5327,-0.6904,-0.7437,-43.78,-13.72,101.28
793,147386984,-0.5386,-0.6768,-0.7295,-44.02,-14.21,100.73
794,147391984,-0.5361,-0.6680,-0.7368,-43.41,-14.57,100.24
795,147396984,-0.5317,-0.6567,-0.7578,-42.44,-15.18,99.70
796,147401984,-0.5137,-0.6436,-0.7407,-40.85,-15.61,99.21
797,147406984,-0.5044,-0.6436,-0.7417,-39.09,-15.85,98.60
798,147411986,-0.5254,-0.6270,-0.7603,-37.01,-16.16,98.05
799,147416983,-0.5479,-0.6196,-0.7583,-34.45,-16.28,97.44
800,147421984,-0.5439,-0.6108,-0.7280,-31.40,-16.16,96.89
801,147426984,-0.5161,-0.6177,-0.7275,-28.35,-15.73,96.28
802,147431984,-0.5293,-0.6143,-0.7485,-25.30,-15.37,95.61
803,147436984,-0.5459,-0.5957,-0.7188,-22.01,-14.94,94.82
804,147442467,-0.5210,-0.5859,-0.6802,-18.72,-14.15,94.02
805,147446984,-0.5068,-0.5840,-0.6875,-15.55,-13.17,93.29
806,147451983,-0.5332,-0.5649,-0.7070,-12.44,-12.32,92.62
807,147456982,-0.5640,-0.5493,-0.7041,-9.09,-11.34,91.71
808,147461982,-0.5747,-0.5537,-0.6763,-5.49,-10.12,90.55
809,147466982,-0.5615,-0.5532,-0.6792,-1.65,-8.96,89.76
810,147471982,-0.5444,-0.5488,-0.6895,2.26,-7.74,88.17
811,147476983,-0.5278,-0.5439,-0.6797,5.91,-6.65,87.99
812,147481984,-0.5215,-0.5366,-0.6748,9.70,-5.37,86.83
813,147486984,-0.5166,-0.5361,-0.6743,13.17,-4.21,86.65
814,147491984,-0.5229,-0.5361,-0.6846,16.65,-2.87,85.49
815,147496984,-0.5190,-0.5342,-0.6797,20.12,-1.83,84.21
816,147501984,-0.5176,-0.5288,-0.6704,23.54,-0.55,82.99
817,147506984,-0.5132,-0.5264,-0.6763,26.65,0.67,81.71
818,147511984,-0.5098,-0.5259,-0.6748,29.88,1.71,80.43
819,147516987,-0.5093,-0.5171,-0.6670,32.87,2.80,79.15
820,147521984,-0.5039,-0.5117,-0.6665,35.79,3.90,77.80
821,147526984,-0.4785,-0.5117,-0.6665,38.29,4.76,76.28
822,147531984,-0.4839,-0.5161,-0.6611,40.18,5.85,74.76
823,147536984,-0.5225,-0.4976,-0.6685,42.01,6.52,73.11
824,147541983,-0.5347,-0.4912,-0.6733,43.48,7.20,71.40
825,147546984,-0.5293,-0.4912,-0.6802,45.00,7.62,69.51
826,147552368,-0.5103,-0.4937,-0.6641,46.16,8.17,67.50
827,147556984,-0.4912,-0.4946,-0.6577,46.71,8.35,65.37
828,147561984,-0.4937,-0.4956,-0.6787,47.01,8.54,63.11
829,147566984,-0.4961,-0.4888,-0.6724,46.77,8.84,60.67
830,147571984,-0.5015,-0.4868,-0.6602,46.04,8.90,58.29
831,147576984,-0.5054,-0.4839,-0.6562,44.82,8.96,55.61
832,147581984,-0.5063,-0.4795,-0.6650,43.35,8.72,52.80
833,147586984,-0.5054,-0.4800,-0.6543,41.40,8.60,50.00
834,147591984,-0.5049,-0.4868,-0.6445,39.27,8.48,47.20
835,147596985,-0.4941,-0.4863,-0.6519,36.59,7.99,44.33
836,147601984,-0.4878,-0.4868,-0.6470,33.72,7.44,41.59
837,147606984,-0.4863,-0.4849,-0.6382,30.98,6.95,38.78
838,147611984,-0.4819,-0.4854,-0.6387,27.87,6.16,36.04
839,147616984,-0.4873,-0.4810,-0.6494,24.82,5.43,33.48
840,147621984,-0.4878,-0.4756,-0.6465,21.65,4.51,30.85
841,147627414,-0.4854,-0.4829,-0.6426,18.35,3.54,28.29
842,147631984,-0.4868,-0.4805,-0.6416,14.88,2.50,25.85
843,147636984,-0.4897,-0.4775,-0.6465,11.46,1.59,23.48
844,147641984,-0.4893,-0.4775,-0.6475,8.05,0.37,21.16
845,147646984,-0.4888,-0.4731,-0.6436,4.63,-0.55,18.90
846,147651984,-0.4907,-0.4707,-0.6426,1.34,-1.65,16.65
847,147657319,-0.4888,-0.4712,-0.6396,-1.95,-2.56,14.45
848,147661984,-0.4893,-0.4663,-0.6436,-5.06,-3.72,12.32
849,147666984,-0.4932,-0.4634,-0.6426,-7.87,-4.33,10.30
850,147671984,-0.5010,-0.4590,-0.6382,-10.55,-5.18,8.41
851,147676984,-0.5078,-0.4600,-0.6431,-12.93,-5.91,6.59
852,147681984,-0.5103,-0.4531,-0.6465,-15.12,-6.65,4.63
853,147686984,-0.5059,-0.4502,-0.6440,-17.07,-7.32,2.87
854,147691984,-0.5068,-0.4502,-0.6440,-18.72,-7.74,1.28
855,147696984,-0.5049,-0.4487,-0.6460,-20.00,-8.35,-0.24
856,147701984,-0.5083,-0.4487,-0.6445,-21.10,-8.96,-1.83
857,147706984,-0.5015,-0.4487,-0.6484,-21.83,-9.21,-3.17
858,147711984,-0.5063,-0.4463,-0.6533,-22.32,-9.88,-4.33
859,147716984,-0.5093,-0.4434,-0.6538,-22.50,-10.12,-5.73
860,147721984,-0.5093,-0.4404,-0.6602,-22.50,-10.79,-7.01
861,147726984,-0.5112,-0.4385,-0.6582,-22.20,-11.16,-8.11
862,147731984,-0.5093,-0.4292,-0.6592,-21.71,-11.52,-9.45
863,147736984,-0.5122,-0.4268,-0.6572,-21.16,-11.83,-10.55
864,147741984,-0.5078,-0.4253,-0.6543,-20.37,-12.07,-11.83
865,147746984,-0.5117,-0.4199,-0.6567,-19.63,-12.20,-13.11
866,147751982,-0.4956,-0.4023,-0.6221,-18.96,-12.38,-14.21
867,147756982,-0.4854,-0.4189,-0.6538,-18.41,-12.38,-15.43
868,147761984,-0.5210,-0.4043,-0.6807,-17.74,-12.62,-16.46
869,147766983,-0.5454,-0.4014,-0.6743,-16.95,-12.62,-17.50
870,147771983,-0.5508,-0.4028,-0.6489,-15.91,-12.68,-18.60
871,147776984,-0.5430,-0.3989,-0.6489,-14.82,-12.56,-19.70
872,147781985,-0.5259,-0.3901,-0.6689,-13.54,-12.56,-20.73
873,147786983,-0.5181,-0.3862,-0.6611,-12.32,-12.50,-21.71
874,147791984,-0.5210,-0.3818,-0.6479,-11.10,-12.38,-22.62
875,147796984,-0.5229,-0.3823,-0.6445,-9.82,-12.13,-23.41
876,147801984,-0.5215,-0.3809,-0.6621,-8.60,-12.20,-24.27
877,147806984,-0.5220,-0.3823,-0.6553,-7.44,-11.95,-24.88
878,147811984,-0.5254,-0.3784,-0.6509,-6.34,-11.89,-25.61
879,147816984,-0.5259,-0.3818,-0.6538,-5.49,-11.89,-26.22
880,147821984,-0.5239,-0.3784,-0.6680,-4.70,-11.95,-26.83
881,147826984,-0.5225,-0.3750,-0.6460,-3.78,-11.95,-27.38
882,147831984,-0.5283,-0.3774,-0.6533,-3.11,-12.01,-27.87
883,147836984,-0.5273,-0.3735,-0.6567,-2.50,-11.89,-28.35
884,147841984,-0.5298,-0.3735,-0.6548,-1.89,-12.07,-28.72
885,147846984,-0.5288,-0.3716,-0.6455,-1.46,-11.95,-29.02
886,147851984,-0.5322,-0.3730,-0.6445,-1.04,-11.95,-29.33
887,147856984,-0.5352,-0.3667,-0.6460,-0.43,-12.01,-29.82
888,147861984,-0.5366,-0.3633,-0.6533,0.06,-12.01,-30.12
889,147866984,-0.5386,-0.3657,-0.6431,0.55,-11.83,-30.49
890,147871984,-0.5352,-0.3579,-0.6411,1.04,-11.83,-30.98
891,147876984,-0.5386,-0.3574,-0.6553,1.59,-11.65,-31.34
892,147881984,-0.5410,-0.3521,-0.6504,2.01,-11.59,-31.52
893,147886984,-0.5537,-0.3511,-0.6548,2.26,-11.52,-31.89
894,147891984,-0.5508,-0.3540,-0.6567,2.56,-11.46,-32.38
895,147896984,-0.5566,-0.3477,-0.6499,2.74,-11.28,-32.74
896,147901984,-0.5601,-0.3438,-0.6533,2.87,-11.22,-33.11
897,147906985,-0.5581,-0.3413,-0.6553,2.99,-10.91,-33.60
898,147911982,-0.5576,-0.3394,-0.6587,2.93,-11.04,-34.02
899,147916984,-0.5693,-0.3398,-0.6616,2.99,-10.91,-34.39
900,147921984,-0.5718,-0.3389,-0.6553,2.87,-10.91,-34.82
901,147926984,-0.5703,-0.3374,-0.6611,2.80,-10.91,-35.18
902,147931984,-0.5669,-0.3311,-0.6602,2.62,-10.91,-35.61
903,147936984,-0.5742,-0.3213,-0.6655,2.26,-10.91,-36.16
904,147941984,-0.5757,-0.3223,-0.6621,1.95,-10.73,-36.71
905,147946984,-0.5698,-0.3169,-0.6602,1.95,-10.85,-37.20
906,147951984,-0.5767,-0.3145,-0.6602,1.65,-10.98,-37.68
907,147957401,-0.5791,-0.3149,-0.6548,1.34,-10.98,-38.11
908,147961984,-0.5835,-0.3115,-0.6548,0.79,-10.98,-38.66
909,147966984,-0.5796,-0.3154,-0.6514,0.24,-10.91,-39.21
910,147971986,-0.5737,-0.3101,-0.6421,-0.43,-10.98,-39.63
911,147976983,-0.5762,-0.3047,-0.6460,-1.28,-11.10,-40.06
912,147981984,-0.5801,-0.2988,-0.6455,-2.13,-11.04,-40.43
913,147987345,-0.5815,-0.2954,-0.6440,-3.05,-11.22,-40.98
914,147991984,-0.5742,-0.2905,-0.6392,-3.90,-11.10,-41.40
915,147996984,-0.5737,-0.2896,-0.6406,-4.51,-11.22,-41.89
916,148001984,-0.5762,-0.2886,-0.6357,-5.30,-11.22,-42.32
917,148006984,-0.5698,-0.2935,-0.6333,-6.10,-11.22,-42.56
918,148011984,-0.5645,-0.2891,-0.6289,-7.01,-11.40,-42.87
919,148016984,-0.5649,-0.2856,-0.6284,-7.80,-11.52,-43.11
920,148021984,-0.5615,-0.2793,-0.6323,-8.66,-11.65,-43.11
921,148026984,-0.5537,-0.2764,-0.6313,-9.45,-11.71,-43.35
922,148031983,-0.5605,-0.2676,-0.6299,-10.06,-11.83,-43.35
923,148036984,-0.5576,-0.2686,-0.6240,-10.79,-11.95,-43.41
924,148041984,-0.5581,-0.2686,-0.6382,-11.40,-12.32,-43.29
925,148046984,-0.5527,-0.2686,-0.6201,-12.07,-12.44,-43.11
926,148051984,-0.5356,-0.2622,-0.6367,-12.56,-12.56,-42.80
927,148056982,-0.5459,-0.2671,-0.6416,-13.23,-12.93,-42.56
928,148061982,-0.5508,-0.2720,-0.6260,-14.02,-13.17,-41.95
929,148066982,-0.5542,-0.2808,-0.6299,-15.00,-13.29,-41.52
930,148071982,-0.5527,-0.2759,-0.6294,-15.85,-13.35,-40.85
931,148077785,-0.5474,-0.2744,-0.6245,-17.07,-13.60,-39.94
932,148081984,-0.5454,-0.2749,-0.6177,-17.87,-13.60,-39.27
933,148086984,-0.5371,-0.2705,-0.6348,-18.48,-13.66,-38.60
934,148091984,-0.5435,-0.2686,-0.6294,-19.15,-13.72,-37.74
935,148096984,-0.5444,-0.2720,-0.6270,-19.76,-14.02,-36.83
936,148101984,-0.5493,-0.2749,-0.6328,-20.12,-14.15,-35.91
937,148106984,-0.5498,-0.2759,-0.6392,-20.49,-14.21,-35.06
938,148111984,-0.5479,-0.2739,-0.6333,-20.85,-14.39,-34.02
939,148116985,-0.5513,-0.2729,-0.6318,-20.98,-14.39,-33.17
940,148122476,-0.5537,-0.2676,-0.6396,-20.98,-14.63,-32.01
941,148126984,-0.5571,-0.2686,-0.6465,-21.04,-14.76,-31.34
942,148131984,-0.5552,-0.2729,-0.6499,-20.85,-14.88,-30.49
943,148136984,-0.5518,-0.2676,-0.6504,-20.49,-15.18,-29.39
944,148141984,-0.5581,-0.2671,-0.6465,-20.24,-15.24,-28.78
945,148146984,-0.5542,-0.2661,-0.6519,-20.00,-15.49,-27.74
946,148152049,-0.5562,-0.2617,-0.6528,-19.63,-15.73,-26.95
947,148156984,-0.5596,-0.2627,-0.6519,-19.33,-15.91,-26.04
948,148161984,-0.5576,-0.2588,-0.6548,-18.96,-16.16,-25.24
949,148166984,-0.5630,-0.2578,-0.6494,-18.54,-16.28,-24.33
950,148171985,-0.5605,-0.2573,-0.6519,-17.99,-16.34,-23.66
951,148176987,-0.5601,-0.2607,-0.6582,-17.50,-16.46,-22.68
952,148181984,-0.5659,-0.2573,-0.6592,-17.20,-16.59,-22.07
953,148187405,-0.5620,-0.2559,-0.6597,-16.71,-16.71,-21.28
954,148191983,-0.5615,-0.2578,-0.6646,-16.40,-16.77,-20.43
955,148196986,-0.5664,-0.2549,-0.6616,-16.10,-17.01,-19.76
956,148201984,-0.5645,-0.2534,-0.6704,-15.91,-17.07,-19.09
957,148206984,-0.5605,-0.2451,-0.6768,-15.73,-17.20,-18.23
958,148211984,-0.5703,-0.2510,-0.6729,-15.79,-17.56,-17.56
959,148216984,-0.5815,-0.2559,-0.6665,-15.85,-17.56,-16.95
960,148221984,-0.5830,-0.2598,-0.6963,-16.04,-17.74,-16.28
961,148226984,-0.5747,-0.2598,-0.7090,-16.22,-17.99,-15.61
962,148231984,-0.5811,-0.2549,-0.6821,-16.59,-17.93,-15.06
963,148236984,-0.5767,-0.2495,-0.6870,-16.95,-18.35,-14.51
964,148242392,-0.5786,-0.2427,-0.7095,-17.44,-18.41,-14.09
965,148246984,-0.5815,-0.2407,-0.7075,-17.93,-18.72,-13.60
966,148251984,-0.5898,-0.2422,-0.6895,-18.41,-18.66,-13.17
967,148256985,-0.5854,-0.2437,-0.6958,-19.09,-18.72,-12.68
968,148261984,-0.5923,-0.2402,-0.7090,-19.82,-18.72,-12.44
969,148266984,-0.5889,-0.2363,-0.7021,-20.55,-18.90,-12.07
970,148271984,-0.5796,-0.2261,-0.6851,-21.10,-18.60,-11.83
971,148276982,-0.5625,-0.2373,-0.7036,-21.95,-18.41,-11.52
972,148282192,-0.5825,-0.2451,-0.6982,-23.17,-18.29,-11.22
973,148286984,-0.6064,-0.2402,-0.6934,-24.33,-18.11,-10.98
974,148291984,-0.6201,-0.2285,-0.6904,-25.30,-17.74,-10.73
975,148296984,-0.6108,-0.2178,-0.6943,-26.40,-17.50,-10.55
976,148301984,-0.6064,-0.2065,-0.7080,-27.50,-16.95,-10.30
977,148306984,-0.6001,-0.2158,-0.6978,-28.66,-16.71,-10.12
978,148311987,-0.6050,-0.2202,-0.6963,-30.12,-16.22,-9.70
979,148316984,-0.6084,-0.2222,-0.7012,-31.16,-16.04,-9.45
980,148322465,-0.6108,-0.2217,-0.7065,-32.56,-15.61,-8.84
981,148326984,-0.6040,-0.2285,-0.6694,-33.41,-15.37,-8.48
982,148331984,-0.6021,-0.2310,-0.7012,-34.21,-15.18,-7.93
983,148336984,-0.6128,-0.2241,-0.7202,-35.00,-15.12,-7.38
984,148341984,-0.6250,-0.2207,-0.7124,-35.67,-14.94,-6.59
985,148346984,-0.6274,-0.2144,-0.6841,-36.22,-14.70,-5.85
986,148351982,-0.6201,-0.2163,-0.6919,-36.71,-14.39,-4.94
987,148356984,-0.6206,-0.2222,-0.7129,-37.01,-14.39,-3.78
988,148361982,-0.6138,-0.2241,-0.6992,-37.32,-14.39,-2.74
989,148366983,-0.6133,-0.2251,-0.6753,-37.56,-13.96,-1.59
990,148371984,-0.6152,-0.2251,-0.6929,-37.62,-13.66,-0.49
991,148377753,-0.6055,-0.2231,-0.6982,-37.56,-13.41,1.04
992,148381984,-0.6035,-0.2139,-0.6948,-37.38,-13.29,1.95
993,148386984,-0.5967,-0.2119,-0.6860,-37.13,-13.23,3.23
994,148391984,-0.5854,-0.2080,-0.6973,-36.65,-13.05,4.57
995,148396984,-0.5796,-0.2041,-0.7041,-35.67,-13.11,5.79
996,148401984,-0.5742,-0.2002,-0.6963,-34.82,-13.05,6.89
997,148406984,-0.5649,-0.1948,-0.6880,-33.60,-13.11,8.11
998,148411984,-0.5571,-0.1929,-0.6929,-32.32,-12.99,9.21
999,148416984,-0.5542,-0.1851,-0.7041,-30.79,-13.17,10.30
1000,148421984,-0.5503,-0.1772,-0.6875,-29.15,-13.17,11.40
1001,148426984,-0.5474,-0.1768,-0.6890,-27.50,-13.23,12.50
1002,148431984,-0.5444,-0.1763,-0.6958,-25.85,-13.17,13.60
1003,148436984,-0.5361,-0.1709,-0.6870,-24.33,-13.41,14.51
1004,148441984,-0.5293,-0.1729,-0.6880,-22.68,-13.35,15.67
1005,148446984,-0.5269,-0.1729,-0.6880,-21.40,-13.54,16.59
1006,148451984,-0.5210,-0.1719,-0.6924,-20.30,-13.41,17.50
1007,148456984,-0.5176,-0.1685,-0.6855,-19.21,-13.29,18.66
1008,148461984,-0.5146,-0.1748,-0.6831,-18.41,-13.35,19.57
1009,148466984,-0.5093,-0.1738,-0.6846,-17.93,-13.29,20.55
1010,148471984,-0.5098,-0.1748,-0.6812,-17.50,-13.35,21.59
1011,148477024,-0.5059,-0.1724,-0.6792,-17.20,-13.17,22.50
1012,148481984,-0.5039,-0.1748,-0.6797,-16.89,-13.17,23.48
1013,148486984,-0.5063,-0.1729,-0.6777,-16.95,-13.05,24.45
1014,148491984,-0.5063,-0.1812,-0.6807,-17.01,-12.93,25.30
1015,148496984,-0.5151,-0.1836,-0.6782,-17.13,-12.68,26.28
1016,148501984,-0.5190,-0.1836,-0.6689,-17.50,-12.44,27.20
1017,148506984,-0.5254,-0.1860,-0.6772,-17.99,-12.20,28.11
1018,148511984,-0.5327,-0.1885,-0.6797,-18.41,-11.77,28.96
1019,148516984,-0.5371,-0.1899,-0.6748,-19.02,-11.46,29.76
1020,148521984,-0.5405,-0.1938,-0.6753,-19.45,-11.10,30.67
1021,148526984,-0.5483,-0.1987,-0.6704,-20.00,-10.55,31.46
1022,148531984,-0.5562,-0.1997,-0.6689,-20.37,-10.06,32.38
1023,148537080,-0.5562,-0.1992,-0.6729,-20.49,-9.57,33.17
1024,148541983,-0.5615,-0.2056,-0.6675,-20.73,-9.02,33.96
1025,148546984,-0.5674,-0.2061,-0.6685,-20.73,-8.54,34.82
1026,148551984,-0.5752,-0.2065,-0.6714,-20.49,-8.17,35.49
1027,148556984,-0.5757,-0.2109,-0.6689,-20.06,-7.50,36.28
1028,148561984,-0.5820,-0.2139,-0.6729,-19.51,-7.07,37.01
1029,148567240,-0.5928,-0.2144,-0.6724,-18.66,-6.46,37.74
1030,148572386,-0.5928,-0.2168,-0.6748,-17.80,-5.85,38.41
1031,148576984,-0.5947,-0.2202,-0.6719,-16.95,-5.49,38.90
1032,148581984,-0.5933,-0.2207,-0.6665,-15.85,-5.06,39.51
1033,148586984,-0.5942,-0.2246,-0.6655,-14.63,-4.39,39.94
1034,148591984,-0.5708,-0.2295,-0.6606,-13.54,-3.78,40.55
1035,148596984,-0.5830,-0.2310,-0.6504,-12.56,-3.23,41.10
1036,148601984,-0.6099,-0.2168,-0.6460,-11.34,-2.50,41.52
1037,148606984,-0.6206,-0.2134,-0.6753,-9.63,-2.20,41.89
1038,148611984,-0.6118,-0.2129,-0.6719,-8.05,-1.71,42.20
1039,148616984,-0.5947,-0.2163,-0.6445,-6.04,-1.10,42.26
1040,148621984,-0.5781,-0.2188,-0.6484,-3.78,-0.43,42.32
1041,148626984,-0.5713,-0.2173,-0.6655,-1.65,0.00,42.44
1042,148631984,-0.5674,-0.2178,-0.6616,0.73,0.37,42.26
1043,148636984,-0.5703,-0.2075,-0.6465,3.23,0.79,42.20
1044,148641984,-0.5728,-0.2012,-0.6519,5.67,1.10,41.83
1045,148646984,-0.5723,-0.2021,-0.6636,8.35,1.52,41.77
1046,148651983,-0.5669,-0.1963,-0.6567,10.85,2.01,41.28
1047,148656984,-0.5649,-0.2012,-0.6465,13.41,2.20,40.91
1048,148661983,-0.5620,-0.2051,-0.6592,15.85,2.44,40.49
1049,148666984,-0.5664,-0.2002,-0.6660,18.05,2.80,40.00
1050,148671982,-0.5654,-0.2007,-0.6533,20.06,2.93,39.51
1051,148677179,-0.5625,-0.2061,-0.6484,21.95,3.23,38.96
1052,148681984,-0.5571,-0.2031,-0.6528,23.41,3.66,38.41
1053,148686984,-0.5562,-0.2017,-0.6597,24.70,3.72,37.74
1054,148691984,-0.5562,-0.2065,-0.6553,26.10,4.09,36.95
1055,148696984,-0.5547,-0.2104,-0.6440,26.65,4.33,36.34
1056,148701983,-0.5615,-0.2075,-0.6567,27.26,4.45,35.73
1057,148706984,-0.5605,-0.2075,-0.6567,27.68,4.82,35.06
1058,148711986,-0.5635,-0.2075,-0.6494,27.87,5.00,34.39
1059,148716984,-0.5688,-0.2100,-0.6455,27.80,5.43,33.66
1060,148721984,-0.5688,-0.2114,-0.6562,27.62,5.49,32.87
1061,148726984,-0.5679,-0.2100,-0.6475,27.20,5.73,32.13
1062,148731983,-0.5664,-0.2129,-0.6465,26.59,6.04,31.34
1063,148736984,-0.5669,-0.2144,-0.6411,25.91,6.40,30.55
1064,148741984,-0.5688,-0.2144,-0.6436,25.00,6.65,29.82
1065,148746984,-0.5737,-0.2144,-0.6470,24.09,6.77,28.90
1066,148751984,-0.5752,-0.2119,-0.6416,23.35,7.01,28.05
1067,148756985,-0.5747,-0.2041,-0.6406,22.32,7.20,27.07
1068,148762043,-0.5688,-0.2021,-0.6504,21.52,7.38,26.22
1069,148766984,-0.5615,-0.2031,-0.6475,20.61,7.56,25.18
1070,148771982,-0.5654,-0.2021,-0.6348,19.70,7.62,24.27
1071,148776984,-0.5688,-0.2036,-0.6353,18.72,7.74,23.29
1072,148781984,-0.5737,-0.2051,-0.6392,17.68,7.68,22.26
1073,148787244,-0.5752,-0.2056,-0.6313,16.52,7.68,21.22
1074,148791984,-0.5752,-0.2041,-0.6313,15.67,7.44,20.24
1075,148796984,-0.5732,-0.2031,-0.6328,14.94,7.50,19.51
1076,148801984,-0.5713,-0.2046,-0.6323,14.09,7.32,18.72
1077,148806984,-0.5674,-0.2075,-0.6304,13.35,7.07,17.93
1078,148812359,-0.5737,-0.2070,-0.6294,12.20,6.52,17.01
1079,148816984,-0.5737,-0.2095,-0.6333,11.46,6.34,16.34
1080,148821984,-0.5757,-0.2075,-0.6353,10.43,5.85,15.73
1081,148827392,-0.5767,-0.2095,-0.6328,9.21,5.24,15.06
1082,148831984,-0.5732,-0.2095,-0.6284,8.41,5.00,14.51
1083,148836984,-0.5688,-0.2114,-0.6240,7.68,4.51,13.96
1084,148841984,-0.5679,-0.2100,-0.6211,6.59,4.02,13.35
1085,148846984,-0.5625,-0.2075,-0.6240,5.73,3.48,12.87
1086,148851984,-0.5581,-0.2056,-0.6250,5.12,2.87,12.38
1087,148856984,-0.5566,-0.2051,-0.6245,4.33,2.26,11.83
1088,148861985,-0.5601,-0.2051,-0.6191,3.78,1.89,11.16
1089,148866984,-0.5645,-0.2017,-0.6187,3.35,1.04,10.79
1090,148871985,-0.5625,-0.2021,-0.6196,2.87,0.49,10.06
1091,148876984,-0.5620,-0.2007,-0.6167,2.56,-0.30,9.70
1092,148881984,-0.5659,-0.1978,-0.6167,2.20,-0.85,9.15
1093,148886984,-0.5669,-0.2041,-0.6157,1.89,-1.46,8.72
1094,148891984,-0.5654,-0.2031,-0.6191,1.65,-2.01,8.23
1095,148896986,-0.5737,-0.2046,-0.6235,1.46,-2.56,7.74
1096,148901984,-0.5752,-0.2061,-0.6274,1.16,-3.29,7.44
1097,148906984,-0.5801,-0.2075,-0.6226,1.10,-3.96,7.07
1098,148911984,-0.5850,-0.2109,-0.6216,0.79,-4.57,6.40
1099,148916982,-0.5850,-0.2080,-0.6187,0.67,-5.24,6.10
1100,148921984,-0.5830,-0.2119,-0.6201,0.55,-5.85,5.73
1101,148926984,-0.5771,-0.2056,-0.6191,0.73,-6.40,5.24
1102,148931984,-0.5728,-0.2031,-0.6128,0.85,-6.83,4.70
1103,148937420,-0.5737,-0.1953,-0.6182,1.04,-7.50,4.02
1104,148941984,-0.5762,-0.1963,-0.6230,1.22,-7.87,3.60
1105,148946984,-0.5728,-0.1948,-0.6226,1.59,-8.35,3.05
1106,148951983,-0.5776,-0.1938,-0.6274,1.83,-8.78,2.50
1107,148956982,-0.5776,-0.1938,-0.6216,2.13,-9.15,1.83
1108,148961984,-0.5737,-0.1924,-0.6167,2.38,-9.45,1.28
1109,148966983,-0.5718,-0.1919,-0.6274,2.68,-9.82,0.61
1110,148971985,-0.5767,-0.1851,-0.6226,2.93,-10.18,0.00
1111,148977573,-0.5713,-0.1880,-0.6206,3.11,-10.55,-0.73
1112,148981984,-0.5742,-0.1870,-0.6216,3.23,-10.85,-1.22
1113,148986984,-0.5771,-0.1855,-0.6167,3.29,-10.98,-1.83
1114,148992476,-0.5806,-0.1846,-0.6226,3.35,-11.28,-2.56
1115,148996984,-0.5811,-0.1846,-0.6211,3.35,-11.40,-3.05
1116,149001984,-0.5786,-0.1855,-0.6245,3.23,-11.65,-3.78
1117,149006984,-0.5859,-0.1846,-0.6304,3.05,-11.95,-4.33
1118,149011984,-0.5884,-0.1787,-0.6289,3.05,-12.26,-4.88
1119,149016984,-0.5923,-0.1836,-0.6265,2.68,-12.56,-5.49
1120,149021984,-0.5947,-0.1792,-0.6274,2.56,-12.74,-6.16
1121,149026984,-0.5957,-0.1772,-0.6299,2.26,-12.93,-6.71
1122,149032095,-0.5952,-0.1777,-0.6289,1.89,-13.17,-7.32
1123,149036984,-0.5967,-0.1753,-0.6338,1.59,-13.29,-7.87
1124,149041984,-0.5942,-0.1758,-0.6367,1.22,-13.48,-8.41
1125,149046984,-0.5933,-0.1758,-0.6353,0.67,-13.72,-9.21
1126,149051984,-0.5947,-0.1768,-0.6323,0.06,-13.84,-9.70
1127,149056984,-0.5962,-0.1709,-0.6279,-0.43,-14.09,-10.30
1128,149061984,-0.6006,-0.1763,-0.6313,-1.10,-14.15,-10.79
1129,149066984,-0.6021,-0.1733,-0.6299,-1.65,-14.27,-11.46
1130,149071984,-0.6001,-0.1738,-0.6362,-2.32,-14.33,-11.89
1131,149076985,-0.5991,-0.1719,-0.6274,-3.05,-14.51,-12.38
1132,149081984,-0.5972,-0.1724,-0.6309,-3.78,-14.63,-12.93
1133,149086983,-0.6011,-0.1719,-0.6348,-4.51,-14.82,-13.35
1134,149091984,-0.6021,-0.1704,-0.6328,-5.18,-14.88,-13.78
1135,149096984,-0.6094,-0.1675,-0.6372,-5.91,-14.94,-14.21
1136,149101985,-0.6104,-0.1680,-0.6431,-6.71,-15.12,-14.63
1137,149106984,-0.6074,-0.1650,-0.6382,-7.32,-15.43,-15.06
1138,149111984,-0.6138,-0.1646,-0.6372,-7.93,-15.67,-15.55
1139,149116985,-0.6123,-0.1665,-0.6411,-8.29,-15.67,-15.91
1140,149121984,-0.6167,-0.1636,-0.6401,-9.09,-15.85,-16.34
1141,149126984,-0.6162,-0.1631,-0.6396,-9.45,-16.04,-16.77
1142,149131984,-0.6216,-0.1592,-0.6392,-9.94,-16.04,-17.20
1143,149136984,-0.6187,-0.1611,-0.6426,-10.18,-16.28,-17.44
1144,149141984,-0.6152,-0.1636,-0.6372,-10.43,-16.34,-17.74
1145,149146984,-0.6157,-0.1587,-0.6445,-10.91,-16.59,-18.11
1146,149151984,-0.6182,-0.1543,-0.6406,-11.10,-16.71,-18.41
1147,149156984,-0.6206,-0.1553,-0.6396,-11.40,-16.83,-18.66
1148,149161983,-0.6221,-0.1567,-0.6401,-11.34,-16.95,-18.84
1149,149166984,-0.6240,-0.1572,-0.6421,-11.77,-17.20,-19.15
1150,149171985,-0.6211,-0.1587,-0.6460,-11.83,-17.32,-19.33
1151,149176994,-0.6206,-0.1543,-0.6450,-11.89,-17.32,-19.39
1152,149181984,-0.6240,-0.1548,-0.6445,-12.07,-17.38,-19.76
1153,149186984,-0.6235,-0.1538,-0.6396,-12.26,-17.56,-19.82
1154,149191983,-0.6235,-0.1533,-0.6445,-12.20,-17.68,-19.88
1155,149196986,-0.6250,-0.1514,-0.6406,-11.89,-17.62,-20.06
1156,149201984,-0.6274,-0.1514,-0.6436,-11.89,-17.80,-20.43
1157,149206984,-0.6279,-0.1445,-0.6436,-11.52,-17.80,-20.55
1158,149211984,-0.6274,-0.1431,-0.6426,-11.28,-17.87,-20.67
1159,149216984,-0.6260,-0.1440,-0.6426,-10.79,-17.87,-20.91
1160,149221983,-0.6318,-0.1421,-0.6519,-10.67,-17.80,-20.91
1161,149226984,-0.6333,-0.1416,-0.6460,-10.49,-17.80,-21.10
1162,149231984,-0.6279,-0.1426,-0.6475,-10.12,-17.74,-21.28
1163,149236984,-0.6328,-0.1416,-0.6519,-9.88,-17.56,-21.46
1164,149241984,-0.6309,-0.1450,-0.6440,-9.76,-17.62,-21.40
1165,149246984,-0.6343,-0.1416,-0.6411,-9.76,-17.32,-21.46
1166,149251984,-0.6357,-0.1416,-0.6421,-9.57,-17.32,-21.59
1167,149256982,-0.6396,-0.1411,-0.6406,-9.39,-17.26,-21.52
1168,149261982,-0.6392,-0.1377,-0.6421,-9.39,-16.89,-21.52
1169,149266982,-0.6479,-0.1392,-0.6396,-9.27,-16.77,-21.59
1170,149271983,-0.6475,-0.1387,-0.6445,-9.15,-16.59,-21.46
1171,149276982,-0.6470,-0.1377,-0.6494,-9.27,-16.28,-21.46
1172,149281983,-0.6523,-0.1372,-0.6519,-9.15,-16.16,-21.40
1173,149286984,-0.6553,-0.1372,-0.6479,-9.09,-15.85,-21.34
1174,149291982,-0.6567,-0.1353,-0.6401,-9.09,-15.61,-21.34
1175,149296984,-0.6606,-0.1333,-0.6455,-9.09,-15.30,-21.40
1176,149301984,-0.6616,-0.1362,-0.6411,-9.09,-14.88,-21.28
1177,149306982,-0.6597,-0.1367,-0.6416,-9.02,-14.70,-21.28
1178,149311984,-0.6606,-0.1328,-0.6392,-9.21,-14.33,-21.16
1179,149316982,-0.6592,-0.1338,-0.6343,-9.21,-13.90,-21.04
1180,149321982,-0.6606,-0.1382,-0.6353,-9.27,-13.60,-20.91
1181,149326984,-0.6616,-0.1348,-0.6377,-9.39,-13.29,-20.79
1182,149331984,-0.6602,-0.1318,-0.6401,-9.39,-13.05,-20.61
1183,149336983,-0.6577,-0.1318,-0.6353,-9.51,-12.80,-20.43
1184,149341984,-0.6533,-0.1294,-0.6392,-9.51,-12.44,-20.37
1185,149346984,-0.6553,-0.1240,-0.6372,-9.70,-12.20,-20.00
1186,149352438,-0.6553,-0.1265,-0.6382,-9.94,-11.83,-19.88
1187,149356984,-0.6519,-0.1230,-0.6431,-9.94,-11.65,-19.70
1188,149361984,-0.6548,-0.1230,-0.6406,-10.06,-11.52,-19.39
1189,149366984,-0.6494,-0.1230,-0.6377,-10.18,-11.16,-19.09
1190,149371985,-0.6484,-0.1260,-0.6367,-10.55,-11.16,-18.78
1191,149376984,-0.6416,-0.1289,-0.6367,-10.67,-10.85,-18.35
1192,149381984,-0.6406,-0.1289,-0.6333,-10.98,-10.79,-18.11
1193,149386982,-0.6406,-0.1265,-0.6367,-11.28,-10.73,-17.74
1194,149391984,-0.6450,-0.1250,-0.6372,-11.52,-10.67,-17.38
1195,149396984,-0.6465,-0.1270,-0.6357,-11.71,-10.55,-16.95
1196,149401984,-0.6484,-0.1255,-0.6357,-11.65,-10.49,-16.52
1197,149406985,-0.6436,-0.1201,-0.6367,-11.77,-10.43,-16.10
1198,149411984,-0.6460,-0.1245,-0.6313,-11.83,-10.24,-15.73
1199,149416984,-0.6450,-0.1294,-0.6333,-11.77,-10.24,-15.30
1200,149422096,-0.6465,-0.1265,-0.6333,-11.77,-10.24,-15.06
1201,149426984,-0.6440,-0.1274,-0.6289,-11.89,-10.12,-14.45
1202,149431984,-0.6450,-0.1304,-0.6309,-12.01,-9.94,-14.02
1203,149436984,-0.6519,-0.1279,-0.6323,-11.95,-9.94,-13.66
1204,149442418,-0.6523,-0.1294,-0.6328,-12.07,-9.76,-13.05
1205,149446984,-0.6553,-0.1333,-0.6318,-12.07,-9.57,-12.62
1206,149451984,-0.6553,-0.1333,-0.6274,-12.07,-9.27,-12.20
1207,149456984,-0.6494,-0.1353,-0.6299,-12.20,-9.15,-11.71
1208,149461985,-0.6514,-0.1362,-0.6294,-11.89,-8.84,-11.16
1209,149466982,-0.6558,-0.1357,-0.6294,-11.95,-8.54,-10.61
1210,149471984,-0.6616,-0.1396,-0.6289,-11.89,-8.35,-10.18
1211,149476982,-0.6694,-0.1401,-0.6270,-11.77,-8.05,-9.88
1212,149482560,-0.6704,-0.1396,-0.6167,-11.46,-7.87,-9.45
1213,149486984,-0.6714,-0.1353,-0.6270,-11.10,-7.56,-8.96
1214,149491984,-0.6709,-0.1377,-0.6284,-10.67,-7.20,-8.66
1215,149496984,-0.6724,-0.1338,-0.6245,-10.06,-6.95,-8.35
1216,149501984,-0.6743,-0.1357,-0.6313,-9.63,-6.65,-8.11
1217,149506984,-0.6758,-0.1343,-0.6226,-9.02,-6.34,-7.80
1218,149511985,-0.6772,-0.1333,-0.6201,-8.35,-6.04,-7.62
1219,149516984,-0.6816,-0.1338,-0.6255,-7.68,-5.85,-7.32
1220,149521984,-0.6782,-0.1367,-0.6250,-7.07,-5.49,-7.07
1221,149526984,-0.6748,-0.1348,-0.6206,-6.40,-5.24,-6.83
1222,149531984,-0.6729,-0.1353,-0.6279,-5.79,-4.88,-6.71
1223,149537474,-0.6729,-0.1367,-0.6279,-5.18,-4.51,-6.46
1224,149541984,-0.6738,-0.1416,-0.6323,-4.76,-4.15,-6.10
1225,149546984,-0.6694,-0.1372,-0.6274,-4.27,-3.78,-5.91
1226,149551983,-0.6729,-0.1382,-0.6265,-3.90,-3.29,-5.67
1227,149556982,-0.6733,-0.1396,-0.6240,-3.35,-3.17,-5.43
1228,149562052,-0.6714,-0.1416,-0.6255,-3.11,-2.80,-5.24
1229,149566985,-0.6738,-0.1406,-0.6270,-2.93,-2.38,-4.94
1230,149571982,-0.6714,-0.1382,-0.6265,-2.68,-2.20,-4.63
1231,149576982,-0.6660,-0.1387,-0.6157,-2.44,-1.89,-4.39
1232,149582066,-0.6670,-0.1377,-0.6226,-2.20,-1.71,-4.21
1233,149586984,-0.6680,-0.1377,-0.6211,-1.95,-1.40,-4.02
1234,149591984,-0.6685,-0.1377,-0.6201,-1.95,-1.16,-3.84
1235,149596984,-0.6685,-0.1377,-0.6211,-1.77,-0.79,-3.60
1236,149601984,-0.6689,-0.1367,-0.6201,-1.71,-0.61,-3.35
1237,149607114,-0.6665,-0.1367,-0.6221,-1.77,-0.49,-3.11
1238,149611984,-0.6641,-0.1440,-0.6172,-1.59,-0.18,-2.80
1239,149616984,-0.6641,-0.1436,-0.6157,-1.52,0.12,-2.50
1240,149621984,-0.6626,-0.1426,-0.6099,-1.46,0.06,-2.26
1241,149626984,-0.6631,-0.1396,-0.6162,-1.22,0.24,-1.89
1242,149631984,-0.6587,-0.1436,-0.6108,-1.16,0.37,-1.77
1243,149636984,-0.6567,-0.1416,-0.6079,-1.10,0.49,-1.40
1244,149641984,-0.6597,-0.1440,-0.6133,-0.91,0.61,-1.16
1245,149646984,-0.6616,-0.1411,-0.6079,-0.73,0.55,-0.79
1246,149651984,-0.6641,-0.1465,-0.6050,-0.43,0.61,-0.49
1247,149656983,-0.6562,-0.1406,-0.6123,-0.12,0.73,-0.24
1248,149661983,-0.6548,-0.1440,-0.6084,0.12,0.61,0.06
1249,149666984,-0.6587,-0.1421,-0.6099,0.49,0.91,0.30
1250,149671984,-0.6592,-0.1440,-0.6079,0.79,0.91,0.55
1251,149676984,-0.6587,-0.1460,-0.6089,1.04,0.98,0.85
1252,149682350,-0.6602,-0.1455,-0.6035,1.22,1.10,1.10
1253,149686984,-0.6611,-0.1465,-0.6060,1.46,1.16,1.16
1254,149691984,-0.6650,-0.1475,-0.5991,1.65,1.16,1.40
1255,149697471,-0.6602,-0.1494,-0.6050,1.77,1.28,1.71
1256,149701984,-0.6597,-0.1484,-0.6030,1.95,1.34,1.89
1257,149706984,-0.6582,-0.1504,-0.5986,2.07,1.34,2.20
1258,149712468,-0.6587,-0.1465,-0.5996,2.20,1.40,2.32
1259,149716984,-0.6538,-0.1484,-0.6035,2.26,1.34,2.44
1260,149721984,-0.6597,-0.1523,-0.5991,2.26,1.46,2.56
1261,149726984,-0.6660,-0.1494,-0.6064,2.44,1.52,2.80
1262,149731984,-0.6636,-0.1514,-0.6060,2.56,1.40,2.93
1263,149736984,-0.6616,-0.1523,-0.6060,2.68,1.59,3.05
1264,149741984,-0.6553,-0.1548,-0.5928,2.93,1.52,3.23
1265,149746984,-0.6543,-0.1523,-0.6016,3.05,1.52,3.35
1266,149751984,-0.6509,-0.1538,-0.6021,3.11,1.71,3.48
1267,149756984,-0.6494,-0.1504,-0.5947,3.35,1.59,3.48
1268,149761984,-0.6494,-0.1548,-0.5903,3.48,1.59,3.54
1269,149766984,-0.6523,-0.1567,-0.5972,3.54,1.71,3.60
1270,149771984,-0.6582,-0.1538,-0.5962,3.78,1.65,3.66
1271,149776984,-0.6499,-0.1528,-0.5957,4.02,1.83,3.72
1272,149781984,-0.6426,-0.1562,-0.5977,4.21,1.71,3.78
1273,149786984,-0.6362,-0.1572,-0.5957,4.39,1.89,3.84
1274,149791984,-0.6401,-0.1562,-0.5962,4.51,1.77,3.96
1275,149796984,-0.6401,-0.1592,-0.5962,4.88,1.83,4.09
1276,149801984,-0.6401,-0.1553,-0.5947,5.12,1.65,4.21
1277,149807425,-0.6460,-0.1587,-0.5942,5.37,1.59,4.33
1278,149811984,-0.6484,-0.1587,-0.5972,5.49,1.46,4.39
1279,149816984,-0.6504,-0.1680,-0.5996,5.73,1.46,4.63
1280,149822353,-0.6499,-0.1646,-0.5967,5.91,1.22,4.70
1281,149826984,-0.6489,-0.1646,-0.5967,5.85,1.16,4.94
1282,149831985,-0.6460,-0.1675,-0.5952,5.98,0.85,5.06
1283,149836984,-0.6479,-0.1675,-0.5903,6.10,0.73,5.18
1284,149841984,-0.6440,-0.1694,-0.5884,6.04,0.55,5.37
1285,149846984,-0.6460,-0.1704,-0.5938,6.04,0.43,5.37
1286,149851983,-0.6450,-0.1670,-0.5957,6.04,0.37,5.61
1287,149856982,-0.6460,-0.1636,-0.5967,6.04,0.12,5.55
1288,149861982,-0.6455,-0.1646,-0.5938,5.79,-0.06,5.73
1289,149866982,-0.6465,-0.1626,-0.5903,5.73,-0.12,5.61
1290,149871982,-0.6460,-0.1636,-0.5952,5.55,-0.37,5.73
1291,149876995,-0.6406,-0.1636,-0.5986,5.49,-0.43,5.85
1292,149881983,-0.6411,-0.1660,-0.5972,5.30,-0.61,5.79
1293,149886984,-0.6387,-0.1650,-0.5952,5.18,-0.67,5.73
1294,149891982,-0.6387,-0.1689,-0.5972,4.88,-0.98,5.67
1295,149896984,-0.6396,-0.1670,-0.5967,4.63,-1.10,5.67
1296,149901984,-0.6406,-0.1665,-0.5928,4.51,-1.34,5.67
1297,149906984,-0.6377,-0.1694,-0.5933,4.33,-1.40,5.61
1298,149911984,-0.6357,-0.1724,-0.5884,3.96,-1.65,5.55
1299,149916984,-0.6377,-0.1738,-0.5972,3.60,-1.83,5.55
1300,149921984,-0.6382,-0.1763,-0.5962,3.41,-1.89,5.55
1301,149926984,-0.6406,-0.1714,-0.5962,3.17,-2.20,5.43
1302,149931984,-0.6387,-0.1733,-0.5972,2.93,-2.44,5.37
1303,149937451,-0.6338,-0.1704,-0.5938,2.68,-2.80,5.30
1304,149941984,-0.6392,-0.1709,-0.5938,2.44,-2.99,5.24
1305,149947315,-0.6396,-0.1704,-0.5972,2.38,-3.29,5.18
1306,149951984,-0.6392,-0.1699,-0.5913,2.07,-3.41,5.00
1307,149956985,-0.6426,-0.1694,-0.6006,1.83,-3.78,4.82
1308,149961984,-0.6426,-0.1655,-0.5894,1.77,-3.90,4.88
1309,149966984,-0.6411,-0.1704,-0.5928,1.52,-4.09,4.57
1310,149971984,-0.6440,-0.1680,-0.5962,1.34,-4.39,4.45
1311,149976984,-0.6445,-0.1665,-0.5981,1.10,-4.51,4.15
1312,149981984,-0.6455,-0.1689,-0.5977,1.04,-4.57,4.09
1313,149986984,-0.6479,-0.1685,-0.5918,0.85,-4.94,3.90
1314,149991984,-0.6426,-0.1704,-0.5986,0.79,-4.82,3.78
1315,149996984,-0.6436,-0.1699,-0.5996,0.79,-5.18,3.60
1316,150001984,-0.6426,-0.1704,-0.5938,0.55,-5.18,3.41
1317,150006984,-0.6396,-0.1699,-0.5952,0.37,-5.43,3.29
1318,150011984,-0.6416,-0.1680,-0.6006,0.30,-5.55,3.11
1319,150016984,-0.6406,-0.1694,-0.6006,0.24,-5.67,2.99
1320,150022361,-0.6372,-0.1743,-0.5903,0.06,-5.73,2.87
1321,150026984,-0.6362,-0.1719,-0.5884,0.06,-5.85,2.80
1322,150031984,-0.6318,-0.1699,-0.5820,0.06,-6.16,2.56
1323,150037404,-0.6338,-0.1694,-0.5898,0.24,-6.10,2.50
1324,150041984,-0.6362,-0.1650,-0.5908,0.18,-6.34,2.32
1325,150046984,-0.6338,-0.1655,-0.5967,0.43,-6.46,2.20
1326,150051984,-0.6338,-0.1660,-0.5933,0.55,-6.59,1.95
1327,150056984,-0.6323,-0.1650,-0.5933,0.67,-6.77,1.77
1328,150061984,-0.6289,-0.1655,-0.5947,0.85,-6.83,1.65
1329,150066984,-0.6270,-0.1636,-0.5942,0.98,-7.07,1.28
1330,150071983,-0.6309,-0.1641,-0.5923,1.16,-7.38,1.10
1331,150076984,-0.6274,-0.1621,-0.5957,1.28,-7.50,0.98
1332,150081984,-0.6260,-0.1562,-0.5918,1.34,-7.68,0.67
1333,150086984,-0.6230,-0.1567,-0.6006,1.34,-8.23,0.43
1334,150091984,-0.6284,-0.1572,-0.5942,1.40,-8.41,0.12
1335,150096984,-0.6235,-0.1567,-0.5938,1.40,-8.72,-0.18
1336,150101984,-0.6260,-0.1567,-0.5923,1.22,-9.02,-0.43
1337,150106984,-0.6255,-0.1562,-0.5942,1.16,-9.57,-0.79
1338,150111984,-0.6313,-0.1533,-0.5928,0.79,-9.94,-0.98
1339,150116985,-0.6323,-0.1543,-0.5903,0.24,-10.18,-1.34
1340,150121984,-0.6367,-0.1567,-0.5977,-0.37,-10.67,-1.46
1341,150127396,-0.6392,-0.1572,-0.5918,-1.22,-11.16,-1.77
1342,150131984,-0.6401,-0.1606,-0.6001,-2.44,-11.71,-1.95
1343,150136984,-0.6440,-0.1602,-0.5933,-3.48,-12.26,-2.13
1344,150141984,-0.6523,-0.1636,-0.5894,-4.88,-12.50,-2.38
1345,150146984,-0.6528,-0.1660,-0.5957,-6.59,-13.23,-2.32
1346,150151983,-0.6587,-0.1660,-0.5908,-8.48,-13.66,-2.50
1347,150156982,-0.6577,-0.1675,-0.5986,-10.43,-14.33,-2.38
1348,150161984,-0.6543,-0.1729,-0.5908,-12.56,-14.82,-2.38
1349,150166982,-0.6587,-0.1680,-0.5923,-14.70,-15.55,-2.50
1350,150171983,-0.6577,-0.1636,-0.6045,-16.89,-16.10,-2.62
1351,150177232,-0.6558,-0.1699,-0.5933,-19.27,-16.83,-2.50
1352,150181984,-0.6548,-0.1641,-0.5952,-21.59,-17.74,-2.62
1353,150187347,-0.6504,-0.1646,-0.6001,-23.96,-18.41,-2.74
1354,150191983,-0.6484,-0.1636,-0.5884,-26.34,-19.15,-2.74
1355,150196987,-0.6392,-0.1641,-0.5874,-28.54,-20.12,-2.87
1356,150201984,-0.6377,-0.1626,-0.5859,-30.91,-21.04,-2.87
1357,150206984,-0.6357,-0.1699,-0.5879,-33.17,-21.83,-2.99
1358,150211984,-0.6421,-0.1675,-0.5874,-35.43,-22.87,-2.99
1359,150216984,-0.6440,-0.1719,-0.5923,-37.56,-23.78,-3.05
1360,150222288,-0.6509,-0.1743,-0.5952,-39.57,-24.70,-3.11
1361,150226984,-0.6553,-0.1743,-0.5947,-42.01,-25.98,-3.23
1362,150231984,-0.6548,-0.1694,-0.5967,-43.29,-26.83,-3.41
1363,150236984,-0.6479,-0.1675,-0.5933,-44.88,-27.74,-3.41
1364,150241984,-0.6489,-0.1660,-0.5938,-45.98,-28.90,-3.66
1365,150246984,-0.6494,-0.1616,-0.5947,-46.89,-29.94,-3.90
1366,150251984,-0.6489,-0.1572,-0.6021,-47.50,-31.16,-4.15
1367,150257102,-0.6401,-0.1528,-0.5972,-47.93,-32.32,-4.45
1368,150261984,-0.6362,-0.1494,-0.5981,-48.17,-33.35,-4.70
1369,150266984,-0.6294,-0.1475,-0.6035,-48.23,-34.57,-5.06
1370,150271984,-0.6235,-0.1445,-0.5981,-48.29,-35.73,-5.37
1371,150276982,-0.6177,-0.1445,-0.5986,-48.29,-36.89,-5.79
1372,150281984,-0.6162,-0.1440,-0.6035,-48.41,-38.17,-6.22
1373,150286984,-0.6118,-0.1426,-0.5991,-48.48,-39.39,-6.65
1374,150291984,-0.6143,-0.1372,-0.6021,-48.41,-40.49,-6.95
1375,150296986,-0.6128,-0.1323,-0.5996,-48.54,-41.77,-7.44
1376,150302011,-0.6069,-0.1294,-0.5952,-48.78,-42.56,-7.99
1377,150306983,-0.6069,-0.1211,-0.6040,-49.15,-43.72,-8.48
1378,150311984,-0.6094,-0.1196,-0.6035,-49.63,-44.70,-9.09
1379,150316984,-0.6123,-0.1201,-0.6089,-50.37,-45.73,-9.63
1380,150321984,-0.6133,-0.1211,-0.6074,-51.34,-46.71,-10.18
1381,150326984,-0.6250,-0.1235,-0.6099,-52.38,-47.68,-10.79
1382,150331984,-0.6328,-0.1250,-0.6157,-53.78,-48.48,-11.22
1383,150336984,-0.6309,-0.1240,-0.6104,-55.12,-49.39,-11.71
1384,150341984,-0.6353,-0.1196,-0.6055,-56.89,-50.30,-12.13
1385,150346984,-0.6372,-0.1206,-0.6064,-58.60,-51.16,-12.62
1386,150351984,-0.6396,-0.1211,-0.6011,-60.37,-51.59,-13.05
1387,150356984,-0.6436,-0.1226,-0.5952,-62.44,-52.32,-13.35
1388,150361984,-0.6479,-0.1191,-0.5933,-64.45,-52.93,-13.90
1389,150366984,-0.6489,-0.1216,-0.5918,-66.46,-53.17,-14.27
1390,150371984,-0.6494,-0.1191,-0.5869,-68.60,-53.54,-14.76
1391,150376984,-0.6528,-0.1191,-0.5884,-70.67,-53.96,-15.12
1392,150381984,-0.6670,-0.1172,-0.5864,-72.93,-54.39,-15.49
1393,150386984,-0.6694,-0.1152,-0.5854,-75.00,-54.45,-15.98
1394,150391984,-0.6802,-0.1162,-0.5796,-77.26,-54.63,-16.46
1395,150396985,-0.6841,-0.1206,-0.5806,-79.33,-55.06,-16.83
1396,150401983,-0.6860,-0.1250,-0.5796,-81.46,-55.37,-17.13
1397,150406984,-0.6821,-0.1157,-0.5537,-83.48,-55.55,-17.44
1398,150411982,-0.6660,-0.1255,-0.5806,-85.49,-55.73,-17.62
1399,150417310,-0.6968,-0.1211,-0.5913,-87.50,-55.98,-17.74
1400,150421984,-0.7085,-0.1157,-0.5894,-88.48,-56.34,-17.99
1401,150426984,-0.7153,-0.1147,-0.5747,-89.33,-56.52,-18.11
1402,150431984,-0.7056,-0.1147,-0.5830,-90.00,-56.52,-18.23
1403,150436985,-0.7046,-0.1143,-0.5996,-90.61,-56.77,-18.41
1404,150441984,-0.7017,-0.1118,-0.5825,-91.16,-56.95,-18.54
1405,150446984,-0.6973,-0.1099,-0.5688,-91.59,-56.83,-18.54
1406,150451983,-0.6943,-0.1084,-0.5732,-91.83,-56.71,-18.72
1407,150456986,-0.6919,-0.1074,-0.5718,-92.07,-56.83,-18.78
1408,150461984,-0.6904,-0.1064,-0.5620,-92.26,-56.52,-18.84
1409,150466984,-0.6924,-0.1030,-0.5537,-92.38,-56.59,-18.90
1410,150471982,-0.6982,-0.0942,-0.5591,-92.56,-56.34,-19.15
1411,150476982,-0.6812,-0.1030,-0.5688,-92.93,-56.34,-19.27
1412,150481984,-0.6953,-0.1064,-0.5601,-93.29,-56.34,-19.33
1413,150486984,-0.7124,-0.0913,-0.5347,-93.84,-56.16,-19.45
1414,150491984,-0.7163,-0.0815,-0.5527,-94.45,-55.85,-19.76
1415,150496984,-0.7134,-0.0806,-0.5605,-95.06,-55.79,-20.06
1416,150501984,-0.7056,-0.0747,-0.5347,-95.85,-55.85,-20.18
1417,150506984,-0.7031,-0.0762,-0.5288,-96.89,-55.73,-20.37
1418,150511984,-0.7026,-0.0791,-0.5464,-97.99,-55.85,-20.85
1419,150516985,-0.7046,-0.0786,-0.5532,-99.15,-56.04,-20.98
1420,150521984,-0.7061,-0.0757,-0.5229,-100.49,-55.98,-21.40
1421,150527476,-0.7139,-0.0771,-0.5151,-102.01,-56.22,-21.65
1422,150531984,-0.7148,-0.0698,-0.5376,-103.05,-56.28,-21.77
1423,150536984,-0.7178,-0.0723,-0.5264,-104.21,-56.40,-21.95
1424,150541984,-0.7227,-0.0698,-0.5044,-105.30,-56.52,-22.20
1425,150546984,-0.7271,-0.0708,-0.5049,-106.22,-56.65,-22.38
1426,150551984,-0.7344,-0.0669,-0.5063,-106.83,-56.83,-22.56
1427,150556984,-0.7412,-0.0620,-0.5005,-107.44,-57.20,-22.68
1428,150561984,-0.7446,-0.0620,-0.4800,-107.62,-57.26,-22.80
1429,150566984,-0.7524,-0.0518,-0.4727,-107.56,-57.50,-22.87
1430,150571984,-0.7705,-0.0420,-0.4800,-107.13,-57.74,-23.05
1431,150576984,-0.7798,-0.0312,-0.4712,-106.59,-57.93,-23.23
1432,150581984,-0.7793,-0.0220,-0.4629,-105.67,-58.05,-23.48
1433,150586984,-0.7832,-0.0093,-0.4639,-104.45,-58.35,-23.78
1434,150591982,-0.7817,0.0034,-0.4565,-103.23,-58.54,-24.09
1435,150596984,-0.7822,0.0137,-0.4507,-101.83,-58.84,-24.51
1436,150601984,-0.7793,0.0249,-0.4331,-100.24,-59.27,-25.00
1437,150606984,-0.7754,0.0420,-0.4336,-98.84,-59.57,-25.61
1438,150611984,-0.7725,0.0562,-0.4321,-97.32,-60.18,-25.98
1439,150616984,-0.7686,0.0640,-0.4180,-95.79,-60.43,-26.83
1440,150621984,-0.7754,0.0698,-0.4087,-94.33,-60.91,-27.44
1441,150626984,-0.7798,0.0742,-0.4136,-92.93,-61.46,-28.05
1442,150631984,-0.8213,0.0781,-0.4111,-91.65,-61.83,-28.78
1443,150636984,-0.8657,0.0815,-0.4038,-90.49,-62.50,-29.39
1444,150641987,-0.9390,0.0747,-0.4033,-89.02,-63.05,-30.12
1445,150646984,-0.9888,0.0718,-0.4082,-88.17,-63.41,-30.49
1446,150651984,-1.0547,0.0664,-0.4126,-87.13,-64.09,-30.85
1447,150656984,-1.1055,0.0640,-0.4126,-86.16,-64.45,-31.34
1448,150661984,-1.1426,0.0576,-0.4150,-85.24,-65.00,-31.52
1449,150666984,-1.1655,0.0532,-0.4268,-84.33,-66.04,-31.65
1450,150671984,-1.1553,0.0527,-0.4185,-83.54,-67.01,-31.77
1451,150676984,-1.1592,0.0581,-0.4185,-82.44,-67.87,-31.71
1452,150681984,-1.1514,0.0547,-0.4341,-81.10,-69.15,-31.71
1453,150686984,-1.1367,0.0581,-0.4355,-79.88,-70.49,-31.59
1454,150691984,-1.1064,0.0718,-0.3921,-78.96,-71.95,-31.59
1455,150696984,-1.0376,0.0918,-0.3604,-78.11,-73.17,-31.28
1456,150701984,-1.0103,0.0933,-0.3555,-77.13,-74.33,-31.22
1457,150706984,-0.9995,0.0913,-0.3418,-76.34,-75.61,-31.04
1458,150711984,-0.9785,0.0796,-0.2979,-75.61,-76.65,-30.61
1459,150716984,-0.9644,0.0718,-0.2651,-75.30,-77.07,-30.18
1460,150721984,-0.9429,0.0728,-0.2466,-75.37,-77.68,-29.57
1461,150726984,-0.9272,0.0708,-0.2192,-75.85,-77.93,-29.15
1462,150731984,-0.8745,0.0815,-0.1733,-76.59,-77.74,-28.48
1463,150736984,-0.8628,0.0840,-0.1528,-77.87,-77.26,-27.99
1464,150741984,-0.8716,0.0835,-0.1372,-79.09,-76.46,-27.38
1465,150746984,-0.8965,0.0825,-0.1162,-80.67,-75.61,-26.77
1466,150751983,-0.9268,0.0747,-0.1040,-82.38,-74.39,-26.04
1467,150756982,-0.9482,0.0771,-0.0894,-84.33,-73.11,-25.55
1468,150761983,-0.9556,0.0864,-0.0815,-86.59,-71.46,-24.94
1469,150766984,-0.9399,0.1001,-0.0596,-88.90,-69.82,-24.70
1470,150771982,-0.9331,0.0991,-0.0474,-91.28,-67.80,-24.33
1471,150776985,-0.9546,0.0933,-0.0645,-93.48,-66.04,-23.84
1472,150781984,-0.9697,0.0835,-0.0845,-95.61,-64.45,-23.41
1473,150787086,-1.0112,0.0791,-0.0635,-97.93,-62.38,-22.99
1474,150791984,-1.0405,0.0679,-0.0464,-99.57,-60.91,-22.44
1475,150796984,-1.0659,0.0747,-0.0537,-101.83,-58.60,-21.77
1476,150801984,-1.0605,0.0703,-0.0479,-103.48,-57.20,-21.28
1477,150806984,-1.0552,0.0723,-0.0063,-105.49,-54.88,-20.79
1478,150811984,-1.0527,0.0835,0.0000,-107.38,-52.44,-20.24
1479,150816984,-1.0522,0.0854,-0.0015,-108.84,-50.06,-19.63
1480,150821984,-1.0415,0.0889,0.0186,-110.12,-47.38,-19.09
1481,150826984,-1.0308,0.0913,0.0415,-111.04,-44.76,-18.60
1482,150831984,-1.0181,0.1006,0.0396,-111.65,-41.34,-17.93
1483,150837422,-0.9946,0.1016,0.0410,-112.01,-38.78,-17.50
1484,150841984,-0.9941,0.0923,0.0620,-112.13,-36.59,-17.07
1485,150846984,-1.0010,0.1045,0.0796,-111.89,-33.17,-16.40
1486,150851984,-1.0176,0.1011,0.0830,-111.40,-30.12,-15.85
1487,150856984,-1.0244,0.1035,0.0820,-110.55,-27.26,-15.18
1488,150861984,-1.0186,0.1055,0.0771,-109.15,-24.33,-14.57
1489,150866984,-1.0176,0.1001,0.0835,-107.74,-21.52,-13.84
1490,150871984,-1.0229,0.1016,0.0874,-105.98,-18.54,-13.11
1491,150876984,-1.0210,0.0933,0.0781,-103.96,-15.85,-12.32
1492,150881984,-1.0244,0.0933,0.0967,-101.83,-13.05,-11.52
1493,150886984,-1.0171,0.0962,0.0977,-99.57,-10.18,-10.73
1494,150891984,-1.0220,0.0879,0.0991,-97.26,-7.38,-9.94
1495,150896984,-1.0327,0.0942,0.1123,-94.76,-4.27,-8.96
1496,150901984,-1.0381,0.0957,0.1226,-91.95,-1.40,-8.11
1497,150906984,-1.0347,0.0986,0.1265,-88.54,1.46,-7.26
1498,150912408,-1.0186,0.1050,0.0967,-84.88,4.27,-6.40
1499,150916984,-1.0029,0.1045,0.0869,-80.79,6.77,-5.73
1500,150921983,-0.9990,0.1021,0.0962,-76.65,9.15,-5.06
1501,150927403,-0.9932,0.1099,0.1050,-72.20,11.46,-4.33
1502,150931984,-0.9888,0.1182,0.0938,-67.62,13.84,-3.78
1503,150936984,-0.9819,0.1323,0.0859,-62.93,15.79,-3.17
1504,150941984,-0.9727,0.1299,0.0889,-58.05,17.93,-2.62
1505,150946984,-0.9585,0.1333,0.0825,-52.87,19.82,-2.13
1506,150952141,-0.9565,0.1411,0.0625,-47.74,21.34,-1.77
1507,150956984,-0.9731,0.1309,0.0659,-42.68,22.93,-1.59
1508,150961984,-0.9951,0.1216,0.0728,-37.80,24.39,-1.16
1509,150967189,-0.9961,0.1167,0.0649,-32.99,25.98,-0.73
1510,150971984,-0.9990,0.1104,0.0513,-28.54,27.50,-0.24
1511,150976984,-1.0044,0.1055,0.0439,-24.21,28.78,0.24
1512,150981984,-1.0137,0.0977,0.0566,-20.30,30.12,0.85
1513,150986984,-1.0195,0.0879,0.0459,-16.71,31.52,1.46
1514,150992481,-1.0200,0.0820,0.0474,-13.29,32.68,2.20
1515,150996984,-1.0225,0.0767,0.0464,-9.94,33.90,3.05
1516,151001984,-1.0259,0.0825,0.0562,-6.65,35.24,3.84
1517,151006984,-1.0210,0.0879,0.0479,-3.41,36.22,4.57
1518,151011984,-1.0093,0.0947,0.0391,-0.18,37.32,5.24
1519,151016984,-0.9795,0.1138,0.0376,3.35,38.29,5.73
1520,151021984,-0.9912,0.0894,0.0371,6.89,39.15,6.22
1521,151026984,-1.0146,0.0938,0.0420,10.24,40.18,6.83
1522,151031984,-1.0190,0.1069,0.0527,13.41,41.10,7.26
1523,151036984,-1.0010,0.1196,0.0366,16.89,42.07,7.50
1524,151041984,-0.9766,0.1152,0.0156,20.12,42.62,7.87
1525,151046984,-0.9663,0.1270,0.0200,23.60,43.17,8.11
1526,151051982,-0.9731,0.1328,0.0215,27.20,43.78,8.23
1527,151056983,-0.9834,0.1245,0.0088,30.49,44.09,8.23
1528,151061985,-0.9697,0.1250,-0.0107,33.41,44.27,8.23
1529,151066984,-0.9639,0.1138,-0.0171,36.10,44.39,8.29
1530,151071983,-0.9487,0.1128,-0.0088,38.35,44.39,8.29
1531,151076988,-0.9648,0.1255,0.0000,40.37,44.45,8.29
1532,151081987,-0.9902,0.1304,-0.0142,42.26,44.63,8.29
1533,151086984,-1.0142,0.1196,-0.0288,44.02,44.57,8.05
1534,151091984,-1.0225,0.1089,-0.0381,45.67,44.27,8.05
1535,151096984,-1.0244,0.1001,-0.0459,46.77,43.90,8.05
1536,151101984,-1.0200,0.0947,-0.0405,47.93,43.54,8.29
1537,151106984,-1.0068,0.1045,-0.0435,48.72,43.23,8.23
1538,151111984,-0.9971,0.0957,-0.0435,49.39,42.80,8.23
1539,151116987,-0.9893,0.0962,-0.0571,49.94,42.32,8.29
1540,151121986,-0.9512,0.1016,-0.0562,50.30,41.46,8.35
1541,151126984,-0.9624,0.1030,-0.0459,50.79,40.98,8.29
1542,151132509,-0.9751,0.1113,-0.0601,51.34,40.18,8.41
1543,151136984,-0.9819,0.0962,-0.0864,51.95,39.39,8.29
1544,151141984,-0.9878,0.0835,-0.0947,52.38,38.23,8.35
1545,151146984,-0.9917,0.0791,-0.0898,52.74,37.07,8.48
1546,151151984,-0.9854,0.0771,-0.0996,52.87,35.98,8.72
1547,151156988,-0.9707,0.0820,-0.1011,52.62,34.82,8.66
1548,151161986,-0.9585,0.0742,-0.0947,52.44,33.41,8.78
1549,151166986,-0.9424,0.0723,-0.1021,51.89,32.20,8.96
1550,151171984,-0.9312,0.0811,-0.1055,51.40,30.91,9.02
1551,151176984,-0.9438,0.0884,-0.0938,50.61,29.63,9.21
1552,151181984,-0.9502,0.0981,-0.1050,49.76,28.23,9.09
1553,151186986,-0.9512,0.0918,-0.0991,48.90,26.89,9.09
1554,151191982,-0.9604,0.0781,-0.0952,47.56,25.61,9.09
1555,151196985,-0.9585,0.0786,-0.1025,46.46,24.27,9.02
1556,151201982,-0.9609,0.0767,-0.0977,45.06,22.93,9.09
1557,151206982,-0.9521,0.0879,-0.1016,43.60,21.77,9.15
1558,151211982,-0.9429,0.0923,-0.1030,42.13,20.43,8.96
1559,151216982,-0.9399,0.0991,-0.1001,40.61,19.09,8.90
1560,151221984,-0.9375,0.1035,-0.1035,39.02,17.87,8.60
1561,151226983,-0.9316,0.1055,-0.1079,37.74,16.59,8.48
1562,151231986,-0.9346,0.1055,-0.1138,36.40,15.18,8.29
1563,151236984,-0.9336,0.1064,-0.1157,35.06,13.78,7.93
1564,151241984,-0.9346,0.1138,-0.1221,33.72,12.38,7.80
1565,151246984,-0.9331,0.1104,-0.1274,32.26,10.85,7.44
1566,151251984,-0.9341,0.1108,-0.1270,30.79,9.51,7.07
1567,151257296,-0.9316,0.1182,-0.1235,29.15,8.17,6.65
1568,151261984,-0.9263,0.1162,-0.1230,27.26,6.83,6.28
1569,151266984,-0.9263,0.1157,-0.1196,25.37,5.43,5.91
1570,151271984,-0.9297,0.1133,-0.1230,23.11,4.33,5.67
1571,151276984,-0.9292,0.1128,-0.1201,20.79,3.17,5.18
1572,151281984,-0.9316,0.1113,-0.1143,18.41,2.07,4.70
1573,151286985,-0.9404,0.1060,-0.1152,15.73,0.98,4.33
1574,151292012,-0.9507,0.1016,-0.1143,13.29,-0.06,4.02
1575,151296984,-0.9541,0.1021,-0.1143,10.55,-0.91,3.72
1576,151301984,-0.9575,0.0996,-0.1196,8.11,-1.95,3.48
1577,151306984,-0.9561,0.0977,-0.1191,5.49,-2.99,3.05
1578,151312462,-0.9614,0.0928,-0.1221,3.17,-4.02,2.99
1579,151316984,-0.9556,0.0952,-0.1255,0.85,-5.00,2.56
1580,151321984,-0.9556,0.0957,-0.1250,-1.28,-5.79,2.44
1581,151326984,-0.9551,0.0967,-0.1221,-3.11,-6.83,2.20
1582,151331984,-0.9526,0.0947,-0.1206,-4.63,-7.68,1.95
1583,151336986,-0.9526,0.0928,-0.1313,-6.10,-8.72,1.77
1584,151341986,-0.9473,0.0952,-0.1216,-7.32,-9.39,1.52
1585,151346983,-0.9355,0.1006,-0.1216,-8.41,-10.43,1.40
1586,151351984,-0.9414,0.1021,-0.1133,-9.15,-11.22,1.04
1587,151357373,-0.9429,0.1016,-0.1118,-10.06,-11.89,0.85
1588,151361985,-0.9482,0.0981,-0.1157,-10.79,-12.62,0.55
1589,151366984,-0.9458,0.0972,-0.1201,-11.46,-13.29,0.43
1590,151371984,-0.9521,0.0898,-0.1138,-12.07,-14.02,0.30
1591,151377401,-0.9512,0.0898,-0.1201,-12.74,-14.70,0.00
1592,151381984,-0.9487,0.0869,-0.1172,-13.35,-15.24,0.00
1593,151386984,-0.9521,0.0879,-0.1128,-13.84,-15.85,-0.12
1594,151392645,-0.9556,0.0874,-0.1147,-14.33,-16.46,-0.24
1595,151396984,-0.9585,0.0898,-0.1167,-14.63,-16.95,-0.49
1596,151401983,-0.9536,0.0889,-0.1143,-14.88,-17.44,-0.43
1597,151406986,-0.9536,0.0869,-0.1182,-14.94,-17.87,-0.61
1598,151411984,-0.9551,0.0869,-0.1152,-14.88,-18.35,-0.79
1599,151416984,-0.9556,0.0879,-0.1108,-14.88,-18.72,-1.04
1600,151421983,-0.9507,0.0913,-0.1138,-14.51,-19.33,-1.10
1601,151426984,-0.9541,0.0903,-0.1147,-14.27,-19.57,-1.28
1602,151431984,-0.9556,0.0903,-0.1099,-13.72,-20.00,-1.46
1603,151436984,-0.9575,0.0874,-0.1191,-13.23,-20.30,-1.52
1604,151441984,-0.9585,0.0869,-0.1143,-12.62,-20.55,-1.71
1605,151446984,-0.9575,0.0830,-0.1138,-12.07,-20.85,-1.89
1606,151452381,-0.9575,0.0820,-0.1216,-11.28,-21.22,-1.95
1607,151456985,-0.9570,0.0835,-0.1211,-10.73,-21.46,-2.07
1608,151461984,-0.9497,0.0854,-0.1128,-10.12,-21.77,-2.13
1609,151466984,-0.9487,0.0874,-0.1147,-9.57,-21.89,-2.32
1610,151471984,-0.9570,0.0811,-0.1182,-8.84,-22.01,-2.32
1611,151476984,-0.9697,0.0762,-0.1128,-8.05,-22.32,-2.32
1612,151481984,-0.9741,0.0776,-0.1162,-7.56,-22.44,-2.44
1613,151486984,-0.9766,0.0762,-0.1191,-6.83,-22.56,-2.38
1614,151491983,-0.9678,0.0815,-0.1177,-6.22,-22.62,-2.44
1615,151496982,-0.9604,0.0864,-0.1206,-5.30,-22.74,-2.50
1616,151501982,-0.9653,0.0820,-0.1289,-4.33,-22.93,-2.50
1617,151506982,-0.9629,0.0806,-0.1216,-3.41,-23.11,-2.56
1618,151511982,-0.9629,0.0815,-0.1216,-2.44,-23.41,-2.68
1619,151517117,-0.9629,0.0879,-0.1235,-1.46,-23.41,-2.62
1620,151521984,-0.9575,0.0923,-0.1284,-0.49,-23.48,-2.62
1621,151526984,-0.9536,0.0967,-0.1216,0.61,-23.54,-2.74
1622,151531983,-0.9463,0.1016,-0.1167,1.77,-23.54,-2.80
1623,151536984,-0.9463,0.0986,-0.1211,2.99,-23.66,-2.87
1624,151541984,-0.9546,0.0918,-0.1309,4.02,-23.78,-3.05
1625,151546984,-0.9624,0.0879,-0.1250,4.94,-23.72,-2.93
1626,151551984,-0.9692,0.0845,-0.1245,5.91,-23.60,-2.93
1627,151556984,-0.9546,0.0859,-0.1172,6.71,-23.66,-2.87
1628,151561984,-0.9580,0.0879,-0.1318,7.44,-23.72,-2.87
1629,151566984,-0.9653,0.0796,-0.1309,8.05,-23.72,-2.74
1630,151572426,-0.9712,0.0811,-0.1367,8.60,-23.72,-2.56
1631,151576984,-0.9727,0.0747,-0.1333,8.90,-23.72,-2.38
1632,151581984,-0.9668,0.0742,-0.1265,9.21,-23.60,-2.20
1633,151586984,-0.9634,0.0801,-0.1338,9.45,-23.72,-2.07
1634,151591984,-0.9590,0.0845,-0.1279,9.45,-23.60,-1.95
1635,151596984,-0.9575,0.0874,-0.1245,9.94,-23.48,-1.83
1636,151601984,-0.9492,0.0947,-0.1226,10.12,-23.17,-1.89
1637,151606984,-0.9487,0.0952,-0.1304,10.61,-23.29,-1.77
1638,151611984,-0.9541,0.0923,-0.1357,10.85,-23.23,-1.65
1639,151616984,-0.9512,0.0898,-0.1289,11.34,-23.17,-1.52
1640,151621984,-0.9565,0.0889,-0.1323,11.95,-23.17,-1.46
1641,151626983,-0.9565,0.0908,-0.1367,12.26,-23.05,-1.34
1642,151631986,-0.9463,0.0923,-0.1323,12.80,-23.23,-1.28
1643,151636984,-0.9268,0.0981,-0.1377,13.48,-23.05,-1.16
1644,151641984,-0.9224,0.0981,-0.1436,14.15,-23.05,-1.10
1645,151646984,-0.9429,0.0933,-0.1470,14.88,-23.11,-1.04
1646,151651984,-0.9575,0.0923,-0.1431,15.24,-23.41,-0.98
1647,151656984,-0.9565,0.0864,-0.1396,15.61,-23.48,-0.91
1648,151661984,-0.9502,0.0854,-0.1484,15.85,-23.48,-0.73
1649,151666984,-0.9512,0.0864,-0.1494,16.04,-23.54,-0.61
1650,151671988,-0.9526,0.0869,-0.1362,15.79,-23.41,-0.43
1651,151676984,-0.9546,0.0972,-0.1309,15.55,-23.29,-0.37
1652,151681984,-0.9487,0.0957,-0.1265,15.24,-22.99,-0.43
1653,151686984,-0.9497,0.0962,-0.1284,14.94,-22.74,-0.43
1654,151691984,-0.9497,0.0977,-0.1211,14.70,-22.50,-0.37
1655,151696984,-0.9556,0.1030,-0.1211,14.39,-22.07,-0.43
1656,151701984,-0.9482,0.0986,-0.1235,13.90,-21.89,-0.49
1657,151706989,-0.9497,0.0933,-0.1191,13.72,-21.40,-0.43
1658,151711984,-0.9355,0.1025,-0.1226,13.23,-21.10,-0.49
1659,151716983,-0.9414,0.0942,-0.1313,12.93,-20.67,-0.55
1660,151721986,-0.9507,0.0889,-0.1318,12.68,-20.30,-0.43
1661,151726984,-0.9531,0.0840,-0.1270,12.20,-20.06,-0.30
1662,151731984,-0.9517,0.0791,-0.1274,11.71,-19.76,-0.18
1663,151736983,-0.9492,0.0825,-0.1304,11.22,-19.27,-0.12
1664,151741984,-0.9478,0.0767,-0.1250,10.67,-18.84,0.12
1665,151746984,-0.9468,0.0776,-0.1191,9.88,-18.66,0.24
1666,151751984,-0.9438,0.0767,-0.1167,9.27,-18.05,0.55
1667,151756984,-0.9429,0.0806,-0.1099,8.66,-17.50,0.55
1668,151761984,-0.9434,0.0801,-0.1133,7.99,-16.89,0.91
1669,151766984,-0.9478,0.0762,-0.1113,7.38,-16.46,1.04
1670,151771984,-0.9458,0.0796,-0.1118,6.89,-15.91,1.16
1671,151776984,-0.9492,0.0854,-0.1084,6.28,-15.24,1.34
1672,151781984,-0.9443,0.0835,-0.1123,5.85,-14.63,1.34
1673,151786984,-0.9458,0.0806,-0.1099,5.37,-13.96,1.46
1674,151791983,-0.9526,0.0757,-0.1069,4.94,-13.41,1.65
1675,151796984,-0.9600,0.0732,-0.1079,4.76,-12.68,1.77
1676,151801983,-0.9604,0.0703,-0.1211,4.70,-12.13,1.83
1677,151806982,-0.9707,0.0728,-0.1182,4.63,-11.59,1.89
1678,151811984,-0.9717,0.0742,-0.1162,4.51,-11.04,2.07
1679,151816983,-0.9722,0.0708,-0.1133,4.57,-10.37,2.26
1680,151822062,-0.9712,0.0718,-0.1196,4.57,-9.88,2.38
1681,151826983,-0.9658,0.0723,-0.1055,4.76,-9.15,2.44
1682,151831984,-0.9619,0.0693,-0.1094,5.06,-8.54,2.62
1683,151836983,-0.9644,0.0679,-0.1196,5.18,-7.80,2.80
1684,151841984,-0.9653,0.0679,-0.1089,5.61,-7.07,2.93
1685,151846984,-0.9536,0.0659,-0.1025,6.04,-6.34,2.99
1686,151851984,-0.9492,0.0728,-0.0981,6.65,-5.61,3.11
1687,151856984,-0.9507,0.0747,-0.0957,7.20,-4.70,3.11
1688,151862430,-0.9419,0.0781,-0.0918,7.99,-3.54,3.11
1689,151866985,-0.9424,0.0830,-0.0894,8.60,-2.80,3.05
1690,151872094,-0.9463,0.0835,-0.0947,9.15,-1.89,3.05
1691,151876982,-0.9497,0.0825,-0.0898,9.82,-1.04,2.99
1692,151881982,-0.9541,0.0825,-0.0947,10.49,-0.12,2.80
1693,151886984,-0.9546,0.0825,-0.0933,11.16,0.67,2.80
1694,151891983,-0.9604,0.0762,-0.0972,11.71,1.65,2.74
1695,151896984,-0.9614,0.0806,-0.0967,12.44,2.44,2.50
1696,151901985,-0.9644,0.0811,-0.0977,12.99,3.11,2.38
1697,151906984,-0.9634,0.0845,-0.1021,13.66,3.90,2.38
1698,151911984,-0.9468,0.0850,-0.1055,14.21,4.51,2.38
1699,151916984,-0.9556,0.0835,-0.0928,15.00,5.24,2.13
1700,151921983,-0.9546,0.0840,-0.1011,15.49,5.85,2.07
1701,151926984,-0.9531,0.0796,-0.0967,16.04,6.46,2.07
1702,151931984,-0.9507,0.0771,-0.1016,16.34,7.07,2.20
1703,151936984,-0.9414,0.0830,-0.0913,16.83,7.74,2.26
1704,151941983,-0.9473,0.0762,-0.0928,17.07,8.29,2.44
1705,151946984,-0.9517,0.0664,-0.1001,17.07,8.84,2.56
1706,151951984,-0.9551,0.0659,-0.1030,17.32,9.27,2.74
1707,151956984,-0.9585,0.0640,-0.1025,17.32,9.88,2.99
1708,151961984,-0.9551,0.0684,-0.1011,17.32,10.37,3.23
1709,151966984,-0.9590,0.0698,-0.1055,17.38,10.85,3.41
1710,151971984,-0.9629,0.0723,-0.1133,17.38,11.28,3.72
1711,151976984,-0.9653,0.0703,-0.1079,17.50,11.71,3.96
1712,151981984,-0.9658,0.0679,-0.1177,17.62,11.83,4.15
1713,151986984,-0.9702,0.0669,-0.1172,17.68,12.20,4.33
1714,151991984,-0.9668,0.0640,-0.1167,17.87,12.38,4.57
1715,151996984,-0.9683,0.0688,-0.1167,18.11,12.56,4.82
1716,152001985,-0.9678,0.0669,-0.1187,18.35,12.56,5.12
1717,152006984,-0.9663,0.0674,-0.1191,18.60,12.87,5.43
1718,152011984,-0.9697,0.0757,-0.1299,19.02,13.11,5.49
1719,152016984,-0.9717,0.0796,-0.1245,19.33,13.11,5.85
1720,152021984,-0.9712,0.0762,-0.1279,19.88,13.29,6.10
1721,152027347,-0.9771,0.0752,-0.1260,20.00,13.54,6.28
1722,152031984,-0.9722,0.0723,-0.1245,20.30,13.48,6.46
1723,152036986,-0.9722,0.0781,-0.1211,20.43,13.72,6.77
1724,152041984,-0.9824,0.0723,-0.1265,20.37,13.96,7.01
1725,152046984,-0.9897,0.0703,-0.1284,20.37,14.09,7.38
1726,152051984,-0.9922,0.0728,-0.1294,20.37,14.21,7.74
1727,152056984,-0.9995,0.0752,-0.1377,20.37,14.33,7.93
1728,152061984,-1.0005,0.0771,-0.1411,20.49,14.27,8.23
1729,152067376,-1.0015,0.0820,-0.1416,20.67,14.51,8.66
1730,152071984,-1.0010,0.0903,-0.1436,20.98,14.39,8.90
1731,152076983,-0.9995,0.0986,-0.1504,21.52,14.45,9.09
1732,152081984,-0.9932,0.1040,-0.1465,21.95,14.51,9.15
1733,152086984,-0.9902,0.1094,-0.1455,22.80,14.51,9.39
1734,152091983,-0.9829,0.1191,-0.1494,23.54,14.51,9.63
1735,152096982,-0.9810,0.1304,-0.1470,24.45,14.57,9.70
1736,152101982,-0.9819,0.1338,-0.1597,25.30,14.63,10.00
1737,152106985,-0.9761,0.1372,-0.1665,26.22,14.51,10.06
1738,152111982,-0.9673,0.1475,-0.1846,26.83,14.33,10.12
1739,152116985,-0.9531,0.1655,-0.1899,27.20,14.21,10.24
1740,152121984,-0.9419,0.1870,-0.1924,27.07,14.21,10.12
1741,152126984,-0.9341,0.1919,-0.2046,26.59,14.39,10.00
1742,152131984,-0.9199,0.2114,-0.1885,25.67,14.82,9.88
1743,152136984,-0.9282,0.2070,-0.2002,24.51,15.12,9.63
1744,152141984,-0.9292,0.2051,-0.2183,22.56,15.61,9.45
1745,152146984,-0.9448,0.2036,-0.2202,20.37,16.28,9.39
1746,152151984,-0.9629,0.1973,-0.2158,17.38,17.26,9.45
1747,152156984,-0.9741,0.1851,-0.2207,13.05,18.29,9.70
1748,152161984,-0.9766,0.1885,-0.2119,9.88,19.33,10.12
1749,152166984,-0.9688,0.1899,-0.2080,5.49,20.67,10.37
1750,152171985,-0.9595,0.1895,-0.2192,1.10,21.89,10.91
1751,152176983,-0.9600,0.1836,-0.2261,-3.41,23.29,11.40
1752,152182452,-0.9556,0.1904,-0.2212,-8.60,25.00,12.07
1753,152186984,-0.9580,0.1982,-0.2344,-11.89,26.10,12.62
1754,152191983,-0.9365,0.2148,-0.2495,-16.46,27.50,13.48
1755,152196986,-0.9297,0.2236,-0.2607,-19.15,28.29,13.90
1756,152201984,-0.9258,0.2310,-0.2578,-22.26,29.27,14.51
1757,152206984,-0.9321,0.2300,-0.2729,-25.06,30.37,15.30
1758,152211984,-0.9302,0.2285,-0.2866,-27.50,31.28,16.22
1759,152216984,-0.9316,0.2222,-0.2930,-29.94,31.95,17.13
1760,152221984,-0.9282,0.2236,-0.3008,-32.20,32.74,18.17
1761,152226984,-0.9272,0.2163,-0.3208,-34.21,33.54,19.27
1762,152231984,-0.9307,0.2036,-0.3311,-36.34,34.09,20.49
1763,152236984,-0.9336,0.2046,-0.3232,-38.35,34.94,21.83
1764,152241984,-0.9355,0.1997,-0.3350,-39.94,35.85,23.17
1765,152247483,-0.9375,0.1973,-0.3320,-41.71,36.89,24.94
1766,152251984,-0.9443,0.1934,-0.3398,-42.68,37.32,25.98
1767,152256984,-0.9429,0.1899,-0.3364,-43.48,38.41,27.44
1768,152261985,-0.9463,0.1890,-0.3477,-43.90,39.27,28.84
1769,152266984,-0.9482,0.1958,-0.3452,-43.90,40.30,30.12
1770,152271984,-0.9551,0.1807,-0.3457,-43.66,41.71,31.52
1771,152276984,-0.9624,0.1821,-0.3271,-42.62,43.54,33.05
1772,152281984,-0.9653,0.1865,-0.3350,-41.65,44.76,33.96
1773,152286984,-0.9673,0.1895,-0.3486,-39.70,46.46,35.18
1774,152291984,-0.9692,0.1831,-0.3442,-37.38,47.99,36.40
1775,152296984,-0.9678,0.1812,-0.3491,-34.57,49.70,37.44
1776,152301984,-0.9619,0.1768,-0.3374,-31.28,51.46,38.54
1777,152306984,-0.9609,0.1899,-0.3403,-27.62,53.41,39.57
1778,152311984,-0.9590,0.1855,-0.3501,-23.35,55.43,40.43
1779,152316984,-0.9639,0.1816,-0.3447,-18.66,57.26,41.34
1780,152321984,-0.9653,0.1631,-0.3472,-13.78,59.02,42.20
1781,152327280,-0.9604,0.1650,-0.3560,-7.62,61.46,43.35
1782,152331984,-0.9492,0.1738,-0.3550,-3.11,62.80,43.90
1783,152336984,-0.9487,0.1714,-0.3540,2.56,64.76,44.57
1784,152341984,-0.9502,0.1680,-0.3477,8.54,66.71,45.12
1785,152346984,-0.9512,0.1655,-0.3545,14.57,68.90,45.73
1786,152351984,-0.9507,0.1479,-0.3491,20.67,71.04,46.22
1787,152356984,-0.9434,0.1543,-0.3472,26.77,73.17,46.77
1788,152361984,-0.9438,0.1567,-0.3516,32.93,75.43,47.13
1789,152366984,-0.9468,0.1504,-0.3516,39.33,77.80,47.38
1790,152371984,-0.9443,0.1553,-0.3481,45.73,80.24,47.50
1791,152376984,-0.9487,0.1514,-0.3525,51.89,82.44,47.50
1792,152381984,-0.9473,0.1450,-0.3677,59.45,86.10,47.38
1793,152386984,-0.9468,0.1470,-0.3618,64.33,86.22,47.26
1794,152391984,-0.9434,0.1401,-0.3682,70.18,88.17,47.07
1795,152396984,-0.9355,0.1401,-0.3643,76.04,90.24,46.71
1796,152401982,-0.9272,0.1396,-0.3853,81.65,92.01,46.22
1797,152406982,-0.9229,0.1318,-0.3848,86.77,93.96,45.67
1798,152411983,-0.9180,0.1255,-0.3906,91.71,95.73,45.00
1799,152416985,-0.9194,0.1235,-0.3960,96.22,97.20,44.21
1800,152421984,-0.9126,0.1147,-0.3916,100.37,98.72,43.29
1801,152426986,-0.9077,0.1045,-0.3940,104.45,100.24,42.32
1802,152431984,-0.8931,0.0962,-0.3975,108.78,101.83,41.22
1803,152436983,-0.8853,0.0903,-0.3955,111.46,102.80,40.24
1804,152441984,-0.8774,0.0806,-0.4087,115.30,104.51,38.96
1805,152446984,-0.8735,0.0786,-0.4067,117.62,105.30,37.99
1806,152451984,-0.8643,0.0776,-0.4087,121.22,106.65,36.28
1807,152456984,-0.8613,0.0830,-0.4111,123.96,107.56,34.57
1808,152462460,-0.8643,0.0854,-0.4199,126.40,108.48,32.99
1809,152466984,-0.8594,0.0864,-0.4263,129.33,109.09,31.40
1810,152471984,-0.8564,0.0903,-0.4316,129.94,109.82,28.84
1811,152476984,-0.8516,0.0918,-0.4380,132.26,110.30,26.65
1812,152481984,-0.8550,0.0972,-0.4492,133.72,110.49,24.39
1813,152486984,-0.8584,0.1011,-0.4546,135.06,110.61,21.95
1814,152491984,-0.8569,0.0918,-0.4590,135.55,110.67,19.63
1815,152496984,-0.8540,0.0742,-0.4668,135.43,110.73,17.32
1816,152501984,-0.8462,0.0674,-0.4692,134.76,110.24,15.06
1817,152506984,-0.8428,0.0532,-0.4795,133.78,109.82,12.93
1818,152511984,-0.8325,0.0376,-0.4697,131.46,109.21,10.85
1819,152516984,-0.8237,0.0264,-0.4712,129.15,108.78,8.78
1820,152521984,-0.8242,0.0146,-0.4834,128.11,107.93,6.89
1821,152526984,-0.8213,0.0015,-0.4902,124.45,107.07,5.12
1822,152532408,-0.8149,-0.0112,-0.4897,120.79,106.04,3.41
1823,152537468,-0.8062,-0.0244,-0.4927,117.20,105.18,1.71
1824,152541984,-0.7949,-0.0469,-0.4971,113.35,103.96,0.24
1825,152546984,-0.7871,-0.0610,-0.4956,109.39,102.99,-1.22
1826,152551984,-0.7900,-0.0601,-0.5010,105.49,101.77,-2.56
1827,152556984,-0.7871,-0.0654,-0.5093,101.77,100.55,-4.02
1828,152561984,-0.7769,-0.0752,-0.5107,97.99,99.33,-5.24
1829,152566984,-0.7759,-0.0869,-0.5186,94.39,97.93,-6.65
1830,152571984,-0.7734,-0.0903,-0.5342,90.98,96.46,-7.80
1831,152576984,-0.7700,-0.0996,-0.5400,87.56,94.70,-9.09
1832,152581984,-0.7612,-0.0879,-0.5352,84.57,93.41,-10.49
1833,152586984,-0.7544,-0.0801,-0.5322,81.89,91.95,-11.89
1834,152591984,-0.7441,-0.0693,-0.5361,79.39,90.55,-13.48
1835,152597416,-0.7373,-0.0688,-0.5332,76.95,89.39,-15.12
1836,152601984,-0.7378,-0.0693,-0.5308,75.12,88.48,-16.89
1837,152606984,-0.7349,-0.0635,-0.5464,73.41,85.79,-18.66
1838,152611984,-0.7295,-0.0591,-0.5488,72.01,85.30,-20.49
1839,152616985,-0.7236,-0.0557,-0.5479,70.79,85.30,-22.26
1840,152621984,-0.7197,-0.0635,-0.5522,69.82,85.12,-23.96
1841,152626986,-0.7178,-0.0723,-0.5562,69.02,83.11,-25.61
1842,152631984,-0.7104,-0.0732,-0.5630,68.23,81.59,-27.26
1843,152636984,-0.7041,-0.0820,-0.5605,67.44,80.18,-28.90
1844,152641985,-0.6968,-0.0859,-0.5630,66.52,78.84,-30.43
1845,152646984,-0.6836,-0.0957,-0.5669,65.67,77.44,-31.59
1846,152651984,-0.6646,-0.0991,-0.5732,64.70,76.10,-32.93
1847,152656984,-0.6548,-0.1055,-0.5664,63.78,74.70,-34.09
1848,152661984,-0.6450,-0.1157,-0.5693,62.62,73.29,-35.00
1849,152666984,-0.6372,-0.1216,-0.5742,61.34,71.83,-35.91
1850,152672472,-0.6255,-0.1274,-0.5713,60.06,70.43,-36.71
1851,152676985,-0.6206,-0.1299,-0.5674,58.78,69.02,-37.44
1852,152681984,-0.6147,-0.1353,-0.5688,57.20,67.56,-38.05
1853,152686984,-0.6094,-0.1445,-0.5723,55.79,66.28,-38.66
1854,152691983,-0.6099,-0.1582,-0.5767,54.33,64.94,-39.09
1855,152696982,-0.6113,-0.1665,-0.5908,52.93,63.60,-39.51
1856,152701982,-0.6187,-0.1763,-0.5977,51.59,62.13,-39.76
1857,152706984,-0.6240,-0.1904,-0.6030,50.37,60.79,-39.94
1858,152711984,-0.6191,-0.1997,-0.6143,49.15,59.45,-39.88
1859,152716984,-0.6118,-0.2051,-0.6177,48.35,57.99,-39.94
1860,152721983,-0.6040,-0.2075,-0.6094,47.50,56.52,-39.88
1861,152726984,-0.5898,-0.2144,-0.6128,47.01,55.24,-39.76
1862,152731984,-0.5869,-0.2197,-0.6167,46.59,53.90,-39.82
1863,152736984,-0.5791,-0.2231,-0.6221,46.59,52.44,-39.63
1864,152741984,-0.5747,-0.2300,-0.6255,46.77,51.22,-39.33
1865,152746984,-0.5605,-0.2295,-0.6279,47.38,49.76,-39.15
1866,152751984,-0.5513,-0.2368,-0.6235,48.23,48.48,-38.90
1867,152756984,-0.5430,-0.2378,-0.6250,49.21,47.07,-38.66
1868,152761984,-0.5332,-0.2378,-0.6279,50.61,45.67,-38.48
1869,152766984,-0.5225,-0.2393,-0.6323,52.13,44.27,-38.29
1870,152771984,-0.5132,-0.2383,-0.6265,53.90,43.05,-38.05
1871,152776984,-0.5073,-0.2339,-0.6333,55.55,41.59,-37.99
1872,152781984,-0.5029,-0.2339,-0.6304,57.50,40.30,-37.99
1873,152787413,-0.5015,-0.2324,-0.6328,59.51,39.02,-37.99
1874,152791984,-0.4985,-0.2354,-0.6382,61.65,37.80,-38.23
1875,152796984,-0.4976,-0.2344,-0.6362,63.78,36.59,-38.29
1876,152801984,-0.4907,-0.2344,-0.6396,65.98,35.49,-38.48
1877,152806984,-0.4868,-0.2349,-0.6362,68.05,34.27,-38.72
1878,152811984,-0.4785,-0.2349,-0.6338,70.00,32.93,-38.96
1879,152817300,-0.4756,-0.2349,-0.6357,71.89,31.83,-39.15
1880,152821984,-0.4746,-0.2402,-0.6479,73.78,30.67,-39.33
1881,152826984,-0.4673,-0.2397,-0.6528,75.18,29.39,-39.51
1882,152831984,-0.4717,-0.2393,-0.6548,76.77,28.23,-39.76
1883,152836984,-0.4658,-0.2402,-0.6650,77.99,26.89,-40.00
1884,152841984,-0.4614,-0.2417,-0.6660,78.78,25.61,-40.12
1885,152846984,-0.4600,-0.2412,-0.6758,79.33,24.45,-40.61
1886,152851984,-0.4536,-0.2417,-0.6704,79.45,23.05,-40.85
1887,152856984,-0.4502,-0.2427,-0.6812,79.02,22.13,-40.98
1888,152861984,-0.4429,-0.2476,-0.6826,78.11,20.79,-41.16
1889,152866984,-0.4370,-0.2534,-0.6836,76.95,19.51,-41.34
1890,152871984,-0.4302,-0.2598,-0.6841,75.37,18.29,-41.40
1891,152876984,-0.4253,-0.2622,-0.6831,73.17,17.32,-41.46
1892,152881984,-0.4229,-0.2612,-0.6934,70.73,16.22,-41.34
1893,152886984,-0.4106,-0.2656,-0.6895,68.17,15.24,-41.22
1894,152891984,-0.4077,-0.2661,-0.6865,65.24,14.02,-41.22
1895,152896984,-0.3960,-0.2617,-0.6909,62.50,13.11,-41.04
1896,152901984,-0.3906,-0.2598,-0.7017,59.27,12.01,-40.79
1897,152906984,-0.3818,-0.2690,-0.6958,56.10,11.10,-40.37
1898,152911984,-0.3750,-0.2729,-0.6948,52.80,10.12,-40.18
1899,152916984,-0.3716,-0.2690,-0.6963,49.51,8.96,-39.88
1900,152921984,-0.3672,-0.2690,-0.7017,46.16,7.99,-39.45
1901,152926984,-0.3604,-0.2666,-0.6997,42.80,7.26,-39.02
1902,152931984,-0.3535,-0.2749,-0.6948,39.45,6.34,-38.66
1903,152936984,-0.3511,-0.2720,-0.6997,36.10,5.61,-38.11
1904,152941984,-0.3433,-0.2710,-0.7026,32.74,4.82,-37.74
1905,152946984,-0.3452,-0.2715,-0.6978,29.39,4.09,-37.13
1906,152951984,-0.3384,-0.2754,-0.6982,26.22,3.48,-36.71
1907,152956984,-0.3286,-0.2695,-0.7012,23.11,3.11,-36.16
1908,152961985,-0.3330,-0.2764,-0.7041,20.30,2.38,-35.67
1909,152966984,-0.3271,-0.2749,-0.7012,17.50,1.95,-35.12
1910,152971984,-0.3281,-0.2812,-0.7041,14.94,1.46,-34.57
1911,152976984,-0.3257,-0.2861,-0.7104,12.56,1.04,-34.02
1912,152981987,-0.3271,-0.2808,-0.7148,10.49,0.79,-33.35
1913,152986984,-0.3213,-0.2822,-0.7061,8.54,0.43,-32.68
1914,152991984,-0.3115,-0.2891,-0.7065,6.89,0.00,-32.01
1915,152996984,-0.3076,-0.2871,-0.7144,5.43,-0.30,-31.28
1916,153001982,-0.3057,-0.2871,-0.7183,4.21,-0.61,-30.67
1917,153006982,-0.2998,-0.2896,-0.7212,3.35,-1.16,-29.94
1918,153011984,-0.3066,-0.2905,-0.7134,2.44,-1.46,-29.09
1919,153016984,-0.3013,-0.2925,-0.7217,1.95,-1.59,-28.23
1920,153021984,-0.2983,-0.2930,-0.7100,1.65,-1.83,-27.56
1921,153026984,-0.2964,-0.2881,-0.7119,1.65,-2.20,-26.83
1922,153031984,-0.2871,-0.2866,-0.7100,1.46,-2.44,-26.16
1923,153036984,-0.2832,-0.2891,-0.7056,1.71,-2.74,-25.30
1924,153041984,-0.2837,-0.2915,-0.7114,1.95,-2.87,-24.63
1925,153046984,-0.2886,-0.2939,-0.7090,2.32,-3.05,-23.96
1926,153051984,-0.2905,-0.2964,-0.7134,2.68,-3.29,-23.11
1927,153056984,-0.2896,-0.2939,-0.7158,2.93,-3.05,-22.26
1928,153061984,-0.2910,-0.3003,-0.7153,3.29,-3.41,-21.46
1929,153066984,-0.2915,-0.3027,-0.7207,3.72,-3.41,-20.55
1930,153071984,-0.2939,-0.3062,-0.7231,4.15,-3.35,-19.57
1931,153076984,-0.2944,-0.3071,-0.7251,4.33,-3.29,-18.66
1932,153081984,-0.2915,-0.3091,-0.7319,4.57,-3.35,-17.50
1933,153087024,-0.2944,-0.3174,-0.7246,4.76,-3.54,-16.40
1934,153091983,-0.2876,-0.3193,-0.7261,4.70,-3.35,-15.18
1935,153096984,-0.2773,-0.3208,-0.7305,4.82,-3.35,-14.02
1936,153101984,-0.2739,-0.3232,-0.7271,4.57,-3.29,-12.74
1937,153106984,-0.2705,-0.3296,-0.7339,4.39,-3.17,-11.40
1938,153111984,-0.2646,-0.3271,-0.7295,4.45,-3.05,-9.94
1939,153116985,-0.2627,-0.3247,-0.7261,4.27,-3.05,-8.60
1940,153121984,-0.2593,-0.3252,-0.7256,4.39,-2.93,-7.20
1941,153127166,-0.2563,-0.3296,-0.7329,4.39,-2.87,-5.73
1942,153131984,-0.2515,-0.3286,-0.7314,4.39,-2.87,-4.33
1943,153136984,-0.2456,-0.3228,-0.7290,4.63,-2.68,-2.87
1944,153141984,-0.2437,-0.3257,-0.7290,5.18,-2.74,-1.28
1945,153146983,-0.2490,-0.3257,-0.7393,5.55,-2.80,0.12
1946,153151982,-0.2544,-0.3306,-0.7344,6.04,-2.62,1.59
1947,153156986,-0.2612,-0.3320,-0.7412,6.59,-2.80,3.11
1948,153161982,-0.2622,-0.3447,-0.7349,7.13,-2.80,4.70
1949,153166984,-0.2656,-0.3369,-0.7446,7.74,-2.87,6.28
1950,153171984,-0.2612,-0.3384,-0.7417,8.54,-2.87,7.99
1951,153177402,-0.2534,-0.3408,-0.7378,9.45,-3.05,9.51
1952,153181984,-0.2539,-0.3447,-0.7432,10.12,-3.35,11.10
1953,153186984,-0.2534,-0.3540,-0.7485,11.04,-3.54,12.74
1954,153191983,-0.2520,-0.3594,-0.7529,11.77,-3.41,14.51
1955,153196986,-0.2461,-0.3594,-0.7524,12.62,-3.66,16.22
1956,153201984,-0.2471,-0.3682,-0.7510,13.35,-3.84,18.05
1957,153206984,-0.2441,-0.3691,-0.7627,14.39,-4.02,19.63
1958,153211984,-0.2383,-0.3711,-0.7642,15.24,-4.39,21.22
1959,153216984,-0.2349,-0.3662,-0.7642,16.52,-4.63,22.74
1960,153222443,-0.2334,-0.3628,-0.7710,17.74,-4.88,24.27
1961,153226984,-0.2295,-0.3633,-0.7808,19.15,-5.37,25.79
1962,153231985,-0.2251,-0.3618,-0.7715,20.49,-5.79,27.13
1963,153236984,-0.2236,-0.3618,-0.7744,21.77,-6.04,28.66
1964,153241984,-0.2192,-0.3657,-0.7700,23.23,-6.40,29.70
1965,153246983,-0.2168,-0.3623,-0.7681,24.39,-6.46,30.85
1966,153251984,-0.2188,-0.3682,-0.7622,25.37,-6.71,31.89
1967,153256985,-0.2188,-0.3682,-0.7627,26.34,-6.65,32.87
1968,153261984,-0.2178,-0.3677,-0.7627,27.32,-6.71,33.78
1969,153266984,-0.2197,-0.3696,-0.7612,28.23,-6.71,34.63
1970,153272101,-0.2261,-0.3740,-0.7510,28.90,-6.52,35.49
1971,153276983,-0.2310,-0.3721,-0.7622,29.39,-6.52,36.22
1972,153281984,-0.2314,-0.3755,-0.7549,29.82,-6.34,37.01
1973,153286984,-0.2300,-0.3794,-0.7578,30.00,-6.28,37.74
1974,153291983,-0.2314,-0.3828,-0.7554,30.18,-6.22,38.41
1975,153296982,-0.2280,-0.3887,-0.7563,30.12,-6.10,39.21
1976,153301982,-0.2295,-0.4023,-0.7539,29.76,-5.91,39.88
1977,153306984,-0.2349,-0.4072,-0.7529,29.57,-5.85,40.49
1978,153312301,-0.2334,-0.4126,-0.7598,29.21,-5.73,41.22
1979,153316984,-0.2368,-0.4155,-0.7559,28.60,-5.43,41.83
1980,153321984,-0.2354,-0.4111,-0.7637,27.99,-5.61,42.62
1981,153326984,-0.2427,-0.4160,-0.7598,27.44,-5.61,43.17
1982,153331984,-0.2378,-0.4199,-0.7583,26.71,-5.49,43.72
1983,153336985,-0.2412,-0.4209,-0.7568,26.04,-5.61,44.39
1984,153341984,-0.2461,-0.4282,-0.7588,25.30,-5.67,44.70
1985,153346984,-0.2495,-0.4263,-0.7578,24.51,-5.79,45.24
1986,153351984,-0.2549,-0.4277,-0.7549,23.66,-5.98,45.61
1987,153356984,-0.2646,-0.4307,-0.7598,22.74,-5.98,46.04
1988,153361984,-0.2700,-0.4331,-0.7520,21.59,-5.98,46.40
1989,153366984,-0.2769,-0.4395,-0.7495,20.30,-5.85,46.77
1990,153371984,-0.2866,-0.4443,-0.7505,18.96,-5.79,46.89
1991,153376985,-0.2905,-0.4507,-0.7490,17.44,-5.85,47.07
1992,153381984,-0.3018,-0.4614,-0.7471,15.67,-5.73,47.32
1993,153387470,-0.3115,-0.4692,-0.7422,13.60,-5.61,47.68
1994,153391984,-0.3154,-0.4722,-0.7412,12.13,-5.43,47.93
1995,153396984,-0.3213,-0.4746,-0.7427,10.30,-5.37,48.17
1996,153401984,-0.3193,-0.4790,-0.7358,8.60,-5.24,48.48
1997,153406984,-0.3242,-0.4883,-0.7358,6.95,-5.49,48.78
1998,153411983,-0.3232,-0.4932,-0.7388,5.43,-5.30,48.96
1999,153416985,-0.3223,-0.4888,-0.7393,4.02,-5.49,49.33
2000,153421984,-0.3306,-0.4946,-0.7490,2.87,-5.55,49.63
2001,153426984,-0.3379,-0.4932,-0.7407,1.71,-5.49,49.88
2002,153431984,-0.3384,-0.4937,-0.7417,0.85,-5.91,50.00
2003,153436985,-0.3384,-0.4917,-0.7407,0.18,-6.04,50.12
2004,153441984,-0.3438,-0.4902,-0.7358,-0.30,-6.22,50.18
2005,153446984,-0.3423,-0.4883,-0.7349,-0.91,-6.10,50.12
2006,153451987,-0.3457,-0.4863,-0.7305,-1.34,-6.10,49.94
2007,153456984,-0.3477,-0.4834,-0.7266,-1.59,-6.04,49.82
2008,153461984,-0.3525,-0.4790,-0.7192,-1.89,-5.98,49.51
2009,153466984,-0.3574,-0.4805,-0.7114,-2.07,-5.55,48.96
2010,153471984,-0.3467,-0.4741,-0.6846,-2.32,-5.24,48.72
2011,153476984,-0.3286,-0.4766,-0.7021,-3.05,-4.88,48.35
2012,153481984,-0.3721,-0.4868,-0.7275,-3.60,-4.57,47.99
2013,153486984,-0.4033,-0.4780,-0.7031,-4.15,-4.21,47.56
2014,153491984,-0.4087,-0.4746,-0.6797,-4.27,-3.54,46.89
2015,153496984,-0.3936,-0.4634,-0.7017,-4.21,-3.05,46.28
2016,153501984,-0.3872,-0.4551,-0.7192,-4.02,-2.50,45.67
2017,153506984,-0.3799,-0.4561,-0.6895,-3.96,-1.95,44.94
2018,153511984,-0.3921,-0.4551,-0.6792,-3.78,-1.46,44.15
2019,153516984,-0.3979,-0.4590,-0.7075,-3.60,-0.91,43.54
2020,153521984,-0.4121,-0.4565,-0.7124,-3.35,-0.61,42.80
2021,153526983,-0.4243,-0.4551,-0.7017,-3.05,-0.06,42.13
2022,153531984,-0.4282,-0.4580,-0.6958,-2.68,0.24,41.52
2023,153536984,-0.4326,-0.4546,-0.7183,-2.44,0.67,40.85
2024,153541984,-0.4341,-0.4473,-0.7109,-2.26,0.67,40.18
2025,153546984,-0.4395,-0.4507,-0.6997,-1.95,1.10,39.57
2026,153551984,-0.4453,-0.4521,-0.7007,-1.71,1.22,39.02
2027,153556984,-0.4512,-0.4526,-0.7002,-1.52,1.52,38.48
2028,153561984,-0.4561,-0.4497,-0.7026,-1.28,1.65,38.17
2029,153566984,-0.4600,-0.4497,-0.6929,-0.98,1.83,37.93
2030,153571984,-0.4600,-0.4478,-0.6914,-0.85,1.95,37.62
2031,153576984,-0.4590,-0.4438,-0.6968,-0.61,2.20,37.50
2032,153581984,-0.4634,-0.4458,-0.6929,-0.37,2.56,37.38
2033,153586982,-0.4673,-0.4443,-0.6812,-0.18,2.56,37.13
2034,153591982,-0.4692,-0.4395,-0.6812,-0.18,2.93,37.07
2035,153596982,-0.4678,-0.4424,-0.6851,0.18,3.17,36.95
2036,153601982,-0.4707,-0.4385,-0.6821,0.12,3.35,37.07
2037,153606982,-0.4702,-0.4331,-0.6670,0.30,3.54,37.07
2038,153611984,-0.4692,-0.4287,-0.6675,0.24,4.02,36.95
2039,153616984,-0.4639,-0.4243,-0.6675,0.43,4.09,37.13
2040,153621984,-0.4580,-0.4194,-0.6631,0.55,4.45,37.26
2041,153626984,-0.4595,-0.4189,-0.6533,0.67,4.70,37.07
2042,153631983,-0.4531,-0.4146,-0.6509,0.91,4.82,37.26
2043,153636984,-0.4561,-0.4106,-0.6440,1.04,5.18,37.13
2044,153641984,-0.4556,-0.4087,-0.6484,1.22,5.55,37.26
2045,153646984,-0.4585,-0.4058,-0.6455,1.65,5.61,37.20
2046,153651984,-0.4565,-0.3999,-0.6440,2.13,5.85,37.20
2047,153656984,-0.4595,-0.3965,-0.6387,2.68,5.91,37.26
2048,153661984,-0.4546,-0.3931,-0.6323,3.17,6.34,37.20
2049,153666984,-0.4575,-0.3921,-0.6333,3.72,6.52,37.26
2050,153671984,-0.4585,-0.3853,-0.6313,4.33,6.77,37.13
2051,153676984,-0.4595,-0.3872,-0.6338,4.88,6.89,37.13
2052,153681984,-0.4653,-0.3843,-0.6284,5.43,7.07,37.13
2053,153687297,-0.4697,-0.3813,-0.6279,6.22,7.20,37.20
2054,153691984,-0.4697,-0.3794,-0.6333,6.77,7.20,37.01
2055,153696984,-0.4653,-0.3789,-0.6284,7.38,7.38,37.26
2056,153702058,-0.4648,-0.3833,-0.6284,8.17,7.44,37.32
2057,153706983,-0.4663,-0.3828,-0.6201,8.78,7.38,37.38
2058,153711987,-0.4702,-0.3818,-0.6270,9.51,7.26,37.68
2059,153717450,-0.4727,-0.3857,-0.6309,9.94,7.20,37.80
2060,153721984,-0.4780,-0.3838,-0.6260,10.37,7.07,37.87
2061,153726984,-0.4814,-0.3818,-0.6289,11.16,7.01,38.29
2062,153731984,-0.4819,-0.3877,-0.6387,11.65,7.01,38.48
2063,153736984,-0.4839,-0.3843,-0.6304,12.26,6.77,38.72
2064,153741985,-0.4868,-0.3872,-0.6328,12.80,6.59,38.96
2065,153746985,-0.4927,-0.3862,-0.6372,13.23,6.46,39.21
2066,153751984,-0.4912,-0.3882,-0.6328,13.60,6.10,39.45
2067,153756984,-0.4927,-0.3906,-0.6304,14.15,6.10,39.82
2068,153761984,-0.4917,-0.3906,-0.6333,14.45,6.04,40.00
2069,153766984,-0.4995,-0.3887,-0.6357,14.63,5.91,40.24
2070,153771984,-0.4937,-0.3872,-0.6240,14.94,5.61,40.55
2071,153776984,-0.4971,-0.3877,-0.6382,15.37,5.67,40.73
2072,153781984,-0.4990,-0.3867,-0.6348,15.49,5.43,40.79
2073,153786984,-0.5015,-0.3872,-0.6392,15.73,5.43,40.98
2074,153791984,-0.5093,-0.3833,-0.6362,16.16,5.24,41.22
2075,153796985,-0.5112,-0.3877,-0.6396,16.34,5.18,41.22
2076,153801984,-0.5142,-0.3862,-0.6445,16.65,5.24,41.16
2077,153806985,-0.5166,-0.3848,-0.6377,17.07,5.12,41.10
2078,153811984,-0.5151,-0.3818,-0.6411,17.50,4.94,41.22
2079,153816987,-0.5181,-0.3833,-0.6450,17.87,4.70,41.04
2080,153821984,-0.5215,-0.3823,-0.6436,18.11,4.57,40.98
2081,153826984,-0.5171,-0.3828,-0.6509,18.41,4.45,40.91
2082,153832478,-0.5186,-0.3853,-0.6509,18.60,4.27,40.85
2083,153836984,-0.5215,-0.3813,-0.6416,18.84,4.09,40.61
2084,153841984,-0.5225,-0.3848,-0.6455,18.84,3.96,40.49
2085,153846984,-0.5215,-0.3813,-0.6431,18.84,3.90,40.30
2086,153851984,-0.5225,-0.3828,-0.6382,18.72,3.66,40.06
2087,153856984,-0.5234,-0.3823,-0.6543,18.84,3.35,39.82
2088,153861984,-0.5293,-0.3813,-0.6509,18.84,3.17,39.51
2089,153866984,-0.5283,-0.3818,-0.6528,18.66,2.93,39.09
2090,153871984,-0.5273,-0.3838,-0.6499,18.60,2.74,38.72
2091,153876984,-0.5332,-0.3862,-0.6489,18.54,2.44,38.41
2092,153881984,-0.5371,-0.3901,-0.6436,18.54,2.32,37.99
2093,153886984,-0.5342,-0.3887,-0.6494,18.48,1.95,37.62
2094,153891982,-0.5352,-0.3862,-0.6509,18.54,1.77,37.20
2095,153896983,-0.5366,-0.3877,-0.6504,18.72,1.65,36.77
2096,153901984,-0.5356,-0.3848,-0.6538,18.78,1.52,36.22
2097,153906982,-0.5356,-0.3843,-0.6553,18.96,1.16,35.55
2098,153911984,-0.5337,-0.3813,-0.6553,19.09,1.04,35.00
2099,153916986,-0.5332,-0.3804,-0.6587,19.27,1.04,34.33
2100,153921982,-0.5332,-0.3789,-0.6577,19.45,0.98,33.60
2101,153926984,-0.5337,-0.3735,-0.6519,19.63,0.67,32.87
2102,153931983,-0.5312,-0.3755,-0.6514,19.57,0.61,32.13
2103,153936984,-0.5303,-0.3760,-0.6553,19.45,0.43,31.34
2104,153941983,-0.5298,-0.3784,-0.6504,19.45,0.24,30.55
2105,153946984,-0.5293,-0.3760,-0.6597,19.15,0.24,29.63
2106,153951984,-0.5303,-0.3770,-0.6602,19.09,0.24,28.90
2107,153956984,-0.5303,-0.3760,-0.6528,18.78,0.06,28.17
2108,153961984,-0.5322,-0.3706,-0.6572,18.41,-0.18,27.26
2109,153966984,-0.5283,-0.3716,-0.6543,18.29,-0.37,26.34
