# skilleye imu stream v1
# device=xiao_esp32c6 imu=mpu6050 addr=0x68
# rate_hz=200 accel_range_g=16 gyro_range_dps=2000 dlpf_hz=94
# units: accel in g, gyro in deg/s, t_us in microseconds since boot (monotonic)
# no shared clock with the camera -- tap the racket once before each take
# so both recordings share a spike to align on
seq,t_us,ax,ay,az,gx,gy,gz
0,143515196,0.6729,-0.7129,0.3032,6.89,-1.65,2.56
1,143519792,0.6763,-0.7134,0.2979,7.07,-1.77,2.74
2,143524786,0.6738,-0.7134,0.3047,7.26,-1.95,2.74
3,143529787,0.6777,-0.7129,0.3037,7.32,-1.95,2.80
4,143534785,0.6787,-0.7090,0.3042,7.44,-2.13,2.99
5,143539787,0.6753,-0.7100,0.3042,7.44,-2.13,3.11
6,143544786,0.6733,-0.7065,0.2998,7.20,-2.13,3.17
7,143549785,0.6733,-0.7031,0.3042,7.07,-2.44,3.23
8,143554785,0.6743,-0.7090,0.3076,6.95,-2.38,3.29
9,143559787,0.6768,-0.7046,0.3037,6.65,-2.44,3.35
10,143564786,0.6768,-0.7065,0.3066,6.52,-2.32,3.35
11,143569785,0.6738,-0.7065,0.3101,6.28,-2.44,3.54
12,143574789,0.6694,-0.7041,0.3052,6.22,-2.44,3.54
13,143579787,0.6753,-0.7051,0.3066,5.91,-2.62,3.48
14,143584786,0.6704,-0.7056,0.3066,5.85,-2.56,3.41
15,143589787,0.6675,-0.7046,0.3086,5.85,-2.56,3.60
16,143594785,0.6704,-0.7090,0.3086,6.04,-2.62,3.54
17,143599785,0.6689,-0.7085,0.3032,6.16,-2.68,3.41
18,143604787,0.6719,-0.7090,0.3091,6.22,-2.56,3.48
19,143609823,0.6680,-0.7075,0.3101,6.46,-2.62,3.41
20,143614785,0.6660,-0.7090,0.3193,6.59,-2.62,3.35
21,143619788,0.6685,-0.7129,0.3164,6.83,-2.56,3.23
22,143624787,0.6704,-0.7080,0.3145,6.83,-2.56,3.17
23,143629788,0.6685,-0.7114,0.3145,7.07,-2.44,3.23
24,143634787,0.6660,-0.7148,0.3188,7.07,-2.56,3.17
25,143639788,0.6689,-0.7129,0.3213,7.13,-2.50,3.11
26,143644788,0.6655,-0.7129,0.3145,7.26,-2.20,2.99
27,143649786,0.6689,-0.7153,0.3188,7.38,-2.13,2.93
28,143654785,0.6660,-0.7129,0.3164,7.62,-1.95,2.80
29,143659789,0.6641,-0.7124,0.3154,7.74,-1.95,2.74
30,143664786,0.6650,-0.7124,0.3218,7.99,-1.77,2.62
31,143669785,0.6670,-0.7134,0.3247,8.29,-1.71,2.50
32,143674789,0.6646,-0.7109,0.3232,8.41,-1.46,2.50
33,143679787,0.6621,-0.7168,0.3281,8.72,-1.40,2.32
34,143684786,0.6641,-0.7124,0.3345,9.02,-1.28,2.38
35,143689785,0.6665,-0.7158,0.3369,9.39,-1.16,2.44
36,143694787,0.6665,-0.7144,0.3340,9.63,-1.22,2.32
37,143699789,0.6641,-0.7109,0.3354,9.82,-1.04,2.26
38,143704786,0.6631,-0.7124,0.3394,10.06,-1.22,2.13
39,143709790,0.6646,-0.7085,0.3374,10.06,-1.10,2.07
40,143714870,0.6655,-0.7095,0.3384,10.06,-1.16,1.89
41,143719789,0.6592,-0.7075,0.3428,10.00,-1.16,1.89
42,143724786,0.6631,-0.7119,0.3511,9.76,-1.22,1.89
43,143729787,0.6650,-0.7095,0.3477,9.33,-1.16,1.77
44,143734786,0.6641,-0.7090,0.3442,9.09,-1.10,1.77
45,143739789,0.6660,-0.7065,0.3462,8.72,-1.16,1.71
46,143744785,0.6572,-0.7070,0.3491,8.41,-1.16,1.59
47,143749789,0.6572,-0.7085,0.3472,8.29,-1.22,1.65
48,143754786,0.6587,-0.7065,0.3467,8.11,-1.34,1.52
49,143759785,0.6572,-0.7007,0.3462,8.05,-1.40,1.65
50,143764787,0.6562,-0.6987,0.3423,8.11,-1.46,1.52
51,143770277,0.6514,-0.6982,0.3481,8.41,-1.46,1.46
52,143774788,0.6533,-0.6929,0.3394,8.41,-1.52,1.52
53,143779786,0.6523,-0.6934,0.3481,8.66,-1.59,1.46
54,143784819,0.6543,-0.6880,0.3472,9.02,-1.52,1.52
55,143789788,0.6602,-0.6909,0.3535,9.21,-1.52,1.65
56,143794787,0.6587,-0.6895,0.3516,9.63,-1.65,1.65
57,143799787,0.6577,-0.6865,0.3481,10.00,-1.59,1.83
58,143804787,0.6592,-0.6851,0.3477,10.30,-1.59,2.01
59,143809788,0.6699,-0.6870,0.3501,10.49,-1.59,2.13
60,143814787,0.6689,-0.6851,0.3564,10.79,-1.59,2.20
61,143819786,0.6665,-0.6821,0.3530,11.28,-1.46,2.50
62,143824789,0.6685,-0.6831,0.3555,11.52,-1.28,2.74
63,143829787,0.6699,-0.6812,0.3564,11.89,-1.40,2.80
64,143834786,0.6655,-0.6831,0.3589,12.44,-1.34,3.11
65,143839789,0.6665,-0.6831,0.3618,12.99,-1.28,3.35
66,143844786,0.6650,-0.6831,0.3574,13.41,-1.28,3.66
67,143849789,0.6665,-0.6826,0.3530,14.02,-1.34,3.84
68,143854785,0.6602,-0.6812,0.3564,14.63,-1.28,4.21
69,143859785,0.6587,-0.6807,0.3564,15.30,-1.22,4.51
70,143864787,0.6641,-0.6802,0.3574,15.98,-1.28,4.76
71,143869789,0.6641,-0.6772,0.3560,16.52,-1.40,5.18
72,143874786,0.6616,-0.6782,0.3584,17.13,-1.28,5.49
73,143879785,0.6582,-0.6792,0.3555,17.74,-1.34,5.85
74,143884789,0.6597,-0.6758,0.3604,18.05,-1.52,6.04
75,143889787,0.6592,-0.6831,0.3608,18.35,-1.59,6.40
76,143894787,0.6562,-0.6777,0.3569,18.60,-1.83,6.77
77,143899788,0.6592,-0.6821,0.3584,18.66,-2.01,7.13
78,143904787,0.6582,-0.6831,0.3560,18.60,-2.20,7.32
79,143909787,0.6543,-0.6821,0.3647,18.41,-2.44,7.56
80,143914790,0.6582,-0.6860,0.3540,18.11,-2.74,7.80
81,143919788,0.6577,-0.6875,0.3584,17.74,-2.93,7.99
82,143924787,0.6587,-0.6870,0.3613,17.01,-3.23,8.48
83,143929788,0.6533,-0.6895,0.3579,16.46,-3.54,8.66
84,143934787,0.6548,-0.6875,0.3662,15.85,-3.84,8.84
85,143939786,0.6528,-0.6914,0.3604,15.30,-4.09,9.21
86,143944787,0.6548,-0.6895,0.3574,14.76,-4.39,9.39
87,143949787,0.6494,-0.6938,0.3613,14.39,-4.63,9.76
88,143954787,0.6504,-0.6973,0.3628,14.21,-4.88,9.94
89,143959785,0.6489,-0.6982,0.3657,13.96,-5.30,10.18
90,143964785,0.6416,-0.6934,0.3662,13.78,-5.43,10.49
91,143969787,0.6392,-0.6938,0.3687,13.84,-5.73,10.67
92,143974786,0.6426,-0.6973,0.3638,13.96,-6.04,11.04
93,143979789,0.6416,-0.7002,0.3608,14.21,-6.40,11.16
94,143984786,0.6357,-0.6953,0.3633,14.63,-6.59,11.40
95,143989787,0.6343,-0.7017,0.3667,14.82,-6.95,11.65
96,143994786,0.6294,-0.7007,0.3682,15.12,-7.20,11.89
97,143999787,0.6318,-0.6987,0.3696,15.43,-7.44,12.07
98,144004786,0.6318,-0.6997,0.3657,15.85,-7.62,12.32
99,144009836,0.6304,-0.7012,0.3662,15.98,-8.05,12.56
100,144014786,0.6304,-0.6982,0.3672,16.22,-8.23,12.62
101,144019787,0.6211,-0.7007,0.3672,16.34,-8.54,12.93
102,144024786,0.6284,-0.6982,0.3745,16.46,-8.90,13.11
103,144029789,0.6270,-0.7017,0.3779,16.52,-9.09,13.35
104,144034786,0.6245,-0.7056,0.3750,16.52,-9.39,13.60
105,144039785,0.6235,-0.7075,0.3838,16.59,-9.63,13.90
106,144044788,0.6191,-0.7061,0.3862,16.59,-9.82,14.02
107,144049953,0.6221,-0.7090,0.3857,16.46,-10.24,14.21
108,144054787,0.6216,-0.7129,0.3921,16.65,-10.37,14.51
109,144059785,0.6226,-0.7090,0.3994,16.65,-10.73,14.82
110,144064785,0.6221,-0.7148,0.4009,16.52,-11.10,14.94
111,144069788,0.6196,-0.7207,0.4121,16.52,-11.65,15.12
112,144074786,0.6113,-0.7290,0.4194,16.40,-12.13,15.24
113,144079785,0.6104,-0.7217,0.4194,16.22,-12.93,15.37
114,144084785,0.6060,-0.7285,0.4238,16.04,-13.66,15.43
115,144089787,0.6011,-0.7266,0.4272,15.79,-14.21,15.43
116,144094787,0.5986,-0.7285,0.4346,15.79,-14.94,15.43
117,144099786,0.5913,-0.7319,0.4380,15.61,-15.73,15.49
118,144104788,0.5884,-0.7324,0.4424,15.18,-16.65,15.73
119,144109787,0.5864,-0.7349,0.4526,14.76,-17.32,15.67
120,144114790,0.5815,-0.7388,0.4556,14.51,-17.93,15.61
121,144119841,0.5791,-0.7388,0.4663,14.02,-18.60,15.85
122,144124789,0.5723,-0.7451,0.4702,13.90,-19.09,15.91
123,144129786,0.5742,-0.7461,0.4814,13.90,-19.63,16.04
124,144134787,0.5693,-0.7568,0.4912,13.96,-20.12,16.10
125,144139786,0.5693,-0.7529,0.4922,14.33,-20.55,16.28
126,144144787,0.5698,-0.7549,0.5024,15.06,-20.85,16.40
127,144149787,0.5640,-0.7637,0.5039,16.10,-21.28,16.65
128,144154786,0.5605,-0.7661,0.5122,17.44,-21.83,16.83
129,144159787,0.5601,-0.7637,0.5190,19.33,-22.38,17.07
130,144164785,0.5537,-0.7705,0.5146,21.28,-22.87,17.44
131,144169786,0.5483,-0.7715,0.5215,23.48,-23.54,17.68
132,144174789,0.5464,-0.7705,0.5269,26.16,-24.33,17.87
133,144179927,0.5425,-0.7700,0.5200,28.90,-25.18,18.17
134,144184787,0.5425,-0.7671,0.5269,31.71,-25.85,18.48
135,144189787,0.5386,-0.7651,0.5337,34.70,-26.65,18.72
136,144194789,0.5396,-0.7607,0.5288,37.38,-27.50,19.15
137,144199787,0.5405,-0.7646,0.5332,39.82,-28.41,19.57
138,144204787,0.5420,-0.7598,0.5454,42.07,-29.27,19.94
139,144209923,0.5469,-0.7661,0.5366,44.02,-30.37,20.24
140,144214787,0.5503,-0.7598,0.5498,45.73,-31.40,20.61
141,144219788,0.5527,-0.7603,0.5527,47.13,-32.26,21.04
142,144224787,0.5542,-0.7539,0.5444,48.17,-33.29,21.34
143,144230232,0.5596,-0.7617,0.5605,49.33,-34.51,21.77
144,144234788,0.5562,-0.7559,0.5601,49.88,-35.61,22.13
145,144239787,0.5591,-0.7544,0.5547,50.37,-36.65,22.62
146,144244787,0.5557,-0.7554,0.5620,50.73,-37.87,23.05
147,144249786,0.5542,-0.7524,0.5659,50.91,-38.84,23.48
148,144254787,0.5620,-0.7510,0.5684,50.98,-40.12,23.84
149,144259787,0.5625,-0.7505,0.5645,51.16,-41.34,24.39
150,144264787,0.5532,-0.7480,0.5659,51.46,-42.44,24.70
151,144269786,0.5557,-0.7495,0.5605,51.89,-43.66,25.12
152,144274835,0.5532,-0.7456,0.5684,52.38,-45.06,25.55
153,144279788,0.5576,-0.7485,0.5625,52.87,-46.34,25.98
154,144284787,0.5566,-0.7456,0.5645,53.60,-47.74,26.40
155,144289786,0.5605,-0.7432,0.5562,54.39,-49.15,26.83
156,144294789,0.5596,-0.7451,0.5537,55.30,-50.67,27.20
157,144299789,0.5620,-0.7471,0.5479,56.22,-51.89,27.56
158,144304787,0.5605,-0.7510,0.5464,57.13,-53.41,27.93
159,144309788,0.5581,-0.7520,0.5435,57.74,-54.94,28.29
160,144314787,0.5620,-0.7505,0.5396,58.41,-56.28,28.66
161,144319786,0.5649,-0.7510,0.5332,58.78,-57.80,28.78
162,144324788,0.5654,-0.7520,0.5381,58.90,-59.15,29.09
163,144329786,0.5669,-0.7588,0.5244,58.60,-60.61,29.21
164,144334787,0.5703,-0.7554,0.5254,58.05,-61.95,29.27
165,144339787,0.5801,-0.7598,0.5181,56.77,-63.41,29.45
166,144344787,0.5820,-0.7671,0.5122,55.79,-64.51,29.51
167,144349786,0.5879,-0.7720,0.5073,54.15,-65.85,29.39
168,144354787,0.5981,-0.7773,0.5049,52.32,-67.01,29.39
169,144359788,0.6089,-0.7871,0.5005,50.30,-68.23,29.33
170,144364787,0.6240,-0.7925,0.4932,48.35,-69.27,29.45
171,144370147,0.6416,-0.8032,0.4956,46.10,-70.24,29.33
172,144374787,0.6509,-0.8125,0.4888,44.76,-70.85,29.15
173,144379787,0.6553,-0.8203,0.4775,43.23,-71.71,29.21
174,144384787,0.6626,-0.8286,0.4751,42.20,-72.38,29.09
175,144389785,0.6626,-0.8428,0.4590,41.52,-73.23,28.90
176,144394786,0.6621,-0.8481,0.4575,41.22,-74.02,28.60
177,144399789,0.6523,-0.8535,0.4399,41.10,-74.88,28.29
178,144404786,0.6538,-0.8662,0.4277,41.10,-75.67,27.80
179,144409787,0.6445,-0.8711,0.4238,40.98,-76.40,27.38
180,144414786,0.6309,-0.8774,0.4121,40.73,-77.32,26.71
181,144419788,0.6318,-0.8833,0.4067,40.06,-77.99,26.10
182,144424787,0.6289,-0.8892,0.3901,39.21,-78.78,25.24
183,144429785,0.6304,-0.8921,0.3750,37.74,-79.51,24.45
184,144435071,0.6201,-0.9004,0.3735,35.67,-80.24,23.29
185,144439787,0.6191,-0.8984,0.3623,34.02,-80.61,22.38
186,144444787,0.6152,-0.9033,0.3618,31.65,-81.22,21.10
187,144449787,0.6011,-0.9019,0.3457,29.21,-81.83,20.00
188,144454787,0.6025,-0.9019,0.3384,26.65,-82.13,18.60
189,144459787,0.5962,-0.9033,0.3188,24.09,-82.56,17.26
190,144464789,0.5815,-0.9062,0.3081,21.71,-82.99,15.79
191,144469786,0.5737,-0.9014,0.3003,19.39,-83.41,14.45
192,144474786,0.5767,-0.8950,0.2930,17.26,-83.60,13.11
193,144479787,0.5703,-0.8872,0.2812,15.37,-83.90,11.59
194,144484786,0.5664,-0.8794,0.2739,13.60,-84.15,10.12
195,144489789,0.5615,-0.8687,0.2593,12.07,-84.27,8.84
196,144494786,0.5518,-0.8604,0.2520,10.73,-84.63,7.50
197,144499787,0.5410,-0.8491,0.2388,9.15,-84.94,6.40
198,144504786,0.5371,-0.8296,0.2314,7.74,-85.06,5.06
199,144509787,0.5366,-0.8169,0.2261,6.34,-85.24,4.09
200,144514786,0.5322,-0.7993,0.2178,5.06,-85.49,3.05
201,144519785,0.5317,-0.7837,0.2085,3.72,-85.67,2.32
202,144524788,0.5303,-0.7729,0.2051,2.56,-85.61,1.59
203,144529787,0.5503,-0.7798,0.1660,1.52,-85.79,1.04
204,144534787,0.6196,-0.8389,0.0381,0.18,-85.91,0.61
205,144539787,0.7051,-0.8784,-0.0659,-2.01,-86.22,-0.12
206,144544787,0.6934,-0.8770,-0.0977,-5.18,-85.67,-1.59
207,144549787,0.6353,-0.8594,-0.0532,-8.96,-84.88,-3.17
208,144554787,0.5923,-0.8174,0.0063,-12.56,-83.90,-4.82
209,144559788,0.5601,-0.7705,0.0454,-15.67,-82.87,-6.04
210,144564787,0.5420,-0.7383,0.0649,-17.50,-82.01,-6.89
211,144569785,0.5371,-0.7139,0.0737,-18.54,-81.34,-7.56
212,144574785,0.5376,-0.6973,0.0713,-18.90,-80.98,-7.99
213,144579813,0.5322,-0.6890,0.0674,-18.84,-80.85,-8.17
214,144584787,0.5049,-0.6875,0.0767,-18.90,-80.67,-8.17
215,144589787,0.5132,-0.6631,0.0864,-18.90,-80.12,-8.17
216,144594787,0.4971,-0.6489,0.1143,-18.84,-79.70,-8.05
217,144599787,0.4927,-0.6494,0.1191,-18.60,-79.02,-7.87
218,144604787,0.4878,-0.6499,0.1318,-18.35,-78.29,-7.50
219,144609787,0.4888,-0.6416,0.1592,-17.68,-77.74,-7.20
220,144614787,0.4873,-0.6396,0.1626,-16.71,-77.07,-6.77
221,144619787,0.4951,-0.6143,0.1914,-15.98,-76.40,-6.22
222,144624786,0.4741,-0.6450,0.2163,-15.49,-75.85,-5.49
223,144629788,0.4570,-0.6274,0.2021,-14.76,-75.18,-4.39
224,144634786,0.4551,-0.6196,0.2305,-13.72,-74.82,-3.72
225,144639849,0.4521,-0.6431,0.2788,-12.38,-74.51,-2.87
226,144644786,0.4482,-0.6699,0.3125,-11.22,-74.21,-1.52
227,144649787,0.4604,-0.6963,0.3369,-9.70,-73.96,-0.24
228,144654786,0.4761,-0.7334,0.3516,-7.50,-73.84,1.04
229,144659787,0.4790,-0.7651,0.3613,-4.45,-73.60,2.26
230,144664786,0.4751,-0.7744,0.3428,-1.22,-73.66,3.41
231,144669787,0.4727,-0.7754,0.3281,2.38,-73.72,4.33
232,144674787,0.4819,-0.7729,0.3213,5.85,-73.72,5.12
233,144679785,0.5034,-0.7676,0.3164,9.45,-73.72,5.91
234,144684787,0.5278,-0.7622,0.2905,12.56,-73.78,6.71
235,144689787,0.5469,-0.7598,0.2583,15.55,-73.84,7.68
236,144694788,0.5537,-0.7573,0.2354,18.29,-73.90,8.78
237,144699787,0.5488,-0.7515,0.2007,20.61,-74.09,9.94
238,144704787,0.5386,-0.7407,0.1665,22.56,-74.33,11.10
239,144709787,0.5254,-0.7397,0.1494,24.21,-74.63,12.20
240,144714787,0.5273,-0.7354,0.1274,25.43,-74.88,13.41
241,144719787,0.5332,-0.7334,0.1079,26.46,-75.00,14.51
242,144724787,0.5264,-0.7300,0.1011,27.13,-75.18,15.37
243,144729787,0.5264,-0.7339,0.0806,27.74,-75.24,16.10
244,144734790,0.5342,-0.7515,0.0596,28.35,-75.61,16.89
245,144739787,0.5264,-0.7559,0.0596,28.78,-75.67,17.50
246,144744787,0.5166,-0.7632,0.0479,29.21,-75.91,17.80
247,144749787,0.5156,-0.7720,0.0405,29.57,-76.10,18.05
248,144754787,0.5098,-0.7788,0.0342,30.18,-76.40,18.23
249,144759883,0.5107,-0.7886,0.0386,30.91,-76.65,18.23
250,144764787,0.5034,-0.7964,0.0444,31.71,-76.77,18.17
251,144769787,0.5068,-0.8120,0.0400,32.32,-77.32,18.11
252,144774787,0.5142,-0.8164,0.0513,33.23,-77.44,18.05
253,144779785,0.5161,-0.8169,0.0518,33.90,-77.80,17.93
254,144784789,0.5093,-0.8198,0.0576,34.51,-77.93,17.68
255,144789787,0.5220,-0.8252,0.0586,35.06,-78.11,17.44
256,144794786,0.5264,-0.8267,0.0649,35.49,-78.41,17.20
257,144799785,0.5151,-0.8296,0.0586,35.61,-78.48,16.95
258,144804785,0.5146,-0.8394,0.0562,35.61,-78.66,16.65
259,144809789,0.5122,-0.8408,0.0342,35.49,-78.60,16.40
260,144814786,0.5459,-0.8320,0.0298,35.06,-78.66,16.16
261,144819787,0.5518,-0.8252,0.0371,34.51,-78.66,15.79
262,144824786,0.5503,-0.8296,0.0151,33.78,-78.41,15.30
263,144829787,0.5610,-0.8340,-0.0044,32.99,-78.35,14.94
264,144834786,0.5645,-0.8354,-0.0024,32.07,-78.23,14.57
265,144839787,0.5591,-0.8462,0.0044,31.28,-77.87,14.15
266,144844787,0.5737,-0.8491,0.0024,30.67,-77.44,13.78
267,144849787,0.5776,-0.8521,-0.0049,30.24,-77.26,13.54
268,144854786,0.5908,-0.8535,-0.0083,30.18,-76.89,13.05
269,144859787,0.5952,-0.8564,-0.0127,30.30,-76.46,12.62
270,144864786,0.6006,-0.8657,-0.0200,30.67,-76.16,12.38
271,144869787,0.6089,-0.8745,-0.0283,31.34,-75.73,12.07
272,144874786,0.6147,-0.8770,-0.0386,32.50,-75.18,11.71
273,144879785,0.6245,-0.8765,-0.0522,33.90,-74.76,11.59
274,144884785,0.6152,-0.8848,-0.0283,35.61,-74.15,11.28
275,144889787,0.6270,-0.8833,-0.0571,37.38,-73.78,11.16
276,144894786,0.6353,-0.8745,-0.0898,39.15,-73.29,10.98
277,144900258,0.6455,-0.8691,-0.0962,41.52,-72.62,10.73
278,144904787,0.6533,-0.8711,-0.0835,43.11,-72.07,10.67
279,144909787,0.6558,-0.8770,-0.1040,45.24,-71.28,10.67
280,144914787,0.6294,-0.8862,-0.0762,46.83,-70.55,10.67
281,144919787,0.6611,-0.8799,-0.1021,48.05,-69.57,10.61
282,144924787,0.6836,-0.8774,-0.1445,49.09,-68.90,10.61
283,144929787,0.6899,-0.8633,-0.1431,50.06,-68.05,10.67
284,144934787,0.6870,-0.8604,-0.1260,50.73,-66.95,10.67
285,144939786,0.6841,-0.8652,-0.1157,51.10,-65.98,10.73
286,144944787,0.6899,-0.8550,-0.1289,51.28,-64.88,10.85
287,144949787,0.6855,-0.8550,-0.1235,50.91,-63.66,10.98
288,144954787,0.6968,-0.8530,-0.1152,50.24,-62.44,10.98
289,144959788,0.7021,-0.8511,-0.1138,49.39,-61.28,11.16
290,144964787,0.6978,-0.8433,-0.1206,48.05,-60.06,10.98
291,144969787,0.6836,-0.8306,-0.1191,46.59,-59.15,10.85
292,144974786,0.6836,-0.8335,-0.1094,44.76,-58.11,10.61
293,144979785,0.6826,-0.8252,-0.1162,42.68,-57.20,10.43
294,144984785,0.6846,-0.8184,-0.1230,40.55,-56.22,10.00
295,144989785,0.6768,-0.8101,-0.1138,37.99,-55.61,9.39
296,144994789,0.6680,-0.8105,-0.1099,35.30,-54.82,8.84
297,144999787,0.6743,-0.8052,-0.1191,32.38,-54.09,8.11
298,145004787,0.6328,-0.7915,-0.1289,29.02,-53.41,7.26
299,145009787,0.6685,-0.7939,-0.1270,25.43,-52.74,6.40
300,145014787,0.6694,-0.7852,-0.1182,21.65,-52.13,5.55
301,145019787,0.6743,-0.7856,-0.1187,17.80,-51.46,4.57
302,145024787,0.6675,-0.7856,-0.1157,13.96,-50.79,3.66
303,145029787,0.6626,-0.7944,-0.1172,10.30,-50.06,2.62
304,145034787,0.6631,-0.7969,-0.1069,7.01,-49.21,1.65
305,145039787,0.6655,-0.8013,-0.0981,4.02,-48.29,0.98
306,145044787,0.6729,-0.8032,-0.0972,1.34,-47.20,0.00
307,145049789,0.6885,-0.8013,-0.1045,-0.79,-46.22,-0.98
308,145054786,0.6719,-0.7935,-0.1016,-2.50,-45.06,-2.13
309,145059787,0.6602,-0.7827,-0.0991,-4.02,-43.90,-3.29
310,145064786,0.6865,-0.7793,-0.1099,-5.00,-42.80,-4.70
311,145069787,0.6841,-0.7905,-0.1274,-5.79,-41.95,-5.91
312,145074786,0.6426,-0.7915,-0.1289,-6.22,-40.79,-7.07
313,145079787,0.6851,-0.7798,-0.1270,-6.95,-39.70,-8.17
314,145084787,0.6978,-0.7798,-0.1978,-7.74,-38.72,-9.15
315,145089785,0.6982,-0.7734,-0.1909,-8.41,-37.80,-10.00
316,145094787,0.7036,-0.7812,-0.1909,-8.84,-37.20,-10.43
317,145099787,0.6797,-0.7681,-0.1958,-8.72,-36.89,-10.85
318,145104786,0.6567,-0.7402,-0.1831,-8.72,-36.40,-11.28
319,145109851,0.6914,-0.7344,-0.1841,-8.54,-35.98,-11.95
320,145114789,0.7202,-0.7534,-0.1865,-7.99,-35.61,-12.44
321,145119785,0.7280,-0.7646,-0.1929,-7.13,-35.37,-12.80
322,145124787,0.7266,-0.7715,-0.1787,-6.16,-34.76,-13.05
323,145129787,0.7373,-0.7720,-0.1567,-4.94,-34.39,-13.29
324,145134786,0.7539,-0.7690,-0.1533,-3.72,-33.78,-13.72
325,145139789,0.7607,-0.7583,-0.1460,-2.44,-33.48,-14.02
326,145144785,0.7544,-0.7471,-0.1338,-0.91,-33.05,-14.63
327,145149787,0.7549,-0.7466,-0.1230,0.61,-32.50,-15.24
328,145154786,0.7563,-0.7388,-0.1421,2.13,-32.26,-15.85
329,145159788,0.7559,-0.7515,-0.1460,3.60,-32.13,-16.34
330,145164787,0.7505,-0.7544,-0.1396,4.88,-31.95,-16.59
331,145169787,0.7588,-0.7378,-0.1392,6.34,-32.07,-16.65
332,145174786,0.7734,-0.7285,-0.1509,7.56,-32.38,-16.52
333,145179787,0.7861,-0.7295,-0.1514,8.66,-32.74,-16.59
334,145184787,0.7856,-0.7349,-0.1470,9.39,-33.17,-16.46
335,145189785,0.7803,-0.7617,-0.1616,9.94,-33.90,-15.98
336,145194790,0.7803,-0.7710,-0.1353,10.79,-34.57,-15.18
337,145199789,0.7974,-0.7329,-0.1328,12.01,-34.82,-14.15
338,145204861,0.8188,-0.6958,-0.1201,13.60,-35.18,-13.29
339,145210078,0.8267,-0.6919,-0.1494,15.43,-35.79,-13.11
340,145214787,0.8379,-0.6973,-0.1309,17.56,-36.40,-13.05
341,145219787,0.8267,-0.6992,-0.0947,19.76,-37.26,-13.05
342,145224787,0.8105,-0.7124,-0.0972,21.95,-38.29,-13.17
343,145229788,0.8105,-0.7261,-0.0713,23.60,-38.96,-13.17
344,145234787,0.8306,-0.8613,0.1772,22.93,-37.38,-11.65
345,145239787,0.8462,-0.8286,0.0405,20.49,-34.57,-9.33
346,145244787,0.8594,-0.7563,-0.1235,17.74,-32.93,-7.62
347,145249790,0.8423,-0.6719,-0.0952,15.00,-31.46,-6.40
348,145254788,0.7915,-0.6206,-0.0273,12.26,-29.63,-5.61
349,145259787,0.7417,-0.6113,-0.1118,9.82,-28.11,-5.00
350,145264787,0.7134,-0.6177,-0.1914,7.44,-27.32,-4.63
351,145269786,0.6943,-0.6191,-0.1182,5.30,-26.22,-4.51
352,145274787,0.6753,-0.6147,-0.0776,3.48,-25.00,-4.70
353,145279786,0.6714,-0.6133,-0.1226,1.77,-24.02,-5.00
354,145284787,0.6763,-0.6128,-0.1143,0.37,-23.17,-5.43
355,145289786,0.6733,-0.6211,-0.0352,-0.91,-21.77,-5.98
356,145294785,0.6592,-0.6392,-0.0015,-1.71,-20.24,-6.59
357,145299787,0.6465,-0.6538,-0.0293,-2.20,-18.90,-7.13
358,145304786,0.6401,-0.6665,-0.0078,-2.50,-17.44,-7.62
359,145309789,0.6270,-0.6699,0.0244,-2.38,-15.85,-8.23
360,145314786,0.6172,-0.6675,0.0151,-1.95,-14.51,-8.96
361,145319787,0.6011,-0.6646,-0.0068,-1.40,-13.29,-9.76
362,145324786,0.5889,-0.6582,0.0049,-0.37,-12.26,-10.61
363,145329787,0.5776,-0.6641,0.0244,0.73,-11.10,-11.65
364,145334786,0.5684,-0.6724,0.0103,2.32,-10.18,-12.62
365,145339804,0.5620,-0.6812,0.0034,3.96,-9.39,-13.60
366,145344789,0.5596,-0.6904,0.0234,5.73,-8.60,-14.57
367,145349786,0.5581,-0.6895,0.0176,7.32,-7.93,-15.55
368,145354787,0.5474,-0.6958,0.0181,9.88,-7.13,-16.71
369,145359787,0.5483,-0.6948,0.0322,11.65,-6.83,-17.68
370,145364787,0.5444,-0.7065,0.0410,13.78,-6.34,-18.72
371,145369787,0.5430,-0.7114,0.0278,15.73,-5.98,-19.76
372,145374787,0.5410,-0.7207,0.0308,17.80,-5.73,-20.79
373,145379787,0.5400,-0.7305,0.0381,19.63,-5.49,-21.59
374,145384786,0.5459,-0.7397,0.0508,21.52,-5.18,-22.44
375,145389785,0.5527,-0.7510,0.0430,23.23,-5.00,-23.23
376,145394789,0.5562,-0.7603,0.0488,24.76,-4.94,-23.90
377,145399787,0.5557,-0.7681,0.0605,26.34,-4.57,-24.51
378,145404786,0.5586,-0.7676,0.0654,27.93,-4.63,-25.06
379,145409789,0.5601,-0.7754,0.0508,29.39,-4.63,-25.49
380,145414786,0.5630,-0.7822,0.0547,30.98,-4.82,-25.85
381,145419793,0.5576,-0.7837,0.0542,32.32,-5.12,-26.22
382,145424786,0.5669,-0.7871,0.0435,33.72,-5.24,-26.52
383,145429787,0.5669,-0.7949,0.0376,35.06,-5.73,-26.83
384,145434785,0.5635,-0.7925,0.0435,36.34,-6.28,-27.13
385,145439787,0.5723,-0.7959,0.0439,37.26,-6.77,-27.38
386,145444786,0.5737,-0.7979,0.0435,38.11,-7.32,-27.62
387,145449788,0.5713,-0.7979,0.0371,38.66,-7.80,-27.93
388,145454786,0.5703,-0.7930,0.0396,38.72,-8.35,-28.17
389,145459789,0.5674,-0.7871,0.0430,38.78,-8.90,-28.29
390,145464786,0.5659,-0.7812,0.0327,38.35,-9.51,-28.48
391,145469787,0.5649,-0.7715,0.0308,37.62,-10.18,-28.84
392,145474786,0.5669,-0.7686,0.0317,36.59,-10.55,-29.15
393,145479787,0.5674,-0.7568,0.0273,35.18,-11.10,-29.39
394,145484786,0.5747,-0.7490,0.0249,33.72,-11.34,-29.82
395,145489787,0.5791,-0.7393,0.0171,32.07,-11.77,-30.18
396,145494785,0.5859,-0.7314,0.0195,30.24,-12.38,-30.49
397,145499785,0.5903,-0.7280,0.0142,28.41,-12.56,-30.91
398,145504787,0.5972,-0.7271,0.0117,26.71,-12.56,-31.16
399,145509787,0.6074,-0.7275,0.0073,25.30,-12.68,-31.46
400,145514788,0.6162,-0.7305,0.0034,24.21,-12.68,-31.71
401,145519786,0.6250,-0.7349,0.0049,23.60,-12.74,-31.89
402,145524787,0.6318,-0.7407,0.0010,23.35,-12.74,-32.01
403,145529787,0.6318,-0.7466,-0.0122,23.66,-12.80,-32.07
404,145534787,0.6387,-0.7480,-0.0264,24.33,-12.80,-32.07
405,145539786,0.6401,-0.7451,-0.0200,25.37,-12.93,-32.01
406,145544787,0.6387,-0.7432,-0.0332,26.71,-12.93,-31.95
407,145549788,0.6353,-0.7373,-0.0415,28.35,-12.93,-32.07
408,145554787,0.6357,-0.7354,-0.0464,30.24,-12.99,-32.26
409,145559785,0.6382,-0.7295,-0.0498,32.13,-12.93,-32.26
410,145564787,0.6416,-0.7271,-0.0493,34.15,-12.99,-32.32
411,145569787,0.6431,-0.7275,-0.0488,36.28,-12.87,-32.62
412,145574787,0.6475,-0.7266,-0.0493,38.23,-12.80,-32.62
413,145579786,0.6519,-0.7202,-0.0469,40.30,-12.56,-32.68
414,145584787,0.6567,-0.7188,-0.0464,42.38,-12.44,-32.87
415,145589787,0.6602,-0.7134,-0.0537,44.15,-12.20,-32.87
416,145594787,0.6675,-0.7139,-0.0435,45.79,-11.77,-33.05
417,145600307,0.6704,-0.7129,-0.0376,47.56,-11.16,-33.05
418,145604787,0.6733,-0.7134,-0.0376,48.60,-10.85,-33.23
419,145609787,0.6685,-0.7031,-0.0352,49.76,-10.37,-33.41
420,145614787,0.6631,-0.6992,-0.0386,50.67,-9.70,-33.54
421,145619850,0.6567,-0.6938,-0.0371,51.46,-9.33,-33.66
422,145624787,0.6509,-0.6948,-0.0396,52.13,-8.78,-33.84
423,145629787,0.6460,-0.6904,-0.0371,52.87,-8.23,-34.09
424,145634787,0.6411,-0.6885,-0.0459,53.23,-7.93,-34.45
425,145639788,0.6406,-0.6851,-0.0410,53.60,-7.20,-34.70
426,145644787,0.6406,-0.6890,-0.0474,53.96,-6.89,-34.88
427,145649787,0.6372,-0.6919,-0.0410,54.33,-6.46,-35.18
428,145654787,0.6387,-0.6968,-0.0327,54.82,-6.04,-35.30
429,145659785,0.6392,-0.7100,-0.0361,55.30,-5.79,-35.43
430,145664787,0.6416,-0.7173,-0.0293,55.85,-5.43,-35.49
431,145669786,0.6479,-0.7217,-0.0312,56.65,-5.12,-35.30
432,145674787,0.6562,-0.7310,-0.0366,57.44,-4.88,-35.12
433,145679788,0.6621,-0.7456,-0.0293,58.41,-4.70,-34.88
434,145684787,0.6665,-0.7603,-0.0273,59.57,-4.51,-34.39
435,145689786,0.6694,-0.7725,-0.0176,60.85,-4.33,-33.84
436,145694787,0.6748,-0.7812,-0.0132,62.13,-4.21,-33.23
437,145699786,0.6812,-0.7891,-0.0073,63.35,-4.09,-32.44
438,145704968,0.6851,-0.7959,-0.0073,64.70,-4.09,-31.52
439,145709787,0.6851,-0.7983,-0.0015,65.73,-3.96,-30.79
440,145714786,0.6938,-0.8042,0.0083,66.83,-4.02,-29.82
441,145719789,0.6987,-0.8145,0.0127,67.80,-4.09,-28.96
442,145724786,0.7041,-0.8159,0.0156,68.72,-4.21,-27.87
443,145729787,0.7061,-0.8242,0.0239,69.57,-4.15,-26.65
444,145734785,0.7085,-0.8286,0.0288,70.18,-4.27,-25.55
445,145739889,0.7061,-0.8291,0.0391,70.67,-4.45,-24.27
446,145744788,0.7026,-0.8291,0.0396,70.67,-4.70,-23.11
447,145749786,0.6973,-0.8169,0.0532,70.73,-4.88,-21.95
448,145754787,0.6938,-0.8066,0.0557,70.37,-5.24,-20.85
449,145759786,0.6841,-0.7939,0.0576,70.18,-5.55,-19.82
450,145764787,0.6724,-0.7827,0.0659,69.33,-5.67,-19.02
451,145769787,0.6606,-0.7695,0.0708,68.66,-5.91,-18.29
452,145774787,0.6558,-0.7568,0.0786,67.62,-6.28,-17.50
453,145779789,0.6426,-0.7407,0.0737,66.65,-6.83,-17.01
454,145784787,0.6362,-0.7344,0.0742,65.49,-7.38,-16.59
455,145790030,0.6265,-0.7241,0.0825,64.21,-7.80,-16.16
456,145794787,0.6187,-0.7051,0.0796,62.99,-8.17,-15.79
457,145799786,0.6157,-0.6963,0.0791,61.83,-8.66,-15.61
458,145804785,0.6094,-0.6880,0.0771,60.67,-9.09,-15.18
459,145809787,0.6045,-0.6836,0.0825,59.45,-9.94,-14.94
460,145814788,0.6016,-0.6807,0.0840,58.48,-10.30,-14.57
461,145819787,0.5933,-0.6724,0.0757,57.50,-10.85,-14.21
462,145824787,0.5918,-0.6606,0.0718,56.71,-11.59,-13.90
463,145829787,0.5913,-0.6533,0.0732,55.73,-12.20,-13.66
464,145834786,0.5898,-0.6455,0.0742,54.94,-12.87,-13.23
465,145839787,0.5933,-0.6387,0.0674,54.21,-13.48,-12.80
466,145844786,0.5923,-0.6353,0.0654,53.35,-13.96,-12.44
467,145849789,0.6006,-0.6270,0.0688,52.56,-14.51,-11.83
468,145854786,0.6084,-0.6172,0.0610,51.77,-15.00,-11.34
469,145859788,0.6172,-0.6157,0.0513,50.91,-15.49,-10.79
470,145864786,0.6265,-0.6172,0.0586,50.12,-15.85,-10.18
471,145869786,0.6333,-0.6113,0.0483,49.21,-16.34,-9.57
472,145874787,0.6401,-0.6094,0.0430,48.48,-16.52,-8.84
473,145879786,0.6538,-0.6147,0.0474,47.74,-16.77,-7.99
474,145884789,0.6660,-0.6133,0.0425,46.83,-17.13,-7.01
475,145889787,0.6714,-0.6128,0.0366,46.22,-17.26,-6.04
476,145894787,0.6802,-0.6143,0.0347,45.67,-17.32,-5.00
477,145899788,0.6851,-0.6172,0.0288,45.18,-17.44,-4.09
478,145904787,0.6938,-0.6118,0.0254,44.57,-17.50,-3.05
479,145909797,0.7012,-0.6167,0.0229,44.02,-17.56,-1.71
480,145914792,0.7075,-0.6108,0.0303,43.60,-17.68,-0.73
481,145919788,0.7144,-0.6113,0.0229,43.05,-17.68,0.24
482,145924785,0.7231,-0.6079,0.0171,42.56,-17.62,1.59
483,145929788,0.7314,-0.6074,0.0161,42.01,-17.56,2.62
484,145934785,0.7402,-0.6035,0.0200,41.65,-17.32,3.78
485,145939787,0.7427,-0.6094,0.0171,41.28,-17.38,4.88
486,145944789,0.7495,-0.6118,0.0171,40.91,-17.13,6.10
487,145949786,0.7573,-0.6152,0.0200,40.49,-16.95,7.56
488,145954905,0.7603,-0.6201,0.0205,40.30,-16.65,8.72
489,145959787,0.7627,-0.6260,0.0225,40.12,-16.40,9.63
490,145964787,0.7642,-0.6353,0.0200,40.00,-16.22,10.98
491,145969785,0.7695,-0.6436,0.0215,39.94,-16.04,12.32
492,145975296,0.7715,-0.6489,0.0303,39.82,-15.61,13.72
493,145979787,0.7690,-0.6577,0.0249,39.82,-15.30,14.88
494,145984787,0.7710,-0.6621,0.0327,39.70,-15.18,16.10
495,145989787,0.7666,-0.6680,0.0347,39.70,-14.88,17.32
496,145994787,0.7593,-0.6675,0.0356,39.51,-14.57,18.72
497,145999787,0.7568,-0.6699,0.0347,39.33,-14.33,19.82
498,146004789,0.7544,-0.6729,0.0405,38.96,-13.96,20.79
499,146009786,0.7549,-0.6743,0.0469,38.41,-13.66,21.89
500,146014789,0.7456,-0.6763,0.0483,37.93,-13.35,22.87
501,146019787,0.7432,-0.6729,0.0518,37.50,-13.17,23.84
502,146024787,0.7407,-0.6782,0.0562,36.77,-12.80,24.70
503,146029787,0.7363,-0.6772,0.0591,36.10,-12.56,25.43
504,146034787,0.7339,-0.6777,0.0581,35.55,-12.26,26.16
505,146039787,0.7329,-0.6777,0.0645,34.63,-12.07,26.71
506,146044786,0.7271,-0.6841,0.0684,33.78,-11.71,27.32
507,146049789,0.7251,-0.6860,0.0742,33.11,-11.65,27.99
508,146054786,0.7139,-0.6870,0.0752,32.26,-11.46,28.41
509,146059787,0.7129,-0.6904,0.0815,31.40,-11.22,28.96
510,146064786,0.7109,-0.6958,0.0801,30.37,-11.04,29.33
511,146069787,0.7085,-0.6953,0.0806,29.57,-10.91,29.76
512,146074786,0.7095,-0.6958,0.0884,28.48,-10.73,30.18
513,146079785,0.7095,-0.6934,0.0850,27.38,-10.49,30.43
514,146084785,0.7075,-0.6958,0.0869,26.16,-10.49,30.73
515,146089787,0.7041,-0.6973,0.0957,24.76,-10.12,30.91
516,146094786,0.7051,-0.6938,0.0933,23.54,-10.06,31.04
517,146099787,0.7095,-0.6860,0.1001,21.77,-9.82,31.22
518,146104786,0.7085,-0.6826,0.0972,20.24,-9.70,31.10
519,146109787,0.7026,-0.6758,0.0996,18.41,-9.33,31.04
520,146114787,0.7080,-0.6748,0.1089,16.77,-9.09,30.91
521,146120048,0.7158,-0.6719,0.0967,15.00,-8.84,30.73
522,146124787,0.7144,-0.6787,0.0991,13.11,-8.66,30.55
523,146129790,0.7183,-0.6709,0.1074,11.16,-8.54,30.24
524,146134786,0.7144,-0.6738,0.1074,9.21,-8.17,29.82
525,146139787,0.7183,-0.6719,0.1089,7.26,-7.80,29.57
526,146144787,0.7183,-0.6685,0.1040,5.37,-7.44,29.21
527,146149787,0.7173,-0.6699,0.1084,3.41,-7.20,28.84
528,146154788,0.7158,-0.6699,0.1138,1.59,-6.77,28.48
529,146159785,0.7188,-0.6753,0.1123,-0.18,-6.46,28.17
530,146164787,0.7222,-0.6777,0.1157,-1.89,-6.16,27.62
531,146169786,0.7236,-0.6763,0.1099,-3.54,-5.79,27.32
532,146174785,0.7275,-0.6816,0.1172,-5.00,-5.37,26.77
533,146179994,0.7319,-0.6870,0.1211,-6.10,-4.82,26.40
534,146184788,0.7314,-0.6875,0.1255,-7.20,-4.33,25.98
535,146189786,0.7285,-0.6895,0.1255,-8.05,-3.66,25.49
536,146194790,0.7368,-0.6914,0.1377,-8.72,-3.17,25.00
537,146199788,0.7373,-0.6880,0.1396,-9.15,-2.56,24.39
538,146204787,0.7388,-0.6904,0.1431,-9.27,-1.89,23.84
539,146209785,0.7344,-0.6963,0.1421,-9.33,-1.16,23.17
540,146214787,0.7388,-0.6987,0.1489,-8.96,-0.37,22.56
541,146219787,0.7397,-0.7046,0.1470,-8.41,0.49,21.89
542,146224786,0.7427,-0.7080,0.1426,-7.62,1.16,21.28
543,146229787,0.7432,-0.7178,0.1543,-6.65,1.95,20.73
544,146234787,0.7437,-0.7266,0.1538,-5.37,2.50,20.18
545,146239787,0.7388,-0.7266,0.1558,-4.09,3.29,19.51
546,146244787,0.7407,-0.7349,0.1611,-2.56,4.09,18.90
547,146249787,0.7383,-0.7397,0.1646,-0.91,4.63,18.35
548,146254787,0.7354,-0.7417,0.1699,0.67,5.30,17.80
549,146259786,0.7324,-0.7480,0.1689,2.38,5.91,17.26
550,146264787,0.7349,-0.7554,0.1772,4.15,6.46,16.65
551,146270136,0.7261,-0.7607,0.1763,5.91,6.95,16.28
552,146274787,0.7305,-0.7661,0.1802,7.56,7.56,15.61
553,146279786,0.7280,-0.7720,0.1812,9.09,8.11,15.12
554,146284786,0.7256,-0.7729,0.1885,10.49,8.48,14.70
555,146289787,0.7300,-0.7778,0.1860,11.77,8.90,14.15
556,146294787,0.7251,-0.7783,0.1948,12.80,9.33,13.60
557,146299912,0.7188,-0.7754,0.1953,13.66,9.51,13.17
558,146304787,0.7144,-0.7739,0.2046,14.27,9.94,12.62
559,146309786,0.7168,-0.7690,0.2002,14.57,10.18,11.89
560,146314787,0.7124,-0.7671,0.2114,14.63,10.61,11.28
561,146319786,0.7104,-0.7656,0.2061,14.51,10.79,10.61
562,146324789,0.7002,-0.7612,0.2178,13.90,10.98,9.76
563,146329786,0.7109,-0.7559,0.2241,13.23,11.04,8.96
564,146334787,0.7134,-0.7500,0.2236,12.20,11.52,8.23
565,146339785,0.7148,-0.7480,0.2310,11.16,11.77,7.32
566,146344787,0.7124,-0.7402,0.2295,9.94,11.89,6.40
567,146349785,0.7134,-0.7378,0.2358,8.23,12.07,5.55
568,146354788,0.7104,-0.7275,0.2397,6.40,12.38,4.57
569,146359787,0.7153,-0.7241,0.2456,4.45,12.50,3.54
570,146364786,0.7178,-0.7178,0.2446,2.38,12.68,2.50
571,146369787,0.7217,-0.7183,0.2476,0.37,13.05,1.65
572,146374785,0.7241,-0.7109,0.2495,-1.71,13.35,0.43
573,146379786,0.7290,-0.7124,0.2529,-3.60,13.23,-0.43
574,146384789,0.7266,-0.7090,0.2554,-5.43,13.54,-1.46
575,146389786,0.7290,-0.7095,0.2598,-6.89,13.78,-2.38
576,146394787,0.7251,-0.7070,0.2583,-8.11,13.84,-3.11
577,146399785,0.7261,-0.7046,0.2524,-9.21,14.09,-4.02
578,146404787,0.7197,-0.7041,0.2520,-9.76,14.27,-4.82
579,146409786,0.7202,-0.7075,0.2549,-10.06,14.33,-5.73
580,146414787,0.7158,-0.7002,0.2500,-10.00,14.21,-6.40
581,146419785,0.7109,-0.7017,0.2554,-9.57,14.45,-7.26
582,146424789,0.7109,-0.6978,0.2510,-8.90,14.21,-7.99
583,146429787,0.7085,-0.6978,0.2456,-8.29,14.21,-8.60
584,146434787,0.7095,-0.6997,0.2510,-7.13,14.27,-9.33
585,146439787,0.7144,-0.7036,0.2520,-5.98,14.15,-9.82
586,146444787,0.7119,-0.6997,0.2500,-4.94,14.02,-10.30
587,146449787,0.7158,-0.7002,0.2476,-3.23,13.96,-10.73
588,146454787,0.7134,-0.6982,0.2500,-2.13,13.78,-11.28
589,146459787,0.7100,-0.6997,0.2476,-0.73,13.66,-11.71
590,146464787,0.7129,-0.7007,0.2500,0.67,13.41,-12.01
591,146469787,0.7124,-0.6987,0.2510,2.07,13.35,-12.44
592,146474787,0.7109,-0.6958,0.2510,2.93,13.05,-12.68
593,146479786,0.7100,-0.6953,0.2437,3.90,13.05,-13.05
594,146484789,0.7129,-0.6943,0.2451,4.57,12.93,-13.41
595,146489863,0.7114,-0.6943,0.2510,5.24,12.87,-13.72
596,146494789,0.7095,-0.6880,0.2485,5.49,12.62,-14.02
597,146499787,0.7095,-0.6846,0.2495,5.67,12.50,-14.21
598,146504787,0.7075,-0.6821,0.2515,5.67,12.32,-14.45
599,146509843,0.7104,-0.6831,0.2524,5.43,12.26,-14.76
600,146514787,0.7144,-0.6851,0.2563,5.43,12.26,-14.88
601,146519786,0.7095,-0.6807,0.2539,5.00,12.20,-15.00
602,146524788,0.7124,-0.6797,0.2544,4.63,12.13,-15.06
603,146529787,0.7173,-0.6787,0.2603,4.21,12.01,-15.12
604,146534787,0.7148,-0.6802,0.2583,3.54,12.01,-15.12
605,146539787,0.7183,-0.6758,0.2632,2.80,11.83,-15.18
606,146544787,0.7173,-0.6841,0.2607,2.13,11.77,-15.12
607,146549786,0.7173,-0.6797,0.2710,1.59,11.83,-15.06
608,146554787,0.7236,-0.6777,0.2666,0.85,11.77,-15.00
609,146560248,0.7212,-0.6758,0.2646,0.00,11.59,-14.94
610,146564787,0.7246,-0.6694,0.2676,-0.55,11.71,-14.88
611,146569786,0.7217,-0.6704,0.2676,-1.10,11.65,-14.63
612,146574785,0.7192,-0.6704,0.2676,-1.71,11.52,-14.63
613,146579787,0.7197,-0.6699,0.2715,-2.13,11.40,-14.39
614,146584787,0.7236,-0.6709,0.2700,-2.50,11.40,-14.15
615,146590009,0.7231,-0.6724,0.2769,-2.80,11.34,-13.96
616,146594787,0.7212,-0.6675,0.2783,-3.11,11.34,-13.72
617,146599867,0.7251,-0.6704,0.2769,-3.23,11.22,-13.54
618,146604787,0.7217,-0.6650,0.2773,-3.23,11.10,-13.23
619,146609787,0.7173,-0.6704,0.2808,-3.17,10.91,-12.99
620,146614787,0.7197,-0.6685,0.2822,-3.11,10.85,-12.74
621,146619785,0.7207,-0.6636,0.2734,-2.99,10.79,-12.32
622,146624785,0.7153,-0.6606,0.2798,-2.80,10.55,-12.13
623,146629789,0.7188,-0.6602,0.2720,-2.74,10.43,-11.71
624,146634786,0.7207,-0.6548,0.2783,-2.68,10.24,-11.46
625,146639787,0.7183,-0.6504,0.2817,-2.80,10.18,-11.10
626,146644787,0.7178,-0.6445,0.2837,-2.80,9.94,-10.79
627,146649787,0.7183,-0.6440,0.2871,-2.99,9.82,-10.49
628,146654787,0.7197,-0.6436,0.2886,-3.29,9.76,-10.12
629,146659787,0.7207,-0.6426,0.2896,-3.41,9.63,-9.82
630,146664787,0.7222,-0.6362,0.2881,-3.72,9.51,-9.33
631,146669787,0.7241,-0.6362,0.2925,-3.90,9.33,-9.09
632,146674789,0.7217,-0.6323,0.2969,-4.09,9.15,-8.60
633,146679786,0.7295,-0.6382,0.2944,-4.27,9.02,-8.29
634,146684787,0.7295,-0.6367,0.2944,-4.39,8.90,-7.87
635,146689785,0.7300,-0.6396,0.3008,-4.33,8.90,-7.44
636,146694786,0.7261,-0.6382,0.2998,-4.33,8.72,-6.83
637,146699787,0.7319,-0.6372,0.2998,-4.15,8.60,-6.40
638,146704787,0.7329,-0.6357,0.2974,-3.96,8.66,-6.10
639,146709787,0.7310,-0.6338,0.3003,-3.72,8.48,-5.67
640,146714788,0.7324,-0.6304,0.3057,-3.41,8.29,-5.24
641,146719787,0.7324,-0.6309,0.2993,-2.87,8.23,-4.88
642,146724785,0.7314,-0.6323,0.3008,-2.50,8.11,-4.51
643,146729788,0.7314,-0.6284,0.3032,-2.13,7.99,-4.21
644,146734789,0.7295,-0.6304,0.3076,-1.52,7.80,-3.78
645,146739786,0.7290,-0.6309,0.3018,-1.04,7.68,-3.60
646,146744787,0.7295,-0.6309,0.3052,-0.49,7.44,-3.29
647,146749785,0.7280,-0.6279,0.3091,0.06,7.26,-2.93
648,146754788,0.7310,-0.6289,0.3086,0.73,7.13,-2.68
649,146759787,0.7334,-0.6265,0.3101,1.34,7.01,-2.44
650,146764786,0.7339,-0.6313,0.3145,1.95,6.71,-2.20
651,146769787,0.7290,-0.6353,0.3081,2.56,6.46,-1.95
652,146774788,0.7334,-0.6328,0.3062,3.23,6.22,-1.65
653,146779787,0.7319,-0.6328,0.3066,3.78,6.10,-1.40
654,146784785,0.7334,-0.6294,0.3071,4.33,5.73,-1.28
655,146790351,0.7349,-0.6348,0.3076,4.70,5.55,-1.04
656,146794787,0.7344,-0.6372,0.3071,5.24,5.30,-0.85
657,146800040,0.7324,-0.6348,0.3091,5.61,4.94,-0.67
658,146804787,0.7344,-0.6323,0.3130,5.91,4.63,-0.43
659,146809786,0.7363,-0.6387,0.3101,6.28,4.33,-0.43
660,146814787,0.7344,-0.6338,0.3062,6.40,4.09,-0.24
661,146819785,0.7373,-0.6362,0.3032,6.52,3.72,-0.12
662,146824787,0.7412,-0.6377,0.3066,6.52,3.60,0.00
663,146829785,0.7388,-0.6387,0.3032,6.59,3.35,0.06
664,146834789,0.7422,-0.6382,0.3032,6.52,2.99,0.24
665,146839786,0.7378,-0.6348,0.2993,6.40,2.68,0.37
666,146844787,0.7354,-0.6323,0.2988,6.34,2.38,0.49
667,146849785,0.7363,-0.6353,0.3013,6.22,2.07,0.43
668,146854789,0.7358,-0.6367,0.2988,6.04,1.65,0.49
669,146859786,0.7378,-0.6343,0.2988,5.98,1.28,0.67
670,146864787,0.7383,-0.6348,0.2954,5.73,0.98,0.79
671,146869785,0.7368,-0.6382,0.2886,5.61,0.67,0.91
672,146874789,0.7402,-0.6387,0.2949,5.49,0.30,1.04
673,146879786,0.7412,-0.6377,0.2881,5.30,0.12,1.16
674,146884787,0.7432,-0.6382,0.2896,5.00,-0.24,1.22
675,146889786,0.7393,-0.6357,0.2896,4.88,-0.49,1.34
676,146894787,0.7422,-0.6348,0.2896,4.51,-0.85,1.46
677,146899785,0.7456,-0.6367,0.2812,4.27,-1.10,1.52
678,146904787,0.7456,-0.6382,0.2837,4.02,-1.40,1.71
679,146909786,0.7466,-0.6372,0.2842,3.66,-1.52,1.71
680,146914787,0.7500,-0.6377,0.2847,3.41,-1.95,1.95
681,146919785,0.7500,-0.6387,0.2847,3.17,-2.13,2.01
682,146924787,0.7495,-0.6362,0.2837,2.87,-2.44,2.07
683,146929785,0.7539,-0.6421,0.2749,2.74,-2.62,2.26
684,146935049,0.7524,-0.6406,0.2778,2.74,-2.74,2.44
685,146939787,0.7490,-0.6396,0.2739,2.74,-3.17,2.56
686,146944787,0.7549,-0.6445,0.2700,2.68,-3.35,2.62
687,146949787,0.7534,-0.6455,0.2749,2.80,-3.60,2.87
688,146954787,0.7515,-0.6484,0.2671,2.93,-3.78,2.99
689,146959785,0.7490,-0.6445,0.2686,2.87,-4.09,3.17
690,146964789,0.7520,-0.6484,0.2637,3.05,-4.15,3.23
691,146969786,0.7510,-0.6440,0.2612,3.11,-4.39,3.41
692,146974787,0.7510,-0.6436,0.2583,3.11,-4.51,3.54
693,146979882,0.7524,-0.6489,0.2617,3.05,-4.88,3.60
694,146984788,0.7529,-0.6450,0.2612,2.93,-5.00,3.78
695,146989786,0.7480,-0.6460,0.2593,2.80,-5.00,3.84
696,146994789,0.7446,-0.6450,0.2661,2.62,-5.18,3.84
697,146999786,0.7461,-0.6401,0.2593,2.26,-5.30,3.90
698,147004787,0.7427,-0.6421,0.2598,1.89,-5.55,3.96
699,147009787,0.7412,-0.6431,0.2603,1.59,-5.61,3.96
700,147014787,0.7397,-0.6450,0.2568,1.10,-5.67,4.02
701,147019785,0.7402,-0.6460,0.2554,0.85,-5.67,4.09
702,147024787,0.7358,-0.6479,0.2495,0.49,-5.73,4.27
703,147029786,0.7354,-0.6436,0.2593,0.24,-5.79,4.27
704,147034785,0.7368,-0.6421,0.2505,-0.06,-5.79,4.39
705,147039789,0.7378,-0.6470,0.2544,-0.37,-5.91,4.45
706,147044786,0.7358,-0.6479,0.2485,-0.67,-5.85,4.45
707,147049787,0.7358,-0.6523,0.2520,-0.91,-5.79,4.57
708,147054787,0.7378,-0.6499,0.2515,-1.04,-5.79,4.63
709,147059787,0.7349,-0.6538,0.2500,-1.16,-5.73,4.82
710,147064787,0.7354,-0.6562,0.2520,-1.16,-5.79,4.94
711,147069787,0.7324,-0.6572,0.2568,-1.10,-5.61,5.00
712,147074787,0.7295,-0.6543,0.2505,-1.04,-5.67,5.06
713,147079787,0.7285,-0.6553,0.2480,-1.10,-5.55,5.18
714,147084787,0.7271,-0.6553,0.2500,-0.98,-5.49,5.37
715,147089785,0.7305,-0.6602,0.2422,-0.79,-5.37,5.37
716,147094785,0.7295,-0.6606,0.2368,-0.73,-5.30,5.43
717,147099787,0.7329,-0.6587,0.2451,-0.61,-5.12,5.49
718,147104789,0.7310,-0.6582,0.2480,-0.61,-5.30,5.67
719,147109787,0.7212,-0.6597,0.2446,-0.55,-5.18,5.67
720,147114789,0.7256,-0.6577,0.2451,-0.55,-5.00,5.61
721,147119787,0.7275,-0.6616,0.2510,-0.61,-4.88,5.79
722,147124787,0.7236,-0.6626,0.2451,-0.49,-4.63,5.67
723,147129785,0.7251,-0.6660,0.2437,-0.61,-4.51,5.73
724,147134785,0.7246,-0.6602,0.2471,-0.67,-4.39,5.73
725,147139787,0.7202,-0.6616,0.2524,-0.73,-4.33,5.67
726,147144787,0.7197,-0.6626,0.2476,-0.85,-4.09,5.67
727,147149787,0.7231,-0.6597,0.2451,-0.91,-3.90,5.61
728,147154788,0.7202,-0.6592,0.2422,-1.10,-3.90,5.55
729,147159785,0.7178,-0.6597,0.2461,-1.16,-3.60,5.37
730,147164787,0.7188,-0.6641,0.2490,-1.22,-3.54,5.30
731,147169787,0.7192,-0.6616,0.2388,-1.04,-3.29,5.30
732,147174787,0.7183,-0.6655,0.2461,-1.16,-3.11,5.18
733,147179787,0.7202,-0.6660,0.2441,-1.10,-3.11,5.06
734,147184788,0.7192,-0.6660,0.2471,-1.04,-2.80,5.12
735,147189786,0.7241,-0.6670,0.2402,-0.91,-2.74,4.88
736,147194788,0.7188,-0.6694,0.2476,-0.67,-2.44,4.88
737,147199897,0.7251,-0.6743,0.2456,-0.61,-2.20,4.76
738,147204887,0.7231,-0.6709,0.2441,-0.24,-2.01,4.63
739,147209786,0.7271,-0.6719,0.2427,0.06,-1.83,4.51
740,147214787,0.7212,-0.6743,0.2500,0.37,-1.71,4.33
741,147219785,0.7246,-0.6709,0.2451,0.73,-1.46,4.15
742,147224787,0.7256,-0.6719,0.2446,0.91,-1.34,4.09
743,147229786,0.7280,-0.6758,0.2495,1.28,-1.10,4.15
744,147234787,0.7241,-0.6743,0.2451,1.59,-1.04,3.90
745,147239785,0.7241,-0.6758,0.2490,1.83,-0.73,3.84
746,147244789,0.7266,-0.6758,0.2432,2.07,-0.73,3.60
747,147249787,0.7295,-0.6743,0.2451,2.38,-0.49,3.60
748,147254787,0.7280,-0.6797,0.2451,2.68,-0.37,3.54
749,147259787,0.7295,-0.6831,0.2402,2.74,-0.37,3.48
750,147264787,0.7319,-0.6841,0.2397,2.87,-0.18,3.41
751,147269787,0.7310,-0.6797,0.2358,2.99,0.06,3.29
752,147274787,0.7344,-0.6885,0.2446,3.11,0.18,3.11
753,147279787,0.7344,-0.6924,0.2388,3.05,0.37,2.99
754,147284788,0.7334,-0.6899,0.2349,2.93,0.55,2.93
755,147289787,0.7363,-0.6919,0.2461,3.11,0.61,2.74
756,147294787,0.7354,-0.6973,0.2368,2.99,0.73,2.62
757,147299787,0.7393,-0.6973,0.2402,2.74,0.85,2.44
758,147304787,0.7344,-0.6924,0.2446,2.68,1.04,2.38
759,147309787,0.7363,-0.6992,0.2373,2.44,1.16,2.07
760,147314787,0.7397,-0.6992,0.2354,2.20,1.28,1.95
761,147319787,0.7378,-0.6987,0.2432,2.01,1.28,1.71
762,147324787,0.7393,-0.7021,0.2358,1.65,1.59,1.40
763,147329787,0.7373,-0.6968,0.2402,1.34,1.65,1.22
764,147334788,0.7363,-0.6943,0.2349,1.10,1.89,0.98
765,147339785,0.7363,-0.6938,0.2363,0.85,2.13,0.55
766,147344787,0.7339,-0.6929,0.2432,0.43,2.01,0.18
767,147350309,0.7349,-0.6909,0.2402,0.06,2.13,-0.24
768,147354787,0.7368,-0.6870,0.2339,-0.18,2.38,-0.61
769,147359786,0.7373,-0.6841,0.2324,-0.37,2.44,-1.16
770,147364789,0.7344,-0.6831,0.2427,-0.73,2.50,-1.52
771,147369785,0.7305,-0.6821,0.2358,-1.04,2.74,-1.83
772,147374785,0.7378,-0.6802,0.2407,-1.40,2.93,-2.38
773,147380018,0.7339,-0.6763,0.2402,-1.65,2.87,-2.80
774,147384787,0.7363,-0.6743,0.2378,-2.01,3.05,-3.29
775,147389786,0.7344,-0.6729,0.2358,-2.44,3.05,-3.78
776,147394787,0.7363,-0.6685,0.2402,-2.68,3.23,-4.21
777,147399883,0.7363,-0.6660,0.2393,-3.11,3.60,-4.63
778,147404803,0.7383,-0.6631,0.2427,-3.35,3.78,-5.12
779,147409787,0.7368,-0.6602,0.2373,-3.48,3.72,-5.61
780,147414786,0.7373,-0.6582,0.2373,-3.72,3.84,-6.10
781,147419787,0.7402,-0.6587,0.2339,-4.02,4.09,-6.52
782,147424787,0.7402,-0.6533,0.2354,-3.96,4.15,-7.01
783,147429787,0.7383,-0.6533,0.2319,-4.02,4.39,-7.44
784,147434787,0.7441,-0.6509,0.2339,-4.02,4.70,-7.74
785,147439785,0.7432,-0.6475,0.2319,-4.02,4.76,-8.23
786,147444785,0.7437,-0.6440,0.2349,-3.90,4.82,-8.48
787,147449788,0.7441,-0.6484,0.2402,-3.72,5.00,-8.90
788,147454787,0.7393,-0.6416,0.2388,-3.48,5.18,-9.27
789,147459787,0.7412,-0.6392,0.2388,-3.23,5.37,-9.57
790,147464787,0.7383,-0.6406,0.2388,-3.05,5.55,-9.88
791,147469788,0.7461,-0.6426,0.2373,-2.68,5.67,-10.18
792,147474787,0.7451,-0.6387,0.2427,-2.44,5.79,-10.43
793,147479787,0.7485,-0.6396,0.2363,-1.95,5.98,-10.55
794,147484788,0.7485,-0.6387,0.2368,-1.71,6.10,-10.73
795,147489844,0.7471,-0.6421,0.2319,-1.16,6.22,-10.91
796,147494787,0.7476,-0.6362,0.2349,-1.04,6.34,-11.10
797,147499787,0.7534,-0.6353,0.2354,-0.73,6.52,-11.16
798,147504787,0.7510,-0.6357,0.2368,-0.49,6.71,-11.34
799,147509785,0.7568,-0.6377,0.2383,-0.43,6.95,-11.34
800,147514789,0.7568,-0.6382,0.2373,-0.24,7.07,-11.46
801,147519786,0.7559,-0.6333,0.2339,-0.06,7.32,-11.52
802,147524787,0.7534,-0.6348,0.2412,-0.06,7.44,-11.52
803,147529785,0.7544,-0.6323,0.2393,-0.12,7.68,-11.52
804,147534787,0.7578,-0.6313,0.2427,-0.06,7.74,-11.52
805,147539786,0.7544,-0.6279,0.2407,-0.18,7.93,-11.59
806,147544785,0.7568,-0.6294,0.2407,-0.37,8.11,-11.59
807,147549785,0.7573,-0.6260,0.2407,-0.55,8.23,-11.46
808,147554787,0.7549,-0.6230,0.2383,-0.67,8.48,-11.52
809,147559786,0.7573,-0.6270,0.2441,-1.10,8.48,-11.52
810,147564787,0.7603,-0.6289,0.2510,-1.34,8.72,-11.52
811,147569785,0.7578,-0.6279,0.2412,-1.52,9.02,-11.46
812,147574787,0.7607,-0.6279,0.2383,-1.71,9.09,-11.46
813,147579787,0.7573,-0.6279,0.2549,-1.95,9.27,-11.28
814,147584787,0.7544,-0.6221,0.2500,-2.26,9.27,-11.28
815,147589786,0.7539,-0.6309,0.2485,-2.56,9.39,-11.22
816,147594787,0.7578,-0.6279,0.2471,-2.74,9.45,-11.10
817,147599786,0.7563,-0.6343,0.2490,-3.05,9.63,-11.04
818,147604787,0.7573,-0.6309,0.2500,-3.29,9.82,-10.85
819,147609786,0.7544,-0.6357,0.2490,-3.41,9.76,-10.67
820,147614785,0.7559,-0.6328,0.2485,-3.60,9.76,-10.61
821,147619787,0.7554,-0.6382,0.2412,-3.78,9.82,-10.49
822,147624786,0.7578,-0.6309,0.2476,-4.02,9.88,-10.30
823,147629787,0.7612,-0.6328,0.2539,-4.33,9.82,-10.12
824,147634787,0.7568,-0.6294,0.2505,-4.63,10.06,-10.06
825,147639787,0.7549,-0.6309,0.2485,-4.94,10.18,-10.06
826,147644785,0.7607,-0.6274,0.2520,-5.37,10.18,-10.06
827,147649785,0.7642,-0.6343,0.2524,-5.73,10.12,-9.88
828,147654789,0.7695,-0.6318,0.2549,-6.04,10.30,-9.88
829,147659786,0.7686,-0.6343,0.2573,-6.52,10.49,-9.70
830,147664787,0.7803,-0.6348,0.2539,-6.89,10.55,-9.57
831,147669785,0.7754,-0.6343,0.2607,-7.20,10.61,-9.45
832,147674788,0.7783,-0.6328,0.2588,-7.38,10.79,-9.39
833,147679787,0.7793,-0.6372,0.2661,-7.68,10.98,-9.21
834,147684786,0.7808,-0.6343,0.2646,-7.87,11.16,-9.15
835,147689787,0.7837,-0.6367,0.2686,-8.11,11.22,-9.02
836,147694788,0.7900,-0.6382,0.2661,-8.17,11.59,-8.96
837,147699787,0.7905,-0.6406,0.2739,-7.99,11.71,-8.84
838,147704787,0.7974,-0.6436,0.2744,-8.11,11.83,-8.78
839,147709785,0.8003,-0.6401,0.2749,-7.93,12.07,-8.66
840,147714790,0.7993,-0.6411,0.2749,-7.62,12.20,-8.54
841,147719786,0.8018,-0.6401,0.2769,-7.32,12.44,-8.54
842,147724789,0.8022,-0.6416,0.2725,-7.20,12.56,-8.35
843,147729786,0.8008,-0.6396,0.2725,-6.77,12.62,-8.11
844,147734787,0.7988,-0.6387,0.2769,-6.34,12.68,-8.05
845,147739789,0.7993,-0.6382,0.2817,-6.04,12.68,-7.93
846,147744787,0.8022,-0.6333,0.2812,-5.79,12.68,-7.87
847,147749785,0.7954,-0.6328,0.2852,-5.55,12.68,-7.74
848,147754787,0.7896,-0.6299,0.2817,-5.30,12.68,-7.74
849,147759787,0.7837,-0.6255,0.2798,-5.06,12.68,-7.87
850,147764787,0.7749,-0.6157,0.2827,-4.88,12.68,-7.93
851,147769787,0.7720,-0.6157,0.2856,-5.18,12.56,-8.17
852,147774787,0.7666,-0.6138,0.2920,-5.30,12.50,-8.48
853,147779787,0.7632,-0.6099,0.2988,-5.49,12.44,-8.60
854,147784787,0.7568,-0.6050,0.2900,-5.67,12.26,-8.90
855,147789787,0.7559,-0.5981,0.2900,-6.04,12.13,-9.39
856,147794787,0.7515,-0.5967,0.2954,-6.52,12.07,-9.76
857,147800170,0.7476,-0.5903,0.2979,-6.95,11.89,-10.30
858,147804788,0.7417,-0.5884,0.2974,-7.32,11.71,-10.73
859,147809786,0.7437,-0.5854,0.3047,-7.93,11.59,-11.22
860,147814787,0.7402,-0.5894,0.2988,-8.17,11.28,-11.77
861,147819786,0.7349,-0.5903,0.3018,-8.60,11.10,-12.26
862,147824787,0.7319,-0.5889,0.3042,-8.72,10.85,-12.62
863,147829786,0.7363,-0.5884,0.2974,-8.72,10.55,-13.17
864,147834787,0.7344,-0.5874,0.3071,-8.72,10.43,-13.66
865,147839786,0.7334,-0.5845,0.3057,-8.66,10.12,-14.15
866,147844787,0.7354,-0.5840,0.3037,-8.41,9.76,-14.57
867,147849787,0.7349,-0.5947,0.3047,-8.11,9.70,-15.06
868,147854787,0.7378,-0.5903,0.3076,-7.68,9.33,-15.49
869,147859786,0.7378,-0.5952,0.3042,-7.07,9.21,-15.79
870,147864787,0.7412,-0.5962,0.3057,-6.34,8.84,-16.10
871,147869786,0.7422,-0.5977,0.3003,-5.49,8.66,-16.40
872,147874787,0.7480,-0.5991,0.3052,-4.57,8.35,-16.46
873,147879787,0.7476,-0.6011,0.2998,-3.54,8.11,-16.65
874,147884787,0.7573,-0.6055,0.2949,-2.50,7.80,-16.71
875,147889786,0.7539,-0.6069,0.3003,-1.34,7.56,-16.71
876,147894789,0.7559,-0.6094,0.2964,-0.12,7.13,-16.77
877,147899785,0.7612,-0.6079,0.2959,0.98,6.89,-16.77
878,147904788,0.7642,-0.6108,0.2969,2.07,6.77,-16.59
879,147909786,0.7666,-0.6128,0.2935,3.11,6.34,-16.46
880,147914786,0.7681,-0.6138,0.2876,4.09,6.04,-16.28
881,147919787,0.7686,-0.6138,0.2939,4.94,5.61,-15.91
882,147924789,0.7734,-0.6108,0.2856,5.85,5.30,-15.67
883,147929786,0.7715,-0.6118,0.2920,6.52,4.94,-15.37
884,147934787,0.7778,-0.6084,0.2876,7.07,4.76,-14.94
885,147939786,0.7793,-0.6060,0.2837,7.38,4.39,-14.70
886,147944787,0.7788,-0.6030,0.2812,7.62,4.09,-14.33
887,147949786,0.7817,-0.5981,0.2842,7.68,3.72,-13.96
888,147954787,0.7793,-0.6011,0.2739,7.74,3.41,-13.60
889,147960092,0.7803,-0.5947,0.2798,7.50,3.17,-13.11
890,147964787,0.7812,-0.5913,0.2749,7.32,2.87,-12.80
891,147969786,0.7788,-0.5884,0.2773,7.13,2.56,-12.50
892,147974787,0.7793,-0.5869,0.2739,6.77,2.26,-12.20
893,147980212,0.7817,-0.5854,0.2695,6.52,1.89,-11.83
894,147984787,0.7832,-0.5840,0.2734,6.10,1.46,-11.46
895,147990059,0.7827,-0.5874,0.2734,5.79,1.16,-11.16
896,147994787,0.7842,-0.5835,0.2754,5.43,0.67,-10.79
897,147999786,0.7817,-0.5796,0.2715,5.06,0.37,-10.61
898,148004787,0.7837,-0.5771,0.2720,4.82,-0.12,-10.24
899,148009786,0.7803,-0.5767,0.2686,4.57,-0.43,-10.00
900,148014787,0.7808,-0.5718,0.2773,4.27,-0.98,-9.88
901,148019786,0.7759,-0.5742,0.2646,4.15,-1.34,-9.39
902,148024787,0.7729,-0.5718,0.2700,4.15,-1.83,-9.33
903,148029786,0.7715,-0.5674,0.2651,4.15,-2.26,-9.09
904,148034789,0.7710,-0.5703,0.2612,4.33,-2.80,-8.84
905,148039786,0.7671,-0.5664,0.2598,4.51,-3.54,-8.66
906,148044787,0.7676,-0.5664,0.2476,4.88,-3.96,-8.35
907,148050103,0.7681,-0.5693,0.2529,5.24,-4.51,-8.05
908,148054787,0.7676,-0.5708,0.2480,5.49,-5.06,-7.99
909,148059786,0.7686,-0.5698,0.2476,5.73,-5.79,-7.62
910,148064787,0.7666,-0.5684,0.2427,6.22,-6.46,-7.50
911,148069786,0.7690,-0.5723,0.2393,6.40,-6.95,-7.01
912,148074787,0.7725,-0.5684,0.2402,6.59,-7.62,-6.71
913,148079969,0.7778,-0.5737,0.2417,6.65,-8.41,-6.28
914,148084787,0.7773,-0.5723,0.2368,6.83,-8.78,-5.91
915,148089786,0.7803,-0.5718,0.2334,6.52,-9.27,-5.37
916,148094787,0.7832,-0.5728,0.2383,6.40,-9.82,-5.00
917,148099786,0.7837,-0.5679,0.2349,6.10,-10.43,-4.33
918,148104787,0.7861,-0.5679,0.2300,5.61,-10.73,-3.72
919,148109786,0.7900,-0.5630,0.2271,5.00,-11.16,-3.17
920,148114789,0.7886,-0.5659,0.2329,4.21,-11.52,-2.56
921,148119785,0.7886,-0.5620,0.2319,3.35,-11.95,-2.01
922,148124787,0.7935,-0.5654,0.2305,2.38,-12.20,-1.40
923,148129786,0.7954,-0.5552,0.2266,1.28,-12.50,-0.91
924,148134787,0.7974,-0.5532,0.2192,0.18,-12.56,-0.24
925,148139787,0.7974,-0.5547,0.2222,-0.91,-12.62,0.24
926,148144787,0.8022,-0.5542,0.2207,-2.07,-12.93,0.79
927,148149786,0.8096,-0.5532,0.2266,-3.29,-12.93,1.34
928,148154787,0.8120,-0.5488,0.2197,-4.33,-12.93,2.07
929,148159787,0.8130,-0.5513,0.2207,-5.43,-12.87,2.50
930,148164786,0.8140,-0.5557,0.2163,-6.28,-12.74,3.05
931,148169787,0.8120,-0.5532,0.2178,-7.13,-12.80,3.72
932,148174786,0.8135,-0.5537,0.2202,-7.74,-12.68,4.21
933,148179787,0.8086,-0.5488,0.2207,-8.17,-12.56,4.76
934,148184789,0.8066,-0.5508,0.2158,-8.54,-12.38,5.12
935,148189785,0.8091,-0.5503,0.2148,-8.66,-12.20,5.73
936,148194790,0.8047,-0.5493,0.2178,-8.72,-11.95,6.04
937,148200306,0.7998,-0.5469,0.2271,-8.54,-11.65,6.65
938,148204787,0.7939,-0.5479,0.2188,-8.35,-11.65,7.01
939,148209786,0.7920,-0.5483,0.2212,-7.93,-11.16,7.32
940,148214787,0.7876,-0.5444,0.2261,-7.56,-11.04,7.62
941,148219786,0.7812,-0.5430,0.2319,-6.83,-10.67,7.99
942,148224787,0.7729,-0.5381,0.2324,-6.28,-10.43,8.17
943,148230287,0.7598,-0.5356,0.2285,-5.37,-10.06,8.48
944,148234789,0.7554,-0.5391,0.2295,-4.57,-10.00,8.60
945,148239786,0.7451,-0.5337,0.2222,-3.66,-9.51,8.66
946,148244787,0.7388,-0.5332,0.2256,-2.68,-9.45,8.60
947,148249786,0.7305,-0.5322,0.2197,-1.28,-9.51,8.66
948,148254787,0.7231,-0.5391,0.2085,-0.12,-9.51,8.60
949,148259787,0.7212,-0.5337,0.2168,1.28,-9.45,8.48
950,148264785,0.7153,-0.5322,0.2134,2.68,-9.45,8.29
951,148269787,0.7168,-0.5381,0.2119,4.21,-9.57,8.17
952,148274786,0.7246,-0.5381,0.2192,5.61,-9.70,7.99
953,148279787,0.7305,-0.5488,0.2212,7.32,-9.88,7.80
954,148284787,0.7349,-0.5518,0.2227,8.84,-9.82,7.62
955,148289785,0.7417,-0.5669,0.2217,10.49,-9.94,7.44
956,148294789,0.7480,-0.5752,0.2314,12.20,-10.06,7.50
957,148299786,0.7534,-0.5820,0.2305,13.78,-9.94,7.56
958,148304787,0.7563,-0.5928,0.2266,15.43,-10.00,7.62
959,148309847,0.7583,-0.6074,0.2256,16.89,-10.18,7.80
960,148314788,0.7686,-0.6216,0.2319,18.35,-10.12,8.05
961,148319786,0.7695,-0.6328,0.2402,20.00,-10.06,8.35
962,148324787,0.7759,-0.6411,0.2388,21.46,-10.00,8.66
963,148329786,0.7769,-0.6538,0.2402,22.74,-10.06,9.21
964,148334787,0.7832,-0.6567,0.2383,23.96,-10.18,9.51
965,148339786,0.7866,-0.6616,0.2397,24.88,-10.30,9.88
966,148344788,0.7827,-0.6616,0.2480,25.43,-10.37,10.43
967,148349785,0.7832,-0.6621,0.2500,25.79,-10.37,10.73
968,148354789,0.7837,-0.6597,0.2549,25.85,-10.37,11.04
969,148359786,0.7822,-0.6611,0.2603,25.67,-10.61,11.28
970,148364787,0.7832,-0.6597,0.2637,25.24,-10.43,11.52
971,148369786,0.7808,-0.6611,0.2715,24.51,-10.49,11.59
972,148374787,0.7739,-0.6572,0.2788,23.72,-10.43,11.89
973,148380295,0.7754,-0.6533,0.2744,22.56,-10.49,11.89
974,148384787,0.7681,-0.6514,0.2734,21.46,-10.55,11.95
975,148389819,0.7651,-0.6470,0.2837,20.18,-10.55,12.01
976,148394787,0.7583,-0.6411,0.2769,18.90,-10.43,12.01
977,148399786,0.7544,-0.6382,0.2778,17.56,-10.67,12.01
978,148404787,0.7505,-0.6328,0.2764,16.16,-10.43,12.01
979,148409786,0.7451,-0.6206,0.2705,14.76,-10.55,11.83
980,148414787,0.7354,-0.6157,0.2817,13.48,-10.43,11.65
981,148419786,0.7310,-0.6025,0.2764,12.20,-10.55,11.52
982,148424787,0.7354,-0.5869,0.2749,10.91,-10.49,11.10
983,148429786,0.7295,-0.5776,0.2783,9.82,-10.30,10.73
984,148434787,0.7329,-0.5684,0.2783,8.78,-10.18,10.30
985,148440067,0.7339,-0.5576,0.2759,8.11,-10.12,9.88
986,148444787,0.7354,-0.5542,0.2739,7.56,-9.88,9.27
987,148449786,0.7417,-0.5503,0.2744,7.32,-9.70,8.78
988,148454789,0.7500,-0.5479,0.2729,7.44,-9.45,8.35
989,148459786,0.7607,-0.5469,0.2686,7.93,-9.15,7.99
990,148464787,0.7700,-0.5444,0.2627,8.54,-8.78,7.56
991,148469786,0.7812,-0.5425,0.2593,9.63,-8.48,7.26
992,148474789,0.7876,-0.5469,0.2559,11.10,-7.99,7.07
993,148479786,0.7949,-0.5454,0.2583,12.68,-7.56,6.95
994,148484787,0.7959,-0.5425,0.2471,14.39,-7.26,6.77
995,148489786,0.8018,-0.5420,0.2437,16.34,-6.71,6.83
996,148494787,0.8042,-0.5430,0.2363,18.35,-6.34,6.77
997,148499786,0.8076,-0.5405,0.2363,20.37,-5.73,6.89
998,148504787,0.8081,-0.5317,0.2305,22.44,-5.12,6.95
999,148509786,0.8140,-0.5249,0.2280,24.45,-4.57,6.95
1000,148514789,0.8154,-0.5254,0.2222,26.22,-3.90,7.07
1001,148519787,0.8198,-0.5259,0.2109,28.05,-3.29,7.20
1002,148524787,0.8247,-0.5200,0.2129,29.63,-2.62,7.32
1003,148529785,0.8306,-0.5225,0.2134,30.98,-1.83,7.56
1004,148534787,0.8389,-0.5269,0.2021,32.26,-1.10,7.74
1005,148539786,0.8423,-0.5244,0.2104,33.17,-0.43,8.11
1006,148544787,0.8413,-0.5327,0.2061,33.96,0.55,8.48
1007,148549785,0.8428,-0.5322,0.2109,34.63,1.28,8.78
1008,148554789,0.8481,-0.5342,0.2065,34.82,2.26,9.33
1009,148559787,0.8481,-0.5356,0.2061,34.82,3.23,9.70
1010,148564786,0.8516,-0.5420,0.2085,34.63,4.15,10.12
1011,148569785,0.8472,-0.5488,0.2100,34.33,4.94,10.55
1012,148575195,0.8452,-0.5581,0.2080,33.78,5.98,11.10
1013,148579787,0.8433,-0.5581,0.2021,33.05,6.95,11.71
1014,148584787,0.8433,-0.5654,0.2080,32.32,7.62,12.26
1015,148589787,0.8447,-0.5688,0.2002,31.59,8.54,12.93
1016,148594788,0.8442,-0.5771,0.1885,30.55,9.27,13.48
1017,148599787,0.8408,-0.5796,0.1909,29.57,9.88,14.15
1018,148604787,0.8442,-0.5830,0.1895,27.99,10.67,14.76
1019,148609787,0.8408,-0.5898,0.1890,26.40,11.28,15.49
1020,148614791,0.8438,-0.5947,0.2026,24.63,11.95,16.16
1021,148619789,0.8525,-0.6030,0.2002,22.62,12.56,16.71
1022,148624787,0.8521,-0.6055,0.2104,20.73,13.17,17.44
1023,148629787,0.8545,-0.6133,0.2095,18.48,13.96,17.93
1024,148634789,0.8564,-0.6196,0.2188,16.10,14.51,18.54
1025,148639785,0.8604,-0.6250,0.2271,13.78,15.18,19.15
1026,148644844,0.8608,-0.6304,0.2329,11.52,15.79,19.70
1027,148650110,0.8623,-0.6357,0.2402,8.60,16.28,20.30
1028,148654867,0.8613,-0.6465,0.2402,6.89,16.77,20.73
1029,148659786,0.8613,-0.6528,0.2598,4.63,17.50,21.16
1030,148664787,0.8550,-0.6577,0.2681,2.68,18.05,21.59
1031,148669785,0.8511,-0.6665,0.2764,0.98,18.41,22.07
1032,148674785,0.8481,-0.6685,0.2827,-0.61,18.96,22.50
1033,148679787,0.8345,-0.6729,0.2842,-1.95,19.39,22.93
1034,148684786,0.8228,-0.6777,0.3037,-2.93,19.63,23.17
1035,148689787,0.8115,-0.6772,0.3047,-3.72,19.82,23.41
1036,148694786,0.7930,-0.6743,0.3140,-4.33,20.00,23.41
1037,148699785,0.7778,-0.6738,0.3218,-4.57,20.00,23.54
1038,148704788,0.7622,-0.6719,0.3247,-4.82,20.00,23.41
1039,148709787,0.7510,-0.6699,0.3325,-4.63,19.94,23.17
1040,148714786,0.7407,-0.6714,0.3359,-4.63,19.76,22.99
1041,148719788,0.7314,-0.6665,0.3477,-4.09,19.45,22.62
1042,148724787,0.7261,-0.6655,0.3525,-3.72,19.21,22.13
1043,148729785,0.7144,-0.6675,0.3569,-3.23,18.78,21.59
1044,148734785,0.7075,-0.6626,0.3599,-2.44,18.48,20.91
1045,148740226,0.7012,-0.6675,0.3613,-1.77,17.74,20.12
1046,148744788,0.6963,-0.6665,0.3633,-1.10,17.13,19.45
1047,148750269,0.6899,-0.6631,0.3647,-0.37,16.40,18.54
1048,148754787,0.6890,-0.6646,0.3730,0.12,15.79,17.87
1049,148759786,0.6934,-0.6655,0.3682,0.61,15.06,17.01
1050,148764787,0.6885,-0.6650,0.3691,1.04,14.15,16.10
1051,148769785,0.6880,-0.6646,0.3726,1.46,13.29,15.18
1052,148774785,0.6899,-0.6636,0.3706,1.65,12.44,14.33
1053,148779787,0.6968,-0.6699,0.3672,1.83,11.59,13.29
1054,148784787,0.7017,-0.6694,0.3774,1.77,10.73,12.32
1055,148789786,0.7065,-0.6680,0.3682,1.83,9.76,11.52
1056,148794787,0.7148,-0.6709,0.3706,1.52,8.90,10.55
1057,148799787,0.7256,-0.6709,0.3716,1.22,8.11,9.57
1058,148804787,0.7329,-0.6724,0.3682,0.79,7.44,8.90
1059,148809786,0.7383,-0.6709,0.3687,0.30,6.46,7.93
1060,148814787,0.7480,-0.6699,0.3643,-0.49,5.91,7.01
1061,148819786,0.7544,-0.6675,0.3628,-1.16,5.30,6.10
1062,148824787,0.7607,-0.6704,0.3687,-1.83,4.51,5.30
1063,148829786,0.7676,-0.6655,0.3652,-2.56,3.96,4.51
1064,148834787,0.7725,-0.6689,0.3579,-3.29,3.41,3.66
1065,148839785,0.7715,-0.6724,0.3599,-4.09,3.11,2.87
1066,148844787,0.7764,-0.6680,0.3569,-4.45,2.38,2.20
1067,148849787,0.7793,-0.6724,0.3530,-5.00,2.01,1.34
1068,148854787,0.7793,-0.6680,0.3535,-5.12,1.52,0.67
1069,148859787,0.7832,-0.6699,0.3516,-5.24,1.10,0.00
1070,148864787,0.7861,-0.6714,0.3423,-5.24,0.55,-0.61
1071,148869785,0.7876,-0.6719,0.3472,-5.06,0.06,-1.22
1072,148874787,0.7871,-0.6743,0.3418,-4.76,-0.37,-1.77
1073,148879787,0.7881,-0.6689,0.3442,-4.51,-0.98,-2.38
1074,148884787,0.7852,-0.6709,0.3330,-4.21,-1.22,-2.87
1075,148889787,0.7876,-0.6714,0.3374,-3.78,-1.77,-3.41
1076,148894786,0.7852,-0.6660,0.3354,-3.48,-2.20,-3.96
1077,148899787,0.7876,-0.6646,0.3379,-3.23,-2.44,-4.33
1078,148904787,0.7876,-0.6650,0.3345,-2.93,-2.93,-4.94
1079,148909861,0.7827,-0.6641,0.3301,-2.74,-3.23,-5.43
1080,148914787,0.7769,-0.6567,0.3374,-2.68,-3.72,-5.85
1081,148919786,0.7754,-0.6567,0.3247,-2.74,-3.96,-6.40
1082,148924787,0.7710,-0.6582,0.3403,-2.93,-4.39,-7.01
1083,148929786,0.7646,-0.6553,0.3350,-3.11,-4.88,-7.32
1084,148934803,0.7588,-0.6499,0.3398,-3.54,-5.24,-7.80
1085,148939785,0.7563,-0.6479,0.3354,-4.09,-5.73,-8.23
1086,148944789,0.7568,-0.6445,0.3345,-4.57,-6.10,-8.90
1087,148949786,0.7544,-0.6406,0.3384,-5.18,-6.46,-9.21
1088,148954785,0.7520,-0.6401,0.3374,-5.98,-6.83,-9.82
1089,148959787,0.7524,-0.6406,0.3418,-6.71,-7.20,-10.30
1090,148964786,0.7544,-0.6338,0.3452,-7.44,-7.44,-10.73
1091,148969787,0.7520,-0.6313,0.3345,-8.17,-7.80,-11.22
1092,148974786,0.7544,-0.6318,0.3394,-9.02,-8.05,-11.65
1093,148979788,0.7554,-0.6289,0.3350,-9.70,-8.17,-12.07
1094,148984787,0.7539,-0.6255,0.3354,-10.30,-8.29,-12.44
1095,148989786,0.7568,-0.6216,0.3354,-10.98,-8.54,-12.80
1096,148994787,0.7539,-0.6230,0.3354,-11.52,-8.78,-13.23
1097,148999787,0.7588,-0.6143,0.3242,-11.89,-9.02,-13.54
1098,149004862,0.7573,-0.6084,0.3276,-12.26,-9.15,-13.78
1099,149009926,0.7568,-0.6069,0.3276,-12.62,-9.21,-14.02
1100,149014787,0.7612,-0.6069,0.3286,-12.93,-9.33,-14.39
1101,149019786,0.7656,-0.6064,0.3237,-12.99,-9.27,-14.51
1102,149024787,0.7656,-0.6074,0.3301,-12.93,-9.21,-14.63
1103,149029786,0.7720,-0.6045,0.3257,-13.05,-9.21,-14.70
1104,149034957,0.7793,-0.6025,0.3247,-12.87,-8.96,-14.82
1105,149039785,0.7812,-0.6035,0.3223,-12.62,-8.96,-14.82
1106,149044789,0.7852,-0.5957,0.3208,-12.32,-8.60,-14.82
1107,149049787,0.7852,-0.5918,0.3208,-11.95,-8.35,-14.70
1108,149054787,0.7856,-0.5967,0.3154,-11.59,-8.23,-14.63
1109,149059787,0.7866,-0.5923,0.3179,-10.98,-8.05,-14.51
1110,149064787,0.7866,-0.5908,0.3198,-10.61,-7.87,-14.39
1111,149069787,0.7832,-0.5923,0.3140,-10.12,-7.50,-14.21
1112,149074787,0.7827,-0.5884,0.3135,-9.63,-7.50,-14.15
1113,149079785,0.7842,-0.5854,0.3130,-9.33,-7.07,-13.96
1114,149084785,0.7827,-0.5825,0.3115,-8.90,-6.83,-13.78
1115,149089789,0.7822,-0.5781,0.3140,-8.35,-6.40,-13.60
1116,149094786,0.7769,-0.5767,0.3145,-7.99,-6.16,-13.48
1117,149099787,0.7705,-0.5767,0.3164,-7.56,-5.91,-13.29
1118,149104787,0.7710,-0.5698,0.3164,-7.32,-5.49,-13.17
1119,149109787,0.7681,-0.5654,0.3120,-7.01,-5.37,-13.23
1120,149114790,0.7651,-0.5625,0.3193,-6.52,-5.00,-13.17
1121,149119787,0.7632,-0.5591,0.3198,-6.28,-4.76,-13.11
1122,149124787,0.7642,-0.5542,0.3218,-5.73,-4.51,-13.11
1123,149129787,0.7578,-0.5562,0.3213,-5.30,-4.27,-13.11
1124,149134787,0.7563,-0.5571,0.3232,-4.63,-4.09,-13.05
1125,149139785,0.7534,-0.5522,0.3218,-3.96,-3.96,-13.05
1126,149144891,0.7510,-0.5479,0.3213,-2.93,-3.84,-12.99
1127,149149786,0.7495,-0.5483,0.3179,-2.01,-3.72,-12.99
1128,149154787,0.7524,-0.5444,0.3188,-1.22,-3.84,-12.87
1129,149159787,0.7524,-0.5425,0.3130,-0.12,-3.84,-12.87
1130,149164787,0.7500,-0.5400,0.3140,1.04,-3.84,-12.80
1131,149169785,0.7539,-0.5366,0.3145,2.50,-4.02,-12.74
1132,149174788,0.7534,-0.5366,0.3101,3.66,-4.21,-12.68
1133,149179786,0.7573,-0.5332,0.3057,5.06,-4.33,-12.50
1134,149184785,0.7578,-0.5288,0.3018,6.65,-4.57,-12.38
1135,149189786,0.7612,-0.5249,0.2944,8.17,-4.94,-12.07
1136,149194789,0.7725,-0.5171,0.2915,9.57,-5.06,-11.95
1137,149199788,0.7788,-0.5176,0.2876,10.98,-5.61,-11.65
1138,149204787,0.7822,-0.5161,0.2896,12.44,-5.91,-11.34
1139,149209788,0.7939,-0.5161,0.2852,13.78,-6.16,-10.98
1140,149214789,0.8018,-0.5151,0.2783,15.06,-6.59,-10.49
1141,149220236,0.8184,-0.5156,0.2686,16.46,-6.95,-9.82
1142,149224787,0.8223,-0.5132,0.2637,17.20,-7.38,-9.27
1143,149229786,0.8301,-0.5122,0.2554,18.05,-7.68,-8.54
1144,149234789,0.8364,-0.5146,0.2495,18.90,-7.93,-7.80
1145,149239785,0.8423,-0.5132,0.2495,19.27,-8.29,-7.01
1146,149244787,0.8545,-0.5103,0.2427,19.57,-8.72,-6.22
1147,149249785,0.8594,-0.5068,0.2300,19.76,-9.09,-5.18
1148,149254789,0.8672,-0.4951,0.2324,19.57,-9.33,-4.33
1149,149259786,0.8647,-0.4966,0.2275,19.21,-9.70,-3.54
1150,149264787,0.8721,-0.4922,0.2231,18.54,-10.00,-2.68
1151,149269872,0.8706,-0.4961,0.2271,17.80,-10.24,-1.59
1152,149274787,0.8721,-0.4888,0.2168,16.83,-10.55,-0.85
1153,149279786,0.8677,-0.4849,0.2119,15.49,-10.73,0.12
1154,149284785,0.8701,-0.4819,0.2080,14.21,-11.10,1.10
1155,149290068,0.8628,-0.4785,0.2065,12.68,-11.16,1.89
1156,149294787,0.8599,-0.4731,0.2046,11.16,-11.40,2.74
1157,149299787,0.8550,-0.4668,0.2021,9.57,-11.65,3.60
1158,149304786,0.8472,-0.4619,0.2036,8.05,-11.83,4.33
1159,149309787,0.8433,-0.4585,0.2036,6.52,-12.01,5.06
1160,149314787,0.8423,-0.4609,0.1978,4.94,-12.07,5.61
1161,149319787,0.8345,-0.4575,0.2012,3.78,-12.20,6.28
1162,149324787,0.8311,-0.4580,0.1968,2.44,-12.56,6.89
1163,149329787,0.8237,-0.4531,0.1895,1.59,-12.56,7.38
1164,149334787,0.8140,-0.4482,0.1904,0.91,-12.74,8.05
1165,149339787,0.8071,-0.4502,0.1831,0.30,-12.87,8.54
1166,149344787,0.8013,-0.4478,0.1772,0.18,-13.11,8.96
1167,149349790,0.7866,-0.4429,0.1772,0.12,-13.41,9.51
1168,149354785,0.7861,-0.4365,0.1724,0.24,-13.48,10.06
1169,149359790,0.7769,-0.4370,0.1733,0.79,-13.66,10.49
1170,149364788,0.7749,-0.4355,0.1738,1.59,-13.78,10.85
1171,149369866,0.7661,-0.4316,0.1719,2.50,-14.02,11.28
1172,149374786,0.7642,-0.4268,0.1655,3.84,-14.21,11.46
1173,149379787,0.7563,-0.4253,0.1675,5.61,-14.21,11.83
1174,149384785,0.7490,-0.4238,0.1694,7.50,-14.39,12.20
1175,149389785,0.7393,-0.4229,0.1660,10.12,-14.45,12.44
1176,149394789,0.7319,-0.4214,0.1558,12.74,-14.70,12.68
1177,149399787,0.7227,-0.4248,0.1499,15.91,-14.82,12.87
1178,149404787,0.7124,-0.4248,0.1543,18.96,-15.00,13.23
1179,149409787,0.7114,-0.4292,0.1489,21.89,-15.30,13.60
1180,149414788,0.7080,-0.4258,0.1533,24.94,-15.37,13.90
1181,149419787,0.7109,-0.4243,0.1440,27.74,-15.43,14.15
1182,149424787,0.7036,-0.4219,0.1309,30.37,-15.67,14.51
1183,149429798,0.7070,-0.4180,0.1367,32.80,-15.67,14.82
1184,149434787,0.7007,-0.4248,0.1284,34.45,-15.73,15.12
1185,149439786,0.7031,-0.4180,0.1182,35.67,-15.79,15.43
1186,149444788,0.7080,-0.4082,0.1270,36.65,-15.98,15.61
1187,149449785,0.7104,-0.3979,0.1396,37.26,-15.98,15.85
1188,149454934,0.7148,-0.3936,0.1338,37.26,-15.79,16.16
1189,149459787,0.7075,-0.3857,0.1377,36.77,-15.61,16.34
1190,149464787,0.7202,-0.3799,0.1245,36.10,-15.43,16.40
1191,149469785,0.7207,-0.3765,0.1235,35.30,-15.30,16.40
1192,149474787,0.7227,-0.3784,0.1348,34.27,-15.06,16.46
1193,149479786,0.7197,-0.3877,0.1558,33.48,-14.70,16.65
1194,149484787,0.7212,-0.3926,0.1401,32.62,-14.15,16.71
1195,149489785,0.7251,-0.4009,0.1431,31.89,-13.90,16.89
1196,149495257,0.7310,-0.4141,0.1533,31.34,-13.48,17.20
1197,149499787,0.7402,-0.4966,0.1836,30.79,-12.80,17.68
1198,149504787,0.7241,-0.4902,0.1636,29.51,-12.20,18.66
1199,149509785,0.7378,-0.4741,0.1274,27.87,-11.59,19.39
1200,149514787,0.7339,-0.4507,0.1221,26.46,-11.10,20.06
1201,149519786,0.7520,-0.4478,0.1401,24.88,-10.79,20.61
1202,149524787,0.7651,-0.4619,0.1465,23.72,-10.30,21.40
1203,149529787,0.7788,-0.4854,0.1606,22.56,-9.82,22.01
1204,149534785,0.7886,-0.5107,0.1729,21.77,-9.15,22.93
1205,149539785,0.7979,-0.5225,0.1816,21.04,-8.48,23.60
1206,149544789,0.8003,-0.5288,0.1841,20.37,-7.74,24.51
1207,149550282,0.7915,-0.5308,0.2002,19.82,-7.01,25.30
1208,149554789,0.7778,-0.5312,0.2212,19.09,-6.04,26.28
1209,149560289,0.7690,-0.5317,0.2256,18.72,-5.06,27.01
1210,149564789,0.7578,-0.5283,0.2339,18.60,-3.84,27.74
1211,149569786,0.7461,-0.5347,0.2583,18.41,-2.74,28.35
1212,149574787,0.7422,-0.5415,0.2715,18.84,-1.10,28.96
1213,149579785,0.7456,-0.5449,0.2700,19.45,0.24,29.70
1214,149584787,0.7554,-0.5566,0.2793,20.49,1.65,30.24
1215,149589798,0.7622,-0.5713,0.2905,22.20,3.29,30.79
1216,149594787,0.7637,-0.5889,0.2993,24.51,4.94,31.65
1217,149599787,0.7563,-0.6050,0.2886,27.32,6.71,32.38
1218,149604787,0.7642,-0.6387,0.2910,30.73,8.29,33.05
1219,149609785,0.7671,-0.6582,0.3066,34.51,10.00,34.15
1220,149614789,0.7637,-0.6597,0.2988,38.48,11.83,35.18
1221,149619786,0.7373,-0.7207,0.3018,42.07,13.66,35.98
1222,149624787,0.7480,-0.8081,0.2993,45.61,15.37,37.50
1223,149630243,0.7754,-0.8115,0.2769,49.27,16.77,39.02
1224,149634787,0.7715,-0.7480,0.2949,53.29,18.23,40.18
1225,149639786,0.7744,-0.7070,0.3428,57.80,20.06,41.04
1226,149644788,0.7612,-0.7031,0.3354,61.71,21.71,41.89
1227,149649785,0.7383,-0.7188,0.3374,66.34,23.84,42.74
1228,149654787,0.7280,-0.7495,0.3735,70.73,25.85,43.48
1229,149659786,0.7041,-0.7676,0.3691,75.00,28.11,44.27
1230,149664789,0.6895,-0.7661,0.3594,79.21,30.24,45.24
1231,149669786,0.6826,-0.7612,0.3750,83.17,32.56,45.98
1232,149674787,0.6860,-0.7637,0.3950,86.65,34.94,46.65
1233,149679785,0.6890,-0.7734,0.3970,89.88,37.38,47.32
1234,149684787,0.6924,-0.7930,0.4111,92.68,39.88,48.05
1235,149689786,0.6875,-0.8071,0.4272,95.12,42.68,48.84
1236,149694785,0.6875,-0.8193,0.4551,96.77,45.49,49.51
1237,149699785,0.6846,-0.8213,0.4556,97.99,48.41,50.18
1238,149704789,0.6797,-0.8203,0.4624,98.72,51.52,50.67
1239,149709786,0.6860,-0.8081,0.4834,99.09,54.63,51.10
1240,149714787,0.6733,-0.8188,0.5059,99.09,58.17,51.28
1241,149719785,0.6670,-0.8086,0.4966,98.84,61.46,51.65
1242,149724787,0.6562,-0.8013,0.4678,98.05,64.45,51.77
1243,149729786,0.6396,-0.8037,0.5054,97.20,67.50,51.52
1244,149734787,0.6294,-0.8047,0.5142,96.04,70.49,51.34
1245,149739785,0.6274,-0.8013,0.5122,94.70,73.29,51.04
1246,149744787,0.6279,-0.7852,0.5259,93.29,76.04,50.61
1247,149749787,0.6221,-0.7871,0.5176,91.77,78.35,50.06
1248,149754787,0.6099,-0.7915,0.5176,90.55,80.30,49.51
1249,149759900,0.5957,-0.8042,0.5171,89.33,81.65,48.96
1250,149764787,0.5889,-0.8130,0.5190,88.29,81.89,48.05
1251,149769785,0.5967,-0.8125,0.5269,87.44,81.77,47.20
1252,149774789,0.5952,-0.8076,0.5254,86.46,80.49,46.10
1253,149779786,0.6064,-0.8179,0.5601,85.49,78.48,44.70
1254,149784787,0.6138,-0.8188,0.5449,84.09,75.55,43.11
1255,149789785,0.6235,-0.8169,0.5825,82.13,71.89,41.16
1256,149794787,0.6396,-0.8130,0.6245,79.82,67.74,38.72
1257,149800020,0.6543,-0.8164,0.6626,76.34,63.05,35.91
1258,149804787,0.6768,-0.8154,0.7095,72.13,58.11,32.80
1259,149809786,0.6958,-0.8188,0.7705,67.07,53.54,29.51
1260,149814787,0.7090,-0.8174,0.8193,61.10,49.09,25.91
1261,149819785,0.7207,-0.8101,0.8335,54.57,44.76,22.13
1262,149824787,0.7212,-0.7944,0.8506,47.32,40.67,18.29
1263,149829790,0.7036,-0.7832,0.8589,38.35,36.52,13.48
1264,149834787,0.6880,-0.7656,0.8638,32.32,33.96,10.37
1265,149839786,0.6704,-0.7554,0.8584,24.63,31.04,6.46
1266,149844787,0.6528,-0.7490,0.8438,17.50,28.72,3.17
1267,149849787,0.6265,-0.7354,0.8276,10.61,26.83,0.12
1268,149854785,0.5913,-0.7256,0.8110,4.63,25.37,-2.50
1269,149859785,0.5537,-0.7183,0.7979,-0.61,24.57,-4.76
1270,149864787,0.5200,-0.7031,0.7837,-5.00,24.02,-6.40
1271,149870171,0.4775,-0.6973,0.7729,-8.72,23.72,-7.56
1272,149874787,0.4434,-0.6885,0.7632,-11.59,23.66,-8.35
1273,149879787,0.4165,-0.6738,0.7539,-13.78,23.96,-8.66
1274,149884787,0.3936,-0.6641,0.7524,-15.37,24.33,-8.78
1275,149889787,0.3735,-0.6572,0.7461,-16.28,25.12,-8.35
1276,149894787,0.3608,-0.6470,0.7437,-16.65,25.79,-7.68
1277,149899788,0.3560,-0.6353,0.7412,-16.52,26.77,-6.89
1278,149904787,0.3506,-0.6265,0.7334,-15.85,27.93,-5.73
1279,149909787,0.3447,-0.6138,0.7314,-15.18,28.72,-4.51
1280,149914787,0.3467,-0.6035,0.7344,-13.90,29.70,-3.23
1281,149919787,0.3521,-0.5923,0.7373,-12.62,30.12,-2.01
1282,149924787,0.3618,-0.5830,0.7417,-11.04,30.67,-0.73
1283,149930132,0.3696,-0.5718,0.7466,-9.45,31.04,0.43
1284,149934787,0.3843,-0.5610,0.7490,-8.05,31.22,1.46
1285,149939787,0.3999,-0.5547,0.7593,-6.71,30.91,2.32
1286,149944787,0.4233,-0.5420,0.7656,-5.67,30.73,2.93
1287,149949785,0.4380,-0.5410,0.7749,-4.94,30.18,3.35
1288,149954788,0.4541,-0.5391,0.7847,-4.15,29.51,3.72
1289,149959873,0.4800,-0.5396,0.7915,-3.66,28.72,4.21
1290,149964787,0.4990,-0.5454,0.8066,-3.23,27.74,4.39
1291,149969785,0.5317,-0.5513,0.8198,-2.74,26.83,4.70
1292,149974787,0.5576,-0.5571,0.8345,-2.26,25.67,5.06
1293,149979786,0.5781,-0.5586,0.8364,-1.59,24.51,5.43
1294,149984787,0.5952,-0.5654,0.8438,-0.85,23.23,5.85
1295,149989785,0.6084,-0.5635,0.8477,-0.06,21.89,6.22
1296,149994789,0.6143,-0.5640,0.8438,0.98,20.37,6.46
1297,149999786,0.6147,-0.5645,0.8496,2.01,18.78,6.89
1298,150004785,0.6182,-0.5674,0.8418,3.17,17.01,7.32
1299,150009789,0.6177,-0.5684,0.8345,4.33,15.49,7.87
1300,150014786,0.6104,-0.5708,0.8335,5.49,13.84,8.29
1301,150019787,0.6021,-0.5664,0.8335,6.71,12.26,8.96
1302,150024787,0.5884,-0.5674,0.8228,7.62,10.79,9.63
1303,150029787,0.5752,-0.5664,0.8193,8.60,9.39,10.30
1304,150034787,0.5532,-0.5645,0.8130,9.45,8.05,11.22
1305,150039787,0.5288,-0.5664,0.8125,9.94,6.95,12.01
1306,150044787,0.5063,-0.5640,0.8091,10.37,5.85,12.93
1307,150049827,0.4902,-0.5645,0.8096,10.79,4.94,13.78
1308,150054788,0.4692,-0.5679,0.8027,10.85,4.09,14.70
1309,150059786,0.4512,-0.5713,0.8037,10.61,3.41,15.49
1310,150064787,0.4385,-0.5698,0.7974,10.24,2.80,16.46
1311,150069786,0.4258,-0.5679,0.7891,9.76,2.13,17.20
1312,150074787,0.4175,-0.5669,0.7939,9.09,1.65,17.93
1313,150079786,0.4180,-0.5669,0.7852,8.17,1.10,18.54
1314,150085056,0.4150,-0.5708,0.7837,7.20,0.79,18.96
1315,150089786,0.4155,-0.5718,0.7808,6.22,0.43,19.45
1316,150094787,0.4194,-0.5742,0.7793,5.30,0.06,19.88
1317,150099787,0.4307,-0.5742,0.7866,4.15,-0.37,20.24
1318,150104785,0.4341,-0.5776,0.7808,3.11,-0.73,20.67
1319,150109785,0.4399,-0.5747,0.7759,2.32,-1.16,20.91
1320,150114789,0.4458,-0.5786,0.7764,1.77,-1.59,21.22
1321,150119787,0.4556,-0.5776,0.7778,1.22,-2.13,21.52
1322,150124787,0.4683,-0.5757,0.7725,0.73,-2.68,21.77
1323,150129786,0.4761,-0.5747,0.7651,0.49,-3.11,22.13
1324,150134787,0.4849,-0.5713,0.7622,0.37,-3.41,22.38
1325,150139786,0.4946,-0.5693,0.7603,0.12,-3.96,22.74
1326,150144787,0.5005,-0.5669,0.7583,0.12,-4.33,23.05
1327,150149785,0.5015,-0.5684,0.7598,0.24,-4.76,23.29
1328,150154787,0.5059,-0.5723,0.7520,0.18,-5.12,23.66
1329,150159786,0.5098,-0.5776,0.7495,0.30,-5.18,24.02
1330,150164787,0.5117,-0.5820,0.7476,0.37,-5.55,24.51
1331,150169785,0.5122,-0.5879,0.7437,0.30,-5.79,24.76
1332,150174786,0.5103,-0.5884,0.7378,0.55,-6.04,25.24
1333,150179877,0.5054,-0.5918,0.7261,0.79,-6.34,25.73
1334,150184786,0.5039,-0.5923,0.7197,1.16,-6.34,26.16
1335,150189785,0.4946,-0.5928,0.7124,1.34,-6.59,26.52
1336,150194792,0.4888,-0.5938,0.7065,1.52,-6.77,26.95
1337,150199787,0.4868,-0.5957,0.6948,2.01,-6.65,27.56
1338,150204787,0.4824,-0.5957,0.6865,2.20,-6.65,27.93
1339,150209786,0.4722,-0.5996,0.6772,2.56,-6.59,28.54
1340,150214787,0.4673,-0.5986,0.6772,2.99,-6.40,28.90
1341,150219787,0.4624,-0.6035,0.6650,3.60,-6.16,29.57
1342,150224787,0.4561,-0.6084,0.6743,4.15,-5.73,30.12
1343,150229785,0.4492,-0.6147,0.6650,4.82,-5.37,30.73
1344,150234787,0.4419,-0.6201,0.6660,5.30,-5.00,31.22
1345,150239787,0.4409,-0.6309,0.6646,6.04,-4.57,31.71
1346,150244786,0.4380,-0.6411,0.6611,6.77,-4.09,32.26
1347,150249787,0.4336,-0.6543,0.6606,7.56,-3.60,32.56
1348,150254788,0.4307,-0.6597,0.6582,8.41,-3.23,32.93
1349,150259787,0.4258,-0.6733,0.6621,9.33,-2.93,33.23
1350,150264787,0.4243,-0.6792,0.6694,10.30,-2.50,33.35
1351,150269785,0.4204,-0.6929,0.6680,11.34,-2.38,33.41
1352,150274789,0.4189,-0.6992,0.6719,12.26,-2.07,33.23
1353,150279786,0.4219,-0.7036,0.6782,13.23,-2.01,33.05
1354,150284789,0.4170,-0.7158,0.6855,14.15,-2.07,32.80
1355,150289785,0.4194,-0.7290,0.6865,14.94,-1.95,32.38
1356,150294786,0.4233,-0.7373,0.6973,15.73,-1.95,31.89
1357,150299787,0.4263,-0.7461,0.7056,16.46,-2.01,31.40
1358,150304811,0.4307,-0.7544,0.7080,17.01,-2.01,30.73
1359,150309787,0.4341,-0.7617,0.7192,17.26,-1.95,30.18
1360,150314786,0.4404,-0.7646,0.7231,17.44,-1.89,29.45
1361,150319787,0.4463,-0.7686,0.7261,17.32,-1.83,28.60
1362,150324786,0.4473,-0.7788,0.7261,17.13,-1.71,27.80
1363,150329787,0.4570,-0.7773,0.7280,16.77,-1.46,26.83
1364,150334848,0.4565,-0.7803,0.7271,16.22,-1.46,25.85
1365,150339787,0.4521,-0.7822,0.7305,15.55,-1.40,24.82
1366,150344787,0.4561,-0.7837,0.7280,14.94,-1.16,23.66
1367,150349787,0.4556,-0.7861,0.7231,14.09,-1.10,22.44
1368,150354786,0.4570,-0.7866,0.7256,13.35,-0.91,21.22
1369,150359787,0.4536,-0.7871,0.7222,12.56,-0.98,20.00
1370,150364786,0.4585,-0.7915,0.7212,11.59,-0.79,18.72
1371,150369837,0.4536,-0.7891,0.7163,10.85,-0.79,17.56
1372,150374785,0.4526,-0.7900,0.7202,10.00,-0.98,16.22
1373,150379789,0.4526,-0.7896,0.7222,9.39,-0.85,14.94
1374,150384787,0.4526,-0.7910,0.7197,8.84,-0.79,13.54
1375,150389787,0.4497,-0.7900,0.7212,7.99,-1.04,12.32
1376,150394787,0.4502,-0.7935,0.7227,7.44,-0.91,11.10
1377,150399788,0.4482,-0.7896,0.7168,7.01,-1.16,9.88
1378,150404787,0.4429,-0.7891,0.7192,6.65,-1.10,8.66
1379,150409788,0.4414,-0.7871,0.7251,6.16,-1.16,7.74
1380,150414787,0.4341,-0.7925,0.7222,5.98,-1.16,6.59
1381,150419787,0.4331,-0.7915,0.7188,5.79,-1.22,5.73
1382,150424787,0.4346,-0.7881,0.7124,5.67,-1.22,4.70
1383,150429788,0.4307,-0.7817,0.7114,5.43,-1.16,3.84
1384,150434787,0.4272,-0.7798,0.7046,5.43,-1.34,3.11
1385,150439787,0.4243,-0.7734,0.6938,5.30,-1.28,2.20
1386,150444787,0.4248,-0.7705,0.6958,5.24,-1.40,1.46
1387,150449788,0.4185,-0.7671,0.6919,5.00,-1.34,0.79
1388,150454787,0.4175,-0.7632,0.6934,4.76,-1.40,0.06
1389,150459788,0.4204,-0.7544,0.6934,4.39,-1.34,-0.67
1390,150464786,0.4204,-0.7539,0.6885,4.27,-1.40,-1.22
1391,150469787,0.4194,-0.7471,0.6841,3.66,-1.22,-1.89
1392,150474786,0.4209,-0.7378,0.6787,3.35,-1.34,-2.38
1393,150479785,0.4185,-0.7368,0.6826,2.93,-1.40,-2.87
1394,150484789,0.4258,-0.7388,0.6851,2.50,-1.40,-3.17
1395,150489787,0.4282,-0.7363,0.6826,1.89,-1.34,-3.60
1396,150494786,0.4316,-0.7310,0.6738,1.65,-1.40,-3.96
1397,150499867,0.4336,-0.7251,0.6685,1.22,-1.22,-4.21
1398,150504786,0.4375,-0.7261,0.6719,0.91,-1.10,-4.51
1399,150509787,0.4434,-0.7158,0.6641,0.55,-0.91,-4.57
1400,150514787,0.4429,-0.7158,0.6660,0.30,-0.67,-4.88
1401,150519813,0.4419,-0.7104,0.6611,0.24,-0.43,-4.70
1402,150524786,0.4458,-0.7075,0.6577,0.12,-0.12,-4.76
1403,150529787,0.4438,-0.7061,0.6606,0.12,0.37,-4.88
1404,150535091,0.4429,-0.7012,0.6650,0.12,0.85,-4.82
1405,150539787,0.4414,-0.6973,0.6641,0.06,1.10,-4.70
1406,150544786,0.4419,-0.6953,0.6592,0.06,1.52,-4.63
1407,150549787,0.4409,-0.6904,0.6577,0.12,1.95,-4.63
1408,150554786,0.4385,-0.6880,0.6514,0.18,2.38,-4.70
1409,150559787,0.4370,-0.6899,0.6592,0.30,2.87,-4.57
1410,150564786,0.4321,-0.6899,0.6606,0.30,3.29,-4.51
1411,150569789,0.4312,-0.6826,0.6582,0.49,3.90,-4.45
1412,150574785,0.4268,-0.6860,0.6636,0.67,4.21,-4.45
1413,150579786,0.4263,-0.6841,0.6636,0.98,4.39,-4.51
1414,150585081,0.4268,-0.6880,0.6597,1.22,5.06,-4.51
1415,150589787,0.4355,-0.6870,0.6675,1.59,5.37,-4.45
1416,150594786,0.4346,-0.6826,0.6606,1.71,5.73,-4.57
1417,150599787,0.4341,-0.6836,0.6631,2.07,6.16,-4.57
1418,150604786,0.4404,-0.6792,0.6655,2.44,6.52,-4.51
1419,150609787,0.4502,-0.6846,0.6670,2.80,6.77,-4.51
1420,150614786,0.4526,-0.6855,0.6719,3.05,7.07,-4.57
1421,150619787,0.4497,-0.6880,0.6753,3.29,7.56,-4.51
1422,150624786,0.4541,-0.6841,0.6689,3.54,7.68,-4.57
1423,150629787,0.4561,-0.6836,0.6719,3.84,8.05,-4.51
1424,150634785,0.4561,-0.6851,0.6753,3.96,8.17,-4.51
1425,150639787,0.4541,-0.6846,0.6899,4.09,8.29,-4.39
1426,150644818,0.4507,-0.6890,0.6875,4.21,8.48,-4.45
1427,150649787,0.4531,-0.6885,0.6855,4.21,8.72,-4.33
1428,150654787,0.4536,-0.6826,0.6885,4.15,8.84,-4.45
1429,150659786,0.4546,-0.6846,0.6885,3.96,8.78,-4.51
1430,150664788,0.4521,-0.6846,0.6909,3.84,8.78,-4.57
1431,150669787,0.4487,-0.6782,0.6943,3.66,8.90,-4.51
1432,150674785,0.4468,-0.6836,0.6978,3.41,8.84,-4.70
1433,150679789,0.4448,-0.6855,0.7041,3.17,9.02,-4.76
1434,150684786,0.4468,-0.6821,0.7036,2.80,8.96,-4.76
1435,150689787,0.4434,-0.6851,0.7051,2.68,8.96,-4.88
1436,150694786,0.4419,-0.6860,0.7090,2.50,8.90,-4.82
1437,150699787,0.4355,-0.6831,0.7124,2.38,8.84,-4.88
1438,150704786,0.4380,-0.6797,0.7070,2.20,8.84,-5.00
1439,150709787,0.4326,-0.6846,0.7104,2.01,8.90,-4.94
1440,150714786,0.4326,-0.6885,0.7134,2.07,8.72,-5.00
1441,150719789,0.4321,-0.6870,0.7188,2.13,8.66,-5.12
1442,150724786,0.4326,-0.6904,0.7197,2.01,8.54,-5.12
1443,150729787,0.4355,-0.6836,0.7227,2.13,8.35,-5.06
1444,150734786,0.4336,-0.6851,0.7188,2.07,8.17,-5.06
1445,150739787,0.4316,-0.6890,0.7280,2.01,8.05,-5.12
1446,150744786,0.4375,-0.6846,0.7217,2.01,8.05,-5.06
1447,150749787,0.4385,-0.6836,0.7231,1.95,7.87,-5.12
1448,150754786,0.4360,-0.6885,0.7266,2.01,7.56,-5.24
1449,150759789,0.4336,-0.6851,0.7319,2.13,7.44,-5.30
1450,150764790,0.4331,-0.6816,0.7271,2.20,7.20,-5.24
1451,150769902,0.4355,-0.6792,0.7290,2.26,6.89,-5.43
1452,150774788,0.4390,-0.6797,0.7354,2.26,6.71,-5.55
1453,150779786,0.4375,-0.6792,0.7329,2.32,6.52,-5.61
1454,150784786,0.4355,-0.6816,0.7358,2.38,6.22,-5.67
1455,150789785,0.4395,-0.6792,0.7358,2.38,5.85,-5.85
1456,150794789,0.4404,-0.6812,0.7354,2.38,5.55,-5.91
1457,150799786,0.4380,-0.6836,0.7412,2.44,5.37,-6.04
1458,150804788,0.4399,-0.6821,0.7368,2.38,5.00,-6.04
1459,150809787,0.4429,-0.6846,0.7407,2.38,4.57,-6.22
1460,150814785,0.4478,-0.6836,0.7480,2.38,4.27,-6.22
1461,150819789,0.4453,-0.6846,0.7485,2.20,3.84,-6.34
1462,150824786,0.4468,-0.6890,0.7539,2.13,3.35,-6.40
1463,150829789,0.4473,-0.6880,0.7554,2.07,2.99,-6.34
1464,150835105,0.4404,-0.6919,0.7578,1.95,2.26,-6.59
1465,150839789,0.4380,-0.6909,0.7607,1.83,1.95,-6.52
1466,150844785,0.4380,-0.6919,0.7627,1.83,1.34,-6.77
1467,150849789,0.4370,-0.6938,0.7612,1.77,0.67,-6.89
1468,150855317,0.4385,-0.6890,0.7563,1.77,-0.06,-7.07
1469,150859789,0.4380,-0.6875,0.7617,1.95,-0.61,-7.13
1470,150864785,0.4404,-0.6860,0.7544,2.07,-1.22,-7.38
1471,150869787,0.4414,-0.6875,0.7632,2.26,-1.77,-7.50
1472,150874787,0.4487,-0.6841,0.7515,2.44,-2.32,-7.50
1473,150879785,0.4487,-0.6797,0.7544,2.44,-2.74,-7.56
1474,150884789,0.4492,-0.6748,0.7495,2.62,-3.17,-7.68
1475,150889787,0.4546,-0.6733,0.7490,2.68,-3.60,-7.74
1476,150894786,0.4492,-0.6655,0.7368,2.62,-4.09,-7.87
1477,150899787,0.4526,-0.6680,0.7363,2.56,-4.45,-7.80
1478,150904786,0.4492,-0.6636,0.7363,2.44,-4.63,-7.74
1479,150909787,0.4541,-0.6538,0.7339,2.07,-4.88,-7.68
1480,150914786,0.4570,-0.6528,0.7305,1.89,-5.06,-7.56
1481,150919787,0.4585,-0.6514,0.7285,1.46,-5.49,-7.56
1482,150924786,0.4565,-0.6489,0.7246,1.16,-5.67,-7.20
1483,150929787,0.4585,-0.6484,0.7314,0.98,-5.85,-7.01
1484,150934786,0.4590,-0.6470,0.7236,0.79,-6.16,-6.77
1485,150939872,0.4580,-0.6440,0.7207,0.73,-6.52,-6.52
1486,150944785,0.4614,-0.6406,0.7236,0.55,-6.65,-6.28
1487,150949787,0.4614,-0.6387,0.7168,0.73,-6.95,-5.91
1488,150955158,0.4600,-0.6401,0.7261,0.91,-7.26,-5.61
1489,150959789,0.4644,-0.6343,0.7222,0.98,-7.50,-5.30
1490,150964786,0.4653,-0.6362,0.7134,1.22,-7.62,-4.88
1491,150969787,0.4604,-0.6343,0.7148,1.59,-7.87,-4.51
1492,150974785,0.4619,-0.6323,0.7095,1.83,-7.87,-4.09
1493,150979788,0.4634,-0.6284,0.7085,2.01,-8.11,-3.78
1494,150984787,0.4619,-0.6245,0.7100,2.38,-8.17,-3.29
1495,150989787,0.4600,-0.6240,0.7080,2.62,-8.29,-2.87
1496,150994786,0.4595,-0.6230,0.7017,2.87,-8.23,-2.38
1497,150999787,0.4595,-0.6230,0.7075,3.17,-8.35,-1.95
1498,151004785,0.4624,-0.6196,0.6973,3.41,-8.35,-1.40
1499,151009785,0.4570,-0.6211,0.6938,3.60,-8.29,-0.98
1500,151014789,0.4590,-0.6152,0.6958,3.84,-8.29,-0.67
1501,151019786,0.4624,-0.6152,0.6899,3.90,-8.17,-0.18
1502,151024788,0.4604,-0.6172,0.6963,4.09,-8.05,0.24
1503,151029787,0.4609,-0.6196,0.6943,4.15,-8.11,0.73
1504,151034787,0.4600,-0.6201,0.6924,4.45,-8.05,1.10
1505,151039787,0.4600,-0.6191,0.6880,4.57,-7.87,1.59
1506,151044787,0.4644,-0.6167,0.6909,4.63,-7.56,2.01
1507,151049787,0.4668,-0.6196,0.6841,4.82,-7.38,2.38
1508,151054785,0.4644,-0.6191,0.6914,4.82,-7.20,2.74
1509,151059789,0.4614,-0.6240,0.6934,4.88,-7.07,3.17
1510,151064786,0.4600,-0.6240,0.6953,4.94,-6.77,3.54
1511,151069787,0.4624,-0.6250,0.6909,4.94,-6.77,3.90
1512,151074787,0.4614,-0.6245,0.6934,5.06,-6.65,4.15
1513,151079788,0.4658,-0.6289,0.6919,5.24,-6.34,4.51
1514,151084785,0.4634,-0.6294,0.6909,5.49,-6.28,4.70
1515,151089789,0.4668,-0.6357,0.6938,5.67,-6.10,5.00
1516,151095215,0.4648,-0.6348,0.6919,5.91,-6.04,5.24
1517,151099790,0.4609,-0.6348,0.6978,6.40,-5.79,5.49
1518,151104786,0.4683,-0.6348,0.6953,6.71,-5.67,5.67
1519,151109787,0.4668,-0.6343,0.6958,6.95,-5.43,5.91
1520,151114788,0.4683,-0.6367,0.6938,7.07,-5.43,6.10
1521,151119789,0.4658,-0.6387,0.6904,7.20,-5.24,6.40
1522,151124786,0.4634,-0.6392,0.6938,7.44,-5.18,6.46
1523,151129785,0.4634,-0.6426,0.6978,7.38,-4.88,6.65
1524,151134789,0.4663,-0.6421,0.7017,7.44,-4.57,6.77
1525,151139787,0.4673,-0.6450,0.6968,7.38,-4.57,6.83
1526,151144785,0.4648,-0.6426,0.6973,7.32,-4.39,6.95
1527,151149789,0.4648,-0.6499,0.7021,7.07,-4.27,7.13
1528,151154787,0.4634,-0.6465,0.6958,7.01,-4.27,7.32
1529,151159787,0.4663,-0.6484,0.6997,6.89,-4.21,7.26
1530,151164787,0.4673,-0.6489,0.6997,6.65,-3.96,7.38
1531,151169787,0.4683,-0.6558,0.7026,6.52,-3.84,7.44
1532,151174787,0.4668,-0.6567,0.7036,6.34,-3.72,7.62
1533,151179787,0.4639,-0.6572,0.7012,6.22,-3.60,7.44
1534,151184787,0.4644,-0.6553,0.7041,6.34,-3.60,7.68
1535,151189788,0.4624,-0.6602,0.7061,6.34,-3.54,7.68
1536,151194790,0.4614,-0.6611,0.7046,6.40,-3.54,7.74
1537,151199787,0.4609,-0.6660,0.7075,6.52,-3.66,7.80
1538,151204787,0.4619,-0.6694,0.7095,6.71,-3.54,7.80
1539,151209787,0.4580,-0.6699,0.7075,6.77,-3.48,7.93
1540,151214785,0.4546,-0.6709,0.7119,6.89,-3.54,7.87
1541,151219787,0.4570,-0.6743,0.7100,6.95,-3.54,7.93
1542,151224873,0.4531,-0.6729,0.7075,7.01,-3.60,7.74
1543,151229787,0.4565,-0.6738,0.7104,6.89,-3.78,7.68
1544,151234840,0.4546,-0.6772,0.7095,7.13,-3.78,7.62
1545,151239787,0.4536,-0.6816,0.7065,7.01,-3.90,7.56
1546,151244786,0.4536,-0.6812,0.7075,6.95,-3.90,7.44
1547,151249787,0.4541,-0.6826,0.7100,6.83,-3.96,7.38
1548,151254787,0.4551,-0.6865,0.7148,6.83,-3.96,7.20
1549,151259787,0.4565,-0.6826,0.7119,6.59,-3.90,7.07
1550,151264788,0.4570,-0.6890,0.7158,6.22,-4.02,6.83
1551,151269787,0.4521,-0.6865,0.7100,6.16,-3.96,6.77
1552,151274787,0.4575,-0.6895,0.7100,6.10,-3.96,6.34
1553,151279787,0.4565,-0.6846,0.7070,6.04,-3.96,6.22
1554,151284788,0.4541,-0.6875,0.7051,5.91,-4.09,5.85
1555,151289787,0.4565,-0.6924,0.7080,5.79,-3.90,5.67
1556,151294785,0.4575,-0.6948,0.7021,5.91,-3.90,5.49
1557,151299789,0.4575,-0.6909,0.7075,5.73,-4.02,5.12
1558,151304786,0.4556,-0.6938,0.7075,5.55,-3.90,5.00
1559,151309787,0.4595,-0.6929,0.7056,5.43,-3.84,4.76
1560,151314785,0.4580,-0.6938,0.7144,5.24,-3.84,4.39
1561,151319787,0.4580,-0.6958,0.7124,5.18,-3.78,4.15
1562,151324870,0.4561,-0.6948,0.6987,4.88,-3.90,3.90
1563,151329787,0.4546,-0.6958,0.7114,4.63,-4.02,3.54
1564,151334786,0.4575,-0.6934,0.7041,4.33,-4.02,3.35
1565,151339787,0.4536,-0.6958,0.7100,4.21,-4.02,3.05
1566,151344786,0.4619,-0.6953,0.7002,3.72,-4.15,2.74
1567,151349787,0.4609,-0.6963,0.7002,3.54,-4.09,2.38
1568,151354786,0.4585,-0.6924,0.7056,3.54,-4.33,2.07
1569,151359787,0.4585,-0.6963,0.7051,3.17,-4.15,1.77
1570,151364786,0.4619,-0.6919,0.7031,3.11,-4.27,1.59
1571,151369787,0.4629,-0.6899,0.7036,2.99,-4.27,1.52
1572,151374787,0.4609,-0.6860,0.6987,2.93,-4.09,1.34
1573,151379787,0.4644,-0.6865,0.6992,2.93,-4.21,1.04
1574,151384786,0.4614,-0.6812,0.6963,2.87,-4.21,0.91
1575,151389788,0.4629,-0.6758,0.6929,2.93,-4.21,0.85
1576,151394787,0.4619,-0.6748,0.6987,3.05,-3.96,0.79
1577,151399787,0.4590,-0.6758,0.6929,3.11,-3.96,0.73
1578,151404786,0.4619,-0.6714,0.6938,3.29,-3.90,0.61
1579,151409787,0.4580,-0.6729,0.6841,3.41,-3.66,0.61
1580,151414786,0.4609,-0.6719,0.6880,3.41,-3.41,0.67
1581,151419787,0.4595,-0.6650,0.6870,3.48,-3.35,0.55
1582,151424786,0.4575,-0.6655,0.6875,3.54,-3.05,0.55
1583,151429787,0.4556,-0.6646,0.6860,3.54,-2.93,0.55
1584,151434786,0.4551,-0.6626,0.6885,3.41,-2.80,0.49
1585,151439790,0.4551,-0.6606,0.6865,3.41,-2.50,0.61
1586,151444785,0.4570,-0.6626,0.6797,3.29,-2.20,0.55
1587,151449789,0.4541,-0.6665,0.6812,3.11,-2.07,0.73
1588,151454786,0.4541,-0.6631,0.6880,2.99,-1.83,0.79
1589,151459789,0.4595,-0.6606,0.6831,2.80,-1.77,0.73
1590,151464865,0.4585,-0.6641,0.6870,2.68,-1.52,0.85
1591,151469787,0.4585,-0.6611,0.6875,2.62,-1.22,1.04
1592,151474786,0.4580,-0.6562,0.6948,2.44,-1.10,0.98
1593,151479789,0.4604,-0.6592,0.6865,2.32,-0.79,1.16
1594,151484785,0.4634,-0.6597,0.6895,2.32,-0.73,1.10
1595,151489789,0.4688,-0.6621,0.6851,2.38,-0.49,1.16
1596,151494786,0.4688,-0.6567,0.6860,2.44,-0.18,1.22
1597,151499789,0.4712,-0.6553,0.6948,2.56,0.00,1.28
1598,151504820,0.4722,-0.6572,0.6807,2.68,0.06,1.40
1599,151509787,0.4722,-0.6572,0.6875,2.80,0.18,1.34
1600,151514786,0.4658,-0.6572,0.6816,3.05,0.43,1.34
1601,151519787,0.4673,-0.6621,0.6821,3.05,0.61,1.34
1602,151524786,0.4663,-0.6587,0.6938,3.17,0.85,1.40
1603,151529787,0.4648,-0.6636,0.6899,3.54,0.85,1.40
1604,151534786,0.4575,-0.6626,0.6909,3.60,1.22,1.46
1605,151539787,0.4546,-0.6626,0.6904,3.72,1.28,1.34
1606,151544787,0.4590,-0.6597,0.6816,3.60,1.46,1.40
1607,151549787,0.4561,-0.6660,0.6924,3.66,1.71,1.40
1608,151554786,0.4570,-0.6621,0.6904,3.60,1.89,1.40
1609,151559787,0.4521,-0.6670,0.6875,3.66,2.13,1.46
1610,151564785,0.4521,-0.6650,0.6899,3.41,2.26,1.40
1611,151569789,0.4546,-0.6641,0.6992,3.35,2.44,1.46
1612,151574786,0.4565,-0.6699,0.6958,3.17,2.56,1.40
1613,151579787,0.4580,-0.6709,0.6982,3.05,2.56,1.46
1614,151584785,0.4556,-0.6699,0.6982,2.87,2.50,1.40
1615,151589787,0.4600,-0.6694,0.7017,2.62,2.80,1.40
1616,151594786,0.4619,-0.6724,0.7041,2.50,2.68,1.40
1617,151599787,0.4614,-0.6738,0.7041,2.38,2.74,1.34
1618,151604785,0.4634,-0.6719,0.7085,2.32,2.68,1.22
1619,151609789,0.4624,-0.6743,0.7095,2.26,2.74,1.16
1620,151614786,0.4648,-0.6729,0.7139,2.07,2.62,1.10
1621,151619787,0.4668,-0.6738,0.7144,2.13,2.62,1.04
1622,151624786,0.4668,-0.6753,0.7070,2.13,2.50,0.98
1623,151629787,0.4678,-0.6758,0.7124,2.01,2.50,0.91
1624,151634786,0.4629,-0.6758,0.7100,2.13,2.50,0.79
1625,151639787,0.4609,-0.6729,0.7148,2.32,2.50,0.73
1626,151644787,0.4614,-0.6743,0.7104,2.32,2.50,0.61
1627,151649787,0.4604,-0.6748,0.7080,2.44,2.50,0.61
1628,151654786,0.4609,-0.6797,0.7144,2.62,2.56,0.37
1629,151659787,0.4604,-0.6768,0.7153,2.87,2.44,0.30
1630,151664785,0.4609,-0.6782,0.7129,2.93,2.50,0.24
1631,151669920,0.4580,-0.6777,0.7163,3.05,2.32,0.06
1632,151674839,0.4546,-0.6772,0.7129,3.11,2.20,0.00
1633,151679787,0.4580,-0.6772,0.7202,3.17,2.07,-0.12
1634,151684787,0.4551,-0.6777,0.7212,3.29,2.07,-0.24
1635,151689786,0.4536,-0.6797,0.7217,3.17,1.89,-0.37
1636,151694788,0.4565,-0.6792,0.7197,3.23,1.83,-0.43
1637,151699787,0.4595,-0.6748,0.7231,3.05,1.65,-0.55
1638,151704785,0.4570,-0.6738,0.7256,2.93,1.59,-0.61
1639,151709789,0.4575,-0.6758,0.7217,2.68,1.52,-0.85
1640,151714786,0.4570,-0.6753,0.7266,2.74,1.46,-0.91
1641,151719787,0.4609,-0.6729,0.7202,2.56,1.40,-1.16
1642,151724787,0.4653,-0.6729,0.7207,2.50,1.28,-1.28
1643,151729787,0.4614,-0.6689,0.7109,2.44,1.22,-1.28
1644,151734786,0.4609,-0.6699,0.7183,2.32,1.10,-1.46
1645,151739787,0.4604,-0.6689,0.7148,2.38,1.22,-1.52
1646,151744786,0.4609,-0.6680,0.7163,2.38,1.10,-1.59
1647,151749787,0.4609,-0.6675,0.7280,2.44,1.22,-1.52
1648,151754786,0.4595,-0.6641,0.7183,2.50,0.85,-1.59
1649,151759787,0.4517,-0.6675,0.7192,2.50,0.79,-1.52
1650,151764786,0.4536,-0.6650,0.7144,2.56,0.85,-1.65
1651,151769787,0.4546,-0.6602,0.7119,2.68,0.79,-1.71
1652,151774785,0.4546,-0.6611,0.7173,2.62,1.04,-1.77
1653,151779789,0.4541,-0.6621,0.7129,2.74,0.79,-1.71
1654,151784786,0.4541,-0.6650,0.7144,2.80,0.79,-1.83
1655,151789787,0.4556,-0.6636,0.7119,2.68,0.85,-1.77
1656,151794786,0.4575,-0.6626,0.7158,2.74,0.91,-1.77
1657,151799787,0.4551,-0.6621,0.7085,2.80,0.91,-1.83
1658,151804785,0.4565,-0.6577,0.7158,2.68,1.04,-1.77
1659,151809785,0.4585,-0.6587,0.7188,2.62,1.10,-1.83
1660,151814789,0.4600,-0.6611,0.7188,2.62,1.16,-1.89
1661,151819786,0.4609,-0.6611,0.7095,2.62,1.16,-1.89
1662,151824787,0.4604,-0.6572,0.7153,2.50,1.28,-1.89
1663,151829787,0.4541,-0.6602,0.7173,2.44,1.22,-2.01
1664,151834787,0.4590,-0.6592,0.7100,2.50,1.22,-1.95
1665,151839787,0.4609,-0.6602,0.7197,2.44,1.28,-1.95
1666,151844787,0.4575,-0.6592,0.7227,2.38,1.22,-1.89
1667,151849787,0.4585,-0.6602,0.7148,2.44,1.22,-1.89
1668,151854787,0.4604,-0.6611,0.7183,2.32,1.16,-1.95
1669,151859787,0.4629,-0.6606,0.7153,2.44,1.16,-1.95
1670,151864787,0.4668,-0.6558,0.7202,2.38,1.22,-1.95
1671,151869787,0.4595,-0.6572,0.7119,2.38,1.22,-1.95
1672,151874787,0.4570,-0.6572,0.7129,2.32,1.22,-1.95
1673,151879787,0.4590,-0.6519,0.7153,2.38,1.10,-1.89
1674,151884787,0.4653,-0.6523,0.7163,2.38,1.16,-1.83
1675,151889787,0.4600,-0.6523,0.7212,2.56,1.04,-1.89
1676,151895291,0.4556,-0.6514,0.7158,2.50,0.98,-1.83
1677,151899789,0.4580,-0.6528,0.7212,2.50,1.04,-1.71
1678,151904787,0.4609,-0.6489,0.7119,2.50,1.04,-1.77
1679,151909787,0.4570,-0.6470,0.7192,2.50,1.10,-1.65
1680,151914786,0.4600,-0.6523,0.7144,2.56,1.10,-1.59
1681,151919787,0.4590,-0.6494,0.7148,2.68,1.04,-1.46
1682,151924786,0.4541,-0.6489,0.7075,2.56,1.10,-1.34
1683,151929787,0.4565,-0.6489,0.7114,2.68,1.16,-1.28
1684,151935099,0.4570,-0.6475,0.7178,2.87,1.16,-1.22
1685,151939789,0.4546,-0.6479,0.7188,2.87,1.22,-1.04
1686,151944786,0.4546,-0.6470,0.7139,3.05,1.10,-0.98
1687,151949789,0.4585,-0.6499,0.7207,3.17,1.16,-0.85
1688,151954786,0.4580,-0.6460,0.7188,3.29,1.16,-0.73
1689,151959787,0.4590,-0.6499,0.7222,3.29,1.16,-0.79
1690,151964787,0.4629,-0.6528,0.7236,3.23,1.10,-0.67
1691,151969787,0.4629,-0.6479,0.7231,3.29,1.10,-0.67
1692,151974787,0.4644,-0.6514,0.7212,3.17,1.16,-0.55
1693,151979787,0.4663,-0.6504,0.7212,3.23,1.04,-0.55
1694,151985289,0.4639,-0.6533,0.7266,3.41,0.85,-0.49
1695,151989787,0.4639,-0.6523,0.7168,3.29,0.79,-0.43
1696,151994786,0.4639,-0.6538,0.7285,3.41,0.55,-0.43
1697,151999787,0.4629,-0.6504,0.7251,3.48,0.49,-0.30
1698,152004786,0.4629,-0.6528,0.7227,3.41,0.37,-0.30
1699,152009787,0.4600,-0.6514,0.7246,3.41,0.30,-0.18
1700,152014785,0.4639,-0.6499,0.7261,3.54,0.06,-0.18
1701,152019786,0.4580,-0.6509,0.7202,3.48,0.12,-0.12
1702,152024789,0.4614,-0.6523,0.7290,3.41,0.06,-0.12
1703,152029786,0.4585,-0.6519,0.7217,3.60,-0.12,-0.06
1704,152034787,0.4609,-0.6504,0.7251,3.60,-0.12,0.06
1705,152039787,0.4604,-0.6504,0.7217,3.60,-0.18,0.06
1706,152044788,0.4595,-0.6489,0.7251,3.72,-0.24,0.18
1707,152049787,0.4570,-0.6499,0.7197,3.66,-0.30,0.06
1708,152054788,0.4580,-0.6499,0.7285,3.66,-0.30,0.06
1709,152059787,0.4580,-0.6509,0.7207,3.66,-0.55,0.12
1710,152064787,0.4614,-0.6460,0.7246,3.78,-0.43,0.12
1711,152069787,0.4609,-0.6455,0.7227,3.60,-0.55,0.18
1712,152074788,0.4619,-0.6470,0.7280,3.60,-0.67,0.18
1713,152079786,0.4585,-0.6494,0.7183,3.60,-0.67,0.30
1714,152084786,0.4595,-0.6489,0.7241,3.60,-0.85,0.43
1715,152089789,0.4629,-0.6445,0.7266,3.48,-0.73,0.37
1716,152094787,0.4595,-0.6504,0.7236,3.35,-0.85,0.49
1717,152099787,0.4585,-0.6479,0.7217,3.35,-0.85,0.55
1718,152104788,0.4590,-0.6504,0.7163,3.29,-0.98,0.67
1719,152109786,0.4604,-0.6475,0.7261,3.11,-1.28,0.79
1720,152114788,0.4570,-0.6475,0.7227,3.17,-1.10,0.79
1721,152120007,0.4565,-0.6440,0.7183,2.93,-1.34,0.98
1722,152124787,0.4565,-0.6479,0.7241,2.80,-1.34,1.10
1723,152129786,0.4556,-0.6475,0.7261,2.68,-1.46,1.28
1724,152134785,0.4531,-0.6479,0.7256,2.50,-1.40,1.34
1725,152139787,0.4590,-0.6426,0.7236,2.50,-1.46,1.34
1726,152144787,0.4551,-0.6436,0.7236,2.38,-1.65,1.52
1727,152149787,0.4595,-0.6450,0.7158,2.32,-1.71,1.65
1728,152154785,0.4604,-0.6426,0.7197,2.38,-1.52,1.71
1729,152159789,0.4580,-0.6440,0.7227,2.44,-1.52,1.77
1730,152164786,0.4604,-0.6465,0.7231,2.50,-1.59,1.77
1731,152169787,0.4580,-0.6484,0.7207,2.50,-1.52,1.83
1732,152174786,0.4600,-0.6455,0.7261,2.68,-1.52,1.95
1733,152179787,0.4595,-0.6509,0.7188,2.93,-1.40,2.07
1734,152184950,0.4604,-0.6489,0.7222,3.05,-1.46,1.95
1735,152189787,0.4595,-0.6460,0.7197,3.17,-1.46,2.01
1736,152194789,0.4541,-0.6450,0.7207,3.23,-1.40,2.07
1737,152199787,0.4575,-0.6465,0.7222,3.23,-1.34,2.01
1738,152204786,0.4570,-0.6445,0.7236,3.41,-1.40,2.07
1739,152209787,0.4595,-0.6479,0.7227,3.48,-1.34,2.07
1740,152214787,0.4619,-0.6460,0.7163,3.41,-1.28,2.07
1741,152219787,0.4595,-0.6440,0.7173,3.54,-1.34,2.20
1742,152224788,0.4629,-0.6421,0.7207,3.41,-1.28,2.20
1743,152229787,0.4604,-0.6416,0.7227,3.60,-1.28,2.26
1744,152234787,0.4609,-0.6450,0.7173,3.60,-1.22,2.20
1745,152239787,0.4614,-0.6426,0.7168,3.48,-0.98,2.38
1746,152244785,0.4663,-0.6450,0.7231,3.48,-1.10,2.44
1747,152249789,0.4658,-0.6470,0.7202,3.48,-0.98,2.50
1748,152254786,0.4609,-0.6475,0.7148,3.54,-0.91,2.56
1749,152259789,0.4629,-0.6489,0.7192,3.54,-0.67,2.68
1750,152264786,0.4634,-0.6514,0.7144,3.66,-0.67,2.68
1751,152269787,0.4629,-0.6509,0.7197,3.66,-0.61,2.74
1752,152274786,0.4614,-0.6523,0.7192,3.72,-0.49,2.80
1753,152279787,0.4629,-0.6484,0.7104,3.78,-0.55,2.80
1754,152285120,0.4595,-0.6489,0.7251,3.78,-0.55,2.80
1755,152289787,0.4634,-0.6499,0.7222,3.78,-0.43,2.68
1756,152294787,0.4634,-0.6558,0.7207,3.84,-0.37,2.62
1757,152299786,0.4634,-0.6562,0.7158,3.84,-0.37,2.56
1758,152304787,0.4629,-0.6562,0.7222,3.96,-0.24,2.50
1759,152309786,0.4604,-0.6567,0.7144,4.09,-0.24,2.38
1760,152314787,0.4614,-0.6538,0.7178,4.15,-0.37,2.32
1761,152319785,0.4595,-0.6572,0.7222,4.15,-0.30,2.20
1762,152325053,0.4570,-0.6528,0.7231,4.15,-0.24,2.01
1763,152329787,0.4526,-0.6577,0.7231,4.27,-0.43,2.01
1764,152334786,0.4565,-0.6602,0.7197,4.15,-0.24,1.89
1765,152339787,0.4541,-0.6592,0.7290,4.15,-0.30,1.83
1766,152344787,0.4604,-0.6587,0.7222,3.90,-0.37,1.71
1767,152349786,0.4600,-0.6602,0.7280,3.84,-0.37,1.65
1768,152354787,0.4590,-0.6577,0.7256,3.66,-0.37,1.59
1769,152359787,0.4570,-0.6587,0.7227,3.66,-0.43,1.52
1770,152364787,0.4609,-0.6606,0.7202,3.54,-0.49,1.52
1771,152369787,0.4624,-0.6616,0.7236,3.35,-0.37,1.46
1772,152374787,0.4570,-0.6636,0.7222,3.23,-0.55,1.46
1773,152379787,0.4624,-0.6606,0.7295,3.29,-0.43,1.34
1774,152384787,0.4614,-0.6606,0.7197,3.29,-0.43,1.16
1775,152389787,0.4600,-0.6582,0.7227,3.11,-0.49,0.98
1776,152394787,0.4595,-0.6553,0.7241,2.99,-0.55,1.04
1777,152399787,0.4600,-0.6572,0.7207,2.93,-0.55,0.98
1778,152404787,0.4624,-0.6597,0.7222,2.80,-0.61,0.85
1779,152409786,0.4614,-0.6611,0.7251,2.80,-0.61,0.85
1780,152414787,0.4580,-0.6631,0.7188,2.68,-0.67,0.73
1781,152419786,0.4604,-0.6592,0.7246,2.50,-0.49,0.67
1782,152424787,0.4585,-0.6602,0.7192,2.32,-0.55,0.67
1783,152429786,0.4595,-0.6562,0.7173,2.07,-0.67,0.49
1784,152434787,0.4614,-0.6519,0.7231,1.95,-0.73,0.43
1785,152439786,0.4614,-0.6558,0.7256,1.71,-0.67,0.43
1786,152444787,0.4580,-0.6577,0.7222,1.65,-0.67,0.30
1787,152449787,0.4600,-0.6523,0.7236,1.46,-0.73,0.18
1788,152454787,0.4624,-0.6538,0.7266,1.46,-0.79,0.12
1789,152459785,0.4639,-0.6494,0.7236,1.52,-0.79,0.18
1790,152464787,0.4653,-0.6509,0.7236,1.46,-0.85,0.12
1791,152470231,0.4663,-0.6509,0.7236,1.46,-0.73,0.06
1792,152474789,0.4634,-0.6484,0.7241,1.59,-0.85,0.00
1793,152479841,0.4658,-0.6470,0.7153,1.71,-0.91,0.00
1794,152484785,0.4639,-0.6436,0.7163,2.01,-0.73,0.06
1795,152489797,0.4668,-0.6416,0.7168,1.95,-0.55,0.18
1796,152494786,0.4614,-0.6450,0.7197,2.20,-0.67,0.18
1797,152499788,0.4600,-0.6475,0.7256,2.32,-0.49,0.24
1798,152504787,0.4658,-0.6445,0.7212,2.38,-0.49,0.30
1799,152509787,0.4614,-0.6396,0.7129,2.38,-0.30,0.49
1800,152514787,0.4585,-0.6426,0.7178,2.44,-0.37,0.55
1801,152519785,0.4600,-0.6416,0.7212,2.38,-0.24,0.67
1802,152524785,0.4624,-0.6475,0.7202,2.26,-0.06,0.67
1803,152529788,0.4624,-0.6445,0.7207,2.20,-0.12,0.67
1804,152534787,0.4561,-0.6431,0.7158,2.07,-0.18,0.79
1805,152539787,0.4580,-0.6450,0.7178,2.01,-0.06,0.85
1806,152544787,0.4609,-0.6465,0.7266,1.89,-0.06,0.85
1807,152549788,0.4653,-0.6489,0.7202,1.71,-0.18,0.85
1808,152554787,0.4585,-0.6470,0.7285,1.71,0.00,0.98
1809,152559785,0.4619,-0.6440,0.7231,1.65,-0.12,0.98
1810,152564788,0.4585,-0.6436,0.7266,1.65,0.00,0.91
1811,152569787,0.4590,-0.6455,0.7231,1.59,-0.24,0.98
1812,152574790,0.4619,-0.6460,0.7261,1.71,-0.18,0.98
1813,152580002,0.4629,-0.6465,0.7197,1.95,-0.12,1.04
1814,152584785,0.4585,-0.6455,0.7271,1.95,0.00,1.10
1815,152589787,0.4624,-0.6436,0.7231,2.13,0.00,1.04
1816,152594787,0.4595,-0.6416,0.7202,2.26,0.12,0.98
1817,152599787,0.4629,-0.6416,0.7217,2.44,0.18,0.98
1818,152604787,0.4619,-0.6436,0.7178,2.50,0.30,0.98
1819,152609787,0.4614,-0.6431,0.7217,2.68,0.37,0.98
1820,152614787,0.4609,-0.6421,0.7251,2.62,0.43,0.91
1821,152619786,0.4644,-0.6436,0.7266,2.62,0.37,0.98
1822,152624787,0.4619,-0.6416,0.7251,2.68,0.43,0.98
1823,152629786,0.4634,-0.6484,0.7261,2.56,0.49,0.98
1824,152634787,0.4653,-0.6455,0.7285,2.62,0.43,1.04
1825,152639786,0.4653,-0.6416,0.7246,2.68,0.37,1.10
1826,152644787,0.4629,-0.6479,0.7266,2.68,0.37,1.04
1827,152649786,0.4619,-0.6509,0.7280,2.68,0.37,1.10
1828,152654787,0.4614,-0.6509,0.7197,2.68,0.24,1.10
1829,152659787,0.4624,-0.6494,0.7295,2.87,0.24,1.22
1830,152664787,0.4604,-0.6455,0.7227,2.99,0.30,1.16
1831,152669786,0.4624,-0.6499,0.7266,3.05,0.12,1.22
1832,152674787,0.4624,-0.6504,0.7305,3.17,0.24,1.16
1833,152679786,0.4604,-0.6523,0.7290,3.17,0.00,1.22
1834,152684787,0.4639,-0.6504,0.7300,3.11,-0.12,1.34
1835,152689787,0.4624,-0.6499,0.7305,3.23,-0.18,1.40
1836,152694787,0.4595,-0.6504,0.7275,3.11,-0.06,1.34
1837,152699786,0.4565,-0.6538,0.7251,2.99,-0.06,1.46
1838,152704787,0.4624,-0.6523,0.7285,2.87,-0.12,1.46
1839,152709786,0.4590,-0.6543,0.7305,2.80,-0.30,1.40
1840,152714787,0.4604,-0.6538,0.7329,2.62,-0.37,1.40
1841,152719786,0.4575,-0.6543,0.7339,2.44,-0.43,1.34
1842,152724787,0.4648,-0.6514,0.7324,2.26,-0.49,1.28
1843,152729785,0.4668,-0.6538,0.7300,2.13,-0.67,1.34
1844,152734786,0.4619,-0.6572,0.7314,2.01,-0.79,1.28
1845,152739787,0.4624,-0.6558,0.7368,2.01,-1.04,1.16
1846,152744786,0.4619,-0.6592,0.7383,1.89,-1.22,1.04
1847,152749788,0.4619,-0.6597,0.7422,1.89,-1.22,1.10
1848,152754787,0.4609,-0.6621,0.7402,2.13,-1.46,1.04
1849,152759787,0.4590,-0.6655,0.7334,2.13,-1.71,0.79
1850,152764788,0.4604,-0.6631,0.7339,2.32,-1.83,0.85
1851,152769785,0.4609,-0.6636,0.7368,2.44,-1.95,0.73
1852,152774787,0.4634,-0.6621,0.7344,2.62,-2.13,0.73
1853,152779787,0.4634,-0.6631,0.7358,2.74,-2.38,0.55
1854,152784786,0.4590,-0.6655,0.7310,2.68,-2.38,0.37
1855,152789787,0.4595,-0.6670,0.7329,2.68,-2.38,0.37
1856,152794789,0.4580,-0.6562,0.7319,2.68,-2.56,0.18
1857,152799786,0.4575,-0.6631,0.7344,2.56,-2.68,0.12
1858,152804787,0.4595,-0.6606,0.7290,2.38,-2.68,-0.12
1859,152809786,0.4585,-0.6611,0.7241,2.20,-2.87,-0.24
1860,152814789,0.4604,-0.6567,0.7246,2.26,-2.93,-0.49
1861,152819786,0.4570,-0.6587,0.7163,2.01,-2.74,-0.43
1862,152824787,0.4595,-0.6533,0.7266,1.83,-2.68,-0.43
1863,152829785,0.4595,-0.6533,0.7222,1.71,-2.68,-0.61
1864,152834787,0.4624,-0.6533,0.7183,1.77,-2.56,-0.67
1865,152839786,0.4590,-0.6519,0.7207,1.71,-2.62,-0.67
1866,152844787,0.4570,-0.6489,0.7217,1.59,-2.62,-0.67
1867,152849786,0.4575,-0.6460,0.7173,1.65,-2.44,-0.73
1868,152854789,0.4580,-0.6455,0.7148,1.71,-2.50,-0.73
1869,152859786,0.4575,-0.6445,0.7124,1.65,-2.44,-0.73
1870,152864789,0.4609,-0.6450,0.7139,1.77,-2.38,-0.73
1871,152869917,0.4634,-0.6401,0.7104,1.89,-2.13,-0.73
1872,152874789,0.4619,-0.6392,0.7065,2.07,-2.13,-0.67
1873,152879786,0.4609,-0.6367,0.7144,2.07,-1.95,-0.55
1874,152884787,0.4609,-0.6387,0.7153,2.38,-1.71,-0.43
1875,152889786,0.4639,-0.6401,0.7114,2.38,-1.59,-0.49
1876,152894787,0.4604,-0.6372,0.7109,2.26,-1.40,-0.30
1877,152899786,0.4614,-0.6382,0.7114,2.56,-1.10,-0.18
1878,152904787,0.4614,-0.6411,0.7080,2.50,-0.91,0.00
1879,152909786,0.4644,-0.6353,0.7065,2.50,-0.49,0.12
1880,152914787,0.4629,-0.6333,0.7036,2.68,-0.55,0.18
1881,152919786,0.4668,-0.6396,0.7104,2.68,-0.24,0.37
1882,152924788,0.4639,-0.6357,0.7085,2.74,-0.30,0.37
1883,152929785,0.4673,-0.6353,0.7109,2.68,0.12,0.49
1884,152934786,0.4629,-0.6377,0.7046,2.80,0.18,0.61
1885,152939787,0.4634,-0.6372,0.7095,2.93,0.30,0.67
1886,152944787,0.4653,-0.6382,0.7114,2.93,0.55,0.73
1887,152949786,0.4678,-0.6377,0.7095,2.99,0.49,0.73
1888,152954787,0.4639,-0.6372,0.7119,2.99,0.55,0.79
1889,152959786,0.4683,-0.6343,0.7031,3.17,0.79,0.91
1890,152964787,0.4663,-0.6367,0.7046,3.05,1.10,0.91
1891,152969786,0.4600,-0.6367,0.7158,3.11,1.16,0.98
1892,152974787,0.4619,-0.6362,0.7148,2.93,1.16,0.91
1893,152979907,0.4619,-0.6406,0.7114,3.05,1.52,1.04
1894,152984789,0.4629,-0.6396,0.7148,2.87,1.65,0.98
1895,152989786,0.4600,-0.6401,0.7197,2.74,1.71,1.10
1896,152994787,0.4629,-0.6396,0.7144,2.80,1.83,1.10
1897,152999786,0.4663,-0.6401,0.7197,2.62,1.77,1.04
1898,153004787,0.4609,-0.6411,0.7188,2.56,2.01,1.16
1899,153009786,0.4580,-0.6475,0.7148,2.50,1.95,1.22
1900,153014787,0.4590,-0.6426,0.7188,2.44,2.01,1.28
1901,153019787,0.4585,-0.6426,0.7188,2.32,2.07,1.28
1902,153024787,0.4639,-0.6455,0.7188,2.32,2.07,1.34
1903,153029786,0.4614,-0.6406,0.7241,2.32,2.07,1.46
1904,153034787,0.4634,-0.6445,0.7251,2.20,2.13,1.52
1905,153039785,0.4639,-0.6436,0.7202,2.13,2.20,1.52
1906,153044787,0.4600,-0.6465,0.7231,2.07,2.07,1.71
1907,153049786,0.4624,-0.6431,0.7275,2.01,2.20,1.65
1908,153054787,0.4614,-0.6421,0.7266,2.01,2.13,1.65
1909,153059786,0.4604,-0.6436,0.7251,1.89,1.95,1.77
1910,153064787,0.4624,-0.6445,0.7300,1.77,1.95,1.71
1911,153069786,0.4644,-0.6440,0.7246,1.77,1.89,1.71
1912,153074787,0.4600,-0.6455,0.7222,1.83,1.95,1.65
1913,153079786,0.4619,-0.6426,0.7314,1.77,1.71,1.71
1914,153084787,0.4580,-0.6460,0.7275,1.83,1.77,1.77
1915,153089786,0.4619,-0.6460,0.7271,1.95,1.71,1.89
1916,153094788,0.4604,-0.6416,0.7280,2.13,1.65,1.83
1917,153099787,0.4629,-0.6436,0.7329,2.32,1.59,2.01
1918,153104788,0.4644,-0.6396,0.7319,2.44,1.46,2.01
1919,153109787,0.4668,-0.6460,0.7280,2.56,1.46,1.95
1920,153114887,0.4648,-0.6416,0.7290,2.62,1.40,1.95
1921,153119789,0.4619,-0.6484,0.7300,2.62,1.40,2.20
1922,153124786,0.4629,-0.6436,0.7319,2.93,1.52,2.07
1923,153129787,0.4570,-0.6479,0.7339,2.80,1.46,2.20
1924,153134800,0.4619,-0.6470,0.7280,2.87,1.52,2.26
1925,153139787,0.4658,-0.6509,0.7295,2.87,1.46,2.26
1926,153144787,0.4580,-0.6514,0.7290,2.80,1.59,2.13
1927,153149787,0.4565,-0.6514,0.7329,2.87,1.59,2.32
1928,153154786,0.4590,-0.6528,0.7334,2.87,1.59,2.26
1929,153159787,0.4600,-0.6519,0.7329,2.74,1.65,2.26
1930,153164788,0.4585,-0.6533,0.7349,2.68,1.65,2.13
1931,153169787,0.4580,-0.6597,0.7285,2.87,1.59,2.07
1932,153174788,0.4600,-0.6597,0.7354,2.74,1.71,2.01
1933,153179788,0.4575,-0.6699,0.7334,2.93,1.65,1.89
1934,153184789,0.4600,-0.6704,0.7305,3.05,1.83,1.71
1935,153189785,0.4624,-0.6714,0.7324,3.29,1.95,1.52
1936,153194790,0.4644,-0.6787,0.7300,3.41,1.83,1.04
1937,153199788,0.4663,-0.6782,0.7290,3.35,2.13,0.67
1938,153204785,0.4673,-0.6826,0.7310,3.41,2.13,0.30
1939,153209789,0.4634,-0.6841,0.7329,3.48,2.32,-0.12
1940,153214786,0.4614,-0.6865,0.7402,3.48,2.50,-0.67
1941,153219787,0.4570,-0.6880,0.7441,3.48,2.56,-1.16
1942,153224788,0.4526,-0.6890,0.7490,3.35,2.62,-1.77
1943,153229787,0.4531,-0.6953,0.7432,3.17,2.74,-2.32
1944,153234785,0.4482,-0.6958,0.7466,3.29,3.05,-2.74
1945,153239787,0.4429,-0.6904,0.7515,3.11,2.93,-3.17
1946,153244787,0.4438,-0.6934,0.7461,2.99,2.99,-3.72
1947,153249789,0.4385,-0.6934,0.7437,2.80,3.05,-4.27
1948,153254786,0.4375,-0.6880,0.7490,2.74,3.05,-4.88
1949,153259787,0.4360,-0.6875,0.7471,2.56,3.05,-5.43
1950,153264787,0.4370,-0.6895,0.7505,2.50,2.99,-5.98
1951,153269787,0.4346,-0.6846,0.7544,2.20,2.87,-6.52
1952,153274788,0.4365,-0.6821,0.7524,1.95,2.74,-7.01
1953,153279785,0.4390,-0.6831,0.7490,1.59,2.87,-7.56
1954,153284787,0.4404,-0.6782,0.7485,1.40,2.74,-8.17
1955,153289786,0.4419,-0.6772,0.7554,0.91,2.80,-8.66
1956,153294787,0.4453,-0.6768,0.7471,0.61,2.80,-9.02
1957,153299787,0.4458,-0.6724,0.7437,0.12,2.80,-9.45
1958,153304787,0.4443,-0.6719,0.7471,-0.24,2.87,-9.70
1959,153309786,0.4429,-0.6733,0.7427,-0.73,2.80,-9.94
1960,153314787,0.4424,-0.6660,0.7441,-0.98,2.74,-10.30
1961,153319785,0.4424,-0.6694,0.7505,-1.40,2.87,-10.55
1962,153324787,0.4419,-0.6621,0.7407,-1.83,2.80,-10.73
1963,153329786,0.4365,-0.6548,0.7417,-2.32,2.80,-11.04
1964,153334788,0.4365,-0.6543,0.7466,-2.38,2.93,-11.22
1965,153339785,0.4321,-0.6514,0.7471,-2.87,2.87,-11.34
1966,153344787,0.4316,-0.6460,0.7363,-3.48,2.87,-11.46
1967,153349786,0.4312,-0.6460,0.7378,-3.72,2.87,-11.71
1968,153354789,0.4355,-0.6431,0.7422,-4.09,2.99,-11.89
1969,153359841,0.4355,-0.6421,0.7383,-4.21,3.11,-12.07
1970,153364789,0.4414,-0.6396,0.7363,-4.51,3.11,-11.95
1971,153369786,0.4399,-0.6406,0.7339,-4.63,3.29,-12.20
1972,153374789,0.4365,-0.6372,0.7417,-4.76,3.48,-12.07
1973,153380329,0.4409,-0.6382,0.7363,-4.76,3.78,-12.13
1974,153384787,0.4453,-0.6343,0.7349,-4.57,3.84,-11.89
1975,153389786,0.4478,-0.6411,0.7314,-4.51,3.84,-12.01
1976,153394787,0.4521,-0.6309,0.7271,-4.27,4.15,-12.01
1977,153399786,0.4502,-0.6338,0.7354,-3.96,4.15,-11.77
1978,153404787,0.4526,-0.6348,0.7368,-3.60,4.09,-11.83
1979,153409785,0.4531,-0.6382,0.7417,-3.29,4.21,-11.65
1980,153414787,0.4575,-0.6377,0.7461,-3.11,4.09,-11.52
1981,153419787,0.4595,-0.6406,0.7471,-2.93,4.21,-11.40
1982,153424789,0.4619,-0.6382,0.7539,-2.74,3.96,-11.34
1983,153429786,0.4585,-0.6416,0.7554,-2.80,4.02,-11.34
1984,153434788,0.4585,-0.6440,0.7603,-2.87,3.72,-11.28
1985,153439785,0.4614,-0.6445,0.7627,-2.99,3.66,-11.22
1986,153444789,0.4609,-0.6455,0.7695,-3.29,3.48,-11.22
1987,153449786,0.4604,-0.6494,0.7759,-3.54,3.29,-11.34
1988,153454787,0.4590,-0.6543,0.7710,-3.84,3.23,-11.28
1989,153459786,0.4565,-0.6504,0.7773,-4.21,2.99,-11.52
1990,153464789,0.4536,-0.6543,0.7778,-4.57,2.87,-11.71
1991,153469785,0.4521,-0.6582,0.7759,-4.88,2.80,-11.71
1992,153474789,0.4580,-0.6553,0.7788,-5.18,2.68,-11.83
1993,153479786,0.4565,-0.6567,0.7783,-5.61,2.38,-12.13
1994,153484787,0.4619,-0.6567,0.7793,-5.73,2.26,-12.13
1995,153489785,0.4590,-0.6572,0.7827,-6.04,1.89,-12.32
1996,153494787,0.4585,-0.6562,0.7852,-6.22,1.59,-12.38
1997,153499786,0.4609,-0.6567,0.7837,-6.46,1.40,-12.68
1998,153504789,0.4546,-0.6592,0.7891,-6.77,1.04,-12.56
1999,153509785,0.4570,-0.6562,0.7915,-6.77,0.73,-12.68
2000,153514787,0.4502,-0.6562,0.7939,-7.01,0.61,-12.74
2001,153519803,0.4561,-0.6553,0.8008,-7.01,0.37,-12.87
2002,153524787,0.4492,-0.6528,0.8008,-7.32,0.12,-12.99
2003,153529787,0.4458,-0.6499,0.8013,-7.26,-0.12,-13.17
2004,153534787,0.4458,-0.6509,0.7988,-7.56,-0.49,-13.35
2005,153539786,0.4458,-0.6470,0.7998,-7.62,-0.67,-13.60
2006,153544787,0.4434,-0.6460,0.8003,-7.62,-0.98,-13.84
2007,153549785,0.4443,-0.6465,0.8013,-7.62,-1.34,-14.33
2008,153554787,0.4443,-0.6450,0.8076,-7.50,-1.46,-14.70
2009,153559787,0.4453,-0.6470,0.8013,-7.38,-1.89,-15.24
2010,153564787,0.4434,-0.6479,0.8066,-7.20,-2.20,-15.79
2011,153569841,0.4424,-0.6465,0.8086,-6.77,-2.56,-16.28
2012,153574787,0.4429,-0.6470,0.7974,-6.28,-2.93,-16.77
2013,153579786,0.4326,-0.6470,0.8037,-5.91,-3.35,-17.32
2014,153584787,0.4341,-0.6426,0.8027,-5.37,-3.72,-17.80
2015,153589972,0.4336,-0.6436,0.7998,-4.63,-4.45,-18.29
2016,153594787,0.4292,-0.6475,0.8003,-4.21,-4.76,-18.48
2017,153599786,0.4272,-0.6455,0.7964,-3.54,-5.43,-18.66
2018,153604787,0.4253,-0.6460,0.7910,-3.17,-5.91,-18.66
2019,153609785,0.4214,-0.6416,0.7822,-2.80,-6.59,-18.60
2020,153614787,0.4155,-0.6387,0.7915,-2.74,-7.20,-18.48
2021,153619786,0.4146,-0.6387,0.7764,-2.74,-7.68,-18.29
2022,153624787,0.4131,-0.6333,0.7725,-3.05,-8.17,-17.93
2023,153629785,0.4131,-0.6343,0.7676,-3.48,-8.72,-17.68
2024,153634787,0.4150,-0.6294,0.7603,-4.21,-9.15,-17.32
2025,153639786,0.4136,-0.6270,0.7578,-5.06,-9.45,-16.95
2026,153644787,0.4141,-0.6255,0.7578,-6.34,-9.76,-16.65
2027,153649785,0.4238,-0.6206,0.7461,-7.74,-9.88,-16.22
2028,153654787,0.4214,-0.6182,0.7397,-9.51,-9.88,-15.98
2029,153660217,0.4272,-0.6167,0.7305,-11.77,-9.88,-15.49
2030,153664787,0.4312,-0.6089,0.7300,-13.48,-9.88,-15.37
2031,153670270,0.4355,-0.6055,0.7227,-16.10,-9.76,-15.06
2032,153674787,0.4419,-0.6104,0.7202,-17.93,-9.82,-14.76
2033,153679786,0.4453,-0.6025,0.7231,-20.30,-9.88,-14.45
2034,153684787,0.4497,-0.6050,0.7134,-22.56,-10.00,-14.15
2035,153689785,0.4468,-0.5991,0.7183,-24.94,-10.18,-13.72
2036,153694787,0.4468,-0.6030,0.7217,-27.07,-10.37,-13.35
2037,153700134,0.4448,-0.6040,0.7178,-28.96,-10.67,-12.80
2038,153704787,0.4424,-0.6021,0.7202,-30.85,-11.22,-12.32
2039,153709786,0.4453,-0.6050,0.7231,-32.68,-11.65,-11.65
2040,153714787,0.4858,-0.5522,0.7134,-33.84,-12.44,-11.16
2041,153719786,0.4590,-0.6040,0.7324,-34.27,-12.93,-10.55
2042,153724787,0.4233,-0.6187,0.7129,-34.45,-13.48,-9.57
2043,153729785,0.4116,-0.6030,0.7192,-34.82,-14.15,-8.60
2044,153734787,0.4351,-0.6025,0.7388,-34.82,-14.33,-7.87
2045,153739786,0.4595,-0.6021,0.7314,-34.51,-14.76,-7.07
2046,153744788,0.4619,-0.6060,0.7192,-34.21,-15.12,-6.22
2047,153749785,0.4507,-0.6040,0.7183,-33.84,-15.43,-5.49
2048,153754787,0.4463,-0.5957,0.7275,-33.60,-15.67,-4.82
2049,153759786,0.4473,-0.6021,0.7271,-33.29,-15.73,-4.21
2050,153764787,0.4512,-0.6025,0.7256,-32.99,-15.98,-3.60
2051,153769785,0.4609,-0.6016,0.7251,-32.50,-16.10,-2.99
2052,153774886,0.4541,-0.6016,0.7222,-32.07,-16.34,-2.50
2053,153779786,0.4531,-0.6064,0.7251,-31.59,-16.59,-1.89
2054,153784787,0.4517,-0.6162,0.7295,-31.10,-16.77,-1.46
2055,153789785,0.4561,-0.6162,0.7290,-30.49,-17.01,-1.04
2056,153794785,0.4575,-0.6187,0.7314,-29.88,-17.20,-0.61
2057,153799789,0.4600,-0.6294,0.7368,-29.21,-17.56,-0.24
2058,153804786,0.4585,-0.6372,0.7407,-28.41,-17.80,0.00
2059,153809787,0.4580,-0.6436,0.7427,-27.87,-18.23,0.24
2060,153814787,0.4565,-0.6499,0.7500,-27.07,-18.72,0.49
2061,153819787,0.4585,-0.6577,0.7480,-26.34,-19.09,0.55
2062,153824787,0.4561,-0.6621,0.7441,-25.73,-19.51,0.67
2063,153829787,0.4609,-0.6748,0.7549,-25.06,-19.94,0.73
2064,153834787,0.4600,-0.6816,0.7520,-24.63,-20.24,0.61
2065,153839788,0.4580,-0.6875,0.7622,-23.96,-20.49,0.37
2066,153844787,0.4629,-0.7002,0.7617,-23.60,-20.91,0.37
2067,153849853,0.4644,-0.7124,0.7622,-23.23,-21.22,0.06
2068,153854787,0.4634,-0.7178,0.7656,-23.05,-21.77,-0.43
2069,153859985,0.4624,-0.7202,0.7676,-22.87,-22.26,-0.85
2070,153864787,0.4688,-0.7314,0.7700,-22.80,-22.87,-1.46
2071,153869786,0.4678,-0.7407,0.7705,-22.87,-23.23,-2.07
2072,153874787,0.4692,-0.7505,0.7671,-22.87,-23.60,-2.68
2073,153879785,0.4653,-0.7539,0.7690,-22.80,-24.15,-3.54
2074,153884787,0.4707,-0.7598,0.7729,-22.99,-24.63,-4.39
2075,153889786,0.4731,-0.7563,0.7729,-23.29,-25.24,-5.30
2076,153894785,0.4761,-0.7583,0.7715,-23.72,-25.67,-6.10
2077,153899787,0.4785,-0.7612,0.7676,-24.02,-26.16,-7.13
2078,153904787,0.4883,-0.7573,0.7690,-24.51,-26.52,-8.29
2079,153909786,0.4961,-0.7539,0.7832,-24.70,-26.77,-9.39
2080,153914787,0.4839,-0.7866,0.7466,-24.39,-27.01,-10.30
2081,153919787,0.4868,-0.7651,0.7017,-24.51,-27.56,-11.22
2082,153924787,0.4878,-0.7495,0.7344,-25.24,-27.93,-12.32
2083,153929786,0.4985,-0.7539,0.7646,-26.04,-27.87,-13.41
2084,153934787,0.5176,-0.7627,0.7646,-26.65,-27.62,-14.27
2085,153939785,0.5312,-0.7651,0.7466,-26.83,-27.32,-15.37
2086,153944787,0.5337,-0.7656,0.7402,-27.13,-27.20,-16.34
2087,153949786,0.5342,-0.7690,0.7324,-27.20,-27.20,-17.20
2088,153954785,0.5430,-0.7686,0.7295,-26.95,-27.38,-18.05
2089,153959789,0.5464,-0.7695,0.7290,-26.52,-27.68,-19.09
2090,153964787,0.5586,-0.7720,0.7285,-26.04,-27.80,-20.12
2091,153969805,0.5547,-0.7734,0.7256,-25.49,-28.11,-20.98
2092,153974787,0.5620,-0.7817,0.7261,-24.76,-28.29,-22.01
2093,153979787,0.5693,-0.7803,0.7114,-23.90,-28.66,-22.80
2094,153984787,0.5688,-0.7744,0.7031,-22.87,-28.90,-23.84
2095,153989787,0.5747,-0.7710,0.6826,-21.95,-29.33,-24.94
2096,153994785,0.5850,-0.7661,0.6792,-20.98,-29.88,-25.98
2097,153999786,0.5908,-0.7627,0.6592,-20.00,-30.37,-27.07
2098,154004789,0.5962,-0.7568,0.6523,-18.96,-30.98,-28.35
2099,154009786,0.6113,-0.7539,0.6406,-18.05,-31.59,-29.51
2100,154014789,0.6167,-0.7505,0.6201,-17.01,-32.38,-30.91
2101,154019785,0.6240,-0.7510,0.6128,-16.10,-33.17,-32.38
2102,154024787,0.6313,-0.7485,0.5996,-15.49,-33.84,-33.60
2103,154029786,0.6387,-0.7529,0.5889,-14.39,-34.76,-35.00
2104,154034787,0.6436,-0.7520,0.5776,-13.72,-35.73,-36.71
2105,154039785,0.6475,-0.7480,0.5518,-12.68,-36.83,-38.35
2106,154044789,0.6592,-0.7476,0.5327,-12.07,-38.11,-40.06
2107,154049786,0.6748,-0.7700,0.5225,-11.46,-39.33,-41.59
2108,154054891,0.6929,-0.7500,0.4946,-10.85,-40.79,-42.99
2109,154059785,0.7173,-0.7754,0.4912,-10.61,-41.71,-43.54
2110,154064789,0.7319,-0.7383,0.4526,-10.24,-42.74,-44.15
2111,154069786,0.7485,-0.7554,0.4541,-10.30,-43.48,-44.21
2112,154074787,0.7642,-0.7700,0.4233,-10.24,-44.15,-43.96
2113,154079785,0.7749,-0.7583,0.3691,-10.61,-45.00,-43.60
2114,154084787,0.7803,-0.7285,0.3496,-11.16,-45.43,-43.05
2115,154089786,0.7832,-0.6958,0.3501,-11.71,-45.91,-42.07
2116,154094787,0.7949,-0.6733,0.3184,-12.56,-46.22,-41.10
2117,154099785,0.7964,-0.6768,0.2778,-13.66,-46.46,-39.94
2118,154104789,0.7974,-0.6763,0.2739,-14.70,-46.83,-38.72
2119,154109787,0.8071,-0.6748,0.2627,-15.91,-47.20,-37.32
2120,154114787,0.8159,-0.6670,0.2378,-17.13,-47.26,-35.73
2121,154119787,0.8281,-0.6533,0.2188,-18.29,-47.38,-34.09
2122,154124790,0.8354,-0.6538,0.2065,-19.45,-47.44,-32.44
2123,154129785,0.8438,-0.6611,0.2002,-20.43,-47.62,-30.67
2124,154134789,0.8579,-0.6646,0.1870,-21.65,-47.62,-28.84
2125,154139786,0.8613,-0.6685,0.1758,-22.74,-47.80,-27.07
2126,154144789,0.8623,-0.6699,0.1797,-23.84,-48.11,-25.24
2127,154149786,0.8652,-0.6670,0.1694,-25.00,-48.17,-23.54
2128,154154916,0.8711,-0.6680,0.1626,-26.28,-48.35,-21.65
2129,154159827,0.8599,-0.6646,0.1509,-27.62,-48.54,-19.94
2130,154164889,0.8550,-0.6665,0.1519,-28.90,-48.84,-18.11
2131,154169787,0.8540,-0.6602,0.1426,-30.37,-49.09,-16.28
2132,154174787,0.8472,-0.6582,0.1333,-31.95,-49.33,-14.57
2133,154179787,0.8369,-0.6523,0.1260,-33.78,-49.76,-12.93
2134,154184787,0.8291,-0.6460,0.1265,-35.55,-49.94,-11.40
2135,154189786,0.8174,-0.6440,0.1216,-37.62,-50.37,-9.82
2136,154194790,0.8096,-0.6484,0.1118,-39.70,-50.67,-8.29
2137,154199787,0.8037,-0.6406,0.1113,-41.95,-51.10,-6.77
2138,154204787,0.7964,-0.6387,0.1055,-44.57,-51.34,-5.30
2139,154210338,0.7900,-0.6362,0.0942,-47.87,-51.59,-3.48
2140,154214787,0.7891,-0.6313,0.0928,-50.06,-51.89,-2.32
2141,154219786,0.7852,-0.6357,0.0898,-53.23,-51.95,-0.98
2142,154224786,0.7886,-0.6333,0.0913,-56.46,-51.95,0.61
2143,154229787,0.7876,-0.6396,0.0923,-59.70,-52.13,2.20
2144,154234786,0.7871,-0.6382,0.0913,-63.17,-51.89,3.90
2145,154239787,0.7891,-0.6387,0.0957,-66.65,-51.59,5.43
2146,154244788,0.7881,-0.6382,0.0894,-70.18,-51.22,7.13
2147,154249787,0.7842,-0.6372,0.0869,-73.90,-50.79,8.84
2148,154254787,0.7773,-0.6396,0.0898,-77.50,-50.43,10.49
2149,154259785,0.7769,-0.6362,0.0879,-81.46,-49.82,12.26
2150,154264787,0.7705,-0.6343,0.0879,-85.18,-49.02,13.96
2151,154269786,0.7661,-0.6284,0.0928,-89.21,-48.48,15.61
2152,154274787,0.7627,-0.6235,0.0879,-93.23,-47.56,17.32
2153,154279786,0.7559,-0.6265,0.0864,-97.13,-46.59,19.09
2154,154284787,0.7500,-0.6211,0.0854,-101.10,-45.73,20.85
2155,154289786,0.7510,-0.6274,0.0830,-104.88,-44.70,22.80
2156,154294787,0.7441,-0.6279,0.0874,-108.60,-43.72,24.70
2157,154299785,0.7437,-0.6289,0.0815,-111.89,-42.50,26.52
2158,154304785,0.7397,-0.6289,0.0820,-115.12,-41.40,28.60
2159,154309789,0.7363,-0.6265,0.0776,-117.87,-40.49,30.67
2160,154314786,0.7261,-0.6289,0.0752,-120.61,-39.15,32.68
2161,154319787,0.7222,-0.6289,0.0776,-122.87,-37.99,34.82
2162,154324787,0.7124,-0.6216,0.0752,-124.88,-37.01,36.71
2163,154329788,0.7158,-0.6230,0.0742,-126.40,-35.91,38.78
2164,154334787,0.7041,-0.6113,0.0571,-127.93,-34.88,40.91
2165,154339920,0.7119,-0.5952,0.0547,-129.21,-33.96,42.87
2166,154344789,0.7051,-0.5903,0.0396,-130.30,-33.05,44.70
2167,154349785,0.7065,-0.5830,0.0532,-131.28,-32.13,46.59
2168,154354788,0.7012,-0.5796,0.0640,-132.07,-31.04,48.41
2169,154359785,0.6963,-0.5767,0.0537,-132.80,-30.00,49.94
2170,154364786,0.6938,-0.5698,0.0508,-133.23,-28.96,51.65
2171,154369789,0.6909,-0.5664,0.0615,-133.60,-27.93,53.17
2172,154374787,0.6855,-0.5562,0.0605,-133.84,-26.83,54.63
2173,154379786,0.6831,-0.5547,0.0537,-133.60,-25.91,55.98
2174,154384787,0.6807,-0.5522,0.0562,-133.17,-24.82,57.26
2175,154389786,0.6709,-0.5562,0.0605,-132.50,-23.90,58.48
2176,154394787,0.6650,-0.5586,0.0547,-131.46,-22.87,59.70
2177,154399786,0.6611,-0.5605,0.0479,-130.18,-21.83,60.98
2178,154404787,0.6523,-0.5601,0.0474,-128.66,-20.98,62.13
2179,154409924,0.6523,-0.5576,0.0474,-126.83,-20.18,63.29
2180,154414787,0.6514,-0.5586,0.0430,-124.82,-19.57,64.39
2181,154419920,0.6733,-0.5088,0.0869,-122.38,-18.48,65.18
2182,154424787,0.8076,-0.2246,0.3892,-118.11,-13.90,62.99
2183,154429786,0.9023,-0.1011,0.4131,-110.98,-4.57,55.55
2184,154434787,0.8706,-0.2559,0.1621,-101.89,4.63,46.65
2185,154439787,0.7334,-0.4766,0.0493,-91.46,10.00,40.61
2186,154444787,0.6514,-0.5903,-0.0288,-80.37,12.56,38.11
2187,154449786,0.6587,-0.6401,-0.0732,-68.72,13.78,37.44
2188,154454787,0.6929,-0.6338,-0.0464,-57.56,14.39,37.13
2189,154459787,0.7178,-0.6104,-0.0278,-46.77,15.12,36.65
2190,154464787,0.7075,-0.6035,0.0029,-37.01,15.91,35.85
2191,154469786,0.6777,-0.6182,0.0522,-28.41,16.95,34.94
2192,154474788,0.6484,-0.6479,0.0972,-20.98,18.17,34.27
2193,154479787,0.6367,-0.6802,0.1187,-14.51,19.27,34.09
2194,154484787,0.6230,-0.6836,0.0859,-9.21,20.00,34.33
2195,154489786,0.6294,-0.6499,0.0059,-4.88,19.70,34.09
2196,154494789,0.6123,-0.6777,0.1011,-1.65,18.90,33.48
2197,154499786,0.5679,-0.7178,0.0747,0.98,18.17,33.35
2198,154504787,0.5522,-0.7065,0.0518,2.99,17.32,33.17
2199,154509785,0.5386,-0.7085,0.0747,4.27,16.71,32.56
2200,154514789,0.5210,-0.7227,0.0776,5.18,16.28,32.32
2201,154519787,0.5176,-0.7466,0.0620,5.73,16.34,32.44
2202,154524787,0.5166,-0.7759,0.0508,5.55,16.65,32.99
2203,154529787,0.5444,-0.7368,0.0059,4.88,16.95,34.21
2204,154534787,0.5708,-0.7026,-0.0112,3.54,17.26,34.70
2205,154539785,0.5713,-0.7202,-0.0166,1.65,17.56,35.00
2206,154544787,0.5635,-0.6992,-0.0068,-0.67,17.99,35.24
2207,154549786,0.5557,-0.6987,-0.0024,-3.66,18.72,34.88
2208,154554786,0.5542,-0.7065,0.0073,-7.38,19.63,34.21
