# skilleye imu stream v1
# device=xiao_esp32c6 imu=mpu6050 addr=0x68
# rate_hz=200 accel_range_g=16 gyro_range_dps=2000 dlpf_hz=94
# units: accel in g, gyro in deg/s, t_us in microseconds since boot (monotonic)
# no shared clock with the camera -- tap the racket once before each take
# so both recordings share a spike to align on
seq,t_us,ax,ay,az,gx,gy,gz
0,201825441,0.8032,0.4448,-0.1855,-15.30,2.13,-35.12
1,201830447,0.7900,0.4492,-0.1885,-14.09,1.83,-34.88
2,201835440,0.7886,0.4551,-0.1914,-12.87,1.52,-34.63
3,201840442,0.7778,0.4585,-0.1885,-11.52,1.10,-34.45
4,201845441,0.7725,0.4624,-0.1924,-10.24,0.67,-34.15
5,201850442,0.7661,0.4668,-0.1890,-9.09,0.37,-33.90
6,201855440,0.7588,0.4741,-0.1890,-7.93,-0.06,-33.72
7,201860442,0.7485,0.4746,-0.1841,-6.77,-0.49,-33.60
8,201865442,0.7412,0.4839,-0.1948,-5.67,-0.91,-33.48
9,201870440,0.7319,0.4893,-0.1948,-4.57,-1.46,-33.35
10,201875440,0.7256,0.4946,-0.2021,-3.48,-2.07,-33.17
11,201880442,0.7192,0.5039,-0.2021,-2.26,-2.74,-33.29
12,201885444,0.7129,0.5063,-0.1997,-1.10,-3.29,-33.29
13,201890442,0.7065,0.5132,-0.2114,-0.18,-3.96,-33.48
14,201895441,0.6997,0.5190,-0.2090,0.73,-4.57,-33.66
15,201900442,0.6987,0.5234,-0.2178,1.59,-5.24,-33.72
16,201905442,0.6865,0.5264,-0.2139,2.56,-5.85,-33.96
17,201910442,0.6855,0.5298,-0.2153,3.17,-6.28,-34.27
18,201915441,0.6807,0.5356,-0.2085,3.66,-6.95,-34.39
19,201920442,0.6724,0.5366,-0.2114,4.21,-7.32,-34.76
20,201925440,0.6743,0.5420,-0.2153,4.63,-7.93,-35.00
21,201930442,0.6733,0.5435,-0.2144,4.63,-8.23,-35.24
22,201935441,0.6714,0.5454,-0.2163,4.70,-8.60,-35.49
23,201940442,0.6694,0.5469,-0.2139,4.63,-8.72,-35.73
24,201945475,0.6670,0.5513,-0.2163,4.33,-9.02,-35.98
25,201950442,0.6660,0.5518,-0.2241,4.15,-9.15,-36.16
26,201955441,0.6680,0.5542,-0.2188,3.66,-9.51,-36.40
27,201960442,0.6646,0.5576,-0.2241,3.17,-9.63,-36.46
28,201965440,0.6650,0.5581,-0.2275,3.11,-9.82,-36.65
29,201970440,0.6699,0.5645,-0.2305,2.74,-9.70,-36.77
30,201975440,0.6689,0.5615,-0.2280,2.32,-9.70,-36.89
31,201980440,0.6699,0.5674,-0.2271,2.07,-9.70,-37.07
32,201985442,0.6714,0.5718,-0.2349,2.13,-9.70,-37.13
33,201990444,0.6782,0.5752,-0.2305,2.07,-9.82,-37.32
34,201995441,0.6895,0.5845,-0.2310,2.26,-9.57,-37.38
35,202000442,0.6890,0.5928,-0.2358,2.50,-9.57,-37.74
36,202005440,0.7007,0.6025,-0.2363,3.17,-9.57,-37.99
37,202010442,0.7051,0.6108,-0.2397,3.90,-9.39,-38.41
38,202015442,0.7124,0.6221,-0.2393,4.82,-9.45,-38.90
39,202020442,0.7192,0.6294,-0.2388,5.79,-9.45,-39.27
40,202025440,0.7236,0.6318,-0.2437,6.77,-9.33,-39.82
41,202030442,0.7256,0.6382,-0.2495,7.80,-9.33,-40.18
42,202035441,0.7271,0.6426,-0.2485,8.54,-9.39,-40.61
43,202040442,0.7290,0.6431,-0.2534,9.33,-9.21,-40.98
44,202045442,0.7275,0.6411,-0.2524,9.76,-9.15,-41.28
45,202050442,0.7285,0.6460,-0.2549,10.12,-9.45,-41.71
46,202055441,0.7217,0.6479,-0.2627,10.37,-9.27,-41.83
47,202060442,0.7158,0.6465,-0.2607,10.43,-9.33,-41.95
48,202065440,0.7158,0.6509,-0.2666,10.61,-9.33,-42.20
49,202070442,0.7124,0.6519,-0.2642,10.49,-9.33,-42.32
50,202075441,0.7100,0.6572,-0.2695,10.49,-9.33,-42.32
51,202080440,0.7070,0.6572,-0.2725,10.18,-9.21,-42.32
52,202085442,0.7012,0.6641,-0.2725,10.18,-9.33,-42.38
53,202090444,0.7031,0.6655,-0.2827,9.70,-9.27,-42.44
54,202095441,0.6958,0.6660,-0.2773,9.63,-9.15,-42.20
55,202100442,0.6895,0.6709,-0.2725,9.39,-9.02,-42.13
56,202105440,0.6807,0.6758,-0.2852,9.39,-8.96,-41.89
57,202110442,0.6738,0.6787,-0.2812,9.45,-8.66,-41.71
58,202115441,0.6748,0.6797,-0.2871,9.27,-8.54,-41.40
59,202120444,0.6641,0.6802,-0.2852,9.33,-8.17,-41.04
60,202125440,0.6606,0.6846,-0.2852,9.33,-7.74,-40.61
61,202130442,0.6562,0.6807,-0.2744,9.27,-7.32,-40.24
62,202135441,0.6533,0.6851,-0.2827,9.45,-6.77,-39.70
63,202140442,0.6553,0.6851,-0.2783,9.57,-6.22,-39.21
64,202145440,0.6509,0.6860,-0.2769,9.94,-5.43,-38.78
65,202150442,0.6548,0.6885,-0.2764,10.24,-4.88,-38.29
66,202155441,0.6548,0.6904,-0.2749,10.55,-3.90,-37.87
67,202160442,0.6606,0.6929,-0.2720,11.16,-2.99,-37.20
68,202165442,0.6597,0.6948,-0.2725,11.59,-2.26,-36.65
69,202170442,0.6572,0.7002,-0.2729,12.26,-1.34,-36.22
70,202175441,0.6553,0.7026,-0.2705,12.80,-0.43,-35.73
71,202180443,0.6602,0.7046,-0.2690,13.48,0.43,-35.37
72,202185441,0.6548,0.7109,-0.2729,14.02,1.22,-35.00
73,202190443,0.6567,0.7104,-0.2695,14.57,1.95,-34.45
74,202195444,0.6567,0.7065,-0.2681,15.06,2.80,-34.15
75,202200442,0.6572,0.7075,-0.2681,15.30,3.60,-33.66
76,202205440,0.6558,0.7061,-0.2710,15.37,4.39,-33.23
77,202210442,0.6519,0.7026,-0.2651,15.43,5.12,-32.80
78,202215441,0.6460,0.6978,-0.2642,15.24,5.79,-32.26
79,202220442,0.6406,0.6997,-0.2583,14.82,6.46,-31.83
80,202225534,0.6309,0.7012,-0.2578,14.57,7.13,-31.46
81,202230444,0.6274,0.6934,-0.2568,14.39,7.74,-30.98
82,202235441,0.6230,0.7017,-0.2490,14.33,8.35,-30.61
83,202240730,0.6191,0.7031,-0.2471,14.39,9.09,-30.43
84,202245443,0.6147,0.7065,-0.2358,14.45,9.70,-30.12
85,202250442,0.6162,0.7090,-0.2295,14.57,10.49,-29.94
86,202255442,0.6201,0.7124,-0.2319,14.51,11.04,-29.76
87,202260442,0.6201,0.7158,-0.2295,14.33,11.52,-29.82
88,202265442,0.6235,0.7183,-0.2266,13.96,12.01,-29.76
89,202270442,0.6230,0.7183,-0.2246,13.29,12.26,-29.76
90,202275443,0.6270,0.7183,-0.2314,12.13,12.26,-29.82
91,202280441,0.6250,0.7217,-0.2261,10.79,12.38,-29.94
92,202285442,0.6309,0.7236,-0.2271,9.27,12.38,-30.12
93,202290442,0.6343,0.7271,-0.2227,7.56,12.07,-30.18
94,202295442,0.6362,0.7280,-0.2295,5.79,12.01,-30.67
95,202300442,0.6357,0.7354,-0.2271,3.90,11.65,-31.04
96,202305441,0.6362,0.7383,-0.2222,1.89,11.22,-31.34
97,202310442,0.6348,0.7432,-0.2188,0.12,10.79,-31.83
98,202315441,0.6333,0.7437,-0.2192,-1.71,10.30,-32.13
99,202320440,0.6313,0.7505,-0.2202,-3.54,9.82,-32.56
100,202325442,0.6240,0.7480,-0.2124,-5.24,9.57,-32.93
101,202330443,0.6206,0.7461,-0.2129,-6.77,9.02,-33.11
102,202335442,0.6152,0.7500,-0.2148,-8.41,8.72,-33.35
103,202340442,0.6069,0.7544,-0.2085,-9.82,8.35,-33.48
104,202345443,0.5938,0.7520,-0.2041,-11.04,7.87,-33.66
105,202350442,0.5869,0.7495,-0.2056,-12.32,7.62,-33.60
106,202355442,0.5806,0.7529,-0.1987,-13.17,7.38,-33.66
107,202360442,0.5703,0.7554,-0.1992,-14.02,7.26,-33.48
108,202365442,0.5581,0.7612,-0.1968,-14.57,6.77,-33.66
109,202370442,0.5532,0.7642,-0.2036,-14.76,6.46,-33.60
110,202375441,0.5410,0.7681,-0.1987,-14.88,6.04,-33.60
111,202380442,0.5356,0.7715,-0.1943,-14.76,5.79,-33.66
112,202385441,0.5264,0.7778,-0.1865,-14.45,5.61,-33.60
113,202390497,0.5171,0.7812,-0.1963,-13.84,5.30,-33.48
114,202395529,0.5151,0.7827,-0.1904,-13.29,4.88,-33.35
115,202400443,0.5098,0.7817,-0.1904,-12.38,4.70,-33.11
116,202405442,0.5078,0.7905,-0.1904,-11.46,4.33,-32.80
117,202410442,0.5068,0.7871,-0.1870,-10.67,4.02,-32.50
118,202415442,0.5034,0.7881,-0.1846,-9.82,3.54,-32.20
119,202420781,0.5049,0.7881,-0.1865,-8.96,3.29,-31.71
120,202425442,0.5000,0.7925,-0.1870,-8.23,2.93,-31.34
121,202430442,0.4966,0.7910,-0.1841,-7.50,2.56,-30.79
122,202435442,0.4941,0.7979,-0.1875,-6.95,2.20,-30.24
123,202440442,0.4878,0.7979,-0.1899,-6.34,1.83,-29.70
124,202445443,0.4849,0.8018,-0.1963,-5.73,1.77,-29.21
125,202450440,0.4800,0.8018,-0.2012,-5.18,1.65,-28.72
126,202455442,0.4785,0.8003,-0.2041,-4.82,1.34,-28.17
127,202460928,0.4756,0.8057,-0.2075,-4.33,1.16,-27.74
128,202465442,0.4790,0.8101,-0.2090,-3.96,1.04,-27.32
129,202470442,0.4795,0.8130,-0.2134,-3.35,1.16,-26.83
130,202475443,0.4844,0.8105,-0.2202,-2.99,1.16,-26.40
131,202480442,0.4907,0.8081,-0.2246,-2.56,1.22,-26.04
132,202485442,0.4976,0.8076,-0.2280,-2.07,1.52,-25.79
133,202490440,0.5054,0.8105,-0.2324,-2.07,1.83,-25.43
134,202495442,0.5137,0.8066,-0.2319,-1.89,2.13,-25.12
135,202500444,0.5293,0.8022,-0.2363,-1.59,2.50,-25.00
136,202505446,0.5376,0.8057,-0.2417,-1.46,3.05,-24.94
137,202510506,0.5449,0.8062,-0.2432,-1.34,3.60,-24.88
138,202515441,0.5601,0.8052,-0.2466,-1.28,4.33,-24.88
139,202520444,0.5688,0.8081,-0.2471,-1.16,5.00,-25.06
140,202525441,0.5747,0.8066,-0.2534,-1.04,5.61,-25.24
141,202530442,0.5811,0.8071,-0.2588,-1.04,6.46,-25.55
142,202535443,0.5898,0.8018,-0.2603,-0.79,7.13,-26.04
143,202540443,0.5986,0.8057,-0.2705,-0.67,7.99,-26.59
144,202545442,0.5972,0.8076,-0.2715,-0.55,8.84,-27.07
145,202550442,0.5977,0.8027,-0.2773,-0.43,9.94,-27.62
146,202555442,0.6113,0.8018,-0.2778,-0.37,10.79,-28.29
147,202560531,0.5996,0.7988,-0.2935,-0.37,11.65,-28.84
148,202565505,0.5918,0.7964,-0.3032,-0.37,12.62,-29.70
149,202570442,0.5806,0.7896,-0.2998,-0.43,13.72,-30.30
150,202575441,0.5815,0.7891,-0.3037,-0.67,14.63,-30.91
151,202580442,0.5806,0.7876,-0.3110,-0.85,15.61,-31.59
152,202585442,0.5718,0.7896,-0.3145,-1.28,16.71,-32.13
153,202590444,0.5635,0.7881,-0.3115,-1.46,17.93,-32.68
154,202595441,0.5562,0.7886,-0.3188,-1.89,19.27,-33.17
155,202600442,0.5391,0.7881,-0.3198,-2.20,20.61,-33.66
156,202605441,0.5322,0.7852,-0.3223,-2.62,21.89,-34.15
157,202610443,0.5220,0.7803,-0.3208,-3.05,23.48,-34.70
158,202615441,0.5068,0.7798,-0.3286,-3.66,24.88,-34.94
159,202620442,0.4976,0.7734,-0.3242,-4.21,26.65,-35.24
160,202625441,0.4858,0.7749,-0.3208,-4.88,28.11,-35.49
161,202630442,0.4785,0.7700,-0.3286,-5.61,29.88,-35.73
162,202635442,0.4717,0.7666,-0.3301,-6.34,31.46,-35.91
163,202640442,0.4600,0.7686,-0.3223,-7.26,33.35,-35.98
164,202645441,0.4497,0.7651,-0.3242,-8.17,35.06,-36.10
165,202650442,0.4346,0.7710,-0.3237,-8.90,36.65,-36.28
166,202655442,0.4229,0.7671,-0.3125,-9.63,38.54,-36.40
167,202660442,0.4136,0.7695,-0.3125,-10.30,40.24,-36.59
168,202665442,0.4116,0.7754,-0.3130,-10.98,42.07,-36.59
169,202670442,0.4077,0.7705,-0.3032,-11.52,43.41,-36.77
170,202675441,0.4004,0.7700,-0.2974,-12.01,45.12,-36.95
171,202680442,0.3989,0.7715,-0.2915,-12.68,46.46,-37.07
172,202685441,0.3892,0.7666,-0.2939,-13.05,47.68,-37.20
173,202690442,0.3818,0.7739,-0.2866,-13.54,48.84,-37.32
174,202695442,0.3750,0.7749,-0.2817,-13.84,50.18,-37.68
175,202700442,0.3716,0.7676,-0.2778,-14.09,51.28,-37.93
176,202705441,0.3735,0.7739,-0.2690,-14.15,52.20,-38.35
177,202710442,0.3745,0.7749,-0.2588,-13.96,53.48,-38.66
178,202715441,0.3711,0.7808,-0.2593,-13.54,54.45,-39.15
179,202720442,0.3706,0.7842,-0.2461,-12.87,55.37,-39.70
180,202725441,0.3716,0.7871,-0.2432,-12.01,56.40,-40.55
181,202730442,0.3608,0.7949,-0.2480,-10.55,57.44,-41.46
182,202735441,0.3604,0.8027,-0.2437,-9.15,58.17,-42.26
183,202740442,0.3574,0.8086,-0.2412,-7.32,59.33,-43.23
184,202745441,0.3574,0.8169,-0.2388,-5.37,60.18,-44.15
185,202750442,0.3555,0.8208,-0.2197,-3.29,61.28,-45.24
186,202755441,0.3511,0.8257,-0.2295,-1.16,62.38,-46.10
187,202760442,0.3491,0.8330,-0.2163,0.85,63.41,-47.13
188,202765441,0.3467,0.8296,-0.2163,2.68,64.57,-47.99
189,202770442,0.3320,0.8008,-0.2310,3.78,65.61,-48.84
190,202775441,0.3311,0.8359,-0.2124,4.33,66.77,-49.70
191,202780442,0.3252,0.8501,-0.2070,4.63,67.93,-50.37
192,202785441,0.3198,0.8481,-0.2017,5.12,68.96,-51.28
193,202790441,0.3154,0.8472,-0.2021,5.18,70.06,-52.01
194,202795442,0.3057,0.8442,-0.2002,4.82,71.52,-52.56
195,202800442,0.3022,0.8447,-0.2021,4.51,72.38,-52.99
196,202805440,0.2920,0.8477,-0.2104,4.02,73.72,-53.35
197,202810442,0.2896,0.8486,-0.2041,3.41,74.88,-53.84
198,202815442,0.2861,0.8535,-0.2031,2.74,75.61,-54.15
199,202820442,0.2832,0.8574,-0.2007,2.07,76.77,-54.57
200,202825442,0.2788,0.8672,-0.2065,1.40,77.87,-55.06
201,202830442,0.2739,0.8716,-0.2095,0.61,78.96,-55.43
202,202835442,0.2642,0.8799,-0.2119,-0.37,79.94,-55.79
203,202840901,0.2603,0.8828,-0.2144,-1.89,81.52,-56.22
204,202845442,0.2510,0.8916,-0.2134,-3.23,82.44,-56.52
205,202850442,0.2451,0.8940,-0.2124,-4.76,84.15,-56.83
206,202855442,0.2290,0.8989,-0.2031,-6.52,84.88,-57.20
207,202860876,0.2148,0.8979,-0.2095,-8.96,85.85,-57.38
208,202865442,0.2139,0.9023,-0.2051,-10.55,85.79,-57.62
209,202870442,0.2129,0.8994,-0.1973,-12.56,86.04,-57.68
210,202875443,0.2163,0.8999,-0.1968,-14.51,88.29,-57.80
211,202880442,0.2134,0.9019,-0.1855,-16.10,89.70,-57.87
212,202885442,0.2202,0.9023,-0.1831,-17.44,90.73,-57.93
213,202890440,0.2217,0.9038,-0.1792,-18.17,91.71,-57.87
214,202895442,0.2207,0.9077,-0.1738,-18.78,92.80,-57.87
215,202900442,0.2144,0.9077,-0.1714,-18.72,93.60,-57.93
216,202905442,0.2070,0.9082,-0.1772,-18.11,94.39,-58.05
217,202910442,0.2075,0.8838,-0.1260,-16.95,95.12,-57.99
218,202915442,0.2158,0.8857,-0.1182,-15.79,96.16,-57.62
219,202920442,0.1997,0.9014,-0.1177,-14.39,97.32,-57.44
220,202925442,0.1831,0.9062,-0.1113,-12.87,97.99,-57.32
221,202930442,0.1812,0.9058,-0.1133,-11.28,98.60,-57.26
222,202935443,0.1865,0.8970,-0.1030,-9.76,99.15,-57.13
223,202940442,0.1875,0.8936,-0.0859,-8.54,99.51,-57.13
224,202945442,0.1802,0.8955,-0.0811,-7.32,100.00,-57.07
225,202950442,0.1689,0.8950,-0.0767,-6.34,100.49,-56.95
226,202955442,0.1699,0.8931,-0.0684,-5.55,100.85,-57.01
227,202960442,0.1655,0.8926,-0.0654,-4.94,100.85,-57.07
228,202965442,0.1582,0.8887,-0.0527,-4.39,101.22,-57.13
229,202970442,0.1562,0.8926,-0.0562,-4.02,101.28,-57.26
230,202975442,0.1489,0.8921,-0.0444,-3.54,101.22,-57.50
231,202980443,0.1440,0.8916,-0.0327,-3.11,101.10,-57.62
232,202985442,0.1357,0.8955,-0.0312,-2.68,101.10,-57.93
233,202990442,0.1328,0.8950,-0.0215,-2.13,101.04,-58.29
234,202995443,0.1265,0.9023,-0.0171,-1.40,101.04,-58.48
235,203000441,0.1240,0.9038,-0.0127,-0.49,100.79,-58.96
236,203005828,0.1108,0.9058,-0.0020,0.79,100.73,-59.45
237,203010443,0.1079,0.9106,0.0068,1.77,100.55,-60.00
238,203015442,0.1064,0.9131,0.0059,2.74,100.12,-60.30
239,203020442,0.1021,0.9175,0.0142,3.84,100.00,-60.98
240,203025442,0.0928,0.9160,0.0200,5.18,99.51,-61.52
241,203030442,0.0918,0.9292,0.0225,6.52,98.96,-62.07
242,203035442,0.0771,0.9424,0.0039,8.17,98.23,-62.93
243,203040442,0.1006,0.9258,0.0488,9.82,97.50,-63.66
244,203045442,0.1050,0.9253,0.0688,11.46,97.01,-64.33
245,203050442,0.0752,0.9326,0.0479,12.56,96.28,-64.88
246,203055443,0.0693,0.9326,0.0342,13.54,95.24,-65.61
247,203060442,0.0698,0.9336,0.0562,14.45,94.15,-66.28
248,203065443,0.0640,0.9355,0.0601,15.00,92.99,-66.71
249,203070442,0.0615,0.9424,0.0605,15.30,91.83,-67.32
250,203075443,0.0542,0.9438,0.0518,15.61,90.55,-67.87
251,203080440,0.0415,0.9541,0.0620,15.85,89.02,-68.17
252,203085442,0.0361,0.9546,0.0615,15.91,87.32,-68.54
253,203090443,0.0249,0.9521,0.0537,16.10,87.38,-68.72
254,203095440,0.0186,0.9565,0.0576,16.46,85.49,-69.02
255,203100441,0.0117,0.9580,0.0630,16.95,85.30,-69.21
256,203105936,0.0010,0.9692,0.0576,17.99,84.76,-69.33
257,203110444,-0.0132,0.9814,0.0469,18.84,83.35,-69.45
258,203115441,-0.0283,0.9883,0.0493,20.24,82.07,-69.51
259,203120444,-0.0400,0.9956,0.0459,21.83,81.40,-69.70
260,203125441,-0.0576,1.0151,0.0210,23.96,80.61,-69.82
261,203130442,-0.0552,1.0034,0.0366,26.40,79.70,-69.88
262,203135441,-0.0562,0.9893,0.0532,28.90,79.21,-69.70
263,203140444,-0.0796,0.9971,0.0459,31.04,78.78,-69.27
264,203145441,-0.0986,0.9976,0.0259,33.23,78.41,-68.72
265,203150442,-0.0991,1.0044,0.0166,35.43,77.74,-68.05
266,203155441,-0.0928,1.0181,0.0161,37.62,77.13,-67.38
267,203160442,-0.1035,1.0269,0.0283,39.70,76.77,-66.71
268,203165441,-0.1152,1.0371,0.0146,41.52,76.16,-66.28
269,203170594,-0.1313,1.0596,-0.0093,43.48,75.61,-65.79
270,203175442,-0.1348,1.0571,-0.0107,45.37,74.63,-65.55
271,203180442,-0.1094,1.0308,0.0425,47.13,74.27,-64.82
272,203185442,-0.1479,1.0459,0.0269,47.99,74.15,-63.96
273,203190509,-0.1802,1.0649,-0.0190,48.60,73.72,-63.23
274,203195443,-0.1743,1.0718,-0.0200,48.90,73.23,-62.44
275,203200442,-0.1704,1.0854,-0.0112,48.78,72.74,-61.46
276,203205442,-0.1855,1.1001,-0.0254,48.66,72.32,-60.73
277,203210821,-0.1973,1.1143,-0.0317,48.35,71.95,-59.94
278,203215442,-0.2046,1.1245,-0.0400,48.23,71.52,-59.15
279,203220442,-0.2104,1.1323,-0.0381,47.99,71.28,-58.35
280,203225521,-0.2227,1.1460,-0.0425,47.68,70.98,-57.44
281,203230447,-0.2314,1.1499,-0.0532,47.26,70.55,-56.65
282,203235442,-0.2354,1.1509,-0.0610,46.83,70.30,-55.61
283,203240442,-0.2451,1.1548,-0.0625,46.28,69.88,-54.51
284,203245442,-0.2500,1.1597,-0.0659,45.98,69.82,-53.41
285,203250442,-0.2598,1.1655,-0.0752,45.85,69.45,-52.32
286,203255442,-0.2603,1.1714,-0.0825,45.67,69.21,-51.16
287,203260442,-0.2700,1.1787,-0.0889,45.73,68.72,-49.88
288,203265442,-0.2710,1.1938,-0.1064,46.28,68.17,-48.60
289,203270526,-0.2759,1.2236,-0.1284,47.62,67.50,-47.62
290,203275442,-0.2627,1.1797,-0.0522,49.57,66.71,-46.34
291,203280442,-0.2695,1.1743,-0.0728,51.10,66.83,-44.57
292,203285442,-0.3140,1.2017,-0.1289,52.20,66.52,-42.74
293,203290442,-0.3105,1.2051,-0.1235,53.17,66.10,-40.98
294,203295442,-0.2983,1.2100,-0.1230,53.84,65.79,-38.96
295,203300613,-0.3052,1.2158,-0.1406,54.02,65.43,-36.52
296,203305442,-0.3174,1.2197,-0.1489,54.27,65.00,-34.33
297,203310441,-0.3193,1.2153,-0.1436,54.27,64.63,-31.89
298,203315442,-0.3140,1.2153,-0.1514,54.21,64.39,-29.33
299,203320447,-0.3120,1.2188,-0.1699,54.02,63.96,-26.65
300,203325442,-0.3159,1.2222,-0.1748,54.09,63.54,-23.78
301,203330442,-0.3086,1.2280,-0.1772,54.21,63.05,-20.91
302,203335442,-0.3052,1.2358,-0.1860,54.45,62.50,-18.05
303,203340442,-0.2988,1.2490,-0.2095,55.06,61.65,-15.18
304,203345442,-0.3032,1.2783,-0.2451,56.89,60.49,-12.74
305,203350442,-0.2632,1.2153,-0.1411,59.09,59.57,-10.00
306,203355442,-0.2671,1.2041,-0.1685,60.85,59.33,-6.59
307,203360442,-0.3066,1.2202,-0.2422,62.07,58.84,-3.29
308,203365442,-0.2881,1.2197,-0.2251,62.80,57.80,0.00
309,203370442,-0.2646,1.2261,-0.2271,62.93,57.20,3.35
310,203375442,-0.2686,1.2339,-0.2515,62.68,56.46,6.59
311,203380442,-0.2676,1.2437,-0.2563,62.13,55.73,9.82
312,203385442,-0.2593,1.2393,-0.2544,61.40,55.18,12.87
313,203390442,-0.2500,1.2358,-0.2646,60.43,54.63,15.91
314,203395443,-0.2422,1.2280,-0.2905,58.96,54.21,18.96
315,203400442,-0.2373,1.2261,-0.2988,57.20,53.78,21.83
316,203405443,-0.2266,1.2236,-0.3047,55.37,53.11,24.76
317,203410440,-0.2222,1.2256,-0.3169,53.54,52.68,27.50
318,203415442,-0.2158,1.2266,-0.3359,51.77,52.50,30.18
319,203420442,-0.2124,1.2222,-0.3374,50.43,52.07,32.74
320,203425441,-0.2051,1.2188,-0.3379,48.96,51.71,35.30
321,203430442,-0.1943,1.2139,-0.3481,48.11,51.59,37.56
322,203435441,-0.1895,1.2197,-0.3701,47.32,51.34,39.94
323,203440442,-0.1826,1.2168,-0.3730,46.65,51.22,41.89
324,203445441,-0.1777,1.2104,-0.3770,45.85,50.98,44.09
325,203450442,-0.1694,1.2046,-0.3901,44.82,51.10,46.04
326,203455441,-0.1533,1.1997,-0.3965,43.48,51.28,47.93
327,203460442,-0.1377,1.1919,-0.3984,41.89,51.40,49.70
328,203465441,-0.1250,1.1807,-0.4043,39.70,51.46,51.52
329,203470442,-0.1113,1.1714,-0.4126,37.50,51.65,53.35
330,203475442,-0.0962,1.1616,-0.4175,35.00,52.01,55.06
331,203480442,-0.0830,1.1538,-0.4185,32.62,52.38,56.77
332,203485442,-0.0728,1.1479,-0.4233,30.24,52.74,58.35
333,203490442,-0.0610,1.1401,-0.4277,28.23,53.05,60.00
334,203495441,-0.0503,1.1333,-0.4360,26.28,53.54,61.46
335,203500442,-0.0347,1.1274,-0.4312,25.00,54.09,62.99
336,203505441,-0.0195,1.1167,-0.4292,23.90,54.94,64.33
337,203510441,-0.0073,1.1113,-0.4365,23.29,55.55,65.55
338,203515440,0.0054,1.0991,-0.4409,22.99,56.34,66.83
339,203520442,0.0176,1.0898,-0.4380,22.99,57.13,68.29
340,203525441,0.0278,1.0796,-0.4336,23.05,58.17,69.51
341,203530442,0.0400,1.0625,-0.4395,23.29,59.33,70.91
342,203535441,0.0537,1.0522,-0.4355,23.60,60.43,72.38
343,203540444,0.0640,1.0366,-0.4385,23.78,61.52,73.72
344,203545442,0.0786,1.0083,-0.4644,23.84,62.68,75.18
345,203550444,0.1777,0.8984,-0.5654,22.44,62.13,77.50
346,203555441,0.1470,1.0010,-0.3257,20.43,62.62,80.06
347,203560442,0.1377,1.0161,-0.4321,20.61,64.21,81.77
348,203565441,0.1445,1.0005,-0.4917,22.01,65.12,83.11
349,203570442,0.1553,0.9707,-0.4438,23.84,66.34,84.39
350,203575441,0.1724,0.9370,-0.4365,25.91,67.44,86.95
351,203580445,0.1851,0.9238,-0.4878,28.23,68.60,87.44
352,203585441,0.1885,0.9404,-0.4702,30.43,69.21,88.05
353,203590442,0.1953,0.9312,-0.4546,34.02,70.67,90.55
354,203595441,0.2144,0.9287,-0.4766,36.65,71.83,91.46
355,203600442,0.2422,0.9214,-0.4937,40.98,73.05,93.17
356,203605441,0.2441,0.9058,-0.4600,44.27,74.02,94.21
357,203610443,0.2568,0.9116,-0.4478,49.70,75.67,95.37
358,203615441,0.2612,0.9194,-0.4790,54.09,76.95,95.91
359,203620442,0.2627,0.9380,-0.4971,59.94,78.23,96.16
360,203625441,0.2725,0.9541,-0.4556,66.65,79.76,95.98
361,203630442,0.2891,0.9634,-0.4492,73.29,81.95,95.37
362,203635441,0.3101,0.9673,-0.4839,79.88,84.09,94.33
363,203640442,0.3276,0.9575,-0.4937,85.85,84.39,92.87
364,203645441,0.3403,0.9351,-0.4712,90.98,85.73,91.10
365,203650442,0.3682,0.9268,-0.4829,94.82,86.22,89.57
366,203655441,0.4019,0.9185,-0.5249,97.13,88.23,87.07
367,203660442,0.4341,0.9116,-0.5156,97.68,89.33,86.28
368,203665441,0.4692,0.8926,-0.4746,96.52,90.18,83.66
369,203670442,0.4976,0.8423,-0.4814,93.17,90.55,81.65
370,203675441,0.5508,0.7910,-0.4912,88.05,90.79,80.06
371,203680442,0.5601,0.7598,-0.4595,81.04,90.73,79.09
372,203685442,0.5317,0.7637,-0.4268,73.48,91.22,78.05
373,203690442,0.5127,0.7739,-0.4248,66.34,91.71,76.77
374,203695443,0.5000,0.7788,-0.4229,59.57,92.38,75.06
375,203700443,0.4873,0.7808,-0.3979,53.23,93.48,73.54
376,203705442,0.4741,0.7632,-0.3579,47.20,94.63,71.77
377,203710442,0.4531,0.7646,-0.3667,41.95,95.98,70.06
378,203715443,0.4448,0.7700,-0.3691,37.26,97.07,68.23
379,203720440,0.4482,0.7637,-0.3462,33.35,98.35,66.46
380,203725442,0.4507,0.7505,-0.3286,30.37,99.51,64.82
381,203730442,0.4463,0.7407,-0.3296,28.23,100.67,63.29
382,203735441,0.4526,0.7222,-0.3345,27.13,101.77,62.07
383,203740442,0.4663,0.7085,-0.3203,27.26,102.44,61.22
384,203745442,0.4761,0.7031,-0.3135,28.48,103.17,60.67
385,203750442,0.4819,0.6685,-0.3125,30.43,103.72,60.49
386,203755442,0.4810,0.6318,-0.3096,33.23,104.51,60.98
387,203760442,0.4941,0.6636,-0.3369,36.65,105.00,61.77
388,203765441,0.4912,0.6831,-0.3428,41.16,105.30,62.44
389,203770442,0.4946,0.6919,-0.3232,46.59,105.67,62.56
390,203775441,0.4785,0.7134,-0.3198,52.68,106.04,62.50
391,203780442,0.4683,0.7168,-0.3262,59.15,106.46,62.13
392,203785441,0.4707,0.7080,-0.3125,65.67,106.95,61.59
393,203790442,0.4614,0.7100,-0.3130,71.95,107.26,60.91
394,203795441,0.4521,0.7183,-0.3145,77.74,107.44,60.00
395,203800442,0.4502,0.7275,-0.3125,83.41,107.50,58.96
396,203805441,0.4443,0.7212,-0.3013,88.41,107.62,57.56
397,203810442,0.4429,0.7241,-0.3022,92.68,107.44,56.10
398,203815442,0.4517,0.7266,-0.2935,96.16,106.89,54.63
399,203820441,0.4624,0.7319,-0.2900,98.48,106.28,52.93
400,203825444,0.4775,0.7275,-0.2720,99.45,105.55,51.40
401,203830442,0.4922,0.7202,-0.2607,99.33,104.57,49.63
402,203835442,0.5063,0.7134,-0.2593,97.80,103.35,47.62
403,203840442,0.5259,0.7026,-0.2471,95.12,101.89,45.55
404,203845442,0.5444,0.6982,-0.2305,91.16,100.49,43.35
405,203850442,0.5684,0.6899,-0.2290,86.16,98.90,41.28
406,203855443,0.5820,0.6792,-0.2251,80.73,97.32,39.39
407,203860442,0.5913,0.6660,-0.2256,74.94,95.85,37.50
408,203865442,0.5928,0.6548,-0.2261,69.27,94.51,35.85
409,203870442,0.5977,0.6436,-0.2236,63.90,93.29,34.45
410,203875442,0.5938,0.6367,-0.2280,59.15,92.07,33.23
411,203880442,0.5903,0.6338,-0.2231,55.12,91.22,32.26
412,203885443,0.5796,0.6299,-0.2192,51.95,90.67,31.46
413,203890442,0.5786,0.6333,-0.2207,49.45,90.24,30.79
414,203895442,0.5742,0.6323,-0.2207,47.74,90.06,30.24
415,203900442,0.5688,0.6382,-0.2217,46.83,89.63,29.70
416,203905442,0.5630,0.6440,-0.2188,46.65,89.57,29.02
417,203910442,0.5620,0.6416,-0.2246,46.89,88.78,28.60
418,203915442,0.5615,0.6426,-0.2261,47.87,88.66,28.17
419,203920442,0.5625,0.6475,-0.2227,49.45,88.48,27.87
420,203925442,0.5664,0.6475,-0.2197,51.52,87.93,27.56
421,203930442,0.5669,0.6475,-0.2236,54.09,86.04,27.44
422,203935442,0.5742,0.6465,-0.2246,56.65,85.55,27.38
423,203940442,0.5811,0.6489,-0.2310,59.45,85.30,27.44
424,203945442,0.5845,0.6445,-0.2349,62.50,85.49,27.62
425,203950442,0.5947,0.6455,-0.2544,65.37,85.55,27.87
426,203955443,0.6011,0.6445,-0.2617,68.11,85.61,28.17
427,203960442,0.6108,0.6411,-0.2710,70.79,85.55,28.48
428,203965442,0.6167,0.6421,-0.2842,73.23,85.55,28.84
429,203970442,0.6221,0.6367,-0.2993,75.55,85.61,29.21
430,203975442,0.6299,0.6387,-0.3018,77.80,85.61,29.63
431,203980442,0.6372,0.6333,-0.3174,79.70,85.61,30.12
432,203985442,0.6406,0.6279,-0.3286,81.34,85.67,30.37
433,203990443,0.6533,0.6221,-0.3364,82.87,85.61,30.85
434,203995442,0.6553,0.6240,-0.3384,84.33,85.67,31.46
435,204000442,0.6660,0.6250,-0.3555,85.43,85.61,31.89
436,204005442,0.6719,0.6226,-0.3647,86.46,85.61,32.26
437,204010442,0.6753,0.6172,-0.3755,87.26,85.61,32.68
438,204015442,0.6870,0.6133,-0.3872,88.11,85.61,33.11
439,204020442,0.7002,0.6069,-0.3999,88.41,85.67,33.60
440,204025442,0.7104,0.5967,-0.4009,88.90,85.67,34.02
441,204030442,0.7129,0.5981,-0.4189,89.09,85.85,34.39
442,204035441,0.7197,0.5830,-0.4258,89.21,86.89,34.82
443,204040444,0.7295,0.5791,-0.4287,89.21,86.52,35.37
444,204045441,0.7437,0.5776,-0.4302,89.21,87.38,35.91
445,204050442,0.7539,0.5693,-0.4346,89.15,87.99,36.52
446,204055442,0.7651,0.5674,-0.4375,89.09,88.29,37.07
447,204060509,0.7744,0.5645,-0.4365,89.15,89.15,37.56
448,204065441,0.7842,0.5605,-0.4463,89.33,89.76,38.29
449,204070454,0.7930,0.5566,-0.4482,89.70,90.18,38.78
450,204075441,0.8032,0.5532,-0.4546,90.18,90.79,39.45
451,204080486,0.8032,0.5488,-0.4585,90.79,91.65,39.94
452,204085441,0.8062,0.5361,-0.4546,91.22,92.26,40.43
453,204090442,0.8071,0.5303,-0.4575,91.89,93.23,40.91
454,204095442,0.8066,0.5249,-0.4600,92.50,94.21,41.46
455,204100444,0.8066,0.5137,-0.4556,93.35,95.43,41.89
456,204105441,0.8047,0.5049,-0.4546,93.90,96.71,42.32
457,204110442,0.8018,0.4985,-0.4473,94.51,98.05,42.80
458,204115441,0.8003,0.4883,-0.4546,95.12,99.57,43.17
459,204120440,0.7974,0.4805,-0.4575,95.67,100.85,43.66
460,204125440,0.7959,0.4746,-0.4585,96.28,102.38,43.84
461,204130440,0.7954,0.4678,-0.4551,97.20,103.78,44.09
462,204135444,0.7954,0.4629,-0.4556,97.80,105.30,44.33
463,204140958,0.7983,0.4546,-0.4541,98.66,106.83,44.45
464,204145442,0.7949,0.4482,-0.4463,99.27,108.48,44.63
465,204150442,0.7954,0.4443,-0.4399,100.06,110.06,44.70
466,204155442,0.7915,0.4375,-0.4375,100.91,111.71,44.82
467,204160442,0.7900,0.4243,-0.4233,101.52,113.17,44.82
468,204165442,0.7876,0.4185,-0.4194,102.07,114.88,44.70
469,204170442,0.7847,0.4102,-0.4155,102.44,116.34,44.70
470,204175442,0.7817,0.4033,-0.4097,102.68,117.87,44.51
471,204180442,0.7788,0.3931,-0.4014,102.93,119.15,44.09
472,204185442,0.7803,0.3877,-0.3970,103.05,120.55,43.72
473,204190442,0.7744,0.3784,-0.3882,103.29,122.07,43.23
474,204195444,0.7705,0.3701,-0.3755,103.48,123.41,42.80
475,204200442,0.7720,0.3628,-0.3628,103.84,124.76,42.13
476,204205441,0.7607,0.3452,-0.3481,104.39,125.98,41.46
477,204210442,0.7559,0.3389,-0.3306,105.12,127.38,40.79
478,204215442,0.7480,0.3286,-0.3179,106.16,128.54,39.94
479,204220440,0.7417,0.3296,-0.3008,107.50,129.94,39.21
480,204225440,0.7295,0.3291,-0.2935,109.27,131.28,38.11
481,204230440,0.7236,0.3145,-0.2832,111.52,132.44,37.07
482,204235445,0.7349,0.3105,-0.2598,114.02,133.72,35.85
483,204240442,0.7354,0.3115,-0.2476,116.46,134.88,34.70
484,204245441,0.7285,0.3110,-0.2358,119.27,135.98,33.17
485,204250440,0.7104,0.3076,-0.2178,122.01,137.07,31.40
486,204255442,0.6968,0.3008,-0.1938,124.57,138.05,29.70
487,204260442,0.6821,0.3047,-0.1758,127.50,138.72,27.62
488,204265442,0.6763,0.3003,-0.1533,129.15,139.70,25.73
489,204270442,0.6675,0.2979,-0.1328,130.55,140.30,23.41
490,204275442,0.6528,0.2856,-0.1064,133.66,140.98,21.28
491,204280442,0.6372,0.2881,-0.0928,135.85,141.77,18.96
492,204285443,0.6396,0.2832,-0.0723,137.99,142.26,16.59
493,204290442,0.6348,0.2705,-0.0527,139.94,142.80,14.21
494,204295442,0.6313,0.2646,-0.0405,141.65,143.17,12.01
495,204300443,0.6162,0.2607,-0.0332,143.29,143.48,9.76
496,204305442,0.6069,0.2598,-0.0059,144.76,143.60,7.56
497,204310442,0.5996,0.2622,0.0098,146.22,143.54,5.30
498,204315442,0.5879,0.2695,0.0205,147.26,143.23,3.05
499,204320442,0.5825,0.2773,0.0430,148.41,142.93,0.61
500,204325442,0.5742,0.2769,0.0454,149.02,142.38,-1.83
501,204330440,0.5742,0.2842,0.0620,149.21,141.59,-4.45
502,204335440,0.5791,0.2944,0.0742,149.27,140.43,-6.89
503,204340775,0.5723,0.3003,0.0796,148.90,139.09,-9.94
504,204345443,0.5654,0.3120,0.0879,148.17,137.32,-12.87
505,204350442,0.5591,0.3184,0.0962,147.13,135.43,-15.91
506,204355442,0.5469,0.3174,0.1030,146.04,133.29,-19.15
507,204360442,0.5464,0.3057,0.1147,144.63,131.10,-22.32
508,204365441,0.5210,0.3735,0.1157,142.93,128.66,-25.73
509,204370442,0.5010,0.3574,0.1343,141.16,125.98,-29.45
510,204375441,0.4941,0.3271,0.1519,139.82,123.35,-32.87
511,204380442,0.4834,0.3325,0.1748,138.66,120.67,-36.28
512,204385441,0.4653,0.3452,0.1880,138.17,117.87,-39.88
513,204390442,0.4473,0.3530,0.1978,137.99,115.18,-43.48
514,204395441,0.4473,0.3501,0.2246,137.87,112.38,-47.07
515,204400470,0.4141,0.4292,0.2007,137.93,109.57,-50.73
516,204405441,0.3975,0.3789,0.2402,138.29,106.65,-54.70
517,204410442,0.3770,0.3833,0.2627,138.66,103.41,-58.60
518,204415441,0.3662,0.3784,0.2622,139.45,100.43,-62.44
519,204420442,0.3525,0.3799,0.2856,140.49,97.50,-66.34
520,204425441,0.3140,0.4307,0.2837,141.40,94.27,-70.43
521,204430440,0.2896,0.4121,0.3130,142.44,91.22,-74.63
522,204435440,0.2754,0.4189,0.3164,143.17,87.50,-78.78
523,204440440,0.2456,0.4189,0.3301,143.78,85.12,-83.05
524,204445442,0.2192,0.4146,0.3467,144.21,82.20,-87.38
525,204450442,0.1890,0.4238,0.3613,144.09,78.78,-91.89
526,204455441,0.1650,0.4146,0.3716,143.72,75.43,-96.34
527,204460442,0.1353,0.4136,0.3848,142.87,71.95,-101.04
528,204465441,0.1084,0.4146,0.4058,141.71,68.84,-105.73
529,204470442,0.0781,0.4106,0.4170,140.00,65.55,-110.49
530,204475441,0.0522,0.4111,0.4326,138.54,62.87,-114.51
531,204480442,0.0112,0.4126,0.4443,136.04,59.45,-120.67
532,204485441,-0.0161,0.4067,0.4614,134.45,57.01,-124.76
533,204490442,-0.0435,0.3882,0.4824,130.67,53.72,-130.91
534,204495441,-0.0830,0.4365,0.4756,128.90,51.46,-135.18
535,204500442,-0.1191,0.4067,0.4907,128.54,48.90,-140.79
536,204505441,-0.1426,0.3804,0.4961,125.98,46.04,-146.04
537,204510442,-0.1675,0.3701,0.5063,124.09,43.60,-151.16
538,204515442,-0.2065,0.3799,0.5093,122.50,41.10,-156.22
539,204520442,-0.2422,0.3872,0.5059,121.34,38.48,-161.22
540,204525442,-0.2837,0.3931,0.4917,120.61,35.98,-166.40
541,204530440,-0.3184,0.3945,0.4951,120.18,33.23,-171.59
542,204535440,-0.3604,0.3936,0.5020,120.37,30.49,-176.71
543,204541195,-0.4062,0.3950,0.5093,120.91,27.13,-182.87
544,204545442,-0.4434,0.3921,0.5103,121.52,24.82,-186.89
545,204550442,-0.4858,0.3950,0.5063,122.62,21.65,-191.89
546,204555441,-0.5347,0.4004,0.5137,123.54,18.35,-197.07
547,204560442,-0.5801,0.4038,0.5127,124.51,14.94,-202.01
548,204565441,-0.6255,0.4106,0.5186,125.43,11.16,-207.13
549,204570442,-0.6689,0.4087,0.5234,126.46,7.20,-212.32
550,204575441,-0.7104,0.4238,0.5337,126.34,2.74,-217.56
551,204580445,-0.7583,0.4336,0.5366,126.22,-2.74,-223.90
552,204585442,-0.7886,0.4365,0.5430,125.79,-6.65,-228.41
553,204590442,-0.8281,0.4424,0.5522,124.57,-11.83,-234.02
554,204595442,-0.8745,0.4473,0.5620,122.80,-16.95,-239.70
555,204600816,-0.9419,0.4570,0.5640,120.18,-23.90,-246.28
556,204605442,-0.9893,0.4556,0.5684,118.35,-28.78,-250.55
557,204610441,-1.0508,0.4653,0.5723,116.10,-35.18,-255.79
558,204615443,-1.1206,0.4731,0.5771,113.84,-41.95,-260.73
559,204620442,-1.1851,0.4834,0.5840,111.77,-49.27,-265.43
560,204625441,-1.2495,0.5039,0.5977,109.57,-56.89,-270.06
561,204630440,-1.3203,0.5229,0.6094,107.44,-64.88,-274.51
562,204635440,-1.3882,0.5479,0.6270,105.55,-73.54,-278.96
563,204640440,-1.4502,0.5806,0.6338,103.90,-82.56,-283.05
564,204645442,-1.5239,0.6016,0.6445,102.62,-92.20,-287.13
565,204650442,-1.5928,0.6255,0.6509,101.89,-102.07,-291.04
566,204655442,-1.6694,0.6313,0.6548,101.46,-112.62,-294.82
567,204660442,-1.7261,0.6543,0.6611,101.34,-123.54,-298.41
568,204665441,-1.7783,0.6768,0.6787,101.65,-134.94,-301.77
569,204670442,-1.8364,0.6992,0.6704,102.93,-146.52,-305.18
570,204675442,-1.9092,0.7202,0.6533,105.12,-158.90,-308.35
571,204680442,-1.9829,0.7397,0.6421,108.35,-171.83,-311.28
572,204685441,-2.0425,0.7646,0.6177,112.80,-184.94,-313.78
573,204690440,-2.0693,0.7646,0.5854,118.54,-198.66,-315.91
574,204695442,-2.1421,0.7944,0.5688,125.06,-212.32,-317.56
575,204700442,-2.2368,0.8101,0.5283,132.38,-226.83,-318.78
576,204705441,-2.3115,0.8125,0.4795,141.83,-241.59,-319.45
577,204710442,-2.3721,0.8726,0.4644,151.04,-256.46,-319.39
578,204715441,-2.4551,0.8213,0.3906,159.76,-271.89,-319.21
579,204720930,-2.5796,0.8120,0.3179,170.12,-290.67,-317.32
580,204725442,-2.6489,0.8848,0.2842,177.93,-303.23,-315.67
581,204730442,-2.7349,0.9067,0.1934,187.50,-319.57,-313.05
582,204735443,-2.8218,0.9106,0.1479,196.40,-336.04,-309.27
583,204740441,-2.8896,0.9355,0.1201,205.43,-352.26,-304.70
584,204745526,-2.9629,0.9683,0.0854,214.21,-368.29,-299.21
585,204750444,-3.0688,0.9336,-0.0366,221.16,-384.09,-292.50
586,204755441,-3.1914,1.0469,-0.1548,228.11,-399.82,-284.57
587,204760442,-3.2930,1.1152,-0.2510,236.65,-415.43,-276.22
588,204765441,-3.3833,1.1851,-0.3540,247.62,-430.79,-266.65
589,204770442,-3.4487,1.2578,-0.4380,260.98,-445.37,-255.73
590,204775441,-3.5093,1.3149,-0.5254,276.34,-459.27,-243.23
591,204780442,-3.5967,1.3726,-0.6133,293.66,-472.87,-228.72
592,204785441,-3.6748,1.4287,-0.6997,312.13,-485.61,-212.56
593,204790442,-3.7725,1.5005,-0.8203,331.59,-497.74,-194.39
594,204795441,-3.8667,1.5527,-0.8955,352.26,-508.84,-174.27
595,204800442,-3.9668,1.6221,-1.0127,374.27,-518.96,-151.95
596,204805441,-4.0547,1.7129,-1.1147,398.23,-527.68,-127.87
597,204810446,-4.1250,1.7793,-1.1958,424.51,-535.06,-101.83
598,204815441,-4.1621,1.8120,-1.2861,451.89,-540.12,-73.78
599,204820442,-4.2236,1.8604,-1.3906,479.51,-543.29,-43.78
600,204825441,-4.2236,1.8687,-1.4766,508.29,-544.45,-12.38
601,204830472,-4.1333,1.8740,-1.5488,536.77,-542.62,20.67
602,204835442,-4.0601,1.8496,-1.6089,561.34,-537.87,54.51
603,204840443,-4.0054,1.8110,-1.7046,580.67,-530.67,88.48
604,204845441,-3.9507,1.7559,-1.8057,593.84,-520.85,122.26
605,204850474,-3.9263,1.7173,-1.8862,600.98,-508.11,155.00
606,204855441,-3.9238,1.6562,-1.9819,602.80,-493.17,186.40
607,204860442,-3.8892,1.5830,-2.0381,600.12,-475.85,216.65
608,204865441,-3.8223,1.4951,-2.0737,593.90,-455.67,245.37
609,204870442,-3.7915,1.3857,-2.0972,584.39,-433.72,272.32
610,204875442,-3.7397,1.2949,-2.1255,570.98,-410.24,297.01
611,204880876,-3.6592,1.1606,-2.1274,549.76,-380.00,323.23
612,204885442,-3.6553,1.1245,-2.1001,532.20,-359.21,338.96
613,204890442,-3.6284,1.0234,-2.1743,505.91,-332.87,356.40
614,204895442,-3.6099,0.9429,-2.1890,473.84,-306.83,371.77
615,204900918,-3.5669,0.8584,-2.1860,428.72,-276.40,387.13
616,204905442,-3.3359,0.8564,-2.1196,395.24,-256.77,395.73
617,204910443,-3.4653,0.7637,-2.1128,351.71,-232.99,404.76
618,204915442,-3.5166,0.6743,-2.1167,305.49,-210.85,412.50
619,204920442,-3.4341,0.6011,-2.1118,257.07,-190.67,419.57
620,204925442,-3.3213,0.5664,-2.0840,207.68,-172.56,425.67
621,204930442,-3.2329,0.5659,-1.9917,158.05,-156.46,430.85
622,204935443,-3.1636,0.5732,-1.9565,109.63,-142.80,435.37
623,204940442,-3.1152,0.5732,-1.9336,63.48,-131.59,439.39
624,204945442,-3.0781,0.5757,-1.8838,20.43,-123.29,443.35
625,204950440,-3.0317,0.5947,-1.8237,-18.66,-117.62,447.26
626,204955442,-2.9702,0.6187,-1.7690,-52.68,-114.39,451.34
627,204960442,-2.9185,0.6294,-1.7271,-81.10,-113.23,455.37
628,204965443,-2.8574,0.6387,-1.6934,-104.02,-113.72,459.45
629,204970442,-2.8154,0.6592,-1.6606,-121.10,-116.22,463.72
630,204975441,-2.7793,0.6660,-1.6357,-132.93,-119.94,468.05
631,204980442,-2.7544,0.6636,-1.5947,-139.70,-124.70,472.56
632,204985442,-2.7412,0.6606,-1.5581,-142.07,-130.24,477.01
633,204990534,-2.7349,0.6553,-1.5190,-141.04,-136.22,481.83
634,204995443,-2.7300,0.6470,-1.4746,-137.26,-142.44,486.83
635,205000442,-2.7334,0.6475,-1.4390,-131.46,-148.72,491.95
636,205005441,-2.7344,0.6436,-1.3921,-124.45,-155.06,496.77
637,205010558,-2.7344,0.6470,-1.3574,-116.16,-161.04,501.65
638,205015442,-2.7285,0.6323,-1.3281,-107.13,-166.89,506.46
639,205020442,-2.7251,0.6226,-1.3042,-97.87,-172.38,511.10
640,205025442,-2.7290,0.6118,-1.2861,-88.84,-176.95,515.55
641,205030442,-2.7407,0.5869,-1.2676,-79.88,-180.98,519.88
642,205035442,-2.7617,0.5669,-1.2427,-71.28,-184.39,524.09
643,205040442,-2.7725,0.5400,-1.2236,-62.93,-187.07,528.35
644,205045442,-2.7803,0.5112,-1.2036,-55.00,-189.02,532.32
645,205050440,-2.7949,0.4805,-1.1753,-47.32,-190.06,536.28
646,205055442,-2.8032,0.4541,-1.1587,-40.12,-190.49,539.82
647,205060442,-2.7930,0.4219,-1.1274,-33.05,-190.06,543.35
648,205065441,-2.7798,0.3789,-1.1040,-26.52,-188.96,546.52
649,205070444,-2.7539,0.3354,-1.0732,-20.24,-187.20,549.51
650,205075441,-2.7261,0.2983,-1.0391,-14.39,-184.63,552.32
651,205080440,-2.6860,0.2661,-1.0166,-9.51,-181.52,554.51
652,205085444,-2.6455,0.2271,-0.9844,-5.55,-177.68,556.40
653,205090442,-2.6226,0.1870,-0.9614,-2.44,-173.48,557.80
654,205095442,-2.5684,0.1411,-0.9917,-0.85,-169.51,558.54
655,205100442,-2.5244,0.0942,-0.8306,-2.50,-165.61,558.96
656,205105442,-2.4570,0.0649,-0.9355,-4.88,-161.22,558.78
657,205110442,-2.3613,0.0078,-0.8970,-7.38,-156.89,558.48
658,205115442,-2.2861,-0.0352,-0.7749,-9.27,-151.65,557.87
659,205120443,-2.2217,-0.0737,-0.7725,-10.79,-146.34,557.13
660,205125443,-2.1421,-0.1172,-0.8091,-11.22,-140.91,556.22
661,205130442,-2.0728,-0.1592,-0.7817,-10.43,-134.88,555.18
662,205135442,-2.0049,-0.2026,-0.7627,-8.35,-128.17,554.09
663,205140443,-1.9365,-0.2412,-0.7749,-4.94,-121.34,552.74
664,205145442,-1.8877,-0.2563,-0.7729,-0.73,-113.90,550.91
665,205150442,-1.8218,-0.2563,-0.7715,3.78,-106.22,548.23
666,205155442,-1.7856,-0.2959,-0.7480,8.41,-98.35,544.70
667,205160440,-1.7109,-0.3398,-0.8032,13.17,-90.49,540.73
668,205165442,-1.6089,-0.3643,-0.8057,17.44,-82.80,535.91
669,205170442,-1.5122,-0.4072,-0.7803,20.98,-75.30,530.30
670,205175442,-1.4341,-0.4595,-0.7905,23.41,-67.74,524.02
671,205180442,-1.3506,-0.5312,-0.8096,24.82,-61.04,517.01
672,205185442,-1.2808,-0.5703,-0.7832,24.39,-54.70,509.09
673,205190442,-1.2354,-0.6387,-0.7705,21.34,-48.90,500.12
674,205195445,-1.1333,-0.7212,-0.7910,15.55,-43.48,490.55
675,205200442,-1.0107,-0.7827,-0.7876,7.68,-38.90,480.43
676,205205442,-0.9116,-0.8599,-0.7656,-1.71,-35.00,469.63
677,205210442,-0.8164,-0.9185,-0.7466,-11.59,-31.83,458.66
678,205215500,-0.7373,-0.9751,-0.7388,-20.79,-29.02,447.56
679,205220442,-0.6597,-1.0322,-0.7227,-28.66,-26.52,436.40
680,205225442,-0.5977,-1.0742,-0.7026,-35.18,-24.27,425.06
681,205230442,-0.5488,-1.1201,-0.7119,-41.04,-22.07,413.96
682,205235442,-0.4985,-1.1987,-0.7197,-46.10,-20.43,402.74
683,205240443,-0.4292,-1.2720,-0.7334,-50.30,-19.33,391.59
684,205245442,-0.3667,-1.3164,-0.7080,-53.05,-18.35,380.55
685,205250441,-0.3140,-1.3662,-0.7285,-54.15,-17.62,369.70
686,205255442,-0.2627,-1.4189,-0.7275,-53.29,-17.56,358.78
687,205260441,-0.2314,-1.4585,-0.7056,-50.61,-17.62,348.05
688,205265442,-0.2061,-1.5005,-0.6924,-46.52,-17.74,337.26
689,205270442,-0.1714,-1.5469,-0.6753,-40.91,-17.50,326.59
690,205275441,-0.1348,-1.5664,-0.6484,-34.21,-17.13,316.10
691,205280442,-0.1001,-1.5918,-0.6484,-26.65,-16.71,305.43
692,205285441,-0.0688,-1.6250,-0.6289,-18.54,-15.73,294.76
693,205290442,-0.0518,-1.6426,-0.6084,-9.88,-14.88,284.02
694,205295441,-0.0439,-1.6890,-0.6069,-0.43,-13.17,273.17
695,205300442,0.0923,-1.6255,-0.5640,9.33,-11.77,261.46
696,205305441,0.1372,-1.6699,-0.5547,19.21,-9.63,249.33
697,205310442,0.1890,-1.7603,-0.5591,28.29,-7.38,237.38
698,205315442,0.1411,-1.8350,-0.5337,37.32,-5.24,225.24
699,205320440,0.2129,-1.8550,-0.5488,45.85,-2.50,213.29
700,205325442,0.2373,-1.8589,-0.5107,53.23,0.49,200.79
701,205330525,0.2676,-1.8662,-0.4907,59.02,3.41,188.11
702,205335442,0.2842,-1.8784,-0.4873,63.35,6.52,175.43
703,205340742,0.3193,-1.8857,-0.4712,66.28,9.57,162.74
704,205345443,0.2529,-1.8945,-0.4307,68.29,12.56,150.30
705,205350497,0.3247,-1.8633,-0.4541,69.02,15.61,137.80
706,205355442,0.3154,-1.8560,-0.3853,68.17,17.56,127.99
707,205360864,0.3438,-1.8237,-0.3696,65.79,20.73,113.11
708,205365532,0.3408,-1.7959,-0.3726,62.93,23.17,100.98
709,205370442,0.3540,-1.7671,-0.3359,59.63,25.06,88.17
710,205375442,0.3564,-1.7427,-0.3115,56.95,26.52,79.51
711,205380442,0.3638,-1.7061,-0.3013,53.48,28.17,67.68
712,205385442,0.3584,-1.6768,-0.2803,50.37,29.88,56.22
713,205390442,0.3657,-1.6514,-0.2539,47.38,31.16,45.00
714,205395442,0.3643,-1.6196,-0.2432,44.51,32.32,34.02
715,205400442,0.3530,-1.5835,-0.2168,41.46,33.60,21.46
716,205405442,0.3521,-1.5581,-0.1909,39.70,34.21,13.41
717,205410442,0.3457,-1.5220,-0.1753,37.50,35.00,3.66
718,205415441,0.3423,-1.4849,-0.1587,35.67,35.43,-5.73
719,205420444,0.3457,-1.4507,-0.1279,34.02,35.67,-14.76
720,205425441,0.3389,-1.4062,-0.1030,32.56,35.91,-23.48
721,205430442,0.3389,-1.3643,-0.0845,31.34,35.91,-31.71
722,205435441,0.3359,-1.3223,-0.0659,30.55,35.85,-39.63
723,205440442,0.3335,-1.2832,-0.0396,29.63,35.49,-47.01
724,205445441,0.3320,-1.2456,-0.0171,28.78,35.18,-54.21
725,205450442,0.3394,-1.2134,0.0015,28.17,34.63,-60.91
726,205455441,0.3325,-1.1670,0.0205,27.50,33.96,-67.26
727,205460987,0.3286,-1.1191,0.0469,26.83,33.17,-74.45
728,205465442,0.3301,-1.0913,0.0557,26.22,32.26,-79.21
729,205470442,0.3242,-1.0552,0.0654,25.55,31.46,-84.76
730,205475442,0.3208,-1.0181,0.0811,24.63,30.43,-90.00
731,205480442,0.3179,-0.9868,0.0854,24.02,29.33,-95.06
732,205485442,0.3120,-0.9678,0.0933,23.29,28.05,-99.76
733,205490442,0.3062,-0.9204,0.1084,23.05,26.46,-104.45
734,205495442,0.3101,-0.8975,0.1201,22.56,25.37,-108.66
735,205500442,0.3091,-0.8662,0.1318,22.50,23.72,-112.80
736,205505442,0.3154,-0.8374,0.1343,22.26,22.26,-116.71
737,205510444,0.3228,-0.8218,0.1440,21.71,20.55,-120.30
738,205515442,0.3423,-0.8052,0.1504,21.22,18.60,-123.84
739,205520442,0.3599,-0.7832,0.1558,20.24,16.83,-127.20
740,205525442,0.3735,-0.7568,0.1592,19.51,14.70,-130.43
741,205530440,0.3862,-0.7354,0.1631,18.48,12.20,-133.72
742,205535444,0.3931,-0.7148,0.1548,17.50,9.82,-136.77
743,205540444,0.3940,-0.6958,0.1499,16.77,7.38,-139.82
744,205545441,0.3994,-0.6768,0.1489,16.16,4.82,-142.62
745,205550442,0.3979,-0.6558,0.1396,15.91,1.89,-145.43
746,205555441,0.4155,-0.6450,0.1255,15.67,-0.91,-148.11
747,205560440,0.4189,-0.6206,0.1284,15.73,-3.60,-150.85
748,205565442,0.4185,-0.6025,0.1147,16.10,-6.46,-153.48
749,205570442,0.4268,-0.5918,0.1138,16.52,-9.21,-156.04
750,205575442,0.4409,-0.5796,0.1118,17.13,-12.01,-158.60
751,205580517,0.4478,-0.5508,0.1284,17.87,-14.63,-161.10
752,205585497,0.4653,-0.5493,0.1055,18.54,-17.56,-163.60
753,205590440,0.5034,-0.5298,0.1099,18.66,-20.18,-166.04
754,205595442,0.4351,-0.5210,0.0854,18.54,-23.11,-168.60
755,205600442,0.4609,-0.4849,0.0640,18.35,-26.22,-170.91
756,205605441,0.5464,-0.4712,0.0742,17.74,-29.15,-173.29
757,205610442,0.5874,-0.4536,0.0581,17.38,-32.26,-175.43
758,205615441,0.5952,-0.4282,-0.0020,17.13,-35.37,-177.62
759,205620442,0.6016,-0.4082,-0.0293,16.65,-38.60,-179.82
760,205625441,0.5884,-0.3828,-0.0483,15.98,-41.89,-182.07
761,205630620,0.5913,-0.3711,-0.0830,15.30,-45.06,-184.27
762,205635443,0.5923,-0.3442,-0.1113,14.82,-48.23,-186.71
763,205640442,0.5908,-0.3237,-0.1260,13.96,-50.79,-189.15
764,205645442,0.5908,-0.3027,-0.1367,13.35,-53.54,-191.40
765,205650441,0.6040,-0.2827,-0.1494,12.80,-55.91,-193.78
766,205655443,0.6143,-0.2603,-0.1675,12.32,-58.05,-196.10
767,205660441,0.6265,-0.2427,-0.1797,11.77,-59.82,-198.41
768,205665442,0.6416,-0.2163,-0.1919,11.40,-61.71,-200.49
769,205670442,0.6475,-0.2729,-0.2725,11.65,-63.66,-202.26
770,205675441,0.6548,-0.1860,-0.1655,11.95,-65.18,-204.09
771,205680468,0.6909,-0.1372,-0.2393,11.95,-66.40,-205.91
772,205685441,0.7031,-0.1299,-0.3037,11.71,-67.68,-207.80
773,205690442,0.7803,-0.1665,-0.3291,10.73,-69.57,-209.21
774,205695441,0.6997,-0.1294,-0.2368,9.21,-71.71,-210.18
775,205700442,0.6826,-0.1499,-0.3960,7.13,-74.02,-211.10
776,205705441,0.6323,-0.1245,-0.3359,4.02,-75.55,-212.07
777,205710442,0.5811,-0.0957,-0.2446,0.18,-75.79,-212.99
778,205715441,0.5786,-0.1128,-0.4395,-3.11,-76.89,-213.84
779,205720442,0.5859,-0.0962,-0.3618,-6.34,-78.35,-214.45
780,205725441,0.5957,-0.0518,-0.2480,-10.24,-78.66,-215.12
781,205730442,0.5957,-0.0122,-0.2944,-14.88,-78.48,-215.79
782,205735441,0.5640,0.0181,-0.3467,-20.00,-78.23,-216.34
783,205740442,0.5356,0.0498,-0.3149,-25.43,-77.07,-216.77
784,205745441,0.5200,0.0454,-0.2876,-31.16,-75.06,-217.26
785,205750442,0.5254,0.0293,-0.3599,-37.01,-72.99,-217.56
786,205755441,0.5254,0.0249,-0.3950,-42.74,-70.49,-217.80
787,205760443,0.5107,0.0415,-0.3604,-47.50,-67.32,-217.74
788,205765441,0.4834,0.0845,-0.3726,-51.10,-63.41,-217.74
789,205770442,0.4600,0.1323,-0.4297,-53.54,-59.57,-217.44
790,205775441,0.4478,0.1660,-0.4712,-54.33,-55.91,-216.89
791,205780442,0.4463,0.1895,-0.4531,-53.96,-51.77,-216.34
792,205785441,0.4463,0.1929,-0.4375,-52.56,-47.87,-215.67
793,205790442,0.4590,0.2061,-0.5020,-50.61,-44.09,-214.70
794,205795540,0.4507,0.2290,-0.4849,-48.17,-40.43,-213.90
795,205800921,0.4702,0.2607,-0.5308,-44.45,-36.16,-213.11
796,205805442,0.4790,0.2744,-0.4893,-42.26,-33.72,-212.44
797,205810442,0.5054,0.2974,-0.5337,-39.82,-31.28,-211.77
798,205815442,0.5259,0.3237,-0.5186,-37.20,-28.78,-210.91
799,205820441,0.5342,0.3433,-0.4766,-34.02,-26.16,-210.24
800,205825442,0.5435,0.3540,-0.4971,-30.43,-23.84,-209.27
801,205830443,0.5640,0.3662,-0.5430,-26.95,-22.26,-208.23
802,205835442,0.5732,0.3833,-0.5225,-23.54,-20.85,-207.13
803,205840440,0.5732,0.4204,-0.4741,-19.94,-19.21,-205.98
804,205845442,0.5640,0.4697,-0.5122,-16.40,-17.99,-205.30
805,205850442,0.5508,0.5327,-0.5581,-13.23,-17.38,-205.24
806,205855442,0.5488,0.5249,-0.4995,-11.04,-16.77,-205.55
807,205860440,0.5488,0.5269,-0.4580,-9.02,-15.85,-205.79
808,205865441,0.5352,0.5322,-0.4980,-7.26,-15.18,-205.91
809,205870442,0.5151,0.5439,-0.5127,-5.67,-14.51,-205.91
810,205875442,0.4858,0.5649,-0.4751,-3.90,-13.66,-205.98
811,205880442,0.4629,0.5859,-0.4517,-2.44,-12.74,-205.67
812,205885442,0.4434,0.6001,-0.4736,-0.79,-11.77,-205.55
813,205890441,0.4341,0.6094,-0.4819,0.79,-10.73,-205.49
814,205895442,0.4233,0.6172,-0.4473,2.44,-9.51,-205.24
815,205900442,0.4155,0.6279,-0.4355,3.96,-8.48,-204.76
816,205905442,0.4106,0.6367,-0.4751,5.73,-7.26,-204.33
817,205910441,0.3955,0.6499,-0.4644,7.32,-6.28,-203.84
818,205915442,0.3853,0.6685,-0.4438,8.96,-4.88,-203.23
819,205920442,0.3730,0.6938,-0.4517,10.61,-3.66,-202.68
820,205925442,0.3555,0.7114,-0.4771,12.20,-2.44,-201.95
821,205930441,0.3413,0.7285,-0.4775,14.21,-1.22,-201.28
822,205935442,0.3247,0.7412,-0.4604,15.98,0.24,-200.49
823,205940442,0.3154,0.7490,-0.4678,17.87,1.59,-199.82
824,205945442,0.3022,0.7627,-0.4810,19.70,3.11,-198.96
825,205950441,0.2852,0.7793,-0.4790,21.40,4.57,-198.11
826,205955442,0.2676,0.7944,-0.4668,23.35,6.22,-197.13
827,205960441,0.2495,0.8076,-0.4756,25.24,7.80,-196.22
828,205965443,0.2236,0.8174,-0.4893,27.07,9.70,-195.30
829,205970441,0.2119,0.8286,-0.4883,28.78,11.34,-194.15
830,205975442,0.2095,0.8359,-0.4775,30.30,12.99,-193.11
831,205980635,0.2012,0.8481,-0.4858,31.71,14.70,-192.01
832,205985442,0.1997,0.8647,-0.4961,32.99,16.46,-190.91
833,205990441,0.1919,0.8770,-0.4863,34.33,18.11,-189.76
834,205995443,0.1948,0.8823,-0.4888,35.30,19.82,-188.66
835,206000442,0.1958,0.8926,-0.5024,36.16,21.40,-187.50
836,206005442,0.1943,0.9082,-0.5127,36.46,22.68,-186.34
837,206010441,0.1978,0.9116,-0.4956,36.59,24.15,-185.18
838,206015442,0.1978,0.9233,-0.4995,36.22,25.55,-184.02
839,206020442,0.1992,0.9370,-0.5044,35.37,26.71,-183.05
840,206025443,0.1934,0.9507,-0.5093,34.45,27.93,-181.89
841,206030441,0.1865,0.9619,-0.5088,33.23,29.15,-180.79
842,206035442,0.1768,0.9731,-0.5156,31.65,30.24,-179.82
843,206040442,0.1660,0.9941,-0.5327,30.37,31.28,-178.84
844,206045442,0.1626,1.0205,-0.5342,29.15,32.13,-177.87
845,206050441,0.1562,1.0449,-0.5444,28.35,32.93,-176.95
846,206055442,0.1626,1.0640,-0.5361,27.99,33.72,-176.16
847,206060575,0.1631,1.0742,-0.5386,27.62,34.51,-175.43
848,206065496,0.1660,1.0786,-0.5342,27.20,35.37,-174.57
849,206070441,0.1577,1.0903,-0.5347,26.46,36.04,-173.54
850,206075441,0.1514,1.1001,-0.5342,25.61,37.07,-172.32
851,206080443,0.1392,1.1157,-0.5386,24.33,37.99,-171.10
852,206085688,0.1196,1.1265,-0.5391,22.50,38.96,-170.00
853,206090443,0.1123,1.1445,-0.5400,20.67,39.63,-168.72
854,206095442,0.0947,1.1880,-0.5967,19.15,40.24,-167.50
855,206100441,0.0972,1.1748,-0.5615,19.33,40.43,-166.71
856,206105443,0.1392,1.1167,-0.4326,19.51,41.71,-164.76
857,206110441,0.1313,1.1455,-0.4814,18.90,43.84,-162.74
858,206115440,0.0894,1.1479,-0.5186,17.93,45.43,-160.55
859,206120444,0.0527,1.1641,-0.5225,16.52,46.77,-158.29
860,206125441,0.0352,1.1685,-0.5132,14.94,48.41,-155.85
861,206130442,0.0308,1.1807,-0.5127,13.54,50.06,-153.29
862,206135442,0.0322,1.1943,-0.5146,12.26,51.89,-150.55
863,206140443,0.0176,1.2070,-0.5190,11.22,53.41,-147.99
864,206145442,0.0034,1.2339,-0.5288,10.91,55.00,-145.37
865,206150442,-0.0020,1.2637,-0.5176,12.13,56.16,-143.05
866,206155442,0.0225,1.2036,-0.4106,14.02,57.80,-140.37
867,206160442,0.0347,1.2056,-0.4497,15.61,60.00,-137.38
868,206165442,0.0166,1.2056,-0.4673,16.34,61.46,-134.33
869,206170442,-0.0093,1.2109,-0.4609,16.89,62.93,-131.28
870,206175442,-0.0151,1.2144,-0.4541,17.13,64.45,-128.23
871,206180442,-0.0176,1.2275,-0.4585,16.95,65.61,-125.00
872,206185442,-0.0166,1.2363,-0.4644,16.59,66.83,-121.95
873,206190442,-0.0264,1.2607,-0.4800,16.04,67.87,-118.96
874,206195443,-0.0547,1.3125,-0.5337,17.68,67.74,-116.59
875,206200442,-0.0088,1.1841,-0.2998,20.18,68.72,-113.60
876,206205442,0.0205,1.1875,-0.3594,21.46,70.55,-110.18
877,206210442,-0.0024,1.1782,-0.4077,21.89,71.34,-107.01
878,206215442,-0.0288,1.1846,-0.4165,21.59,71.89,-103.60
879,206220442,-0.0366,1.1992,-0.3960,20.79,72.44,-100.49
880,206225444,-0.0278,1.2153,-0.3892,19.88,72.68,-97.50
881,206230441,-0.0439,1.2979,-0.5005,19.39,72.32,-94.76
882,206235442,-0.0415,1.2222,-0.3989,20.43,71.59,-93.11
883,206240440,0.0093,1.1533,-0.2783,21.83,71.71,-89.94
884,206245442,0.0063,1.1689,-0.3271,22.13,72.20,-86.65
885,206250441,-0.0112,1.1626,-0.3335,21.65,72.07,-83.60
886,206255442,-0.0229,1.1646,-0.3442,20.55,71.71,-80.67
887,206260440,-0.0186,1.1665,-0.3398,18.90,71.22,-77.56
888,206265442,-0.0161,1.1626,-0.3389,16.83,70.73,-74.76
889,206270441,-0.0166,1.1763,-0.3252,14.63,70.12,-71.89
890,206275443,-0.0303,1.1841,-0.3506,12.32,69.51,-69.27
891,206280803,-0.0425,1.1934,-0.3516,11.22,67.87,-66.77
892,206285442,-0.0161,1.1313,-0.2168,10.98,67.32,-64.88
893,206290441,0.0024,1.1328,-0.2544,9.82,67.20,-62.26
894,206295444,-0.0156,1.1465,-0.3086,8.41,66.71,-59.94
895,206300440,-0.0317,1.1406,-0.2974,6.71,65.85,-57.87
896,206305442,-0.0405,1.1519,-0.2847,4.70,64.94,-55.79
897,206310441,-0.0396,1.1694,-0.2852,2.99,64.21,-54.09
898,206315442,-0.0410,1.1816,-0.3013,1.04,63.11,-52.44
899,206320440,-0.0439,1.1851,-0.3008,-1.22,62.07,-51.04
900,206325442,-0.0435,1.1782,-0.2764,-3.35,61.04,-49.70
901,206330441,-0.0474,1.1650,-0.2734,-5.79,60.24,-48.29
902,206335442,-0.0459,1.1553,-0.2915,-8.29,58.84,-46.77
903,206340442,-0.0425,1.1475,-0.2749,-10.73,57.74,-45.49
904,206345440,-0.0454,1.1445,-0.2607,-13.17,56.65,-44.15
905,206350491,-0.0483,1.1484,-0.2603,-15.49,55.55,-42.87
906,206355441,-0.0483,1.1489,-0.2588,-17.74,54.57,-41.52
907,206360442,-0.0474,1.1445,-0.2466,-19.94,53.48,-40.24
908,206365441,-0.0498,1.1299,-0.2241,-21.89,52.62,-38.96
909,206370442,-0.0518,1.1172,-0.2236,-23.78,51.65,-37.74
910,206375442,-0.0557,1.1021,-0.2358,-25.55,50.43,-36.40
911,206380442,-0.0591,1.0874,-0.2129,-27.07,49.57,-35.00
912,206385442,-0.0557,1.0850,-0.1968,-28.54,48.54,-33.60
913,206390585,-0.0547,1.0801,-0.2017,-29.70,47.44,-32.13
914,206395444,-0.0571,1.0771,-0.2002,-30.55,46.46,-30.67
915,206400441,-0.0645,1.0620,-0.1880,-31.16,45.43,-29.02
916,206405442,-0.0601,1.0542,-0.1772,-31.46,44.39,-27.38
917,206410440,-0.0586,1.0444,-0.1855,-31.77,43.11,-25.85
918,206415442,-0.0557,1.0352,-0.1758,-31.59,42.07,-24.21
919,206420441,-0.0522,1.0278,-0.1597,-31.04,40.98,-22.68
920,206425442,-0.0566,1.0234,-0.1616,-30.30,39.82,-20.98
921,206430440,-0.0640,1.0259,-0.1685,-29.33,38.60,-19.39
922,206435824,-0.0635,1.0210,-0.1558,-27.74,37.32,-17.62
923,206440442,-0.0649,1.0137,-0.1460,-26.52,36.46,-16.46
924,206445441,-0.0659,1.0142,-0.1465,-24.82,35.30,-15.12
925,206450442,-0.0610,1.0122,-0.1587,-22.99,34.27,-13.72
926,206455443,-0.0640,1.0034,-0.1519,-21.16,33.23,-12.44
927,206460442,-0.0649,1.0044,-0.1567,-19.09,32.20,-11.04
928,206465442,-0.0669,1.0088,-0.1553,-17.01,31.22,-9.63
929,206470442,-0.0630,1.0059,-0.1592,-15.00,30.18,-8.23
930,206475442,-0.0562,1.0024,-0.1592,-13.05,29.09,-6.83
931,206480441,-0.0552,0.9990,-0.1548,-11.34,28.29,-5.55
932,206485442,-0.0459,0.9941,-0.1587,-9.76,27.13,-4.02
933,206490441,-0.0347,0.9893,-0.1606,-8.48,25.91,-2.44
934,206495442,-0.0288,0.9878,-0.1602,-7.32,25.06,-1.04
935,206500442,-0.0171,0.9834,-0.1685,-6.52,23.84,0.55
936,206505442,0.0000,0.9824,-0.1758,-5.67,22.56,2.13
937,206510442,0.0122,0.9810,-0.1748,-4.94,21.28,3.72
938,206515442,0.0259,0.9800,-0.1812,-4.21,19.88,5.24
939,206520442,0.0464,0.9863,-0.1846,-3.48,18.41,6.89
940,206525442,0.0610,0.9805,-0.1938,-2.80,16.95,8.35
941,206530442,0.0771,0.9849,-0.1978,-2.26,15.37,9.76
942,206535442,0.0991,0.9844,-0.2021,-1.59,13.66,11.22
943,206540442,0.1235,0.9849,-0.2134,-1.04,12.20,12.62
944,206546290,0.1396,0.9844,-0.2246,-0.24,10.06,14.21
945,206550444,0.1499,0.9897,-0.2310,0.37,8.48,15.43
946,206555442,0.1548,0.9897,-0.2329,0.73,7.26,16.40
947,206560441,0.1636,0.9902,-0.2378,1.28,5.85,17.62
948,206565442,0.1641,0.9897,-0.2510,1.71,4.21,18.48
949,206570440,0.1646,0.9922,-0.2554,2.20,3.17,19.57
950,206575448,0.1646,0.9907,-0.2612,2.68,2.01,20.49
951,206580444,0.1636,0.9922,-0.2734,3.17,0.98,21.22
952,206585440,0.1558,0.9932,-0.2793,3.72,0.12,22.07
953,206590443,0.1470,0.9941,-0.2788,4.09,-0.43,22.93
954,206595440,0.1357,0.9946,-0.2910,4.39,-0.91,23.41
955,206600444,0.1274,0.9937,-0.2935,4.51,-1.10,24.09
956,206605442,0.1182,0.9912,-0.2930,4.76,-1.16,24.76
957,206610442,0.1104,0.9883,-0.3018,4.70,-1.16,25.30
958,206615442,0.1045,0.9868,-0.3066,4.51,-0.91,26.04
959,206620442,0.0986,0.9858,-0.3096,4.39,-0.67,26.59
960,206625442,0.0869,0.9858,-0.3135,3.90,-0.30,27.13
961,206630442,0.0757,0.9795,-0.3242,3.29,0.12,27.80
962,206635442,0.0713,0.9780,-0.3247,2.74,0.49,28.41
963,206640442,0.0664,0.9780,-0.3218,1.95,1.10,28.96
964,206645442,0.0679,0.9727,-0.3232,1.04,1.52,29.45
965,206650442,0.0649,0.9673,-0.3193,0.24,2.07,29.94
966,206655442,0.0630,0.9663,-0.3296,-0.85,2.56,30.43
967,206660443,0.0620,0.9648,-0.3281,-1.95,2.87,31.10
968,206665442,0.0591,0.9575,-0.3252,-2.68,3.23,31.46
969,206670442,0.0557,0.9565,-0.3193,-3.23,3.66,31.95
970,206675442,0.0591,0.9570,-0.3145,-3.84,4.02,32.38
971,206680442,0.0566,0.9497,-0.3203,-4.27,4.39,32.74
972,206685516,0.0659,0.9399,-0.3179,-4.63,4.57,33.23
973,206690915,0.0693,0.9321,-0.3057,-4.63,4.76,33.66
974,206695487,0.0713,0.9312,-0.3066,-4.76,4.88,33.78
975,206700441,0.0757,0.9253,-0.3032,-4.57,5.00,34.21
976,206705442,0.0840,0.9199,-0.3003,-4.21,4.94,34.45
977,206710442,0.0845,0.9194,-0.2964,-3.84,4.76,34.70
978,206715442,0.0918,0.9194,-0.2959,-3.35,4.82,35.00
979,206720441,0.0928,0.9082,-0.2925,-2.62,4.70,35.06
980,206725442,0.0986,0.9033,-0.2979,-1.95,4.51,35.12
981,206730441,0.1084,0.8945,-0.2925,-1.52,4.21,35.37
982,206735442,0.1108,0.8901,-0.2935,-0.91,4.27,35.43
983,206740441,0.1182,0.8848,-0.2925,-0.30,3.96,35.49
984,206745442,0.1240,0.8857,-0.2969,0.43,3.54,35.55
985,206750441,0.1279,0.8813,-0.2871,1.16,3.41,35.49
986,206755442,0.1284,0.8770,-0.2891,1.95,2.99,35.37
987,206760441,0.1323,0.8726,-0.2891,2.50,2.80,35.24
988,206765442,0.1401,0.8657,-0.2876,3.05,2.56,35.12
989,206770441,0.1431,0.8657,-0.2856,3.66,2.32,34.82
990,206775444,0.1489,0.8599,-0.2861,4.09,2.01,34.57
991,206780441,0.1558,0.8643,-0.2876,4.45,1.65,34.33
992,206785442,0.1562,0.8623,-0.2866,4.70,1.28,33.90
993,206790440,0.1538,0.8594,-0.2920,5.06,1.10,33.54
994,206795442,0.1533,0.8574,-0.2900,5.06,0.79,32.93
995,206800441,0.1519,0.8555,-0.2856,4.94,0.61,32.50
996,206805442,0.1523,0.8550,-0.2930,4.70,0.49,31.95
997,206810441,0.1543,0.8491,-0.2896,4.27,0.43,31.59
998,206815444,0.1597,0.8501,-0.2920,3.78,0.12,30.98
999,206820441,0.1592,0.8462,-0.2905,3.35,0.24,30.55
1000,206825442,0.1602,0.8481,-0.2891,2.74,0.06,29.94
1001,206830898,0.1582,0.8467,-0.2925,2.20,-0.06,29.27
1002,206835445,0.1641,0.8418,-0.2915,1.59,0.00,28.72
1003,206840441,0.1660,0.8418,-0.2949,0.98,-0.06,28.11
1004,206845442,0.1680,0.8413,-0.2925,0.61,0.00,27.56
1005,206850442,0.1655,0.8374,-0.2900,0.24,-0.12,26.89
1006,206855442,0.1670,0.8384,-0.2949,0.06,0.00,26.16
1007,206860441,0.1670,0.8398,-0.2915,0.06,-0.06,25.61
1008,206865444,0.1714,0.8398,-0.2881,0.06,0.00,25.00
1009,206870441,0.1704,0.8325,-0.2900,0.00,-0.06,24.33
1010,206875442,0.1758,0.8350,-0.2949,0.12,-0.12,23.72
1011,206880441,0.1807,0.8330,-0.2910,0.18,-0.24,23.11
1012,206885442,0.1841,0.8315,-0.2827,0.06,0.00,22.56
1013,206890442,0.1821,0.8301,-0.2905,-0.06,-0.24,21.95
1014,206895440,0.1895,0.8296,-0.2866,-0.18,-0.30,21.40
1015,206900441,0.1895,0.8257,-0.2861,-0.18,-0.49,20.85
1016,206905442,0.1924,0.8301,-0.2842,-0.18,-0.67,20.30
1017,206910441,0.1924,0.8291,-0.2920,-0.18,-1.04,19.82
1018,206915442,0.1938,0.8276,-0.2852,-0.06,-1.04,19.15
1019,206920441,0.1982,0.8276,-0.2832,0.06,-1.34,18.72
1020,206925442,0.1982,0.8276,-0.2773,0.18,-1.52,18.11
1021,206930441,0.2017,0.8330,-0.2817,0.30,-1.77,17.56
1022,206935442,0.1997,0.8286,-0.2808,0.55,-2.07,16.95
1023,206940441,0.1987,0.8320,-0.2832,0.91,-2.38,16.46
1024,206945442,0.1997,0.8359,-0.2837,1.28,-2.62,15.91
1025,206950442,0.1997,0.8350,-0.2798,1.65,-2.74,15.24
1026,206955442,0.2017,0.8320,-0.2822,2.13,-2.99,14.70
1027,206960440,0.1992,0.8320,-0.2827,2.56,-3.17,14.15
1028,206965442,0.1987,0.8335,-0.2852,2.99,-3.29,13.66
1029,206970441,0.2002,0.8325,-0.2876,3.54,-3.48,13.23
1030,206975442,0.2041,0.8354,-0.2812,3.96,-3.54,12.62
1031,206980441,0.2041,0.8364,-0.2866,4.39,-3.72,12.26
1032,206985442,0.1992,0.8394,-0.2822,4.88,-3.78,11.52
1033,206990441,0.2012,0.8369,-0.2832,5.24,-4.02,11.10
1034,206995442,0.2017,0.8369,-0.2842,5.37,-4.02,10.61
1035,207000441,0.2041,0.8384,-0.2842,5.61,-4.15,10.18
1036,207005442,0.2070,0.8384,-0.2793,5.61,-4.33,9.63
1037,207010441,0.2061,0.8374,-0.2876,5.61,-4.45,9.15
1038,207015442,0.2090,0.8374,-0.2861,5.49,-4.39,8.72
1039,207020442,0.2046,0.8413,-0.2920,5.43,-4.51,8.17
1040,207025442,0.2036,0.8389,-0.2852,5.12,-4.57,7.62
1041,207030441,0.2056,0.8413,-0.2847,4.70,-4.57,7.20
1042,207035444,0.2085,0.8408,-0.2891,4.39,-4.88,6.77
1043,207040441,0.2095,0.8472,-0.2935,3.90,-4.88,6.28
1044,207045442,0.2114,0.8486,-0.2861,3.78,-4.94,5.85
1045,207050441,0.2061,0.8438,-0.2861,3.17,-4.94,5.24
1046,207055442,0.2070,0.8506,-0.2935,2.99,-4.94,4.94
1047,207060441,0.2051,0.8481,-0.2920,2.62,-4.70,4.39
1048,207065442,0.2056,0.8472,-0.2842,2.44,-4.76,3.90
1049,207070442,0.2065,0.8491,-0.2925,2.20,-4.51,3.54
1050,207075441,0.2065,0.8496,-0.2866,2.13,-4.63,3.05
1051,207080442,0.2100,0.8530,-0.2886,1.95,-4.33,2.56
1052,207085441,0.2100,0.8530,-0.2920,2.07,-4.27,2.13
1053,207090441,0.2124,0.8540,-0.2930,2.26,-4.21,1.65
1054,207095442,0.2119,0.8550,-0.2998,2.38,-3.78,1.34
1055,207100728,0.2109,0.8579,-0.2998,2.56,-3.54,0.79
1056,207105588,0.2144,0.8594,-0.2944,2.87,-3.41,0.37
1057,207110442,0.2173,0.8628,-0.2998,2.93,-3.29,0.18
1058,207115442,0.2158,0.8613,-0.2993,3.23,-3.05,-0.24
1059,207120444,0.2197,0.8618,-0.3018,3.60,-2.87,-0.49
1060,207125442,0.2227,0.8652,-0.2988,3.66,-2.80,-0.79
1061,207130442,0.2202,0.8667,-0.2988,3.84,-2.44,-1.04
1062,207135443,0.2222,0.8643,-0.3008,4.02,-2.20,-1.28
1063,207140440,0.2227,0.8682,-0.2959,3.84,-2.13,-1.59
1064,207145440,0.2231,0.8706,-0.3018,3.90,-1.95,-1.71
1065,207150442,0.2266,0.8696,-0.3037,3.72,-1.71,-1.95
1066,207155442,0.2231,0.8716,-0.3022,3.54,-1.65,-2.20
1067,207160797,0.2197,0.8750,-0.2969,3.41,-1.40,-2.56
1068,207165442,0.2188,0.8706,-0.2939,3.17,-1.28,-2.56
1069,207170441,0.2197,0.8760,-0.3062,2.93,-1.10,-2.74
1070,207175442,0.2183,0.8774,-0.3066,2.80,-1.10,-2.99
1071,207180440,0.2173,0.8823,-0.3037,2.80,-0.85,-3.17
1072,207185442,0.2153,0.8848,-0.3037,2.74,-0.67,-3.29
1073,207190442,0.2134,0.8882,-0.3022,2.68,-0.61,-3.29
1074,207195445,0.2139,0.8887,-0.3047,2.99,-0.43,-3.54
1075,207200440,0.2080,0.8926,-0.3057,3.17,-0.24,-3.54
1076,207205441,0.2129,0.8936,-0.3008,3.23,-0.18,-3.60
1077,207210442,0.2114,0.8911,-0.3018,3.48,0.06,-3.54
1078,207215441,0.2119,0.8931,-0.3027,3.72,0.00,-3.66
1079,207220442,0.2114,0.8936,-0.3022,3.78,0.30,-3.60
1080,207225442,0.2095,0.8955,-0.3086,3.90,0.55,-3.48
1081,207230442,0.2075,0.8975,-0.3052,3.96,0.61,-3.35
1082,207235442,0.2026,0.8970,-0.2974,3.96,0.67,-3.29
1083,207240442,0.2046,0.9004,-0.3027,3.84,0.98,-3.35
1084,207245442,0.2031,0.9009,-0.3003,3.54,1.10,-3.23
1085,207250442,0.2012,0.9004,-0.3018,3.48,1.40,-3.23
1086,207255442,0.2056,0.9053,-0.2983,3.05,1.40,-3.23
1087,207260442,0.2036,0.9043,-0.2993,2.80,1.71,-3.05
1088,207265443,0.2061,0.9062,-0.3003,2.68,1.77,-2.93
1089,207270442,0.2075,0.9062,-0.3052,2.20,1.95,-2.80
1090,207275443,0.2061,0.9062,-0.3047,1.89,2.01,-2.80
1091,207280442,0.2090,0.9053,-0.3037,1.71,2.13,-2.74
1092,207285442,0.2104,0.9038,-0.3037,1.59,2.13,-2.62
1093,207290442,0.2114,0.9053,-0.2988,1.34,2.32,-2.38
1094,207295442,0.2119,0.9028,-0.2974,1.16,2.32,-2.26
1095,207300473,0.2163,0.9058,-0.2969,1.10,2.32,-2.01
1096,207305442,0.2139,0.9062,-0.2920,1.16,2.32,-1.83
1097,207310442,0.2139,0.9014,-0.2935,1.04,2.38,-1.65
1098,207315442,0.2139,0.9072,-0.2925,1.28,2.26,-1.46
1099,207320442,0.2168,0.9087,-0.2959,1.59,2.38,-1.28
1100,207325442,0.2178,0.9082,-0.2979,1.77,2.38,-0.98
1101,207330442,0.2178,0.9058,-0.2910,2.13,2.26,-0.67
1102,207335442,0.2183,0.9116,-0.2891,2.50,2.32,-0.49
1103,207340442,0.2148,0.9111,-0.2935,2.74,2.20,-0.24
1104,207345442,0.2139,0.9067,-0.2939,3.11,2.26,0.00
1105,207350442,0.2153,0.9116,-0.2930,3.35,2.20,0.30
1106,207355442,0.2144,0.9106,-0.2871,3.54,2.26,0.61
1107,207360442,0.2168,0.9102,-0.2871,3.72,2.38,0.85
1108,207365443,0.2124,0.9111,-0.2842,3.84,2.20,1.10
1109,207370442,0.2168,0.9062,-0.2871,3.84,2.01,1.16
1110,207375442,0.2168,0.9062,-0.2891,3.72,2.13,1.52
1111,207380442,0.2168,0.9092,-0.2812,3.54,2.01,1.89
1112,207385443,0.2183,0.9097,-0.2808,3.29,1.89,2.07
1113,207390442,0.2148,0.9116,-0.2808,3.11,1.65,2.26
1114,207395443,0.2153,0.9067,-0.2803,2.93,1.52,2.56
1115,207400442,0.2124,0.9126,-0.2769,2.68,1.34,2.68
1116,207405442,0.2109,0.9131,-0.2759,2.50,0.98,2.93
1117,207410442,0.2139,0.9121,-0.2773,2.38,0.79,3.17
1118,207415442,0.2109,0.9097,-0.2720,2.32,0.67,3.17
1119,207420442,0.2119,0.9092,-0.2720,2.26,0.49,3.41
1120,207425443,0.2119,0.9146,-0.2725,2.20,0.18,3.54
1121,207430442,0.2124,0.9155,-0.2681,2.26,-0.06,3.72
1122,207435442,0.2095,0.9146,-0.2769,2.32,-0.24,3.84
1123,207440442,0.2080,0.9126,-0.2729,2.26,-0.61,4.02
1124,207445442,0.2051,0.9170,-0.2734,2.38,-0.91,4.15
1125,207450442,0.2075,0.9126,-0.2656,2.50,-1.22,4.27
1126,207455442,0.2070,0.9097,-0.2637,2.38,-1.65,4.45
1127,207460442,0.2104,0.9146,-0.2681,2.38,-1.71,4.63
1128,207465442,0.2051,0.9121,-0.2681,2.38,-2.20,4.82
1129,207470442,0.2065,0.9102,-0.2656,2.44,-2.26,5.00
1130,207475442,0.2041,0.9150,-0.2661,2.38,-2.50,5.18
1131,207480443,0.2036,0.9131,-0.2671,2.26,-2.99,5.43
1132,207485442,0.2012,0.9106,-0.2754,2.38,-3.35,5.61
1133,207490442,0.2061,0.9111,-0.2661,2.26,-3.66,5.79
1134,207495442,0.2036,0.9048,-0.2573,2.26,-3.96,5.98
1135,207500442,0.2061,0.9028,-0.2622,2.26,-4.33,6.22
1136,207505442,0.2100,0.9053,-0.2661,2.20,-4.70,6.40
1137,207510473,0.2095,0.9033,-0.2671,2.26,-5.06,6.59
1138,207515442,0.2085,0.9014,-0.2642,2.44,-5.43,6.89
1139,207520442,0.2021,0.8994,-0.2607,2.56,-5.91,6.89
1140,207525442,0.2012,0.8975,-0.2656,2.87,-6.28,7.01
1141,207530442,0.2085,0.8975,-0.2617,2.93,-6.52,7.13
1142,207535442,0.2036,0.8945,-0.2603,3.17,-7.07,7.32
1143,207540442,0.2085,0.8994,-0.2681,3.35,-7.44,7.38
1144,207545442,0.2085,0.9014,-0.2573,3.60,-7.87,7.44
1145,207550442,0.2061,0.8960,-0.2598,3.90,-8.17,7.56
1146,207555442,0.2075,0.8950,-0.2612,4.15,-8.60,7.56
1147,207560442,0.2090,0.8926,-0.2705,4.45,-9.09,7.62
1148,207565442,0.2095,0.8931,-0.2656,4.70,-9.27,7.68
1149,207570442,0.2104,0.8921,-0.2637,5.00,-9.51,7.62
1150,207575443,0.2124,0.8882,-0.2676,5.18,-9.88,7.68
1151,207580442,0.2134,0.8862,-0.2661,5.24,-10.24,7.74
1152,207585445,0.2065,0.8862,-0.2681,5.43,-10.67,7.80
1153,207590441,0.2095,0.8853,-0.2720,5.49,-10.91,7.80
1154,207595444,0.2114,0.8833,-0.2646,5.67,-10.98,7.80
1155,207600441,0.2134,0.8838,-0.2749,5.79,-11.28,7.74
1156,207605442,0.2148,0.8848,-0.2764,5.79,-11.52,7.68
1157,207610440,0.2129,0.8838,-0.2754,5.91,-11.77,7.62
1158,207615442,0.2090,0.8799,-0.2817,6.04,-11.89,7.56
1159,207620441,0.2114,0.8794,-0.2866,6.22,-12.07,7.32
1160,207625442,0.2114,0.8765,-0.2769,6.40,-12.07,7.26
1161,207630441,0.2144,0.8784,-0.2871,6.59,-12.32,7.07
1162,207635442,0.2090,0.8784,-0.2910,6.71,-12.26,6.89
1163,207640441,0.2129,0.8799,-0.2905,6.95,-12.32,6.83
1164,207645442,0.2158,0.8779,-0.2896,7.13,-12.32,6.65
1165,207650441,0.2119,0.8740,-0.2930,7.20,-12.32,6.52
1166,207655442,0.2158,0.8726,-0.2939,7.44,-12.38,6.46
1167,207660441,0.2207,0.8706,-0.2915,7.38,-12.20,6.16
1168,207665442,0.2222,0.8706,-0.2925,7.50,-12.26,5.98
1169,207670441,0.2188,0.8677,-0.2920,7.50,-12.07,5.79
1170,207675442,0.2114,0.8657,-0.2876,7.50,-11.89,5.67
1171,207680442,0.2148,0.8672,-0.2939,7.50,-11.83,5.49
1172,207685441,0.2153,0.8628,-0.2910,7.56,-11.71,5.30
1173,207690442,0.2144,0.8564,-0.2900,7.56,-11.46,5.06
1174,207695441,0.2134,0.8613,-0.2930,7.74,-11.34,5.06
1175,207700445,0.2080,0.8657,-0.2905,7.68,-11.22,4.63
1176,207705441,0.2090,0.8623,-0.2896,7.80,-11.10,4.51
1177,207710442,0.2080,0.8618,-0.2852,8.05,-10.98,4.21
1178,207715442,0.1997,0.8643,-0.2939,8.17,-10.79,3.78
1179,207720567,0.2046,0.8652,-0.2876,8.35,-10.55,3.48
1180,207725442,0.1997,0.8647,-0.2891,8.48,-10.37,2.99
1181,207730441,0.1963,0.8657,-0.2861,8.29,-10.24,2.56
1182,207735442,0.1938,0.8662,-0.2876,8.48,-9.88,2.01
1183,207740441,0.1895,0.8647,-0.2808,8.41,-9.82,1.40
1184,207745442,0.1924,0.8677,-0.2905,8.29,-9.63,0.91
1185,207750441,0.1855,0.8687,-0.2837,8.35,-9.51,0.43
1186,207755442,0.1860,0.8696,-0.2803,8.29,-9.33,-0.37
1187,207760441,0.1768,0.8721,-0.2764,8.05,-9.21,-0.91
1188,207765442,0.1709,0.8696,-0.2734,7.93,-8.90,-1.77
1189,207770441,0.1689,0.8682,-0.2769,7.44,-8.78,-2.38
1190,207775444,0.1665,0.8633,-0.2778,6.83,-8.60,-3.11
1191,207780440,0.1655,0.8691,-0.2778,5.98,-8.66,-3.84
1192,207785444,0.1626,0.8682,-0.2764,5.43,-8.54,-4.70
1193,207790441,0.1597,0.8647,-0.2749,4.45,-8.54,-5.43
1194,207795442,0.1602,0.8623,-0.2754,3.72,-8.41,-6.16
1195,207800441,0.1533,0.8633,-0.2754,2.87,-8.41,-7.01
1196,207805444,0.1514,0.8608,-0.2773,2.01,-8.60,-7.68
1197,207810441,0.1489,0.8599,-0.2773,1.40,-8.54,-8.35
1198,207815442,0.1504,0.8560,-0.2710,0.79,-8.66,-8.96
1199,207820441,0.1479,0.8491,-0.2759,0.06,-8.78,-9.57
1200,207825442,0.1470,0.8452,-0.2725,-0.49,-9.09,-10.12
1201,207830441,0.1470,0.8403,-0.2681,-0.98,-9.21,-10.49
1202,207835442,0.1455,0.8374,-0.2661,-1.28,-9.63,-10.61
1203,207840441,0.1455,0.8320,-0.2676,-1.34,-9.76,-10.85
1204,207845442,0.1440,0.8257,-0.2627,-1.52,-10.12,-10.98
1205,207850444,0.1440,0.8252,-0.2661,-1.28,-10.61,-10.98
1206,207855442,0.1450,0.8223,-0.2681,-0.73,-10.91,-10.91
1207,207860442,0.1445,0.8198,-0.2686,-0.37,-11.52,-10.85
1208,207865442,0.1440,0.8203,-0.2710,0.30,-12.26,-10.79
1209,207870442,0.1543,0.8169,-0.2734,1.16,-13.05,-10.67
1210,207875442,0.1562,0.8188,-0.2769,2.32,-13.96,-10.55
1211,207880442,0.1631,0.8145,-0.2856,3.29,-14.82,-10.37
1212,207885442,0.1704,0.8164,-0.2905,4.15,-15.73,-10.12
1213,207890442,0.1821,0.8169,-0.2998,5.55,-17.07,-10.06
1214,207895442,0.1919,0.8149,-0.3062,6.77,-18.41,-9.88
1215,207900441,0.2002,0.8110,-0.3057,7.80,-19.27,-9.82
1216,207905442,0.2139,0.8140,-0.3169,8.96,-20.61,-9.57
1217,207910440,0.2271,0.8159,-0.3223,10.12,-21.89,-9.57
1218,207915443,0.2339,0.8188,-0.3276,11.28,-23.35,-9.57
1219,207920904,0.2466,0.8208,-0.3452,12.68,-24.94,-9.57
1220,207925442,0.2510,0.8208,-0.3496,13.78,-26.04,-9.70
1221,207930441,0.2534,0.8262,-0.3599,14.82,-27.20,-9.94
1222,207935442,0.2593,0.8340,-0.3770,15.98,-28.29,-10.30
1223,207940440,0.2637,0.8369,-0.3823,17.32,-29.21,-10.91
1224,207945442,0.2559,0.8452,-0.3940,18.48,-30.12,-11.52
1225,207950441,0.2500,0.8511,-0.3989,19.88,-30.61,-12.38
1226,207955442,0.2490,0.8516,-0.4126,21.04,-30.79,-13.17
1227,207960896,0.2412,0.8506,-0.4214,22.38,-30.91,-14.21
1228,207965442,0.2397,0.8530,-0.4233,23.17,-30.85,-15.12
1229,207970441,0.2402,0.8457,-0.4287,24.09,-30.55,-16.04
1230,207975442,0.2349,0.8452,-0.4336,24.63,-29.88,-16.89
1231,207980440,0.2383,0.8389,-0.4331,24.82,-29.45,-17.87
1232,207985444,0.2373,0.8350,-0.4287,24.88,-28.54,-18.90
1233,207990553,0.2363,0.8223,-0.4282,24.39,-27.38,-20.00
1234,207995442,0.2373,0.8198,-0.4282,23.84,-26.52,-20.85
1235,208000440,0.2402,0.8115,-0.4219,22.74,-25.55,-21.77
1236,208005442,0.2412,0.8110,-0.4204,21.22,-24.39,-22.74
1237,208010441,0.2378,0.8008,-0.4243,19.39,-23.23,-23.72
1238,208015442,0.2305,0.7944,-0.4111,17.26,-21.89,-24.63
1239,208020440,0.2314,0.7896,-0.4087,14.76,-20.49,-25.73
1240,208025440,0.2241,0.7822,-0.3970,12.26,-19.15,-26.83
1241,208030442,0.2251,0.7808,-0.3984,9.27,-17.80,-27.93
1242,208035441,0.2231,0.7783,-0.3853,6.28,-16.22,-29.02
1243,208040442,0.2207,0.7729,-0.3799,3.29,-15.18,-30.24
1244,208045442,0.2163,0.7749,-0.3765,0.37,-13.78,-31.59
1245,208050442,0.2104,0.7778,-0.3652,-2.32,-12.50,-32.87
1246,208055442,0.1997,0.7754,-0.3604,-4.70,-11.28,-34.15
1247,208060442,0.1909,0.7808,-0.3574,-6.71,-10.00,-35.43
1248,208065442,0.1797,0.7769,-0.3555,-8.29,-8.96,-36.77
1249,208070442,0.1733,0.7788,-0.3408,-9.63,-7.80,-38.05
1250,208075443,0.1685,0.7769,-0.3354,-10.61,-6.83,-39.45
1251,208080442,0.1597,0.7725,-0.3247,-11.40,-5.79,-40.61
1252,208085442,0.1553,0.7695,-0.3159,-11.95,-5.06,-41.77
1253,208090440,0.1475,0.7666,-0.3022,-12.44,-4.21,-42.87
1254,208095442,0.1426,0.7588,-0.2983,-12.74,-3.54,-44.02
1255,208100442,0.1333,0.7466,-0.2896,-13.17,-2.80,-44.94
1256,208105441,0.1313,0.7451,-0.2734,-13.41,-2.20,-46.04
1257,208110442,0.1221,0.7407,-0.2632,-13.60,-1.89,-46.95
1258,208115442,0.1172,0.7402,-0.2637,-13.72,-1.59,-47.99
1259,208120443,0.1099,0.7432,-0.2578,-13.72,-1.40,-49.15
1260,208125442,0.0986,0.7500,-0.2529,-13.54,-1.16,-50.18
1261,208130442,0.0894,0.7520,-0.2480,-12.93,-1.16,-51.46
1262,208135442,0.0825,0.7539,-0.2456,-12.13,-1.04,-52.62
1263,208140442,0.0776,0.7534,-0.2363,-11.16,-0.91,-53.84
1264,208145442,0.0723,0.7568,-0.2295,-10.06,-0.98,-55.12
1265,208150442,0.0718,0.7451,-0.2275,-9.27,-1.04,-56.22
1266,208155442,0.0752,0.7446,-0.2236,-8.35,-1.34,-57.56
1267,208160442,0.0713,0.7427,-0.2207,-7.80,-1.59,-58.72
1268,208165442,0.0688,0.7383,-0.2139,-7.50,-1.83,-60.12
1269,208170442,0.0654,0.7300,-0.2036,-7.50,-2.13,-61.46
1270,208175442,0.0635,0.7280,-0.2080,-7.74,-2.50,-62.80
1271,208180442,0.0552,0.7251,-0.2065,-8.35,-2.99,-64.27
1272,208185443,0.0474,0.7305,-0.2012,-9.02,-3.54,-65.73
1273,208190442,0.0454,0.7305,-0.1987,-10.18,-3.96,-67.13
1274,208195443,0.0405,0.7266,-0.1987,-11.65,-4.51,-68.84
1275,208200442,0.0396,0.7261,-0.1953,-13.17,-5.00,-70.67
1276,208205525,0.0366,0.7261,-0.1860,-15.37,-5.49,-72.50
1277,208210443,0.0283,0.7324,-0.1851,-17.32,-5.79,-74.45
1278,208215442,0.0151,0.7354,-0.1875,-19.57,-6.28,-76.52
1279,208220441,0.0024,0.7417,-0.1860,-21.59,-6.71,-78.54
1280,208225442,-0.0112,0.7407,-0.1763,-23.48,-6.89,-80.61
1281,208230442,-0.0244,0.7485,-0.1753,-24.94,-7.20,-82.74
1282,208235443,-0.0356,0.7441,-0.1748,-26.52,-7.50,-84.88
1283,208240443,-0.0381,0.7407,-0.1719,-27.93,-7.62,-86.95
1284,208245442,-0.0459,0.7432,-0.1704,-29.21,-7.87,-89.02
1285,208250442,-0.0605,0.7456,-0.1709,-30.55,-8.11,-91.16
1286,208255442,-0.0732,0.7534,-0.1738,-31.71,-8.41,-93.35
1287,208260442,-0.0859,0.7593,-0.1724,-33.05,-8.84,-95.61
1288,208265442,-0.0962,0.7607,-0.1675,-34.45,-8.96,-97.74
1289,208270442,-0.1045,0.7598,-0.1606,-35.85,-9.45,-100.00
1290,208275442,-0.1157,0.7603,-0.1582,-37.32,-9.70,-102.07
1291,208280442,-0.1284,0.7515,-0.1533,-38.78,-9.88,-104.45
1292,208285442,-0.1343,0.7461,-0.1382,-40.43,-10.00,-106.34
1293,208290442,-0.1450,0.7402,-0.1392,-42.32,-10.24,-108.41
1294,208295442,-0.1528,0.7300,-0.1392,-44.15,-10.49,-110.43
1295,208300442,-0.1582,0.7314,-0.1313,-46.04,-10.98,-112.32
1296,208305443,-0.1685,0.7300,-0.1250,-47.80,-11.22,-114.33
1297,208310442,-0.1865,0.7334,-0.1270,-48.96,-11.46,-116.10
1298,208315443,-0.1987,0.7383,-0.1270,-49.63,-11.71,-117.93
1299,208320442,-0.2217,0.7461,-0.1235,-49.82,-11.95,-119.51
1300,208325446,-0.2373,0.7598,-0.1182,-49.39,-12.01,-121.34
1301,208330442,-0.2495,0.7695,-0.1221,-48.48,-12.26,-123.05
1302,208335442,-0.2642,0.7676,-0.1216,-47.26,-12.26,-124.76
1303,208340442,-0.2710,0.7642,-0.1099,-45.73,-12.44,-126.22
1304,208345440,-0.2827,0.7627,-0.1001,-44.21,-12.32,-127.74
1305,208350442,-0.2930,0.7544,-0.1025,-42.68,-12.38,-129.09
1306,208355442,-0.2969,0.7510,-0.0996,-41.34,-12.32,-130.30
1307,208360442,-0.3052,0.7388,-0.0879,-39.88,-12.32,-131.40
1308,208365442,-0.3066,0.7339,-0.0859,-38.96,-12.38,-132.38
1309,208370448,-0.3066,0.7197,-0.0796,-38.23,-12.32,-133.11
1310,208375443,-0.3110,0.7075,-0.0806,-37.62,-12.62,-133.84
1311,208380681,-0.3086,0.6982,-0.0757,-37.13,-12.80,-134.57
1312,208385445,-0.3159,0.6865,-0.0806,-36.89,-13.17,-135.24
1313,208390440,-0.3276,0.6895,-0.0742,-36.52,-13.41,-135.98
1314,208395442,-0.3394,0.6870,-0.0801,-35.79,-13.90,-136.71
1315,208400442,-0.3540,0.6890,-0.0776,-34.94,-14.15,-137.50
1316,208405442,-0.3701,0.6851,-0.0786,-33.60,-14.57,-138.35
1317,208410442,-0.3862,0.6826,-0.0732,-31.95,-15.12,-139.39
1318,208415442,-0.3940,0.6772,-0.0669,-30.24,-15.24,-140.24
1319,208420443,-0.4033,0.6758,-0.0635,-28.05,-15.55,-141.22
1320,208425441,-0.4175,0.6724,-0.0742,-25.61,-15.79,-142.13
1321,208430442,-0.4399,0.6694,-0.0718,-22.93,-16.22,-143.11
1322,208435442,-0.4580,0.6631,-0.0747,-20.00,-16.52,-144.02
1323,208440441,-0.4766,0.6646,-0.0742,-17.20,-16.77,-145.06
1324,208445497,-0.4937,0.6577,-0.0732,-14.39,-17.26,-146.16
1325,208450442,-0.5122,0.6558,-0.0747,-11.89,-17.44,-147.32
1326,208455442,-0.5298,0.6523,-0.0615,-9.33,-17.68,-148.54
1327,208460442,-0.5513,0.6440,-0.0566,-6.77,-17.87,-149.94
1328,208465442,-0.5659,0.6436,-0.0620,-4.21,-17.93,-151.22
1329,208470442,-0.5835,0.6367,-0.0581,-1.65,-17.87,-152.62
1330,208475442,-0.5991,0.6284,-0.0522,0.85,-17.99,-153.90
1331,208480442,-0.6172,0.6157,-0.0542,3.35,-17.99,-155.12
1332,208485442,-0.6284,0.5986,-0.0640,5.61,-18.35,-156.28
1333,208490442,-0.6470,0.5845,-0.0605,7.80,-18.41,-157.38
1334,208495443,-0.6587,0.5713,-0.0630,9.70,-18.72,-158.35
1335,208500442,-0.6689,0.5566,-0.0640,11.40,-19.09,-159.27
1336,208505442,-0.6909,0.5532,-0.0762,13.11,-19.45,-160.30
1337,208510442,-0.7119,0.5469,-0.0825,14.70,-20.24,-161.34
1338,208515442,-0.7383,0.5425,-0.0869,16.34,-20.98,-162.32
1339,208520442,-0.7627,0.5352,-0.0840,18.05,-21.77,-163.35
1340,208525442,-0.7739,0.5366,-0.0796,19.63,-22.56,-164.45
1341,208530440,-0.8296,0.5132,-0.0879,21.52,-23.48,-165.61
1342,208535442,-0.8564,0.5010,-0.0825,23.29,-24.33,-166.52
1343,208540442,-0.8862,0.4971,-0.0986,25.24,-25.24,-167.38
1344,208545440,-0.8794,0.4917,-0.0801,27.38,-26.22,-168.29
1345,208550442,-0.8613,0.4829,-0.0835,29.88,-27.32,-169.15
1346,208555443,-0.8677,0.4731,-0.0879,32.56,-28.72,-169.94
1347,208560442,-0.9150,0.4414,-0.1201,35.73,-30.30,-170.49
1348,208565441,-0.9790,0.4077,-0.1636,38.90,-32.26,-170.79
1349,208570442,-1.0181,0.3740,-0.2148,42.01,-34.82,-170.55
1350,208575440,-1.0156,0.3477,-0.2222,44.88,-37.68,-170.00
1351,208580445,-0.9771,0.3389,-0.2095,47.62,-40.49,-169.33
1352,208585441,-0.9980,0.3291,-0.2656,50.30,-43.78,-168.35
1353,208590442,-0.9995,0.2949,-0.2627,52.99,-47.26,-167.26
1354,208595442,-0.9985,0.2622,-0.2515,55.12,-50.98,-165.85
1355,208600442,-0.9907,0.2607,-0.2397,57.13,-54.27,-164.09
1356,208605440,-0.9971,0.2676,-0.2305,58.72,-57.44,-162.07
1357,208610441,-1.0083,0.2783,-0.2271,60.49,-60.18,-160.30
1358,208615441,-1.0474,0.2788,-0.2456,62.44,-63.05,-158.54
1359,208620442,-1.0957,0.2754,-0.2500,64.15,-65.91,-156.59
1360,208625441,-1.1216,0.2754,-0.2471,66.10,-68.41,-154.76
1361,208630443,-1.1318,0.2646,-0.2544,68.35,-71.04,-152.74
1362,208635440,-1.1450,0.2568,-0.2515,70.85,-73.54,-150.73
1363,208640442,-1.1753,0.2466,-0.2407,73.41,-75.61,-148.41
1364,208645441,-1.2041,0.2427,-0.2339,76.04,-77.44,-145.98
1365,208650442,-1.2314,0.2417,-0.2524,78.90,-79.45,-143.41
1366,208655441,-1.2441,0.2305,-0.2637,82.07,-81.16,-140.67
1367,208660442,-1.2573,0.2271,-0.2622,85.30,-83.17,-137.80
1368,208665441,-1.2524,0.2256,-0.2563,89.45,-84.94,-134.70
1369,208670442,-1.2207,0.2393,-0.2534,94.02,-86.65,-131.77
1370,208675441,-1.1499,0.2627,-0.2188,99.82,-88.23,-128.96
1371,208680442,-1.1909,0.2593,-0.2241,106.95,-89.51,-126.28
1372,208685441,-1.2905,0.2329,-0.2363,114.70,-90.91,-123.41
1373,208690442,-1.3433,0.2461,-0.2515,122.74,-92.26,-120.24
1374,208695441,-1.4956,0.1992,-0.2666,130.61,-93.41,-117.07
1375,208700442,-1.6416,0.1689,-0.2334,138.60,-94.33,-113.48
1376,208705441,-1.6831,0.1460,-0.2769,145.37,-94.88,-109.57
1377,208710442,-1.7002,0.1533,-0.2549,152.07,-95.49,-105.49
1378,208715519,-1.6895,0.1694,-0.1934,158.29,-95.24,-101.46
1379,208720442,-1.6562,0.1904,-0.1396,164.09,-94.39,-97.68
1380,208725441,-1.6177,0.2153,-0.1523,170.06,-93.35,-94.15
1381,208730444,-1.6025,0.2349,-0.1606,176.16,-91.95,-90.61
1382,208735440,-1.5996,0.2456,-0.1484,182.07,-90.43,-87.32
1383,208740441,-1.5947,0.2461,-0.1450,187.93,-88.72,-83.78
1384,208745442,-1.5718,0.2427,-0.1646,193.35,-86.95,-80.43
1385,208750441,-1.5547,0.2407,-0.1465,198.41,-85.06,-76.83
1386,208755441,-1.5396,0.2397,-0.1143,203.23,-82.80,-73.17
1387,208760442,-1.5303,0.2402,-0.1143,207.74,-80.43,-69.45
1388,208765441,-1.5127,0.2500,-0.1172,212.01,-78.17,-65.61
1389,208770442,-1.4883,0.2598,-0.1089,216.28,-75.55,-62.01
1390,208775441,-1.4556,0.2720,-0.0781,220.37,-72.80,-58.35
1391,208780442,-1.4248,0.2739,-0.0840,224.82,-70.06,-54.70
1392,208785441,-1.4033,0.2817,-0.1045,229.15,-67.56,-50.98
1393,208790442,-1.3608,0.2803,-0.0796,233.11,-65.06,-47.50
1394,208795441,-1.3491,0.2725,-0.0742,236.77,-62.44,-43.90
1395,208800442,-1.3408,0.2812,-0.0825,240.24,-60.06,-40.18
1396,208805441,-1.3062,0.2925,-0.1104,242.74,-57.80,-36.83
1397,208810443,-1.2710,0.3223,-0.0972,243.84,-56.04,-33.84
1398,208815442,-1.2495,0.2969,-0.0386,242.56,-53.96,-31.10
1399,208820441,-1.2207,0.2671,-0.0239,239.51,-51.59,-28.48
1400,208825440,-1.2896,0.2314,0.0386,236.28,-49.27,-26.16
1401,208830440,-1.2432,0.2378,-0.0239,231.89,-45.85,-22.56
1402,208835442,-1.2451,0.2778,-0.0103,229.21,-43.78,-20.49
1403,208840442,-1.1650,0.2319,-0.0786,225.00,-41.52,-17.68
1404,208845441,-1.1235,0.2104,-0.1445,222.80,-40.85,-15.73
1405,208850442,-1.0688,0.2593,-0.2974,220.67,-40.85,-13.48
1406,208855441,-1.0103,0.3765,-0.5259,218.72,-43.35,-11.83
1407,208860442,-0.9302,0.5405,-0.7080,215.85,-48.84,-11.83
1408,208865441,-0.8833,0.6235,-0.7676,210.30,-55.73,-13.29
1409,208870442,-0.9019,0.6074,-0.7222,200.12,-63.23,-15.49
1410,208875442,-0.9487,0.5015,-0.6694,184.70,-69.63,-17.26
1411,208880442,-1.0161,0.4170,-0.5791,164.33,-74.51,-18.05
1412,208885441,-1.0586,0.3813,-0.4497,140.30,-77.01,-18.35
1413,208890442,-1.1069,0.4058,-0.3862,113.11,-76.59,-18.84
1414,208895441,-1.0776,0.4170,-0.3945,84.63,-74.82,-20.00
1415,208900442,-0.9155,0.3984,-0.5024,57.44,-73.05,-21.22
1416,208905441,-0.9106,0.3027,-0.5444,32.26,-71.83,-22.01
1417,208910443,-0.8623,0.2671,-0.4736,9.21,-70.49,-22.07
1418,208915441,-0.8813,0.1743,-0.4004,-12.20,-68.29,-21.28
1419,208920442,-0.8828,0.1304,-0.3213,-32.44,-65.00,-19.88
1420,208925441,-0.9170,0.0967,-0.2407,-51.52,-60.12,-18.05
1421,208930442,-0.9639,0.0903,-0.1777,-69.39,-54.45,-15.98
1422,208935441,-0.9751,0.1235,-0.1729,-85.37,-47.93,-14.21
1423,208940442,-0.9595,0.1562,-0.1890,-98.23,-41.46,-12.93
1424,208945441,-0.9395,0.1626,-0.1860,-108.17,-34.94,-11.83
1425,208950442,-0.9360,0.1519,-0.1689,-115.12,-28.78,-10.61
1426,208955441,-0.9253,0.1382,-0.1895,-119.63,-22.99,-9.09
1427,208960442,-0.9077,0.1279,-0.1841,-121.95,-17.26,-7.32
1428,208965441,-0.8989,0.1235,-0.1699,-121.95,-11.95,-5.24
1429,208970442,-0.9082,0.1060,-0.1562,-120.06,-6.40,-3.23
1430,208975441,-0.9233,0.0986,-0.1582,-116.59,-1.52,-1.04
1431,208980442,-0.9419,0.0933,-0.1646,-111.52,3.35,1.28
1432,208985441,-0.9497,0.1021,-0.1533,-105.24,7.87,3.60
1433,208990442,-0.9556,0.0771,-0.1226,-98.41,12.44,5.85
1434,208995458,-0.9575,0.0801,-0.1289,-90.79,16.59,8.35
1435,209000442,-0.9541,0.0645,-0.1177,-82.32,20.79,10.98
1436,209005441,-0.9507,0.0576,-0.1113,-73.29,24.45,13.66
1437,209010442,-0.9409,0.0581,-0.0903,-63.66,28.17,16.22
1438,209015442,-0.9409,0.0566,-0.0771,-53.84,31.59,18.66
1439,209020442,-0.9458,0.0415,-0.0723,-44.09,35.06,21.16
1440,209025441,-0.9468,0.0317,-0.0542,-34.45,38.41,23.41
1441,209030442,-0.9434,0.0308,-0.0513,-24.88,41.52,25.91
1442,209035441,-0.9414,0.0332,-0.0376,-15.43,44.39,28.05
1443,209040443,-0.9492,0.0327,-0.0278,-6.28,47.32,30.12
1444,209045440,-0.9565,0.0410,-0.0254,2.56,50.00,31.77
1445,209050442,-0.9619,0.0356,-0.0220,10.61,52.32,33.35
1446,209055442,-0.9697,0.0420,-0.0239,18.35,54.76,34.70
1447,209060441,-0.9731,0.0479,-0.0200,25.55,56.77,35.55
1448,209065442,-0.9814,0.0527,-0.0273,32.01,58.48,36.40
1449,209070442,-0.9893,0.0581,-0.0312,37.74,59.94,37.01
1450,209075442,-0.9951,0.0591,-0.0298,43.05,61.22,37.44
1451,209080442,-1.0029,0.0605,-0.0244,47.62,62.26,37.68
1452,209085442,-1.0195,0.0591,-0.0259,51.34,63.11,37.87
1453,209090442,-1.0259,0.0586,-0.0273,54.39,63.96,37.99
1454,209095442,-1.0278,0.0645,-0.0220,56.65,64.76,38.23
1455,209100442,-1.0278,0.0723,-0.0269,58.35,65.43,38.23
1456,209105442,-1.0312,0.0874,-0.0454,59.57,65.98,38.17
1457,209110442,-1.0288,0.1040,-0.0625,60.37,66.10,37.80
1458,209115442,-1.0244,0.1182,-0.0703,60.67,65.67,37.50
1459,209120444,-1.0205,0.1304,-0.0806,60.79,65.06,37.07
1460,209125515,-1.0122,0.1377,-0.0850,60.61,64.09,36.34
