# skilleye imu stream v1
# device=xiao_esp32c6 imu=mpu6050 addr=0x68
# rate_hz=200 accel_range_g=16 gyro_range_dps=2000 dlpf_hz=94
# units: accel in g, gyro in deg/s, t_us in microseconds since boot (monotonic)
# no shared clock with the camera -- tap the racket once before each take
# so both recordings share a spike to align on
seq,t_us,ax,ay,az,gx,gy,gz
0,69895303,0.7373,-0.4790,-0.3013,-2.80,1.59,-0.73
1,69899847,0.7349,-0.4785,-0.3052,-2.93,1.59,-0.61
2,69904842,0.7363,-0.4727,-0.3091,-2.93,1.59,-0.43
3,69909843,0.7314,-0.4771,-0.3081,-3.05,1.59,-0.30
4,69914843,0.7324,-0.4771,-0.3066,-3.05,1.71,-0.18
5,69919843,0.7324,-0.4775,-0.3022,-3.11,1.65,-0.18
6,69924899,0.7349,-0.4858,-0.3091,-3.23,1.71,0.00
7,69929843,0.7451,-0.4863,-0.3052,-3.29,1.71,-0.06
8,69934843,0.7446,-0.4863,-0.3062,-3.41,1.65,0.06
9,69939841,0.7520,-0.4917,-0.3062,-3.35,1.77,0.24
10,69944841,0.7534,-0.4893,-0.3076,-3.54,1.89,0.37
11,69949845,0.7583,-0.4971,-0.3105,-3.48,1.83,0.43
12,69954843,0.7607,-0.4980,-0.3086,-3.60,1.95,0.61
13,69959843,0.7568,-0.4917,-0.3081,-3.72,1.95,0.67
14,69964844,0.7593,-0.4990,-0.3105,-3.84,2.01,0.73
15,69969855,0.7603,-0.4985,-0.3057,-3.90,2.01,0.73
16,69974845,0.7734,-0.4976,-0.3032,-4.02,2.26,0.85
17,69979844,0.7739,-0.5020,-0.3022,-4.09,2.50,0.85
18,69984842,0.7739,-0.5078,-0.3076,-4.27,2.68,0.91
19,69989841,0.7734,-0.5010,-0.3022,-4.45,2.80,0.98
20,69994845,0.7744,-0.4980,-0.2983,-4.51,2.80,0.98
21,69999876,0.7720,-0.4995,-0.2935,-4.63,3.11,0.85
22,70004844,0.7671,-0.4927,-0.2974,-4.63,3.23,0.91
23,70009841,0.7627,-0.4980,-0.2964,-4.63,3.17,0.85
24,70014844,0.7627,-0.4937,-0.2959,-4.70,3.29,0.85
25,70019843,0.7559,-0.4980,-0.2915,-4.63,3.29,0.67
26,70024843,0.7524,-0.4966,-0.2939,-4.45,3.41,0.61
27,70029985,0.7554,-0.4956,-0.2964,-4.45,3.78,0.55
28,70034879,0.7583,-0.4897,-0.2896,-4.45,3.72,0.55
29,70039843,0.7637,-0.4888,-0.2910,-4.45,3.84,0.61
30,70044843,0.7559,-0.4888,-0.2881,-4.45,3.66,0.79
31,70049841,0.7549,-0.4902,-0.2886,-4.45,3.60,0.85
32,70054845,0.7554,-0.4902,-0.2871,-4.39,3.60,0.98
33,70059841,0.7520,-0.4878,-0.2871,-4.39,3.60,1.22
34,70064845,0.7539,-0.4888,-0.2871,-4.33,3.54,1.46
35,70069843,0.7554,-0.4873,-0.2896,-4.33,3.60,1.65
36,70074844,0.7563,-0.4849,-0.2949,-4.33,3.35,1.83
37,70079842,0.7544,-0.4868,-0.2886,-4.33,3.48,2.13
38,70084988,0.7559,-0.4854,-0.2891,-4.39,3.35,2.32
39,70089841,0.7559,-0.4883,-0.2876,-4.39,3.41,2.62
40,70094843,0.7563,-0.4902,-0.2852,-4.27,3.48,2.80
41,70099902,0.7549,-0.4893,-0.2852,-4.15,3.48,3.05
42,70104845,0.7549,-0.4893,-0.2861,-4.02,3.41,3.17
43,70109841,0.7612,-0.4897,-0.2856,-3.90,3.41,3.41
44,70114845,0.7686,-0.4922,-0.2910,-3.72,3.54,3.60
45,70119844,0.7661,-0.4878,-0.2822,-3.48,3.54,3.72
46,70124843,0.7759,-0.4902,-0.2881,-3.23,3.54,3.84
47,70129841,0.7749,-0.4912,-0.2896,-2.87,3.66,3.90
48,70134845,0.7808,-0.4932,-0.2861,-2.62,3.78,4.09
49,70139843,0.7832,-0.4888,-0.2881,-2.32,3.84,4.02
50,70144843,0.7803,-0.4888,-0.2886,-2.07,3.90,4.15
51,70149874,0.7773,-0.4893,-0.2842,-1.71,3.96,4.15
52,70154876,0.7749,-0.4917,-0.2852,-1.34,4.15,4.21
53,70159845,0.7744,-0.4941,-0.2886,-0.91,4.09,4.27
54,70164899,0.7656,-0.4912,-0.2832,-0.55,4.09,4.33
55,70169845,0.7632,-0.4912,-0.2866,-0.24,4.21,4.45
56,70174843,0.7593,-0.4922,-0.2866,0.06,4.21,4.57
57,70179841,0.7583,-0.4985,-0.2832,0.43,4.21,4.63
58,70184845,0.7583,-0.4956,-0.2876,0.79,4.27,4.76
59,70189843,0.7559,-0.4951,-0.2900,1.04,4.45,4.94
60,70194845,0.7544,-0.5010,-0.2876,1.34,4.45,5.06
61,70199875,0.7534,-0.5005,-0.2915,1.52,4.51,5.24
62,70204845,0.7583,-0.5054,-0.2856,1.59,4.57,5.37
63,70209845,0.7573,-0.5059,-0.2891,1.83,4.82,5.55
64,70214842,0.7573,-0.5098,-0.2900,2.07,5.06,5.73
65,70219843,0.7539,-0.5073,-0.2847,2.07,5.18,5.73
66,70224841,0.7549,-0.5044,-0.2891,2.13,5.37,5.85
67,70229843,0.7578,-0.5054,-0.2891,2.20,5.61,5.98
68,70234843,0.7544,-0.5093,-0.2920,2.13,5.91,5.91
69,70239841,0.7593,-0.5068,-0.2939,2.13,6.10,5.85
70,70244843,0.7583,-0.5107,-0.2944,2.13,6.28,5.79
71,70249841,0.7627,-0.5122,-0.2891,2.20,6.52,5.79
72,70254842,0.7598,-0.5103,-0.2930,2.13,6.77,5.73
73,70259841,0.7686,-0.5176,-0.2998,2.07,6.83,5.61
74,70264845,0.7695,-0.5166,-0.2993,2.01,7.01,5.49
75,70269843,0.7720,-0.5132,-0.2930,2.01,7.13,5.43
76,70274843,0.7764,-0.5161,-0.3042,1.77,7.32,5.43
77,70279844,0.7778,-0.5142,-0.3047,1.65,7.50,5.37
78,70284842,0.7705,-0.5146,-0.3018,1.40,7.62,5.37
79,70289843,0.7671,-0.5098,-0.3062,1.10,7.87,5.30
80,70294843,0.7651,-0.5098,-0.3008,0.67,8.05,5.30
81,70299868,0.7656,-0.5054,-0.2974,0.18,8.23,5.24
82,70304842,0.7622,-0.5000,-0.3086,-0.55,8.41,5.37
83,70309844,0.7632,-0.4941,-0.3115,-1.10,8.66,5.30
84,70314843,0.7627,-0.4854,-0.3062,-1.89,8.84,5.49
85,70319844,0.7583,-0.4790,-0.3091,-2.56,9.02,5.55
86,70324842,0.7578,-0.4800,-0.3135,-3.35,9.27,5.67
87,70329843,0.7583,-0.4834,-0.3203,-4.21,9.57,5.67
88,70334930,0.7593,-0.4790,-0.3164,-5.00,9.63,5.98
89,70339845,0.7573,-0.4814,-0.3228,-5.91,9.94,6.22
90,70344842,0.7603,-0.4824,-0.3223,-6.89,10.00,6.46
91,70349844,0.7598,-0.4771,-0.3237,-7.74,10.24,6.77
92,70354842,0.7559,-0.4810,-0.3291,-8.60,10.43,7.13
93,70359842,0.7510,-0.4780,-0.3291,-9.57,10.55,7.44
94,70364845,0.7427,-0.4717,-0.3276,-10.43,10.67,7.87
95,70369842,0.7358,-0.4697,-0.3325,-11.28,10.85,8.05
96,70374841,0.7310,-0.4624,-0.3306,-12.20,11.04,8.41
97,70379844,0.7295,-0.4521,-0.3311,-13.11,11.10,8.72
98,70384843,0.7217,-0.4497,-0.3340,-13.90,11.52,8.96
99,70389843,0.7202,-0.4429,-0.3345,-14.63,11.77,9.21
100,70394842,0.7173,-0.4429,-0.3306,-15.37,12.07,9.63
101,70399844,0.7148,-0.4380,-0.3335,-16.04,12.26,10.06
102,70404843,0.7173,-0.4399,-0.3345,-16.46,12.68,10.49
103,70409843,0.7231,-0.4351,-0.3350,-16.83,13.11,10.98
104,70414842,0.7305,-0.4365,-0.3394,-17.20,13.48,11.65
105,70419844,0.7378,-0.4380,-0.3394,-17.20,13.60,12.62
106,70424842,0.7383,-0.4395,-0.3457,-17.32,13.72,13.48
107,70429844,0.7461,-0.4390,-0.3408,-17.01,13.90,14.51
108,70434843,0.7544,-0.4434,-0.3374,-16.71,14.02,15.61
109,70439844,0.7593,-0.4414,-0.3408,-16.28,14.21,16.77
110,70444842,0.7642,-0.4443,-0.3418,-15.79,13.96,18.05
111,70449844,0.7754,-0.4453,-0.3403,-15.12,14.09,19.39
112,70454842,0.7764,-0.4463,-0.3335,-14.33,14.15,20.73
113,70459841,0.7764,-0.4482,-0.3325,-13.48,14.15,22.13
114,70464842,0.7764,-0.4487,-0.3335,-12.56,14.09,23.41
115,70469844,0.7739,-0.4497,-0.3271,-11.59,13.96,24.82
116,70474843,0.7720,-0.4458,-0.3267,-10.49,13.84,26.28
117,70479843,0.7700,-0.4507,-0.3232,-9.33,13.78,27.62
118,70484842,0.7671,-0.4521,-0.3262,-8.23,13.60,28.84
119,70489843,0.7642,-0.4541,-0.3145,-7.07,13.48,30.12
120,70494843,0.7651,-0.4663,-0.3169,-5.79,13.41,31.34
121,70499843,0.7642,-0.4683,-0.3198,-4.57,13.23,32.74
122,70504842,0.7559,-0.4722,-0.3164,-3.29,13.17,33.96
123,70509843,0.7568,-0.4727,-0.3052,-2.38,12.99,34.94
124,70514842,0.7495,-0.4790,-0.3115,-1.22,12.87,36.22
125,70519841,0.7505,-0.4761,-0.3101,-0.24,12.74,37.38
126,70524843,0.7427,-0.4873,-0.3032,0.91,12.62,38.54
127,70529844,0.7432,-0.4976,-0.3037,1.95,12.32,39.70
128,70534843,0.7402,-0.5010,-0.3018,2.99,12.20,40.98
129,70539843,0.7397,-0.5161,-0.3042,4.02,11.95,42.44
130,70544842,0.7441,-0.5278,-0.3032,4.76,11.65,43.54
131,70549844,0.7397,-0.5278,-0.2930,5.61,11.34,44.82
132,70554842,0.7383,-0.5352,-0.2949,6.28,11.04,46.22
133,70559841,0.7510,-0.5420,-0.3027,6.95,10.43,47.44
134,70565357,0.7388,-0.5552,-0.2988,7.80,9.57,49.21
135,70569844,0.7319,-0.5586,-0.2910,8.17,8.96,50.49
136,70574843,0.7163,-0.5508,-0.2886,8.48,8.23,52.07
137,70579843,0.7085,-0.5547,-0.2881,8.60,7.38,53.41
138,70584842,0.7002,-0.5547,-0.2793,8.54,6.89,54.70
139,70589844,0.6851,-0.5557,-0.2773,8.17,5.98,55.85
140,70594842,0.6743,-0.5532,-0.2749,7.74,5.24,56.89
141,70599845,0.6548,-0.5464,-0.2715,6.71,4.51,57.99
142,70604844,0.6494,-0.5444,-0.2656,5.98,3.96,58.60
143,70609843,0.6431,-0.5449,-0.2646,4.63,3.35,59.21
144,70615396,0.6304,-0.5605,-0.2598,2.87,2.68,59.82
145,70619843,0.6113,-0.5571,-0.2471,1.77,2.38,60.30
146,70624843,0.5879,-0.5718,-0.2451,0.18,1.77,60.85
147,70629843,0.5977,-0.5923,-0.2563,-1.34,1.28,61.22
148,70634842,0.6074,-0.6211,-0.2422,-3.05,0.85,61.71
149,70639843,0.6094,-0.6406,-0.2441,-4.82,0.49,62.13
150,70644843,0.6128,-0.6499,-0.2568,-6.46,0.18,62.62
151,70649842,0.6187,-0.6582,-0.2617,-7.99,-0.37,62.99
152,70654843,0.6162,-0.6738,-0.2456,-9.39,-0.85,63.54
153,70659841,0.6152,-0.6978,-0.2471,-10.55,-1.04,64.09
154,70664995,0.6201,-0.7163,-0.2520,-11.59,-1.46,64.57
155,70669845,0.6133,-0.7422,-0.2524,-12.44,-1.95,65.30
156,70674843,0.6064,-0.7583,-0.2476,-13.23,-2.26,66.04
157,70679843,0.6094,-0.7646,-0.2461,-13.72,-2.56,66.71
158,70684842,0.6055,-0.7749,-0.2695,-14.02,-3.05,67.26
159,70689848,0.5513,-0.7798,-0.2578,-13.90,-3.48,67.99
160,70694844,0.5386,-0.7832,-0.2422,-13.78,-3.78,68.84
161,70699841,0.5396,-0.7910,-0.2471,-13.29,-4.15,69.51
162,70704842,0.5439,-0.7930,-0.2568,-12.68,-4.45,69.94
163,70709845,0.5420,-0.7939,-0.2710,-11.83,-4.82,70.67
164,70714841,0.5273,-0.8032,-0.2651,-10.55,-5.37,71.16
165,70719845,0.5254,-0.8237,-0.2734,-9.27,-5.73,71.77
166,70724842,0.4985,-0.8462,-0.2627,-7.80,-6.22,72.44
167,70729844,0.4775,-0.8491,-0.2578,-6.59,-6.52,73.23
168,70734843,0.4873,-0.8491,-0.2856,-5.18,-6.65,73.90
169,70739843,0.5215,-0.8628,-0.2915,-3.35,-7.32,74.63
170,70744841,0.5083,-0.8940,-0.3296,-1.46,-7.68,75.37
171,70749845,0.4180,-0.9048,-0.3081,0.55,-8.17,76.28
172,70754843,0.4268,-0.9253,-0.2593,2.38,-8.66,77.07
173,70759843,0.3916,-0.9165,-0.2388,3.72,-8.29,77.99
174,70764845,0.3940,-0.9312,-0.2827,5.12,-8.72,78.96
175,70769841,0.3960,-0.9185,-0.2881,5.91,-8.78,79.70
176,70774843,0.3643,-0.9023,-0.2295,6.65,-8.48,80.37
177,70779842,0.3555,-0.8853,-0.2168,6.89,-8.17,80.73
178,70784843,0.3232,-0.8711,-0.2251,6.77,-7.80,80.98
179,70789841,0.3091,-0.8677,-0.2520,5.91,-7.68,80.91
180,70794843,0.2949,-0.8555,-0.2256,4.45,-7.32,80.61
181,70799922,0.2900,-0.8525,-0.2285,2.13,-6.95,80.06
182,70804991,0.2881,-0.8423,-0.2778,-0.85,-6.83,79.33
183,70809843,0.2783,-0.8384,-0.2998,-4.33,-7.01,78.29
184,70814841,0.2578,-0.8438,-0.2749,-8.23,-7.20,77.13
185,70819843,0.2480,-0.8564,-0.2808,-12.56,-7.56,75.98
186,70824843,0.2383,-0.8750,-0.3052,-17.32,-7.99,74.76
187,70829842,0.2271,-0.8906,-0.3076,-22.26,-8.72,73.41
188,70835251,0.2158,-0.8994,-0.2812,-27.38,-9.02,71.95
189,70839843,0.2100,-0.8999,-0.2886,-32.62,-9.57,70.49
190,70844844,0.2036,-0.9009,-0.3115,-38.05,-10.12,68.60
191,70849843,0.1421,-0.9248,-0.2500,-43.84,-10.37,66.89
192,70854844,0.0688,-0.9395,-0.0566,-50.30,-7.68,65.49
193,70859843,0.1289,-0.9595,-0.0151,-56.04,-0.73,64.39
194,70864842,0.1768,-0.9663,-0.0532,-60.00,10.12,64.82
195,70869843,0.2549,-0.8062,-0.3682,-61.89,21.71,66.16
196,70874842,0.2642,-0.6284,-0.6133,-62.56,29.45,66.46
197,70879842,0.1938,-0.5464,-0.6641,-62.38,32.87,65.06
198,70884843,0.0718,-0.6577,-0.5410,-61.46,34.02,63.05
199,70889842,0.0034,-0.7856,-0.4331,-59.70,34.57,61.22
200,70894843,0.0303,-0.8652,-0.3774,-57.26,34.82,59.63
201,70899842,0.1152,-0.8716,-0.3677,-53.90,34.57,57.93
202,70904842,0.1914,-0.8618,-0.3550,-50.30,34.02,55.61
203,70909845,0.2515,-0.8442,-0.3125,-46.59,33.54,52.93
204,70914841,0.2681,-0.8613,-0.3286,-42.50,33.17,49.88
205,70919841,0.2603,-0.9072,-0.3511,-38.54,32.38,47.13
206,70924845,0.2451,-0.9180,-0.3477,-34.70,31.46,44.88
207,70929842,0.2588,-0.8584,-0.4521,-31.52,29.33,42.07
208,70934843,0.2539,-0.8770,-0.4014,-29.21,26.40,39.15
209,70939841,0.2612,-0.9355,-0.4287,-27.26,23.05,36.52
210,70944843,0.3081,-0.9507,-0.3809,-24.94,20.24,34.45
211,70949842,0.3994,-0.9180,-0.3525,-22.44,18.23,32.50
212,70954841,0.4766,-0.8765,-0.3286,-19.63,17.13,30.24
213,70959844,0.5190,-0.8311,-0.3052,-16.46,17.26,27.56
214,70964842,0.5195,-0.8174,-0.2979,-12.74,18.48,24.57
215,70969845,0.4941,-0.8066,-0.2993,-8.35,20.49,21.65
216,70975007,0.4624,-0.8232,-0.3350,-3.54,22.44,18.90
217,70979843,0.4414,-0.8091,-0.3711,1.65,24.33,16.22
218,70984841,0.4258,-0.8179,-0.3911,6.52,25.79,13.41
219,70989844,0.4458,-0.8491,-0.4258,10.91,26.52,11.04
220,70994845,0.4438,-0.8545,-0.4214,15.18,26.40,9.02
221,70999842,0.4575,-0.8726,-0.4189,18.41,26.16,7.01
222,71004845,0.4819,-0.8926,-0.3813,20.73,25.91,5.49
223,71009841,0.5039,-0.9043,-0.3516,22.62,26.22,4.02
224,71014845,0.5269,-0.9126,-0.3589,23.78,26.59,2.80
225,71019842,0.5493,-0.9331,-0.3589,24.33,27.13,2.01
226,71024845,0.5566,-0.8945,-0.3853,24.33,27.20,1.46
227,71029841,0.5654,-0.8652,-0.3999,23.54,26.77,0.79
228,71034845,0.5649,-0.8501,-0.3730,22.26,26.16,0.06
229,71039842,0.5718,-0.8276,-0.3374,20.49,25.91,-0.55
230,71044845,0.5693,-0.7812,-0.3223,18.29,26.04,-1.52
231,71049841,0.5903,-0.7563,-0.3262,15.37,26.16,-2.50
232,71054842,0.5630,-0.6665,-0.3281,11.83,26.59,-3.66
233,71059845,0.5732,-0.6548,-0.2935,7.13,26.77,-4.82
234,71064842,0.6123,-0.6782,-0.2925,1.59,27.20,-5.67
235,71069841,0.6353,-0.7197,-0.3228,-4.02,27.50,-6.40
236,71074844,0.6436,-0.7383,-0.3101,-10.00,27.62,-6.89
237,71079842,0.6250,-0.7280,-0.2969,-16.10,27.87,-7.32
238,71084845,0.6128,-0.6836,-0.2891,-22.56,27.99,-7.87
239,71089882,0.6138,-0.6450,-0.2930,-29.33,27.99,-8.35
240,71094845,0.6147,-0.6255,-0.2969,-36.40,27.93,-8.66
241,71099841,0.5977,-0.6157,-0.3022,-43.90,27.87,-8.78
242,71104845,0.5825,-0.6001,-0.2803,-51.95,27.50,-8.90
243,71109842,0.6040,-0.6123,-0.2485,-60.37,27.56,-9.02
244,71114845,0.6211,-0.6187,-0.2534,-68.48,27.62,-8.78
245,71119843,0.6255,-0.6123,-0.2446,-76.52,27.26,-8.72
246,71124841,0.6279,-0.5928,-0.2505,-82.68,27.01,-8.60
247,71130180,0.6357,-0.6030,-0.2593,-91.46,26.59,-8.48
248,71134844,0.6392,-0.6025,-0.2598,-97.07,26.40,-8.29
249,71139843,0.6523,-0.6006,-0.2681,-104.76,25.67,-7.99
250,71144843,0.6587,-0.6030,-0.2734,-109.45,25.18,-7.99
251,71149843,0.6592,-0.6040,-0.2739,-114.82,24.70,-7.93
252,71154843,0.6455,-0.5874,-0.2690,-119.76,24.02,-7.80
253,71159843,0.6562,-0.5894,-0.2725,-124.09,23.54,-7.62
254,71164842,0.6616,-0.5850,-0.2759,-127.87,22.80,-7.32
255,71169900,0.6704,-0.5898,-0.2891,-132.44,21.77,-6.65
256,71174843,0.6680,-0.5869,-0.2969,-134.02,21.40,-6.28
257,71180141,0.6763,-0.5894,-0.2993,-136.59,20.67,-5.37
258,71184844,0.6865,-0.5986,-0.3008,-137.74,20.00,-5.00
259,71189843,0.6968,-0.6118,-0.3252,-138.60,19.45,-4.09
260,71194845,0.6914,-0.6118,-0.3496,-138.60,18.78,-3.41
261,71199844,0.6240,-0.6045,-0.3296,-137.87,18.35,-2.80
262,71204843,0.6309,-0.6143,-0.3462,-136.71,17.80,-2.38
263,71209843,0.6685,-0.6265,-0.3706,-135.06,17.50,-1.95
264,71215255,0.7163,-0.6245,-0.4097,-132.01,16.83,-1.28
265,71219844,0.7344,-0.6187,-0.4189,-129.39,16.46,-1.16
266,71224843,0.7422,-0.6162,-0.4321,-125.30,16.16,-1.22
267,71229844,0.7432,-0.6143,-0.4478,-120.43,16.04,-1.22
268,71234843,0.7388,-0.6143,-0.4497,-114.76,16.22,-1.34
269,71239842,0.7246,-0.5991,-0.4634,-108.35,16.16,-1.52
270,71244843,0.7129,-0.6050,-0.4707,-101.52,16.46,-1.89
271,71249843,0.6924,-0.6191,-0.4756,-94.45,16.65,-2.20
272,71254844,0.7031,-0.6348,-0.4800,-86.71,17.07,-2.20
273,71259843,0.7305,-0.6431,-0.4985,-77.93,17.62,-2.01
274,71264843,0.7188,-0.6406,-0.4966,-67.93,18.17,-1.89
275,71269843,0.6836,-0.6421,-0.4648,-56.71,18.84,-1.59
276,71274841,0.6318,-0.6035,-0.4448,-45.00,20.12,-1.22
277,71279841,0.5718,-0.5610,-0.4072,-33.54,21.46,-1.04
278,71284843,0.5288,-0.5708,-0.4121,-23.23,22.87,-1.16
279,71289842,0.5854,-0.5557,-0.4248,-12.50,24.02,-1.34
280,71294971,0.6143,-0.6021,-0.3999,-0.67,24.63,-1.89
281,71299843,0.6250,-0.5796,-0.4258,11.22,25.06,-2.44
282,71304842,0.6479,-0.5264,-0.4189,22.32,25.43,-3.41
283,71309843,0.6377,-0.5454,-0.3521,32.44,25.85,-4.45
284,71314841,0.6162,-0.5713,-0.3394,41.71,26.59,-5.12
285,71319843,0.5918,-0.6108,-0.3423,49.94,27.32,-5.49
286,71324842,0.5742,-0.6265,-0.3311,56.89,28.29,-5.30
287,71329841,0.5732,-0.6118,-0.3179,62.80,29.57,-5.24
288,71334845,0.5732,-0.5913,-0.3330,67.50,30.55,-5.12
289,71339843,0.5273,-0.5728,-0.3345,70.85,31.59,-5.06
290,71344842,0.4351,-0.5942,-0.3008,72.56,32.74,-4.88
291,71349843,0.4902,-0.5967,-0.3115,72.62,33.66,-4.57
292,71354843,0.5264,-0.5640,-0.3477,72.20,34.70,-4.15
293,71359843,0.4751,-0.5840,-0.3608,70.73,35.24,-3.54
294,71364842,0.5718,-0.5586,-0.3662,68.35,35.73,-2.62
295,71369843,0.5703,-0.5405,-0.3364,65.67,36.28,-1.65
296,71374841,0.5303,-0.5674,-0.3369,62.26,36.65,-0.43
297,71379841,0.6040,-0.5229,-0.3833,58.23,36.71,0.85
298,71384844,0.6152,-0.5156,-0.3496,53.72,36.95,2.13
299,71389843,0.5298,-0.5479,-0.2891,48.84,37.32,3.48
300,71394849,0.5898,-0.5220,-0.3320,43.41,37.56,5.24
301,71399843,0.6104,-0.4980,-0.3594,37.56,37.74,6.77
302,71404841,0.6074,-0.5068,-0.3320,31.34,37.68,8.41
303,71409841,0.5063,-0.5464,-0.2700,24.63,37.99,10.30
304,71414843,0.5566,-0.5620,-0.2910,17.44,38.11,12.44
305,71419843,0.6196,-0.5513,-0.3374,10.06,37.80,14.76
306,71424843,0.6597,-0.5479,-0.3159,2.26,37.13,17.26
307,71429843,0.6655,-0.5513,-0.2900,-6.04,36.95,19.94
308,71434845,0.6509,-0.5708,-0.2920,-14.21,36.28,22.93
309,71439842,0.6460,-0.5674,-0.2695,-22.44,35.61,25.85
310,71444843,0.6372,-0.5674,-0.2485,-30.49,34.94,28.78
311,71449843,0.6411,-0.5801,-0.2383,-38.05,34.51,31.59
312,71454844,0.6450,-0.5869,-0.2578,-45.61,33.84,34.27
313,71459843,0.6548,-0.6030,-0.2642,-52.50,32.62,37.13
314,71464843,0.6694,-0.6035,-0.2666,-58.96,31.34,39.88
315,71469843,0.6777,-0.6025,-0.2573,-65.00,29.76,42.50
316,71474843,0.6685,-0.5957,-0.2583,-70.73,27.93,45.00
317,71479843,0.6646,-0.5796,-0.2725,-75.73,25.91,47.26
318,71484841,0.6670,-0.5747,-0.2544,-80.37,23.66,49.15
319,71489845,0.6523,-0.5845,-0.2207,-84.21,21.65,50.79
320,71494879,0.6421,-0.5859,-0.2124,-87.20,19.51,52.01
321,71499843,0.6255,-0.5811,-0.1968,-88.90,17.80,53.05
322,71504843,0.6099,-0.5713,-0.1719,-89.51,16.65,53.54
323,71509843,0.5869,-0.5669,-0.1738,-88.78,16.04,53.48
324,71514844,0.5698,-0.5752,-0.1821,-86.95,15.79,53.05
325,71519843,0.5503,-0.5815,-0.1870,-83.66,15.91,52.26
326,71524844,0.5015,-0.5684,-0.2222,-79.57,16.52,51.16
327,71529843,0.4937,-0.6152,-0.2178,-75.30,17.26,50.00
328,71534891,0.5034,-0.6143,-0.2280,-70.98,17.99,48.78
329,71539843,0.5156,-0.6240,-0.2588,-66.34,18.66,47.13
330,71544844,0.5259,-0.6533,-0.2969,-60.49,18.96,45.43
331,71549843,0.4917,-0.6572,-0.2866,-54.88,19.27,43.48
332,71554843,0.5249,-0.7056,-0.3296,-50.00,19.63,41.34
333,71559843,0.5059,-0.7212,-0.3633,-44.94,19.57,39.39
334,71564843,0.4995,-0.7349,-0.3193,-39.63,19.82,37.50
335,71569843,0.5039,-0.7407,-0.3145,-34.63,20.12,35.43
336,71574843,0.5464,-0.7827,-0.4038,-30.43,20.12,33.35
337,71579843,0.5439,-0.8135,-0.4077,-26.52,19.57,31.65
338,71584841,0.5298,-0.7905,-0.3242,-22.44,19.45,30.12
339,71589845,0.5449,-0.8252,-0.4121,-18.96,19.02,28.35
340,71594842,0.5161,-0.7959,-0.4170,-17.01,18.35,26.52
341,71599843,0.5405,-0.7627,-0.3682,-16.10,17.93,25.12
342,71604841,0.5654,-0.6982,-0.3511,-16.16,17.87,23.84
343,71609841,0.6128,-0.6436,-0.3774,-17.01,17.13,22.80
344,71614844,0.6309,-0.6709,-0.4062,-18.54,16.28,22.07
345,71619843,0.6445,-0.7583,-0.4194,-20.30,14.94,21.77
346,71624841,0.6460,-0.8413,-0.4277,-22.26,13.60,21.52
347,71629845,0.6426,-0.9023,-0.4233,-23.96,12.20,21.59
348,71634842,0.6313,-0.9106,-0.4385,-25.18,10.73,21.28
349,71639843,0.6299,-0.8823,-0.4380,-26.04,9.27,20.85
350,71645340,0.6338,-0.8477,-0.4312,-26.77,7.87,20.43
351,71649845,0.6504,-0.8335,-0.4229,-27.26,6.59,19.88
352,71654842,0.6699,-0.8438,-0.4277,-27.44,5.24,19.27
353,71659845,0.6768,-0.8472,-0.4365,-27.56,4.02,18.66
354,71664842,0.6826,-0.8315,-0.4331,-27.26,2.80,17.93
355,71669843,0.6948,-0.8379,-0.4287,-26.83,1.65,16.95
356,71674842,0.6919,-0.8350,-0.4370,-26.04,0.30,15.85
357,71679843,0.6777,-0.8403,-0.4365,-25.06,-0.85,14.70
358,71684843,0.6724,-0.8174,-0.4302,-23.54,-2.20,13.41
359,71689843,0.6714,-0.7920,-0.4399,-21.89,-3.41,11.65
360,71694843,0.6685,-0.7681,-0.4390,-20.18,-4.51,9.76
361,71699843,0.6748,-0.7368,-0.4326,-18.35,-5.55,7.68
362,71704841,0.6504,-0.7134,-0.4233,-16.59,-6.34,5.37
363,71709843,0.6235,-0.6797,-0.4229,-14.82,-7.01,2.99
364,71714842,0.6021,-0.6582,-0.4316,-12.93,-7.68,0.43
365,71719844,0.5908,-0.6343,-0.4419,-10.98,-8.35,-2.26
366,71724841,0.5786,-0.6113,-0.4385,-9.21,-9.02,-4.94
367,71729843,0.5615,-0.5918,-0.4341,-7.62,-9.76,-7.56
368,71734842,0.5537,-0.5845,-0.4390,-6.59,-10.00,-9.70
369,71739889,0.5601,-0.5635,-0.4395,-5.24,-10.55,-12.87
370,71745224,0.5659,-0.5576,-0.4414,-4.45,-10.79,-15.49
371,71749843,0.5928,-0.5479,-0.4585,-4.15,-11.10,-17.44
372,71754842,0.6025,-0.5479,-0.4629,-3.84,-11.22,-19.88
373,71759843,0.5991,-0.5493,-0.4644,-4.27,-11.46,-22.20
374,71765046,0.5781,-0.5361,-0.4771,-5.37,-11.34,-24.94
375,71769843,0.5762,-0.5229,-0.4741,-6.71,-11.22,-26.59
376,71774842,0.5635,-0.5269,-0.4941,-9.51,-11.28,-28.72
377,71779842,0.5620,-0.5146,-0.4956,-11.71,-11.34,-30.00
378,71784843,0.5654,-0.5078,-0.5068,-14.76,-11.34,-31.34
379,71789843,0.5879,-0.5044,-0.5166,-18.29,-11.28,-32.62
380,71794843,0.6045,-0.4951,-0.5225,-22.20,-11.40,-33.66
381,71799843,0.6265,-0.4775,-0.5312,-26.10,-11.34,-34.63
382,71804843,0.6450,-0.4561,-0.5479,-30.30,-11.52,-35.55
383,71809843,0.6475,-0.4355,-0.5571,-34.70,-11.65,-36.34
384,71814843,0.6499,-0.4224,-0.5752,-39.21,-11.65,-36.89
385,71819841,0.6650,-0.4019,-0.5938,-43.78,-11.83,-37.32
386,71824845,0.6929,-0.3706,-0.6226,-48.05,-11.77,-37.50
387,71829842,0.7275,-0.3335,-0.6548,-52.01,-11.83,-37.50
388,71834842,0.7769,-0.2842,-0.6978,-55.24,-11.46,-37.56
389,71839843,0.8066,-0.2334,-0.7446,-57.50,-11.16,-37.20
390,71844843,0.8169,-0.1963,-0.7778,-58.60,-10.43,-36.59
391,71849843,0.8086,-0.1943,-0.7959,-58.90,-9.45,-35.55
392,71854843,0.7437,-0.2207,-0.7959,-58.41,-8.41,-34.09
393,71859843,0.7417,-0.2393,-0.8027,-58.05,-7.50,-32.50
394,71864844,0.7861,-0.2134,-0.7974,-57.26,-6.65,-30.98
395,71869843,0.7798,-0.1987,-0.8027,-55.79,-5.24,-29.70
396,71874843,0.7363,-0.2090,-0.8159,-53.54,-3.90,-28.29
397,71879843,0.6865,-0.2212,-0.8159,-51.16,-2.50,-26.77
398,71884843,0.6543,-0.2363,-0.8252,-48.66,-0.79,-25.06
399,71889843,0.6440,-0.2432,-0.8213,-46.04,1.04,-23.41
400,71894841,0.6357,-0.2280,-0.8477,-42.93,3.11,-21.71
401,71900022,0.6187,-0.2056,-0.8535,-39.39,5.06,-20.12
402,71904843,0.6060,-0.1948,-0.8613,-35.55,7.62,-18.54
403,71909842,0.6030,-0.1870,-0.8706,-31.28,10.12,-16.89
404,71914843,0.6250,-0.1973,-0.8901,-27.07,12.87,-15.18
405,71919843,0.6147,-0.2158,-0.8828,-22.99,15.49,-13.23
406,71925360,0.6074,-0.1924,-0.8818,-17.99,18.90,-11.10
407,71929843,0.5947,-0.1870,-0.8750,-14.82,21.34,-9.63
408,71934843,0.5884,-0.1816,-0.8687,-10.91,24.02,-8.17
409,71939843,0.5439,-0.1782,-0.8472,-7.32,27.01,-6.34
410,71944841,0.5894,-0.1323,-0.8569,-3.96,29.63,-4.76
411,71949844,0.6235,-0.1504,-0.8135,-1.04,32.07,-3.17
412,71954842,0.6172,-0.1694,-0.7944,1.46,34.63,-1.28
413,71959843,0.6196,-0.1479,-0.7949,3.72,36.89,0.67
414,71964841,0.5938,-0.1519,-0.7798,5.79,38.96,2.56
415,71969845,0.5610,-0.1226,-0.7480,8.11,40.85,4.45
416,71974842,0.5967,-0.0952,-0.7671,10.06,42.32,5.85
417,71979843,0.6250,-0.1699,-0.7480,10.30,43.23,7.44
418,71984842,0.6528,-0.1650,-0.6772,9.51,44.15,9.15
419,71989843,0.6992,-0.1118,-0.6660,8.35,45.79,10.55
420,71994841,0.6802,-0.1050,-0.6641,6.59,47.01,11.34
421,71999841,0.6411,-0.1479,-0.6475,2.93,48.17,12.13
422,72004843,0.6079,-0.1504,-0.6382,-2.01,49.02,12.93
423,72009843,0.6064,-0.1611,-0.6655,-7.68,49.63,13.60
424,72014842,0.6548,-0.1626,-0.6753,-13.60,50.30,14.45
425,72019843,0.6694,-0.1548,-0.7163,-20.00,51.10,14.94
426,72024841,0.6274,-0.1851,-0.6904,-27.20,52.01,15.24
427,72029844,0.6714,-0.1846,-0.6631,-35.43,52.87,15.24
428,72034843,0.7197,-0.1777,-0.6919,-44.33,53.84,15.06
429,72039843,0.6929,-0.1641,-0.6836,-53.66,54.70,14.70
430,72044841,0.7021,-0.1865,-0.6880,-63.78,55.43,14.27
431,72049843,0.7124,-0.2012,-0.6895,-74.70,56.10,13.96
432,72054843,0.6963,-0.2080,-0.6885,-86.10,56.83,13.66
433,72059843,0.7583,-0.2080,-0.7114,-97.68,57.44,13.60
434,72064841,0.7861,-0.1929,-0.7373,-108.72,58.11,13.54
435,72069845,0.7539,-0.2007,-0.7427,-118.96,58.72,13.54
436,72074842,0.7549,-0.2148,-0.7485,-128.84,59.63,13.84
437,72079843,0.7432,-0.2197,-0.7681,-138.29,60.30,14.02
438,72084841,0.7480,-0.2251,-0.7788,-147.07,60.85,14.15
439,72089843,0.7578,-0.2217,-0.7886,-155.12,61.59,14.39
440,72094927,0.7720,-0.2139,-0.8032,-161.77,62.20,14.51
441,72099843,0.7715,-0.2183,-0.8369,-166.83,62.87,14.51
442,72105170,0.7832,-0.2163,-0.8701,-170.49,63.54,14.45
443,72109843,0.7847,-0.2256,-0.8979,-172.62,64.45,14.51
444,72114843,0.7778,-0.2310,-0.9248,-173.41,65.37,14.45
445,72119844,0.7759,-0.2500,-0.9585,-173.41,66.65,14.51
446,72124843,0.7861,-0.2612,-0.9844,-172.56,68.05,14.45
447,72129843,0.7808,-0.2588,-1.0112,-170.98,69.76,14.57
448,72134841,0.7593,-0.2690,-1.0415,-169.39,71.52,14.63
449,72139846,0.7329,-0.2935,-1.0342,-167.74,73.35,14.88
450,72144841,0.6255,-0.2993,-1.0474,-166.28,75.73,15.37
451,72149841,0.6836,-0.2842,-1.0557,-165.00,78.23,16.04
452,72154842,0.7158,-0.2554,-1.0840,-164.09,80.85,16.52
453,72159843,0.7314,-0.2666,-1.0649,-163.90,83.48,17.01
454,72164843,0.7461,-0.2524,-1.0566,-164.21,86.16,17.44
455,72169843,0.7412,-0.2715,-1.0635,-165.00,88.17,17.68
456,72174842,0.7158,-0.2798,-1.0381,-166.22,90.67,17.99
457,72179843,0.6855,-0.2778,-1.0122,-167.56,93.11,18.35
458,72184844,0.6543,-0.2759,-1.0000,-168.72,95.98,18.84
459,72189843,0.6372,-0.2554,-1.0264,-169.70,98.60,19.45
460,72194843,0.6182,-0.2539,-1.0132,-170.73,100.91,20.12
461,72199841,0.6196,-0.2554,-1.0269,-172.01,103.11,20.85
462,72204845,0.6152,-0.2451,-1.0127,-173.48,105.18,21.65
463,72209842,0.6123,-0.2441,-0.9819,-175.55,107.20,22.44
464,72214843,0.6177,-0.2393,-0.9639,-178.05,109.63,23.23
465,72219842,0.5840,-0.2368,-0.9507,-180.85,111.65,23.78
466,72224845,0.5933,-0.2441,-0.9380,-184.15,113.78,24.21
467,72229842,0.6108,-0.2441,-0.9229,-187.74,116.04,24.51
468,72234928,0.6123,-0.2515,-0.9189,-191.46,118.29,24.70
469,72239841,0.6265,-0.2593,-0.8848,-195.12,120.85,25.00
470,72244841,0.6387,-0.2642,-0.9097,-198.11,123.11,24.94
471,72249841,0.6450,-0.2974,-0.9292,-200.91,125.18,25.12
472,72254842,0.6567,-0.3472,-0.9282,-203.84,127.01,25.61
473,72259845,0.6812,-0.3833,-0.9224,-206.77,128.23,26.34
474,72264842,0.7065,-0.3960,-0.9272,-209.94,129.39,27.62
475,72269845,0.7227,-0.4004,-0.9141,-213.05,130.37,28.84
476,72274842,0.7466,-0.4121,-0.9111,-216.71,130.91,30.43
477,72279841,0.7822,-0.4238,-0.9028,-220.18,131.10,32.32
478,72284843,0.7754,-0.3926,-0.8677,-223.05,131.10,34.33
479,72289843,0.7637,-0.3794,-0.8394,-225.30,130.85,35.91
480,72294843,0.7559,-0.3701,-0.8101,-227.07,130.67,37.44
481,72299842,0.7583,-0.3218,-0.7451,-228.41,130.43,38.72
482,72304843,0.7705,-0.3398,-0.7471,-229.94,130.12,40.00
483,72309843,0.7910,-0.3452,-0.7539,-230.79,128.90,41.28
484,72314843,0.8057,-0.3501,-0.7236,-230.98,127.68,42.50
485,72319842,0.8208,-0.3374,-0.6929,-230.49,126.40,43.60
486,72324843,0.8501,-0.2944,-0.6870,-229.27,124.82,44.39
487,72330254,0.8584,-0.2847,-0.6709,-227.20,122.87,44.63
488,72334843,0.8584,-0.2676,-0.6367,-224.15,120.91,44.70
489,72339843,0.8345,-0.2681,-0.6401,-220.37,119.02,44.39
490,72344843,0.8066,-0.2764,-0.6191,-217.13,117.20,44.15
491,72349844,0.7798,-0.2769,-0.5854,-212.56,115.06,43.72
492,72354901,0.7681,-0.2661,-0.5269,-206.22,112.87,43.17
493,72359844,0.7627,-0.2593,-0.4917,-201.65,111.83,42.68
494,72364843,0.7549,-0.2476,-0.4648,-195.85,110.67,41.89
495,72369842,0.7349,-0.2354,-0.4399,-190.24,109.57,40.98
496,72374843,0.7236,-0.2227,-0.4194,-185.00,108.54,40.06
497,72379843,0.7275,-0.2212,-0.4097,-180.12,107.62,39.09
498,72384843,0.7344,-0.2231,-0.4028,-175.73,106.46,38.23
499,72389842,0.7515,-0.2173,-0.3975,-172.13,105.12,37.44
500,72394843,0.7681,-0.2100,-0.3975,-168.96,103.29,36.59
501,72399882,0.7725,-0.2017,-0.3877,-167.56,101.89,36.10
502,72404845,0.7720,-0.1953,-0.3687,-166.83,100.24,35.49
503,72409842,0.7656,-0.1958,-0.3486,-166.95,98.84,35.06
504,72414843,0.7456,-0.1899,-0.3438,-168.35,97.68,34.94
505,72419843,0.7334,-0.1675,-0.3311,-170.73,96.52,34.76
506,72424843,0.7158,-0.1572,-0.3096,-174.39,95.55,34.57
507,72429844,0.7061,-0.1484,-0.3076,-179.09,94.88,34.63
508,72434843,0.6914,-0.1411,-0.3081,-184.63,94.02,34.88
509,72439842,0.6895,-0.1270,-0.2944,-190.73,93.60,35.18
510,72444845,0.6807,-0.1128,-0.2808,-197.56,92.87,35.61
511,72449841,0.6733,-0.1162,-0.2861,-204.76,92.26,36.16
512,72454841,0.6738,-0.1187,-0.2861,-212.13,91.52,36.89
513,72459845,0.6919,-0.1050,-0.2656,-219.70,90.85,37.68
514,72464842,0.6934,-0.0796,-0.2480,-227.44,90.18,38.54
515,72469843,0.6851,-0.0635,-0.2510,-235.37,89.33,39.57
516,72474842,0.6792,-0.0571,-0.2378,-243.23,88.72,40.85
517,72479843,0.6729,-0.0557,-0.2222,-250.67,87.87,42.20
518,72484842,0.6680,-0.0537,-0.2075,-258.11,85.91,43.78
519,72489843,0.6768,-0.0498,-0.1982,-264.39,85.43,45.55
520,72494842,0.6641,-0.0493,-0.1860,-270.00,85.30,47.50
521,72499841,0.6450,-0.0454,-0.1704,-274.57,84.82,49.45
522,72504845,0.6465,-0.0366,-0.1504,-278.23,83.41,51.40
523,72509843,0.6538,-0.0405,-0.1440,-280.85,81.83,53.35
524,72514842,0.6523,-0.0566,-0.1343,-282.56,80.43,55.55
525,72519843,0.6538,-0.0674,-0.1235,-283.41,79.02,57.74
526,72524841,0.6665,-0.0776,-0.1157,-283.48,77.38,60.00
527,72530221,0.6606,-0.0908,-0.1113,-282.50,75.30,62.74
528,72534844,0.6631,-0.1152,-0.1064,-281.34,73.78,64.63
529,72539843,0.6660,-0.1235,-0.1064,-279.27,72.01,67.07
530,72544843,0.6631,-0.1401,-0.1035,-276.65,70.18,69.39
531,72549844,0.6538,-0.1562,-0.0894,-273.66,68.29,72.01
532,72554843,0.6436,-0.1719,-0.0918,-270.37,66.59,74.57
533,72559841,0.6289,-0.1938,-0.0864,-266.65,64.88,77.13
534,72564845,0.6143,-0.2085,-0.0791,-262.80,63.11,79.94
535,72569843,0.6069,-0.2227,-0.0757,-258.66,61.46,82.74
536,72574898,0.6064,-0.2358,-0.0791,-254.27,59.76,85.67
537,72579845,0.6055,-0.2524,-0.0654,-249.57,58.05,88.29
538,72584842,0.5991,-0.2603,-0.0601,-245.00,56.34,91.22
539,72589845,0.5835,-0.2803,-0.0537,-240.00,54.45,94.15
540,72594842,0.5903,-0.2739,-0.0327,-234.94,52.80,96.95
541,72599843,0.5884,-0.2847,-0.0283,-229.94,50.98,99.63
542,72604842,0.5884,-0.2925,-0.0308,-224.88,49.39,102.13
543,72609841,0.5786,-0.3057,-0.0156,-220.06,47.56,104.63
544,72614845,0.5664,-0.3208,-0.0073,-215.30,45.85,107.07
545,72619843,0.5586,-0.3325,-0.0059,-210.49,44.21,109.57
546,72624842,0.5435,-0.3486,0.0103,-205.67,42.56,112.01
547,72629906,0.5356,-0.3564,0.0210,-200.91,40.91,114.51
548,72634845,0.5210,-0.3657,0.0264,-195.91,39.45,116.83
549,72639842,0.5059,-0.3794,0.0332,-189.76,37.68,119.76
550,72644843,0.4980,-0.3906,0.0278,-185.61,36.34,121.40
551,72649842,0.4868,-0.4048,0.0283,-180.30,34.82,123.72
552,72654845,0.4727,-0.4185,0.0420,-175.06,33.35,125.85
553,72659842,0.4595,-0.4302,0.0449,-169.63,31.83,127.99
554,72664841,0.4546,-0.4438,0.0518,-164.09,30.43,130.06
555,72669844,0.4443,-0.4580,0.0513,-158.78,29.02,132.13
556,72674843,0.4370,-0.4663,0.0596,-153.41,27.74,134.02
557,72679842,0.4312,-0.4756,0.0640,-148.11,26.34,135.98
558,72684842,0.4395,-0.4824,0.0752,-143.05,25.30,137.56
559,72690229,0.4424,-0.4897,0.0781,-137.99,24.09,139.21
560,72694843,0.4448,-0.4951,0.0791,-133.17,22.93,140.49
561,72699843,0.4575,-0.5103,0.0708,-128.78,21.83,141.89
562,72704843,0.4561,-0.5220,0.0732,-124.45,20.37,143.29
563,72709841,0.4517,-0.5352,0.0703,-120.49,18.96,144.63
564,72714845,0.4575,-0.5479,0.0811,-116.65,17.56,146.10
565,72719845,0.4497,-0.5596,0.0806,-112.80,16.22,147.56
566,72724842,0.4463,-0.5703,0.0850,-109.02,14.82,149.15
567,72729843,0.4341,-0.5791,0.0947,-105.49,13.54,150.67
568,72734842,0.4194,-0.5830,0.0957,-102.01,12.07,152.26
569,72739843,0.4126,-0.5908,0.1050,-98.60,10.91,153.72
570,72744842,0.4102,-0.5947,0.1118,-95.06,9.76,155.18
571,72750037,0.4097,-0.5972,0.1216,-91.59,8.60,156.71
572,72754843,0.4062,-0.6108,0.1147,-88.11,7.62,158.17
573,72759842,0.4062,-0.6250,0.1147,-84.82,6.46,159.57
574,72764843,0.3960,-0.6382,0.1094,-81.65,5.30,161.16
575,72769843,0.3911,-0.6484,0.1084,-78.84,4.15,162.62
576,72774842,0.4058,-0.6587,0.1250,-76.34,3.35,164.02
577,72779841,0.3618,-0.6548,0.1108,-74.51,2.32,165.24
578,72784843,0.3325,-0.6733,0.1055,-72.99,1.59,166.40
579,72789842,0.3359,-0.6875,0.0918,-71.46,0.49,167.44
580,72794855,0.3325,-0.6948,0.0835,-70.24,-0.67,168.48
581,72799845,0.3457,-0.7212,0.1045,-68.96,-1.71,169.57
582,72804842,0.3296,-0.7275,0.0923,-67.93,-2.74,170.61
583,72809867,0.3169,-0.7349,0.0854,-67.01,-3.72,171.46
584,72814842,0.3130,-0.7432,0.1074,-66.16,-4.63,172.07
585,72819841,0.3081,-0.7456,0.0967,-65.24,-5.55,172.62
586,72824845,0.3062,-0.7476,0.0825,-64.45,-6.71,172.87
587,72829843,0.3003,-0.7466,0.0894,-63.29,-7.62,172.87
588,72834843,0.3057,-0.7573,0.0869,-62.20,-8.78,172.87
589,72839841,0.2983,-0.7637,0.0859,-61.04,-9.82,172.50
590,72844844,0.3018,-0.7876,0.0835,-59.70,-10.79,172.13
591,72849843,0.2803,-0.8032,0.0786,-58.66,-11.95,171.95
592,72854843,0.2563,-0.8179,0.0728,-57.68,-12.99,171.83
593,72859841,0.2393,-0.8286,0.0781,-57.01,-14.02,171.52
594,72864841,0.2114,-0.8345,0.0713,-56.34,-14.88,171.04
595,72869844,0.1924,-0.8418,0.0781,-55.79,-15.85,170.43
596,72874843,0.1846,-0.8467,0.0732,-55.30,-16.46,169.63
597,72879843,0.1753,-0.8423,0.0679,-54.94,-17.32,168.72
598,72884941,0.1782,-0.8320,0.0684,-54.33,-17.87,167.56
599,72889844,0.1675,-0.8286,0.0654,-53.60,-18.54,166.16
600,72894843,0.1548,-0.8374,0.0684,-52.56,-19.09,164.70
601,72899843,0.1562,-0.8687,0.0415,-51.65,-20.00,163.60
602,72904843,0.1436,-0.8882,0.0322,-51.04,-20.98,162.68
603,72909841,0.1235,-0.8945,0.0322,-50.49,-21.95,161.89
604,72914843,0.1089,-0.8906,0.0303,-49.94,-22.87,160.91
605,72919842,0.0791,-0.8862,0.0234,-49.33,-23.60,159.70
606,72924843,0.0581,-0.8931,0.0190,-48.84,-24.39,158.35
607,72929842,0.0601,-0.8999,0.0103,-48.35,-25.12,157.20
608,72934842,0.0547,-0.9077,0.0068,-47.62,-26.28,155.61
609,72939843,0.0425,-0.9067,0.0010,-47.20,-27.44,154.27
610,72944842,0.0396,-0.9019,0.0054,-46.83,-28.23,153.05
611,72949844,0.0342,-0.9023,0.0122,-46.46,-29.27,151.10
612,72954842,0.0288,-0.8911,0.0093,-46.40,-29.94,150.00
613,72959845,0.0342,-0.9014,0.0059,-46.52,-30.91,148.48
614,72964842,0.0396,-0.9170,-0.0156,-47.13,-32.38,147.20
615,72969843,0.0332,-0.9204,-0.0293,-48.41,-33.78,146.10
616,72974842,0.0195,-0.9268,-0.0371,-50.24,-35.37,145.00
617,72979841,0.0073,-0.9346,-0.0474,-52.32,-36.89,143.90
618,72984844,-0.0107,-0.9404,-0.0503,-54.76,-38.54,142.87
619,72989843,-0.0288,-0.9546,-0.0771,-57.44,-40.37,141.83
620,72994843,-0.0542,-0.9746,-0.0933,-60.12,-42.07,140.79
621,72999844,-0.0762,-0.9937,-0.0986,-62.99,-43.96,139.94
622,73004843,-0.1025,-1.0078,-0.1099,-65.73,-45.85,138.96
623,73009843,-0.1260,-1.0127,-0.1201,-68.23,-47.62,138.05
624,73014843,-0.1548,-1.0205,-0.1270,-70.43,-49.45,136.71
625,73019841,-0.1758,-1.0210,-0.1406,-72.32,-51.10,135.18
626,73024844,-0.1846,-1.0308,-0.1558,-73.78,-52.99,133.66
627,73030675,-0.2080,-1.0479,-0.1777,-75.55,-55.49,131.77
628,73034843,-0.2310,-1.0562,-0.1846,-76.83,-57.01,130.55
629,73039844,-0.2549,-1.0776,-0.1880,-78.60,-59.15,128.90
630,73044843,-0.2783,-1.0972,-0.2124,-80.79,-61.40,127.38
631,73049842,-0.2988,-1.1240,-0.2271,-83.35,-63.66,126.10
632,73054922,-0.3213,-1.1533,-0.2583,-86.59,-66.40,124.82
633,73059844,-0.3403,-1.1880,-0.2778,-90.06,-69.27,123.72
634,73064843,-0.3667,-1.2197,-0.2900,-93.84,-72.07,122.99
635,73069841,-0.3994,-1.2441,-0.2964,-97.26,-75.00,122.20
636,73074841,-0.4219,-1.2729,-0.3022,-100.79,-78.41,121.34
637,73079845,-0.4355,-1.2920,-0.3130,-102.32,-80.79,120.79
638,73084842,-0.4609,-1.3110,-0.3232,-103.11,-83.72,119.94
639,73089845,-0.5005,-1.3213,-0.3120,-102.20,-86.77,118.96
640,73094842,-0.5430,-1.3286,-0.3032,-99.63,-89.09,117.74
641,73099841,-0.5933,-1.3374,-0.2861,-95.30,-91.28,116.34
642,73104845,-0.6245,-1.3491,-0.2842,-89.27,-93.29,114.76
643,73109919,-0.6616,-1.3530,-0.2666,-82.07,-94.94,112.87
644,73114846,-0.6816,-1.3486,-0.2461,-73.84,-96.95,110.98
645,73119842,-0.6973,-1.3555,-0.2437,-65.06,-98.72,108.84
646,73124841,-0.7285,-1.3472,-0.2319,-56.46,-100.85,106.46
647,73130110,-0.7529,-1.3477,-0.2222,-47.99,-102.93,103.90
648,73134843,-0.7803,-1.3579,-0.2085,-40.37,-105.37,101.28
649,73139842,-0.8027,-1.3809,-0.1968,-33.84,-108.05,98.60
650,73144843,-0.8076,-1.4058,-0.1934,-28.48,-111.10,96.16
651,73150015,-0.8149,-1.4102,-0.1729,-24.09,-114.63,93.35
652,73154843,-0.8096,-1.4170,-0.1689,-20.67,-118.41,90.18
653,73159841,-0.8105,-1.4302,-0.1826,-18.05,-122.74,87.44
654,73164844,-0.8218,-1.4155,-0.1377,-16.16,-127.74,83.60
655,73169842,-0.8438,-1.4214,-0.1250,-14.57,-132.80,79.51
656,73174845,-0.8662,-1.4321,-0.1260,-13.05,-137.99,75.18
657,73179844,-0.8921,-1.4424,-0.1162,-11.65,-143.35,70.73
658,73184842,-0.9023,-1.4399,-0.1143,-10.61,-149.39,66.16
659,73189842,-0.9282,-1.4297,-0.1274,-9.82,-155.79,61.40
660,73194845,-0.9512,-1.4287,-0.1226,-9.51,-162.32,56.59
661,73199845,-0.9829,-1.4365,-0.1221,-9.76,-169.21,51.83
662,73204843,-1.0098,-1.4438,-0.1270,-10.73,-176.28,47.20
663,73209842,-1.0317,-1.4531,-0.1426,-12.38,-183.72,42.62
664,73214843,-1.0513,-1.4609,-0.1519,-14.21,-191.40,38.05
665,73219842,-1.0752,-1.4517,-0.1626,-16.22,-199.39,33.60
666,73224841,-1.1011,-1.4487,-0.1704,-17.99,-207.44,28.90
667,73229844,-1.1206,-1.4448,-0.1709,-19.39,-215.61,24.09
668,73234843,-1.1440,-1.4424,-0.1782,-20.24,-223.72,19.27
669,73239842,-1.1611,-1.4404,-0.1919,-20.67,-231.89,14.39
670,73244845,-1.1895,-1.4248,-0.1963,-20.24,-239.94,9.33
671,73249843,-1.2178,-1.4087,-0.2119,-19.27,-248.05,4.21
672,73254843,-1.2534,-1.4048,-0.2339,-18.05,-256.10,-1.34
673,73259841,-1.2822,-1.3833,-0.2642,-16.83,-264.27,-6.89
674,73264845,-1.3232,-1.3486,-0.2422,-15.79,-272.32,-12.80
675,73269843,-1.3828,-1.3311,-0.2788,-15.12,-279.94,-18.96
676,73274843,-1.4238,-1.3271,-0.3013,-14.70,-287.26,-25.24
677,73279841,-1.4717,-1.3325,-0.3452,-15.00,-296.22,-32.56
678,73284843,-1.5005,-1.3354,-0.3750,-15.73,-302.26,-37.26
679,73290147,-1.5376,-1.3325,-0.4199,-17.26,-310.00,-42.93
680,73294844,-1.5757,-1.3271,-0.4473,-19.27,-317.56,-48.72
681,73299905,-1.6157,-1.3228,-0.4722,-21.40,-324.88,-54.33
682,73304845,-1.6475,-1.3184,-0.5117,-23.84,-332.20,-60.00
683,73309842,-1.6689,-1.3135,-0.5469,-25.85,-339.27,-65.61
684,73314843,-1.7075,-1.2979,-0.5786,-27.68,-346.22,-71.22
685,73319841,-1.7471,-1.2856,-0.6108,-29.15,-352.99,-77.01
686,73324841,-1.7944,-1.2729,-0.6401,-29.94,-359.39,-82.56
687,73329841,-1.8481,-1.2603,-0.6631,-30.12,-365.37,-88.23
688,73334845,-1.8975,-1.2480,-0.6982,-30.00,-371.10,-93.84
689,73339844,-1.9414,-1.2368,-0.7393,-29.39,-376.40,-99.27
690,73344842,-1.9849,-1.2295,-0.7847,-28.60,-381.59,-104.51
691,73349841,-2.0308,-1.2256,-0.8257,-27.74,-386.83,-109.57
692,73354844,-2.0786,-1.2275,-0.8706,-26.59,-391.77,-114.33
693,73359842,-2.1309,-1.2261,-0.9028,-25.37,-396.59,-118.66
694,73364844,-2.1885,-1.2261,-0.9448,-23.84,-401.10,-122.93
695,73369843,-2.2432,-1.2163,-0.9873,-21.95,-405.06,-126.89
696,73374842,-2.2944,-1.2139,-1.0186,-19.88,-408.66,-130.73
697,73379845,-2.3315,-1.1978,-1.0537,-17.26,-412.07,-134.51
698,73384842,-2.3687,-1.1924,-1.0840,-14.51,-415.12,-138.17
699,73389843,-2.4033,-1.1792,-1.1104,-11.77,-418.05,-141.95
700,73394842,-2.4336,-1.1753,-1.1313,-9.02,-420.24,-145.55
701,73399843,-2.4541,-1.1787,-1.1597,-6.89,-422.26,-149.02
702,73404842,-2.4902,-1.1753,-1.1812,-5.43,-424.02,-152.50
703,73409843,-2.5356,-1.1758,-1.1997,-4.39,-425.61,-155.85
704,73414842,-2.5869,-1.1753,-1.2251,-3.90,-426.77,-158.96
705,73419843,-2.6255,-1.1753,-1.2549,-3.72,-427.80,-162.38
706,73424842,-2.6719,-1.1953,-1.2798,-3.84,-428.60,-165.49
707,73429845,-2.7085,-1.2036,-1.3022,-3.96,-429.33,-168.23
708,73434842,-2.7485,-1.2119,-1.3340,-3.72,-429.88,-171.16
709,73440110,-2.7847,-1.2368,-1.3486,-3.35,-430.43,-174.02
710,73444843,-2.8057,-1.2622,-1.3584,-2.68,-430.79,-176.77
711,73449842,-2.8447,-1.2529,-1.3818,-1.52,-430.91,-179.51
712,73454848,-2.8633,-1.2725,-1.3896,0.06,-430.91,-182.20
713,73459845,-2.8877,-1.2861,-1.3740,2.32,-430.85,-184.76
714,73464841,-2.9019,-1.3027,-1.3818,5.12,-430.61,-187.32
715,73469845,-2.9131,-1.3213,-1.3770,8.90,-430.18,-189.88
716,73474841,-2.9224,-1.3462,-1.3701,13.90,-430.00,-192.32
717,73479841,-2.9106,-1.3628,-1.3818,19.45,-429.88,-194.76
718,73484885,-2.8501,-1.3887,-1.3525,25.61,-430.24,-197.01
719,73489844,-2.9048,-1.3901,-1.4038,31.71,-430.91,-199.39
720,73494843,-2.9102,-1.4360,-1.3706,38.29,-432.32,-201.71
721,73499844,-2.8867,-1.4849,-1.3394,44.94,-434.09,-203.96
722,73504843,-2.8970,-1.5112,-1.3579,52.07,-436.28,-206.04
723,73509841,-2.8877,-1.5454,-1.3530,58.96,-438.96,-208.23
724,73514841,-2.8799,-1.5732,-1.3359,65.67,-442.07,-210.24
725,73519841,-2.8901,-1.5962,-1.3164,72.38,-445.55,-212.44
726,73524845,-2.9253,-1.6255,-1.3232,78.54,-449.21,-214.63
727,73529842,-2.9282,-1.6650,-1.2944,84.09,-453.29,-217.01
728,73534845,-2.9385,-1.6890,-1.2905,89.09,-457.62,-219.51
729,73539844,-2.9385,-1.7173,-1.2979,93.17,-462.20,-222.26
730,73544842,-2.9204,-1.7314,-1.2925,96.22,-467.01,-225.49
731,73549841,-2.8999,-1.7417,-1.2852,98.72,-472.01,-229.15
732,73554845,-2.8809,-1.7563,-1.2812,99.70,-477.56,-233.48
733,73559842,-2.8535,-1.7544,-1.2764,99.94,-483.05,-238.29
734,73564843,-2.8555,-1.7515,-1.2891,99.45,-488.66,-243.84
735,73569945,-2.8813,-1.7568,-1.3027,98.23,-494.45,-250.00
736,73574843,-2.9102,-1.7646,-1.3057,97.01,-498.72,-255.06
737,73579845,-2.9561,-1.7690,-1.3237,94.82,-503.60,-261.65
738,73584842,-3.0010,-1.7822,-1.3535,92.93,-508.11,-268.54
739,73589845,-3.0654,-1.7842,-1.3936,91.04,-512.26,-275.43
740,73594842,-3.1382,-1.7832,-1.4316,89.33,-515.79,-282.80
741,73599843,-3.1997,-1.7759,-1.4678,88.60,-519.02,-290.18
742,73604842,-3.2676,-1.7725,-1.5161,88.84,-521.59,-297.80
743,73609845,-3.3403,-1.7637,-1.5610,89.88,-523.84,-305.73
744,73614842,-3.4097,-1.7368,-1.5942,91.95,-525.18,-313.66
745,73619843,-3.4727,-1.7241,-1.6411,94.27,-526.28,-321.95
746,73624842,-3.5229,-1.7061,-1.6816,95.98,-526.28,-330.61
747,73629841,-3.5854,-1.6870,-1.7148,96.71,-525.61,-339.45
748,73634843,-3.6455,-1.6733,-1.7563,95.85,-524.15,-348.54
749,73639842,-3.6904,-1.6533,-1.7886,93.05,-521.83,-358.05
750,73644845,-3.7266,-1.6177,-1.8179,87.93,-518.48,-367.99
751,73649842,-3.7461,-1.5835,-1.8413,80.55,-514.21,-378.48
752,73654843,-3.7793,-1.5322,-1.8696,70.91,-509.21,-389.88
753,73659844,-3.7910,-1.4961,-1.8721,58.60,-502.99,-401.89
754,73664843,-3.8052,-1.4551,-1.8975,43.96,-495.55,-414.63
755,73669843,-3.8081,-1.3975,-1.9097,26.65,-487.01,-428.11
756,73674843,-3.7974,-1.3403,-1.9258,7.07,-477.13,-442.44
757,73679841,-3.8018,-1.2803,-1.9375,-13.90,-465.91,-457.44
758,73684841,-3.7666,-1.2124,-1.9556,-36.46,-453.35,-473.35
759,73689844,-3.7148,-1.1284,-1.9585,-60.24,-439.51,-489.63
760,73694843,-3.6616,-1.0352,-1.9707,-85.18,-424.57,-506.77
761,73699843,-3.6006,-0.9370,-1.9805,-110.79,-408.05,-524.39
762,73704843,-3.5352,-0.8311,-1.9707,-136.77,-390.43,-542.01
763,73709884,-3.4707,-0.7251,-1.9639,-163.11,-371.71,-559.82
764,73714845,-3.4077,-0.6182,-1.9458,-190.12,-351.83,-577.26
765,73719842,-3.3613,-0.5151,-1.9380,-217.38,-331.04,-594.09
766,73724843,-3.3081,-0.4131,-1.9019,-243.78,-308.84,-610.30
767,73730242,-3.2461,-0.2690,-1.8433,-273.66,-280.91,-628.60
768,73734844,-3.2031,-0.1685,-1.8135,-292.50,-261.22,-639.82
769,73739843,-3.1450,-0.0654,-1.7705,-313.60,-235.98,-652.93
770,73744843,-3.1021,0.0264,-1.7314,-331.65,-209.45,-664.45
771,73749841,-3.0732,0.0977,-1.6675,-346.65,-182.13,-674.51
772,73754845,-3.0723,0.1367,-1.5825,-360.12,-154.09,-682.87
773,73759843,-3.2451,0.1987,-1.5308,-372.20,-125.30,-689.76
774,73764842,-2.7671,0.5400,-3.8857,-383.66,-88.78,-697.01
775,73769845,-2.1934,0.8784,-3.1597,-394.27,-62.56,-703.17
776,73774924,-2.7651,0.9297,-2.1504,-405.18,-33.48,-708.60
777,73779841,-3.0859,0.7939,-2.2734,-412.62,1.04,-710.98
778,73784841,-2.9473,0.7300,-1.8384,-417.68,30.67,-710.61
779,73789841,-2.8257,0.8662,-1.3457,-421.28,60.61,-707.99
780,73794846,-2.8037,1.0664,-1.2812,-424.76,89.82,-703.35
781,73799841,-2.8838,1.1748,-1.3828,-428.41,117.13,-696.77
782,73804843,-2.9375,1.1631,-1.3311,-432.93,143.84,-687.44
783,73809844,-2.9282,1.0571,-1.2588,-436.77,170.18,-675.06
784,73814843,-2.8735,0.9565,-1.2251,-438.78,195.49,-660.37
785,73819842,-2.8003,0.8237,-1.1074,-437.13,219.63,-643.78
786,73824843,-2.7266,0.7402,-0.9370,-430.91,242.74,-625.30
787,73829843,-2.6172,0.7471,-0.7847,-419.63,263.96,-605.61
788,73834842,-2.6055,0.8569,-0.6377,-403.41,283.54,-585.37
789,73839841,-2.7422,0.7959,-0.2510,-383.60,301.71,-564.57
790,73844841,-2.8940,0.8276,-0.4126,-359.33,317.20,-542.38
791,73849843,-2.8013,0.8076,-0.1787,-332.32,329.02,-520.06
792,73854843,-2.6245,0.8091,0.0063,-300.37,339.82,-497.01
793,73859842,-2.4272,0.9678,-0.0122,-265.12,347.62,-474.51
794,73864843,-2.3979,1.1362,0.0195,-229.02,352.87,-452.99
795,73869842,-2.3291,1.3062,0.0508,-193.72,356.65,-432.07
796,73874843,-2.2554,1.4463,0.1255,-161.46,358.35,-412.13
797,73879842,-2.1860,1.5024,0.1606,-133.54,357.99,-392.93
798,73884841,-2.1182,1.4849,0.2139,-111.04,356.04,-374.09
799,73889844,-2.0615,1.4497,0.3135,-95.06,352.93,-355.43
800,73894843,-2.0098,1.4331,0.3838,-85.37,348.84,-337.13
801,73899843,-1.9771,1.4346,0.4346,-81.34,343.96,-319.57
802,73904843,-1.9468,1.3931,0.5249,-81.89,338.54,-302.44
803,73909841,-1.9214,1.3745,0.6201,-86.46,332.99,-286.10
804,73914845,-1.9824,1.4302,0.6685,-92.93,327.07,-270.61
805,73920166,-1.9438,1.3164,0.7900,-98.96,320.98,-255.79
806,73924843,-1.9478,1.3125,0.8970,-105.85,314.76,-241.16
807,73929843,-2.0161,1.3970,0.9360,-113.29,307.56,-226.83
808,73934851,-2.0386,1.4658,0.9980,-120.67,299.45,-212.68
809,73939841,-2.1006,1.5366,1.1069,-128.05,290.91,-198.90
810,73944845,-2.1992,1.6162,1.1572,-135.12,281.71,-185.24
811,73949842,-2.3032,1.6870,1.1963,-142.93,271.89,-171.89
812,73954843,-2.2573,1.7656,1.3193,-151.10,262.01,-158.84
813,73959842,-2.1826,1.8193,1.3491,-159.51,252.01,-146.46
814,73964843,-2.2173,1.8501,1.3335,-168.72,240.98,-134.09
815,73969843,-2.2427,1.8560,1.3340,-178.23,229.15,-121.59
816,73974843,-2.1641,1.9395,1.3989,-187.44,216.83,-109.09
817,73979844,-2.0288,1.8804,1.4136,-195.24,204.51,-97.01
818,73984843,-2.0029,1.8589,1.4341,-200.91,192.01,-84.82
819,73990154,-1.9126,1.8379,1.4409,-204.02,178.60,-72.20
820,73994844,-1.7617,1.8130,1.4131,-203.41,164.70,-59.39
821,73999843,-1.5840,1.7612,1.4092,-198.90,150.43,-46.65
822,74004843,-1.4351,1.7124,1.3936,-190.55,136.22,-33.96
823,74009844,-1.2949,1.6836,1.3320,-178.72,121.46,-21.40
824,74014843,-1.1558,1.6270,1.3091,-164.21,106.65,-8.96
825,74019843,-1.0410,1.5640,1.2949,-147.99,92.01,3.35
826,74024843,-0.9453,1.4917,1.2607,-131.10,77.87,15.67
827,74030029,-0.8486,1.4414,1.2251,-114.45,64.02,27.50
828,74034843,-0.7485,1.3887,1.1938,-98.66,50.67,39.15
829,74039843,-0.6724,1.3301,1.1616,-84.09,37.80,50.37
830,74044843,-0.6235,1.2822,1.1104,-71.34,25.49,61.34
831,74049844,-0.5874,1.2358,1.0684,-60.49,13.72,71.89
832,74054843,-0.5547,1.1929,1.0332,-51.40,2.68,82.07
833,74059843,-0.5308,1.1567,0.9985,-43.60,-7.44,91.65
834,74064843,-0.5195,1.1255,0.9385,-37.26,-16.83,100.85
835,74069843,-0.5122,1.0967,0.9009,-31.89,-25.49,109.45
836,74074842,-0.5156,1.0693,0.8550,-27.01,-33.41,117.50
837,74079841,-0.5234,1.0449,0.8145,-22.20,-40.61,124.88
838,74084845,-0.5273,1.0220,0.7808,-17.26,-47.20,131.83
839,74089842,-0.5386,1.0005,0.7549,-12.26,-53.11,138.17
840,74094845,-0.5425,0.9873,0.7266,-6.95,-58.41,144.15
841,74099841,-0.5518,0.9712,0.6973,-1.04,-63.05,149.57
842,74104843,-0.5571,0.9595,0.6641,5.12,-67.13,154.51
843,74109842,-0.5552,0.9546,0.6455,11.59,-70.73,158.84
844,74114845,-0.5557,0.9443,0.6167,18.60,-73.78,163.05
845,74120098,-0.5537,0.9312,0.5923,25.61,-76.46,166.71
846,74124843,-0.5493,0.9292,0.5654,32.87,-78.66,169.82
847,74129842,-0.5371,0.9116,0.5347,40.00,-80.43,172.74
848,74134841,-0.5288,0.8984,0.5176,47.13,-81.89,175.30
849,74139841,-0.5171,0.8882,0.5063,54.21,-82.74,177.56
850,74144844,-0.5137,0.8745,0.4966,61.10,-83.23,179.45
851,74149842,-0.5059,0.8643,0.4688,67.87,-83.35,181.28
852,74154844,-0.5005,0.8633,0.4634,74.15,-82.87,182.68
853,74159843,-0.4824,0.8701,0.4370,79.76,-82.07,183.84
854,74164845,-0.4595,0.8735,0.4141,84.27,-81.04,184.76
855,74169845,-0.4331,0.8799,0.3936,87.68,-79.63,185.37
856,74174842,-0.4111,0.8872,0.3701,90.00,-78.17,185.85
857,74179844,-0.3857,0.8872,0.3462,91.28,-76.65,186.16
858,74184842,-0.3652,0.8887,0.3350,91.65,-74.76,186.22
859,74189842,-0.3477,0.8921,0.3208,91.52,-73.23,186.22
860,74194841,-0.3218,0.8911,0.3013,90.85,-71.46,185.98
861,74199842,-0.2759,0.8940,0.2798,89.27,-69.09,185.55
862,74204841,-0.2603,0.8921,0.2695,87.74,-67.38,185.12
863,74209845,-0.2378,0.8926,0.2612,85.49,-65.73,184.51
864,74214842,-0.2178,0.8911,0.2456,83.17,-63.90,183.84
865,74219841,-0.2012,0.8872,0.2397,80.61,-62.07,182.99
866,74224843,-0.1807,0.8813,0.2241,78.29,-60.55,182.13
867,74229842,-0.1660,0.8701,0.2275,75.91,-59.02,181.28
868,74234844,-0.1523,0.8638,0.2168,73.78,-57.56,180.37
869,74239843,-0.1455,0.8491,0.2183,71.83,-56.16,179.57
870,74244842,-0.1323,0.8354,0.2104,70.24,-54.82,178.84
871,74250202,-0.1094,0.8286,0.2021,68.35,-53.54,177.99
872,74254843,-0.0952,0.8179,0.2031,67.44,-52.74,177.44
873,74260055,-0.0732,0.8096,0.1978,66.16,-51.22,176.59
874,74264843,-0.0552,0.8105,0.1914,65.61,-50.49,176.04
875,74269844,-0.0391,0.8022,0.1929,64.88,-49.63,175.30
876,74274843,-0.0288,0.7964,0.1821,64.21,-48.72,174.70
877,74279842,-0.0127,0.7896,0.1899,63.54,-47.99,174.02
878,74284841,-0.0034,0.7837,0.1846,62.56,-47.38,173.48
879,74289847,0.0073,0.7788,0.1797,61.52,-46.71,172.93
880,74294842,0.0244,0.7778,0.1694,60.24,-46.10,172.50
881,74299841,0.0459,0.7773,0.1748,58.96,-45.61,172.20
882,74304845,0.0664,0.7812,0.1641,57.50,-45.30,171.83
883,74309843,0.0796,0.7803,0.1631,56.04,-45.18,171.65
884,74314843,0.0981,0.7817,0.1611,54.63,-45.18,171.59
885,74319842,0.1069,0.7783,0.1572,53.29,-45.43,171.71
886,74324843,0.1265,0.7729,0.1445,52.13,-45.79,171.83
887,74329844,0.1489,0.7759,0.1372,51.10,-46.28,172.20
888,74334843,0.1748,0.7720,0.1284,50.06,-47.07,172.50
889,74339842,0.1924,0.7686,0.1260,49.21,-47.99,173.05
890,74344880,0.2119,0.7681,0.1187,48.60,-48.96,173.54
891,74349842,0.2246,0.7661,0.1245,48.48,-49.82,173.96
892,74354841,0.2344,0.7666,0.1284,48.60,-50.61,174.33
893,74359845,0.2393,0.7563,0.1299,49.09,-51.22,174.70
894,74364842,0.2339,0.7495,0.1196,50.00,-51.77,174.76
895,74369843,0.2319,0.7397,0.1196,51.34,-52.32,175.18
896,74374842,0.2417,0.7324,0.1138,52.87,-52.68,175.37
897,74379843,0.2466,0.7266,0.1108,54.57,-53.23,175.43
898,74384843,0.2573,0.7202,0.1089,56.40,-53.72,175.73
899,74389843,0.2656,0.7095,0.1040,58.17,-54.02,175.98
900,74394841,0.2700,0.7070,0.0981,59.88,-54.45,176.28
901,74399845,0.2705,0.7012,0.0913,61.22,-54.70,176.71
902,74404842,0.2852,0.6938,0.0869,62.13,-55.30,177.20
903,74409843,0.2949,0.6909,0.0732,62.62,-55.67,177.74
904,74414842,0.3042,0.6836,0.0649,62.62,-56.16,178.29
905,74419843,0.3145,0.6812,0.0562,62.13,-56.59,178.96
906,74424842,0.3257,0.6860,0.0591,61.28,-57.26,179.51
907,74429841,0.3325,0.6855,0.0488,60.00,-57.80,180.00
908,74434843,0.3379,0.6763,0.0435,58.54,-58.41,180.43
909,74439843,0.3516,0.6704,0.0371,56.77,-59.02,180.73
910,74444843,0.3647,0.6650,0.0308,54.88,-59.76,181.10
911,74449843,0.3809,0.6582,0.0273,52.87,-60.18,181.40
912,74454843,0.3828,0.6475,0.0146,50.61,-60.91,181.59
913,74460237,0.3867,0.6396,0.0107,48.35,-61.52,181.77
914,74464843,0.3931,0.6255,0.0010,45.79,-62.01,181.83
915,74469842,0.4048,0.6104,0.0010,43.23,-62.87,182.13
916,74474843,0.4136,0.5889,0.0010,40.43,-63.72,182.50
917,74479842,0.4399,0.5454,-0.0273,37.80,-64.57,182.93
918,74484844,0.4658,0.5332,-0.0391,34.82,-65.73,183.72
919,74490291,0.4590,0.5288,-0.0508,31.46,-66.89,184.33
920,74494843,0.4604,0.5142,-0.0645,27.93,-67.93,185.06
921,74499841,0.4673,0.5083,-0.0698,24.51,-68.96,185.67
922,74504841,0.4863,0.4941,-0.0649,21.34,-69.76,186.16
923,74509842,0.5015,0.4731,-0.0664,18.11,-70.79,186.89
924,74514841,0.5190,0.4517,-0.0820,14.94,-71.77,187.56
925,74519843,0.5195,0.4233,-0.0791,12.07,-72.93,188.48
926,74524842,0.5137,0.3867,-0.0815,9.70,-74.15,189.39
927,74529843,0.5088,0.3604,-0.0879,8.35,-75.49,190.43
928,74534843,0.5020,0.3369,-0.0938,7.68,-76.83,191.59
929,74539843,0.4932,0.3037,-0.1016,7.93,-78.23,192.74
930,74544843,0.3003,0.1875,-0.1567,9.82,-79.70,194.09
931,74549843,0.2554,0.1685,-0.1260,13.48,-81.28,195.67
932,74554841,0.2871,0.1772,-0.0771,18.29,-82.32,196.71
933,74559843,0.3140,0.1772,-0.0645,23.66,-82.99,197.62
934,74564842,0.3286,0.1685,-0.0742,29.27,-83.48,198.48
935,74569843,0.3306,0.1504,-0.0693,34.88,-84.02,199.33
936,74574843,0.3301,0.1411,-0.0674,40.67,-84.27,199.94
937,74579843,0.3281,0.1299,-0.0776,46.34,-84.63,200.49
938,74584842,0.3335,0.1279,-0.0737,51.83,-84.51,200.85
939,74589844,0.3398,0.1270,-0.0659,57.07,-84.27,201.16
940,74594842,0.3491,0.1157,-0.0630,61.83,-83.78,201.34
941,74599841,0.3926,0.0552,-0.0767,65.98,-83.23,201.40
942,74604841,0.4448,0.0044,-0.0688,69.76,-83.48,201.52
943,74609975,0.4746,-0.0503,-0.0684,72.80,-81.83,201.10
944,74614843,0.5435,-0.1694,-0.0840,75.18,-80.61,201.10
945,74619843,0.5806,-0.2427,-0.0986,77.07,-79.70,200.43
946,74624843,0.5728,-0.2515,-0.1216,78.23,-78.48,199.45
947,74629843,0.5503,-0.2583,-0.1392,78.41,-77.32,198.23
948,74634894,0.5801,-0.3003,-0.1670,77.93,-75.98,196.28
949,74639843,0.6108,-0.3203,-0.2158,76.04,-74.76,194.63
950,74644842,0.6582,-0.3208,-0.2495,72.99,-73.66,192.38
951,74649845,0.7441,-0.3169,-0.3535,68.60,-72.44,189.88
952,74654841,0.8994,-0.2729,-0.4990,62.68,-71.10,187.32
953,74659842,1.1870,-0.0952,-0.6929,55.37,-69.45,184.63
954,74664845,1.5186,0.0884,-0.9058,47.01,-66.83,181.77
955,74669842,1.6504,0.2012,-1.0522,38.84,-62.87,179.63
956,74674843,1.4590,0.2593,-0.9863,31.16,-57.38,178.17
957,74679842,0.7437,0.1362,-0.8354,25.00,-51.52,177.32
958,74684841,0.2485,-0.0430,-0.7690,20.43,-47.50,177.26
959,74689842,0.1133,-0.2109,-0.6997,16.83,-45.98,177.56
960,74694867,0.1880,-0.3228,-0.5522,13.54,-45.67,178.05
961,74699843,0.3423,-0.3569,-0.4424,10.67,-45.55,178.29
962,74704843,0.4995,-0.3975,-0.3818,8.54,-45.30,177.50
963,74709842,0.6206,-0.4458,-0.2993,7.13,-44.57,176.04
964,74714841,0.7021,-0.4858,-0.2710,6.28,-43.41,173.60
965,74719843,0.7598,-0.5493,-0.2437,6.28,-43.29,170.61
966,74724842,0.7871,-0.6250,-0.2109,6.71,-41.40,166.83
967,74729843,0.7583,-0.7456,-0.2417,8.11,-40.43,163.23
968,74734842,0.7554,-0.7666,-0.1787,11.52,-39.45,159.82
969,74739845,0.7656,-0.9126,-0.3037,16.71,-38.17,157.62
970,74744842,0.8042,-0.8237,-0.3325,23.48,-37.13,155.67
971,74749843,0.8511,-0.7397,-0.3765,30.12,-36.10,153.23
972,74754842,0.8862,-0.7061,-0.4468,36.59,-35.24,150.30
973,74759843,0.8862,-0.7139,-0.4937,42.26,-34.76,147.44
974,74764842,0.9082,-0.7549,-0.4829,47.01,-34.02,144.88
975,74769843,0.9536,-0.7944,-0.4893,50.91,-33.23,142.93
976,74774841,1.0400,-0.8359,-0.4829,53.60,-32.13,141.46
977,74779842,1.0444,-0.8262,-0.5205,55.43,-31.10,140.00
978,74784843,1.0483,-0.8193,-0.5215,56.83,-30.00,138.05
979,74789844,1.1162,-0.9941,-0.3389,55.98,-27.56,137.20
980,74794842,1.1313,-0.9263,-0.4648,53.23,-24.51,136.89
981,74799843,1.1309,-0.8550,-0.5288,50.12,-22.20,135.37
982,74804841,1.1074,-0.8252,-0.4619,47.13,-19.88,133.11
983,74809841,1.0913,-0.8174,-0.4556,45.00,-17.93,130.85
984,74814842,1.0752,-0.8242,-0.4463,42.62,-15.18,126.77
985,74819841,1.0737,-0.8535,-0.4155,41.40,-13.17,123.05
986,74824843,1.0762,-0.8887,-0.3564,40.37,-10.73,119.33
987,74829843,1.0815,-0.9243,-0.3311,38.96,-7.62,116.16
988,74834844,1.1211,-0.9678,-0.3193,36.52,-4.15,113.84
989,74839842,1.1499,-0.8882,-0.3604,33.66,-1.10,112.32
990,74844842,1.1450,-0.8525,-0.3682,28.72,3.05,110.00
991,74849844,1.1245,-0.8208,-0.3867,25.43,5.73,108.41
992,74854845,1.0942,-0.7886,-0.3921,20.61,9.63,105.73
993,74859843,1.0845,-0.7759,-0.3853,17.99,12.07,103.78
994,74864842,1.1021,-0.8022,-0.4058,14.94,14.57,101.28
995,74869843,1.0361,-0.7944,-0.3877,12.68,16.95,98.90
996,74874842,1.0220,-0.7451,-0.3799,10.91,19.33,96.10
997,74879843,1.0166,-0.6924,-0.4087,9.70,21.34,93.11
998,74884842,1.0166,-0.6826,-0.4033,9.21,23.11,90.12
999,74889843,1.0166,-0.7056,-0.3750,9.15,24.94,86.89
1000,74894842,1.0068,-0.7178,-0.3857,9.70,26.46,84.21
1001,74899843,0.9727,-0.7207,-0.3843,10.85,28.05,81.04
1002,74904974,0.9375,-0.7188,-0.3618,13.05,29.70,77.32
1003,74909843,0.9238,-0.7085,-0.3545,14.82,30.85,74.76
1004,74914842,0.9160,-0.7046,-0.3618,17.50,31.95,71.52
1005,74919843,0.9126,-0.7036,-0.3667,20.43,33.05,68.48
1006,74924842,0.9067,-0.6968,-0.3584,23.78,34.02,65.18
1007,74929843,0.9043,-0.6953,-0.3599,27.01,35.00,61.89
1008,74934842,0.8916,-0.6870,-0.3555,30.61,35.79,58.66
1009,74939843,0.8750,-0.6855,-0.3535,34.21,36.34,55.37
1010,74944842,0.8633,-0.6841,-0.3486,37.87,37.01,52.01
1011,74949843,0.8599,-0.6836,-0.3354,41.34,37.56,48.78
1012,74954842,0.8511,-0.6870,-0.3369,44.82,38.05,45.37
1013,74959843,0.8447,-0.6816,-0.3408,48.11,38.48,42.01
1014,74964841,0.8394,-0.6792,-0.3335,51.34,38.66,38.72
1015,74969843,0.8276,-0.6699,-0.3223,54.21,39.02,35.43
1016,74974842,0.8213,-0.6689,-0.3193,56.89,39.33,32.01
1017,74979843,0.8125,-0.6636,-0.3213,59.09,39.45,28.72
1018,74984842,0.8066,-0.6592,-0.3125,61.04,39.39,25.61
1019,74990327,0.7993,-0.6470,-0.3081,62.74,39.51,21.52
1020,74994843,0.7925,-0.6440,-0.3047,63.66,39.51,19.09
1021,74999843,0.7871,-0.6367,-0.2988,64.39,39.33,15.85
1022,75004843,0.7808,-0.6343,-0.2905,64.82,39.33,12.74
1023,75009841,0.7764,-0.6304,-0.2759,64.70,39.21,9.70
1024,75014841,0.7744,-0.6270,-0.2632,64.27,39.15,6.77
1025,75019843,0.7729,-0.6191,-0.2544,63.23,39.21,3.72
1026,75024842,0.7749,-0.6074,-0.2471,61.83,39.09,0.91
1027,75029843,0.7798,-0.5957,-0.2437,60.00,39.21,-1.95
1028,75034842,0.7778,-0.5840,-0.2329,57.93,39.21,-4.82
1029,75039843,0.7778,-0.5723,-0.2236,55.61,39.45,-7.50
1030,75044842,0.7773,-0.5654,-0.2129,53.29,39.45,-10.37
1031,75049843,0.7744,-0.5610,-0.2085,50.91,39.63,-12.80
1032,75054842,0.7764,-0.5571,-0.1968,48.48,39.88,-15.37
1033,75059841,0.7729,-0.5513,-0.1934,46.16,40.06,-17.74
1034,75064845,0.7778,-0.5469,-0.1895,44.02,40.24,-20.06
1035,75069843,0.7744,-0.5464,-0.1934,42.07,40.49,-22.26
1036,75074842,0.7739,-0.5396,-0.1904,40.49,40.67,-24.51
1037,75079843,0.7759,-0.5444,-0.1748,39.09,40.91,-26.34
1038,75084842,0.7832,-0.5444,-0.1719,37.99,41.16,-28.17
1039,75089843,0.7891,-0.5498,-0.1768,37.20,41.40,-29.88
1040,75094842,0.7949,-0.5562,-0.1733,36.83,41.52,-31.28
1041,75099844,0.7998,-0.5649,-0.1714,36.65,41.52,-32.68
1042,75104841,0.8115,-0.5674,-0.1694,36.77,41.71,-33.84
1043,75109846,0.8228,-0.5811,-0.1670,37.07,41.83,-34.94
1044,75114844,0.8320,-0.5903,-0.1636,37.50,41.77,-35.73
1045,75119843,0.8408,-0.5938,-0.1572,38.11,41.83,-36.34
1046,75124843,0.8521,-0.6035,-0.1597,38.66,41.89,-36.89
1047,75129842,0.8623,-0.6089,-0.1553,39.33,41.95,-37.32
1048,75134843,0.8696,-0.6094,-0.1440,40.00,42.07,-37.56
1049,75139983,0.8750,-0.6104,-0.1343,40.61,42.07,-37.74
1050,75144844,0.8862,-0.6172,-0.1289,41.16,42.20,-37.93
1051,75149841,0.8892,-0.6157,-0.1187,41.77,42.32,-37.93
1052,75154841,0.8984,-0.6167,-0.1108,42.20,42.38,-37.87
1053,75159848,0.9019,-0.6118,-0.1021,42.68,42.56,-37.62
1054,75164843,0.9028,-0.6094,-0.1016,42.93,42.68,-37.50
1055,75169842,0.9038,-0.6055,-0.0923,42.93,42.99,-37.38
1056,75174843,0.9062,-0.6035,-0.0869,43.11,43.11,-37.01
1057,75180169,0.9062,-0.5996,-0.0781,42.93,43.17,-36.77
1058,75184843,0.9072,-0.5981,-0.0728,42.68,43.23,-36.28
1059,75189843,0.9019,-0.5908,-0.0669,42.26,43.35,-35.85
1060,75194843,0.9038,-0.5864,-0.0645,41.71,43.35,-35.55
1061,75199845,0.8979,-0.5791,-0.0557,41.10,43.23,-35.00
1062,75204963,0.8965,-0.5767,-0.0454,40.43,43.29,-34.57
1063,75209842,0.8882,-0.5654,-0.0371,39.82,43.29,-34.21
1064,75214844,0.8857,-0.5620,-0.0322,39.15,43.23,-33.66
1065,75219843,0.8774,-0.5532,-0.0293,38.29,43.11,-33.17
1066,75224844,0.8677,-0.5425,-0.0278,37.50,43.17,-32.68
1067,75229842,0.8657,-0.5366,-0.0171,36.71,43.17,-32.13
1068,75234844,0.8564,-0.5278,-0.0132,35.79,42.80,-31.71
1069,75239843,0.8540,-0.5249,-0.0063,35.06,42.74,-31.16
1070,75244844,0.8535,-0.5176,0.0029,34.15,42.44,-30.73
1071,75249841,0.8491,-0.5171,0.0005,33.48,42.26,-30.18
1072,75254843,0.8467,-0.5112,0.0117,32.87,42.07,-29.57
1073,75259842,0.8467,-0.5010,0.0166,32.13,41.83,-29.09
1074,75264844,0.8438,-0.5020,0.0195,31.34,41.59,-28.60
1075,75269842,0.8423,-0.4971,0.0249,30.79,41.34,-28.05
1076,75274841,0.8394,-0.4941,0.0278,30.24,41.10,-27.56
1077,75280204,0.8389,-0.4932,0.0361,29.63,40.79,-26.95
1078,75284843,0.8354,-0.4927,0.0420,29.15,40.43,-26.40
1079,75289845,0.8354,-0.4888,0.0449,28.66,40.24,-25.73
1080,75294842,0.8325,-0.4883,0.0557,28.11,39.88,-25.18
1081,75299841,0.8345,-0.4849,0.0640,27.68,39.45,-24.57
1082,75304845,0.8252,-0.4800,0.0664,27.20,39.27,-23.90
1083,75309931,0.8276,-0.4775,0.0693,26.65,38.84,-23.29
1084,75314843,0.8213,-0.4741,0.0728,25.98,38.54,-22.62
1085,75319843,0.8110,-0.4702,0.0752,25.37,38.29,-21.95
1086,75324845,0.8086,-0.4614,0.0747,24.63,37.99,-21.40
1087,75329843,0.7998,-0.4497,0.0786,23.90,37.62,-20.79
1088,75334843,0.7993,-0.4443,0.0845,23.05,37.38,-20.30
1089,75339841,0.7920,-0.4346,0.0840,22.13,36.83,-19.51
1090,75344843,0.7896,-0.4268,0.0952,21.10,36.46,-18.96
1091,75349843,0.7852,-0.4194,0.0913,20.12,35.91,-18.35
1092,75354843,0.7832,-0.4170,0.0894,19.02,35.61,-17.93
1093,75359843,0.7822,-0.4141,0.0894,18.11,35.12,-17.32
1094,75364843,0.7764,-0.4126,0.0869,16.95,34.70,-16.59
1095,75369841,0.7749,-0.4121,0.0918,15.91,34.15,-15.98
1096,75374845,0.7744,-0.4116,0.0933,14.88,33.66,-15.43
1097,75379842,0.7729,-0.4141,0.0913,13.90,33.17,-14.70
1098,75384843,0.7773,-0.4092,0.0981,12.93,32.74,-13.96
1099,75389843,0.7759,-0.4131,0.0986,11.89,32.07,-13.23
1100,75394843,0.7773,-0.4136,0.1035,10.91,31.46,-12.44
1101,75399841,0.7847,-0.4116,0.0972,10.00,30.85,-11.59
1102,75404842,0.7930,-0.4097,0.0991,9.02,30.37,-10.73
1103,75409912,0.8081,-0.4067,0.1001,8.11,29.76,-9.94
1104,75414842,0.8164,-0.4019,0.1099,7.44,29.27,-9.09
1105,75419989,0.8213,-0.3994,0.1201,6.71,28.72,-8.29
1106,75424844,0.8247,-0.3989,0.1338,6.04,28.17,-7.44
1107,75429842,0.8384,-0.4058,0.1343,5.55,27.68,-6.59
1108,75434841,0.8506,-0.4072,0.1392,5.24,27.26,-5.73
1109,75440263,0.8589,-0.4146,0.1499,5.00,26.89,-4.94
1110,75444844,0.8662,-0.4170,0.1465,4.88,26.52,-3.90
1111,75449843,0.8774,-0.4229,0.1538,4.76,26.22,-2.87
1112,75454844,0.8853,-0.4272,0.1489,4.94,25.85,-1.77
1113,75459842,0.8950,-0.4331,0.1514,5.12,25.43,-0.73
1114,75464843,0.9043,-0.4360,0.1523,5.43,25.00,0.49
1115,75469842,0.9097,-0.4443,0.1611,5.79,24.70,1.52
1116,75474843,0.9082,-0.4517,0.1597,6.16,24.21,2.80
1117,75479842,0.9141,-0.4478,0.1616,6.52,23.78,4.09
1118,75484843,0.9219,-0.4507,0.1626,7.01,23.41,5.37
1119,75489844,0.9277,-0.4482,0.1592,7.26,22.62,6.46
1120,75494843,0.9268,-0.4424,0.1650,7.56,22.32,7.68
1121,75499842,0.9307,-0.4443,0.1650,7.68,21.65,8.84
1122,75504844,0.9253,-0.4473,0.1685,7.68,21.16,9.82
1123,75509843,0.9253,-0.4468,0.1733,7.80,20.67,11.04
1124,75514843,0.9287,-0.4482,0.1899,7.62,20.12,11.71
1125,75519841,0.9272,-0.4487,0.1880,7.32,19.45,12.93
1126,75524843,0.9268,-0.4478,0.1865,6.95,18.96,13.72
1127,75529843,0.9287,-0.4443,0.1938,6.46,18.60,14.57
1128,75534843,0.9346,-0.4448,0.1948,5.85,17.93,15.30
1129,75539922,0.9287,-0.4404,0.2188,5.00,17.26,16.16
1130,75544843,0.9272,-0.4380,0.2104,4.33,17.01,16.71
1131,75549843,0.9272,-0.4370,0.2061,3.48,16.40,17.38
1132,75554843,0.9209,-0.4360,0.2041,2.44,15.85,17.80
1133,75559842,0.9199,-0.4331,0.2134,1.46,15.18,18.29
1134,75564843,0.9224,-0.4360,0.2134,0.49,14.51,18.72
1135,75569842,0.9199,-0.4365,0.2104,-0.49,13.84,18.96
1136,75574844,0.9131,-0.4395,0.2168,-1.52,13.17,19.33
1137,75579843,0.9150,-0.4385,0.2163,-2.38,12.56,19.70
1138,75584843,0.9111,-0.4399,0.2212,-3.35,11.83,19.76
1139,75589843,0.9121,-0.4429,0.2139,-4.27,11.10,19.94
1140,75594843,0.9077,-0.4448,0.2144,-5.30,10.18,20.24
1141,75599843,0.9067,-0.4521,0.2188,-6.22,9.57,20.37
1142,75604842,0.9053,-0.4580,0.2222,-6.89,8.60,20.43
1143,75609844,0.9009,-0.4561,0.2227,-7.93,7.80,20.55
1144,75614842,0.8994,-0.4585,0.2256,-8.72,7.01,20.73
1145,75619843,0.8940,-0.4619,0.2183,-9.51,6.28,20.61
1146,75624842,0.8950,-0.4644,0.2168,-10.24,5.30,20.67
1147,75629843,0.8916,-0.4673,0.2207,-11.04,4.57,20.61
1148,75634843,0.8887,-0.4702,0.2168,-11.77,3.78,20.61
1149,75639843,0.8892,-0.4756,0.2158,-12.50,2.93,20.49
1150,75644843,0.8872,-0.4717,0.2109,-13.17,2.01,20.37
1151,75649843,0.8872,-0.4741,0.2163,-13.90,1.16,20.37
1152,75654842,0.8867,-0.4800,0.2144,-14.39,0.49,20.12
1153,75659888,0.8872,-0.4839,0.2129,-15.12,-0.61,20.00
1154,75664842,0.8833,-0.4868,0.2124,-15.55,-1.28,19.88
1155,75669843,0.8823,-0.4922,0.2119,-16.10,-2.26,19.63
1156,75674841,0.8804,-0.4941,0.2119,-16.52,-2.99,19.51
1157,75679843,0.8774,-0.4976,0.2104,-16.89,-3.90,19.33
1158,75684845,0.8765,-0.5034,0.2041,-17.26,-4.57,19.09
1159,75689843,0.8735,-0.5083,0.2095,-17.56,-5.43,18.96
1160,75694842,0.8677,-0.5063,0.2144,-17.68,-6.40,18.66
1161,75699843,0.8633,-0.5103,0.2095,-17.93,-6.95,18.48
1162,75704843,0.8608,-0.5137,0.2100,-18.23,-7.87,18.17
1163,75709843,0.8569,-0.5137,0.2129,-18.60,-8.66,17.80
1164,75714844,0.8521,-0.5122,0.1992,-18.78,-9.33,17.50
1165,75719841,0.8491,-0.5132,0.2046,-19.15,-10.06,17.07
1166,75724845,0.8423,-0.5093,0.2031,-19.51,-10.61,16.71
1167,75729841,0.8394,-0.5103,0.1953,-19.88,-11.46,16.28
1168,75734841,0.8345,-0.5132,0.1909,-20.43,-12.13,15.73
1169,75739841,0.8340,-0.5186,0.1982,-20.91,-12.87,15.37
1170,75744843,0.8291,-0.5195,0.1968,-21.40,-13.54,14.82
1171,75749843,0.8320,-0.5215,0.1904,-21.71,-14.15,14.45
1172,75754843,0.8296,-0.5264,0.1831,-22.13,-14.70,13.96
1173,75759842,0.8262,-0.5239,0.1890,-22.56,-15.30,13.48
1174,75764843,0.8306,-0.5283,0.1826,-22.93,-15.79,12.99
1175,75769843,0.8267,-0.5298,0.1880,-23.29,-16.22,12.50
1176,75774843,0.8262,-0.5259,0.1802,-23.60,-16.59,12.20
1177,75779841,0.8252,-0.5273,0.1753,-23.90,-17.13,11.52
1178,75784845,0.8198,-0.5288,0.1733,-24.21,-17.56,11.16
1179,75789842,0.8247,-0.5283,0.1729,-24.45,-17.74,10.61
1180,75794922,0.8262,-0.5269,0.1641,-24.51,-18.11,10.24
1181,75799843,0.8267,-0.5298,0.1675,-24.70,-18.35,9.70
1182,75804843,0.8301,-0.5332,0.1587,-24.76,-18.78,9.39
1183,75809842,0.8306,-0.5308,0.1616,-24.57,-19.02,9.02
1184,75814843,0.8340,-0.5352,0.1592,-24.27,-19.27,8.66
1185,75819843,0.8350,-0.5356,0.1562,-23.90,-19.33,8.23
1186,75824843,0.8389,-0.5376,0.1499,-23.48,-19.39,7.99
1187,75830037,0.8369,-0.5381,0.1416,-22.99,-19.57,7.74
1188,75834842,0.8423,-0.5352,0.1416,-22.26,-19.76,7.50
1189,75839843,0.8374,-0.5347,0.1392,-21.40,-19.82,7.26
1190,75844844,0.8413,-0.5361,0.1284,-20.55,-19.82,7.01
1191,75849843,0.8447,-0.5366,0.1240,-19.57,-20.00,6.89
1192,75854843,0.8481,-0.5396,0.1211,-18.41,-19.88,6.83
1193,75859841,0.8501,-0.5444,0.1167,-17.44,-20.12,6.77
1194,75864843,0.8511,-0.5435,0.1147,-16.04,-20.00,6.77
1195,75869843,0.8491,-0.5420,0.1123,-14.70,-19.94,6.83
1196,75874842,0.8545,-0.5405,0.1084,-13.48,-20.06,6.77
1197,75879843,0.8530,-0.5420,0.1040,-12.07,-20.06,6.83
1198,75884845,0.8555,-0.5474,0.1021,-10.67,-20.00,6.89
1199,75889842,0.8555,-0.5420,0.1035,-9.45,-19.94,6.95
1200,75894961,0.8540,-0.5430,0.0977,-8.11,-19.70,7.01
1201,75899843,0.8530,-0.5410,0.0933,-6.83,-19.51,7.13
1202,75904842,0.8560,-0.5396,0.0938,-5.73,-19.57,7.20
1203,75909841,0.8545,-0.5352,0.0938,-4.63,-19.39,7.32
1204,75914842,0.8540,-0.5332,0.0889,-3.78,-19.15,7.44
1205,75919844,0.8525,-0.5332,0.0952,-2.87,-18.96,7.44
1206,75924842,0.8525,-0.5259,0.0894,-2.07,-18.66,7.50
1207,75929843,0.8516,-0.5273,0.0903,-1.28,-18.41,7.62
1208,75934842,0.8540,-0.5273,0.0869,-0.55,-18.23,7.68
1209,75939843,0.8569,-0.5234,0.0864,0.12,-17.93,7.80
1210,75944842,0.8462,-0.5259,0.0825,0.73,-17.74,7.93
1211,75949843,0.8447,-0.5259,0.0835,1.40,-17.38,7.99
1212,75954842,0.8389,-0.5239,0.0854,2.13,-17.01,8.11
1213,75959843,0.8418,-0.5254,0.0771,2.80,-16.59,8.29
1214,75964842,0.8384,-0.5244,0.0776,3.48,-16.46,8.35
1215,75969843,0.8374,-0.5259,0.0806,4.21,-16.22,8.48
1216,75974842,0.8359,-0.5249,0.0786,4.88,-15.73,8.54
1217,75979843,0.8369,-0.5259,0.0820,5.67,-15.43,8.60
1218,75984843,0.8330,-0.5317,0.0796,6.46,-15.06,8.84
1219,75989843,0.8315,-0.5244,0.0859,7.38,-14.76,9.02
1220,75994842,0.8325,-0.5234,0.0854,8.29,-14.33,9.15
1221,75999843,0.8276,-0.5225,0.0884,9.27,-14.02,9.21
1222,76004842,0.8237,-0.5239,0.0835,10.30,-13.54,9.33
1223,76009843,0.8271,-0.5249,0.0835,11.52,-13.05,9.51
1224,76014842,0.8286,-0.5342,0.0825,12.62,-12.68,9.76
1225,76019844,0.8257,-0.5293,0.0815,13.72,-12.44,9.82
1226,76024842,0.8223,-0.5337,0.0850,14.70,-11.95,9.94
1227,76029843,0.8232,-0.5356,0.0806,15.79,-11.40,10.12
1228,76034842,0.8257,-0.5356,0.0903,16.65,-11.10,10.06
1229,76039843,0.8218,-0.5342,0.0942,17.32,-10.61,10.24
1230,76044842,0.8232,-0.5386,0.0845,17.74,-10.18,10.37
1231,76049843,0.8188,-0.5391,0.0830,18.23,-9.76,10.37
1232,76054842,0.8188,-0.5430,0.0850,18.29,-9.27,10.43
1233,76059843,0.8232,-0.5396,0.0845,17.99,-8.84,10.43
1234,76064842,0.8271,-0.5464,0.0894,17.74,-8.41,10.43
1235,76069845,0.8267,-0.5488,0.0820,17.26,-7.93,10.37
1236,76074842,0.8257,-0.5527,0.0801,16.77,-7.44,10.30
1237,76079846,0.8223,-0.5552,0.0820,16.22,-7.07,10.18
1238,76084845,0.8203,-0.5562,0.0718,15.49,-6.65,10.18
1239,76089843,0.8213,-0.5552,0.0674,14.88,-6.22,10.12
1240,76094843,0.8193,-0.5576,0.0674,14.15,-5.79,10.12
1241,76099842,0.8213,-0.5532,0.0654,13.35,-5.43,10.12
1242,76104843,0.8179,-0.5601,0.0620,12.62,-5.18,9.94
1243,76109843,0.8228,-0.5649,0.0605,12.01,-4.94,9.82
1244,76114844,0.8213,-0.5684,0.0581,11.40,-4.51,9.82
1245,76119842,0.8232,-0.5762,0.0586,10.91,-4.33,9.82
1246,76124843,0.8242,-0.5811,0.0571,10.61,-4.21,9.88
1247,76129843,0.8242,-0.5806,0.0493,10.24,-3.78,9.76
1248,76134843,0.8281,-0.5786,0.0396,9.94,-3.66,9.88
1249,76139842,0.8301,-0.5781,0.0396,9.63,-3.54,9.94
1250,76144844,0.8242,-0.5806,0.0352,9.33,-3.60,9.82
1251,76149843,0.8237,-0.5771,0.0430,8.90,-3.29,9.76
1252,76154843,0.8213,-0.5781,0.0400,8.72,-3.05,9.76
1253,76159842,0.8159,-0.5859,0.0435,8.41,-2.99,9.70
1254,76164844,0.8203,-0.5815,0.0474,8.17,-2.80,9.70
1255,76169843,0.8169,-0.5854,0.0420,7.87,-2.56,9.70
1256,76174843,0.8169,-0.5820,0.0322,7.68,-2.50,9.51
1257,76179842,0.8188,-0.5781,0.0332,7.38,-2.26,9.45
1258,76184844,0.8105,-0.5771,0.0332,6.89,-2.20,9.27
1259,76189844,0.8125,-0.5767,0.0298,6.71,-2.07,9.09
1260,76194842,0.8066,-0.5781,0.0317,6.16,-1.89,8.90
1261,76199844,0.8071,-0.5791,0.0356,5.85,-1.59,8.78
1262,76204845,0.8130,-0.5796,0.0278,5.37,-1.40,8.48
1263,76209843,0.8125,-0.5791,0.0317,4.94,-1.10,8.29
1264,76214843,0.8164,-0.5811,0.0283,4.57,-0.91,8.17
1265,76219844,0.8135,-0.5820,0.0361,4.09,-0.73,7.93
1266,76224843,0.8149,-0.5845,0.0347,3.60,-0.43,7.68
1267,76229842,0.8193,-0.5806,0.0444,3.17,-0.12,7.44
1268,76234843,0.8179,-0.5859,0.0435,2.87,0.18,7.20
1269,76239903,0.8174,-0.5820,0.0439,2.56,0.43,7.01
1270,76244843,0.8203,-0.5811,0.0381,2.20,0.85,6.89
1271,76249842,0.8188,-0.5767,0.0366,2.20,1.16,6.59
1272,76254843,0.8169,-0.5767,0.0361,2.07,1.40,6.28
1273,76259843,0.8198,-0.5747,0.0337,2.01,1.83,6.04
1274,76264843,0.8218,-0.5718,0.0342,2.01,1.95,5.79
1275,76269842,0.8193,-0.5767,0.0366,2.13,2.20,5.49
1276,76274844,0.8184,-0.5752,0.0386,2.38,2.50,5.30
1277,76279843,0.8218,-0.5718,0.0361,2.68,2.74,5.06
1278,76284843,0.8208,-0.5703,0.0293,2.99,2.93,4.76
1279,76289841,0.8213,-0.5698,0.0352,3.35,3.17,4.51
1280,76294846,0.8208,-0.5664,0.0332,3.66,3.29,4.21
1281,76299843,0.8218,-0.5649,0.0327,4.09,3.41,3.90
1282,76304842,0.8174,-0.5659,0.0278,4.45,3.48,3.60
1283,76309843,0.8262,-0.5649,0.0312,4.88,3.72,3.29
1284,76314842,0.8218,-0.5703,0.0405,5.37,3.66,3.05
1285,76319843,0.8252,-0.5732,0.0391,5.91,3.90,2.93
1286,76324843,0.8262,-0.5752,0.0356,6.46,4.02,2.68
1287,76329842,0.8257,-0.5796,0.0381,6.95,4.02,2.50
1288,76334841,0.8228,-0.5752,0.0391,7.44,4.21,2.32
1289,76339841,0.8271,-0.5757,0.0444,7.68,4.33,2.07
1290,76344841,0.8252,-0.5723,0.0366,7.99,4.39,1.83
1291,76349843,0.8262,-0.5762,0.0410,8.17,4.51,1.71
1292,76354842,0.8276,-0.5786,0.0410,8.35,4.51,1.52
1293,76359843,0.8281,-0.5767,0.0444,8.48,4.63,1.22
1294,76364842,0.8257,-0.5762,0.0498,8.48,4.63,1.04
1295,76369841,0.8242,-0.5771,0.0444,8.54,4.63,0.85
1296,76374843,0.8262,-0.5786,0.0381,8.48,4.63,0.73
1297,76379843,0.8291,-0.5737,0.0449,8.41,4.70,0.49
1298,76384842,0.8276,-0.5742,0.0503,8.17,4.63,0.30
1299,76389843,0.8252,-0.5737,0.0537,7.93,4.70,0.12
1300,76394843,0.8271,-0.5762,0.0518,7.68,4.70,0.00
1301,76399842,0.8364,-0.5767,0.0669,7.38,4.76,-0.18
1302,76404846,0.8286,-0.5747,0.0601,6.89,4.94,-0.30
1303,76409843,0.8315,-0.5752,0.0630,6.65,4.94,-0.49
1304,76414842,0.8271,-0.5718,0.0679,6.22,5.12,-0.61
1305,76419843,0.8320,-0.5674,0.0649,5.73,5.00,-0.61
1306,76424842,0.8286,-0.5649,0.0742,5.30,5.06,-0.85
1307,76429842,0.8271,-0.5640,0.0718,4.76,5.18,-0.98
1308,76434843,0.8291,-0.5679,0.0664,4.33,5.18,-1.10
1309,76439843,0.8320,-0.5688,0.0747,3.90,5.37,-1.22
1310,76444844,0.8320,-0.5684,0.0674,3.54,5.55,-1.52
1311,76449841,0.8276,-0.5708,0.0786,3.23,5.55,-1.59
1312,76454845,0.8286,-0.5664,0.0737,2.87,5.49,-1.71
1313,76459843,0.8262,-0.5659,0.0762,2.56,5.61,-1.89
1314,76464843,0.8213,-0.5669,0.0752,2.38,5.61,-1.95
1315,76469843,0.8242,-0.5620,0.0781,2.20,5.79,-2.13
1316,76474843,0.8232,-0.5610,0.0771,2.20,5.79,-2.26
1317,76479844,0.8223,-0.5610,0.0771,2.20,5.91,-2.50
1318,76484843,0.8213,-0.5620,0.0786,2.20,5.85,-2.62
1319,76489843,0.8203,-0.5610,0.0801,2.38,6.04,-2.68
1320,76494843,0.8193,-0.5659,0.0864,2.50,6.04,-2.87
1321,76499843,0.8232,-0.5605,0.0874,2.68,6.04,-2.87
1322,76504843,0.8213,-0.5576,0.0835,2.87,6.22,-3.11
1323,76509843,0.8198,-0.5630,0.0923,3.23,6.22,-3.11
1324,76514842,0.8203,-0.5601,0.0869,3.66,6.28,-3.23
1325,76519841,0.8198,-0.5581,0.0859,3.96,6.40,-3.17
1326,76524843,0.8247,-0.5576,0.0938,4.33,6.46,-3.23
1327,76529843,0.8218,-0.5601,0.0918,4.70,6.40,-3.35
1328,76534843,0.8208,-0.5581,0.0864,4.94,6.52,-3.41
1329,76539843,0.8213,-0.5552,0.0908,5.30,6.46,-3.48
1330,76544843,0.8223,-0.5542,0.0850,5.49,6.65,-3.54
1331,76549843,0.8218,-0.5532,0.0840,5.67,6.52,-3.54
1332,76554844,0.8208,-0.5513,0.1006,5.79,6.77,-3.66
1333,76559843,0.8223,-0.5566,0.1030,5.85,6.71,-3.72
1334,76564843,0.8232,-0.5562,0.1006,6.04,6.95,-3.78
1335,76569843,0.8228,-0.5537,0.1001,6.22,6.95,-3.78
1336,76574843,0.8228,-0.5503,0.1060,6.16,7.13,-3.90
1337,76579843,0.8237,-0.5508,0.1021,6.22,7.20,-3.90
1338,76584843,0.8271,-0.5518,0.1040,6.28,7.20,-3.90
1339,76589846,0.8257,-0.5493,0.1030,6.22,7.38,-3.90
1340,76594843,0.8262,-0.5503,0.1094,6.34,7.38,-3.90
1341,76599842,0.8276,-0.5498,0.1011,6.40,7.44,-3.90
1342,76604843,0.8276,-0.5518,0.0996,6.46,7.56,-3.90
1343,76609843,0.8286,-0.5498,0.1099,6.52,7.62,-3.90
1344,76614843,0.8306,-0.5503,0.1069,6.59,7.87,-3.96
1345,76619843,0.8286,-0.5503,0.1099,6.65,7.68,-3.84
1346,76624843,0.8267,-0.5522,0.1094,6.65,7.93,-3.78
1347,76629843,0.8247,-0.5493,0.1074,6.65,7.93,-3.84
1348,76634843,0.8237,-0.5513,0.1128,6.77,7.93,-3.66
1349,76639841,0.8237,-0.5513,0.1045,6.77,8.05,-3.66
1350,76644843,0.8213,-0.5493,0.1138,6.83,8.11,-3.66
1351,76649843,0.8262,-0.5488,0.1079,6.65,8.11,-3.54
1352,76654844,0.8286,-0.5459,0.1187,6.59,8.23,-3.35
1353,76659841,0.8271,-0.5449,0.1138,6.59,8.17,-3.17
1354,76664843,0.8262,-0.5425,0.1079,6.46,8.23,-3.17
1355,76669843,0.8228,-0.5420,0.1045,6.22,8.17,-3.11
1356,76674843,0.8218,-0.5474,0.1152,6.04,8.17,-2.93
1357,76679843,0.8257,-0.5518,0.1211,5.73,8.29,-2.74
1358,76684890,0.8247,-0.5518,0.1187,5.43,8.29,-2.74
1359,76689843,0.8276,-0.5469,0.1182,5.30,8.35,-2.50
1360,76694843,0.8296,-0.5479,0.1216,5.00,8.41,-2.32
1361,76699843,0.8262,-0.5469,0.1206,4.70,8.48,-2.13
1362,76704843,0.8315,-0.5439,0.1201,4.51,8.60,-2.01
1363,76709843,0.8252,-0.5459,0.1226,4.33,8.54,-1.89
1364,76714842,0.8252,-0.5459,0.1196,4.27,8.78,-1.71
1365,76719843,0.8232,-0.5405,0.1250,4.09,8.78,-1.65
1366,76724842,0.8252,-0.5405,0.1187,3.90,8.72,-1.40
1367,76729843,0.8252,-0.5405,0.1187,3.78,8.84,-1.28
1368,76734842,0.8281,-0.5371,0.1211,3.72,8.78,-1.10
1369,76739844,0.8286,-0.5396,0.1260,3.60,8.84,-0.91
1370,76744842,0.8276,-0.5366,0.1196,3.48,8.90,-0.79
1371,76749841,0.8291,-0.5400,0.1216,3.54,8.90,-0.67
1372,76754843,0.8320,-0.5454,0.1284,3.48,8.72,-0.49
1373,76760013,0.8301,-0.5454,0.1274,3.48,8.78,-0.30
1374,76764843,0.8267,-0.5449,0.1353,3.60,8.84,-0.18
1375,76769843,0.8306,-0.5449,0.1328,3.78,9.02,0.00
1376,76774843,0.8281,-0.5488,0.1382,3.96,8.90,0.24
1377,76779843,0.8286,-0.5420,0.1348,4.09,8.84,0.37
1378,76784843,0.8286,-0.5391,0.1362,4.21,8.78,0.55
1379,76789844,0.8276,-0.5371,0.1387,4.39,8.96,0.79
1380,76794843,0.8252,-0.5381,0.1440,4.51,8.84,0.85
1381,76799841,0.8228,-0.5337,0.1401,4.57,8.96,0.98
1382,76804843,0.8271,-0.5396,0.1445,4.82,9.02,1.16
1383,76809844,0.8296,-0.5400,0.1450,4.94,8.96,1.34
1384,76814843,0.8286,-0.5376,0.1406,5.18,9.02,1.34
1385,76819843,0.8301,-0.5361,0.1484,5.37,9.02,1.46
1386,76824843,0.8276,-0.5342,0.1450,5.30,8.96,1.52
1387,76829843,0.8267,-0.5391,0.1523,5.61,8.90,1.71
1388,76834843,0.8281,-0.5312,0.1436,5.61,8.96,1.77
1389,76839843,0.8271,-0.5337,0.1475,5.79,8.84,1.77
1390,76844843,0.8271,-0.5386,0.1582,5.79,8.84,1.83
1391,76849843,0.8306,-0.5361,0.1475,6.10,8.78,1.95
1392,76854843,0.8311,-0.5352,0.1421,5.98,8.78,2.07
1393,76859843,0.8291,-0.5342,0.1504,6.04,8.72,2.13
1394,76864843,0.8291,-0.5376,0.1514,5.91,8.72,2.20
1395,76869843,0.8325,-0.5352,0.1572,5.98,8.66,2.32
1396,76874843,0.8296,-0.5381,0.1621,5.98,8.60,2.32
1397,76879843,0.8296,-0.5371,0.1641,5.91,8.48,2.44
1398,76884843,0.8311,-0.5430,0.1582,5.73,8.35,2.50
1399,76889844,0.8330,-0.5386,0.1636,5.61,8.23,2.62
1400,76894843,0.8320,-0.5386,0.1597,5.37,8.23,2.74
1401,76899843,0.8354,-0.5366,0.1616,5.18,8.17,2.74
1402,76904843,0.8364,-0.5435,0.1597,5.00,8.17,2.87
1403,76909843,0.8354,-0.5381,0.1636,4.76,8.05,2.87
1404,76914845,0.8320,-0.5366,0.1621,4.51,7.99,2.93
1405,76919843,0.8330,-0.5400,0.1636,4.33,7.87,2.99
1406,76924856,0.8374,-0.5371,0.1660,4.09,7.93,2.99
1407,76929843,0.8335,-0.5337,0.1597,3.96,7.62,3.11
1408,76934843,0.8335,-0.5342,0.1655,3.78,7.50,3.11
1409,76939843,0.8320,-0.5342,0.1670,3.66,7.50,3.11
1410,76944843,0.8359,-0.5332,0.1650,3.48,7.38,3.05
1411,76949843,0.8345,-0.5337,0.1660,3.35,7.26,3.23
1412,76954843,0.8359,-0.5332,0.1680,3.23,7.13,3.23
1413,76959843,0.8335,-0.5332,0.1738,3.23,6.95,3.17
1414,76964842,0.8306,-0.5361,0.1685,3.11,6.77,3.29
1415,76969843,0.8330,-0.5347,0.1685,3.17,6.65,3.35
1416,76974842,0.8340,-0.5352,0.1699,3.23,6.46,3.35
1417,76979841,0.8311,-0.5381,0.1782,3.29,6.16,3.35
1418,76984841,0.8315,-0.5347,0.1675,3.48,6.10,3.41
1419,76989845,0.8330,-0.5308,0.1724,3.66,6.04,3.54
1420,76994843,0.8354,-0.5347,0.1729,3.78,5.73,3.60
1421,76999843,0.8350,-0.5361,0.1689,3.96,5.55,3.66
1422,77004842,0.8359,-0.5332,0.1768,4.09,5.49,3.78
1423,77010177,0.8320,-0.5322,0.1743,4.21,5.12,3.78
1424,77014844,0.8330,-0.5327,0.1748,4.21,5.12,3.78
1425,77019843,0.8330,-0.5356,0.1758,4.33,4.82,3.90
1426,77024843,0.8364,-0.5332,0.1738,4.45,4.70,3.90
1427,77029843,0.8340,-0.5322,0.1763,4.51,4.39,4.02
1428,77034843,0.8340,-0.5283,0.1782,4.51,4.33,3.96
1429,77039843,0.8301,-0.5303,0.1768,4.39,4.27,4.09
1430,77044843,0.8325,-0.5269,0.1865,4.21,4.09,4.09
1431,77049841,0.8340,-0.5273,0.1865,4.15,4.09,3.96
1432,77054845,0.8335,-0.5293,0.1914,4.09,3.96,4.09
1433,77059843,0.8350,-0.5337,0.1943,3.72,4.02,4.02
1434,77064844,0.8364,-0.5317,0.1943,3.66,3.96,4.15
1435,77069843,0.8394,-0.5322,0.1992,3.54,3.84,4.15
1436,77074843,0.8369,-0.5366,0.1997,3.48,3.78,4.27
1437,77079843,0.8442,-0.5376,0.2026,3.41,3.84,4.27
1438,77084843,0.8442,-0.5352,0.2036,3.41,3.72,4.27
1439,77089845,0.8438,-0.5400,0.2002,3.54,3.78,4.51
1440,77094920,0.8423,-0.5459,0.2026,3.72,3.72,4.51
1441,77099845,0.8423,-0.5444,0.2026,3.96,3.66,4.63
1442,77105022,0.8394,-0.5469,0.2007,4.33,3.54,4.88
1443,77109842,0.8398,-0.5493,0.2031,4.76,3.29,5.00
1444,77114844,0.8350,-0.5552,0.1978,5.18,3.23,5.06
1445,77120337,0.8359,-0.5522,0.1958,5.61,2.99,5.30
1446,77124843,0.8350,-0.5552,0.1948,6.10,2.68,5.43
1447,77129843,0.8340,-0.5566,0.1924,6.52,2.50,5.55
1448,77134844,0.8320,-0.5542,0.1958,6.83,2.32,5.61
1449,77139842,0.8330,-0.5586,0.1948,7.26,2.01,5.73
1450,77144843,0.8301,-0.5532,0.2021,7.50,1.71,5.79
1451,77149866,0.8291,-0.5586,0.2012,7.80,1.46,5.85
1452,77154844,0.8296,-0.5571,0.1919,7.87,1.16,5.98
1453,77159843,0.8276,-0.5566,0.1924,7.99,0.79,5.98
1454,77164843,0.8276,-0.5508,0.1938,7.99,0.55,5.91
1455,77169842,0.8252,-0.5522,0.1948,7.93,0.30,5.85
1456,77174843,0.8242,-0.5518,0.1982,7.80,-0.18,5.91
1457,77179842,0.8228,-0.5547,0.1978,7.62,-0.30,5.85
1458,77184843,0.8208,-0.5547,0.2007,7.26,-0.79,5.85
1459,77189843,0.8247,-0.5522,0.1973,7.01,-0.91,5.73
1460,77194846,0.8223,-0.5542,0.1948,6.71,-1.28,5.79
1461,77199921,0.8188,-0.5532,0.1958,6.22,-1.65,5.61
1462,77204843,0.8193,-0.5518,0.1943,5.98,-1.95,5.49
1463,77209842,0.8223,-0.5532,0.1904,5.61,-2.32,5.43
1464,77214844,0.8218,-0.5513,0.1953,5.06,-2.50,5.30
1465,77219842,0.8232,-0.5508,0.1963,4.76,-2.80,5.24
1466,77224842,0.8198,-0.5527,0.1890,4.27,-3.11,5.06
1467,77229843,0.8223,-0.5498,0.1938,3.90,-3.54,5.00
1468,77234842,0.8237,-0.5479,0.1904,3.48,-3.90,4.94
1469,77239843,0.8232,-0.5547,0.1929,3.17,-4.15,4.88
1470,77244843,0.8247,-0.5527,0.1875,2.74,-4.45,4.63
1471,77249950,0.8291,-0.5537,0.1895,2.50,-4.82,4.76
1472,77254843,0.8320,-0.5552,0.1919,2.32,-5.06,4.63
1473,77259846,0.8325,-0.5571,0.1870,2.20,-5.30,4.51
1474,77264844,0.8340,-0.5557,0.1870,2.07,-5.55,4.57
1475,77269843,0.8345,-0.5601,0.1855,2.01,-5.85,4.45
1476,77274843,0.8345,-0.5596,0.1841,1.89,-6.10,4.57
1477,77279843,0.8359,-0.5620,0.1831,1.83,-6.16,4.51
1478,77284841,0.8335,-0.5601,0.1802,1.77,-6.46,4.57
1479,77289841,0.8364,-0.5620,0.1792,1.77,-6.59,4.57
1480,77294846,0.8413,-0.5571,0.1816,1.77,-6.83,4.57
1481,77299842,0.8340,-0.5581,0.1787,1.65,-6.95,4.45
1482,77304843,0.8320,-0.5532,0.1802,1.59,-6.95,4.51
1483,77309843,0.8379,-0.5571,0.1802,1.52,-7.20,4.45
1484,77314844,0.8369,-0.5571,0.1782,1.46,-7.13,4.39
1485,77319841,0.8350,-0.5571,0.1777,1.46,-7.13,4.39
1486,77324845,0.8359,-0.5562,0.1748,1.34,-7.26,4.33
1487,77329843,0.8359,-0.5562,0.1763,1.34,-7.20,4.33
1488,77334843,0.8369,-0.5625,0.1733,1.28,-7.20,4.39
1489,77339842,0.8364,-0.5586,0.1719,1.22,-7.38,4.33
1490,77344844,0.8379,-0.5571,0.1709,1.34,-7.44,4.27
1491,77349843,0.8369,-0.5581,0.1636,1.28,-7.32,4.27
1492,77354843,0.8398,-0.5620,0.1704,1.34,-7.38,4.39
1493,77359843,0.8350,-0.5630,0.1694,1.46,-7.44,4.33
1494,77364842,0.8374,-0.5635,0.1694,1.40,-7.38,4.33
1495,77370193,0.8320,-0.5649,0.1724,1.52,-7.44,4.45
1496,77374843,0.8311,-0.5674,0.1738,1.52,-7.38,4.39
1497,77379843,0.8335,-0.5649,0.1719,1.59,-7.38,4.39
1498,77384843,0.8320,-0.5625,0.1694,1.52,-7.44,4.39
1499,77389888,0.8306,-0.5640,0.1699,1.40,-7.26,4.45
1500,77394843,0.8296,-0.5635,0.1689,1.34,-7.32,4.45
1501,77399843,0.8267,-0.5630,0.1738,1.04,-7.32,4.33
1502,77404843,0.8291,-0.5630,0.1680,0.91,-7.32,4.27
1503,77409844,0.8281,-0.5596,0.1772,0.61,-7.38,4.15
1504,77414843,0.8271,-0.5630,0.1680,0.43,-7.13,4.15
1505,77419843,0.8242,-0.5596,0.1709,0.12,-7.20,3.96
1506,77424843,0.8242,-0.5552,0.1670,-0.12,-7.07,3.96
1507,77429843,0.8237,-0.5586,0.1660,-0.43,-6.95,3.90
1508,77434842,0.8257,-0.5591,0.1738,-0.61,-6.83,3.78
1509,77439843,0.8184,-0.5562,0.1733,-0.67,-6.89,3.72
1510,77444842,0.8213,-0.5601,0.1553,-0.85,-6.83,3.48
1511,77449843,0.8179,-0.5552,0.1650,-0.98,-6.77,3.41
1512,77454842,0.8184,-0.5542,0.1646,-1.10,-6.65,3.23
1513,77459843,0.8174,-0.5537,0.1616,-1.04,-6.52,3.17
1514,77464842,0.8140,-0.5532,0.1660,-1.04,-6.52,2.99
1515,77469841,0.8169,-0.5547,0.1675,-0.91,-6.46,2.80
1516,77474843,0.8188,-0.5571,0.1694,-0.85,-6.34,2.80
1517,77479843,0.8179,-0.5571,0.1611,-0.67,-6.34,2.56
1518,77484842,0.8164,-0.5601,0.1685,-0.49,-6.28,2.50
1519,77489843,0.8188,-0.5566,0.1548,-0.24,-6.04,2.62
1520,77494842,0.8184,-0.5557,0.1582,-0.18,-6.16,2.32
1521,77499843,0.8164,-0.5552,0.1587,-0.06,-5.98,2.32
1522,77504843,0.8213,-0.5576,0.1611,0.24,-6.04,2.26
1523,77509843,0.8228,-0.5591,0.1562,0.43,-5.79,2.20
1524,77514842,0.8169,-0.5562,0.1587,0.55,-5.67,2.20
1525,77519843,0.8179,-0.5615,0.1597,0.73,-5.49,2.07
1526,77524841,0.8184,-0.5586,0.1509,0.98,-5.49,2.07
1527,77529843,0.8203,-0.5615,0.1553,1.04,-5.30,2.13
1528,77534843,0.8184,-0.5591,0.1562,1.28,-5.30,2.07
1529,77539901,0.8154,-0.5635,0.1528,1.40,-5.12,2.01
1530,77544842,0.8179,-0.5581,0.1562,1.40,-5.00,2.01
1531,77549843,0.8188,-0.5615,0.1538,1.52,-4.88,1.95
1532,77554842,0.8145,-0.5610,0.1479,1.71,-4.88,1.89
1533,77560007,0.8164,-0.5640,0.1533,1.83,-4.82,1.89
1534,77564842,0.8159,-0.5605,0.1519,1.89,-4.70,1.89
1535,77569843,0.8159,-0.5630,0.1479,1.83,-4.51,1.89
1536,77574843,0.8179,-0.5610,0.1543,2.07,-4.51,1.83
1537,77579843,0.8188,-0.5659,0.1499,2.01,-4.39,1.83
1538,77584843,0.8164,-0.5654,0.1543,2.13,-4.27,1.83
1539,77589843,0.8184,-0.5635,0.1538,2.13,-4.15,1.89
1540,77594848,0.8179,-0.5664,0.1494,2.26,-4.02,1.83
1541,77599843,0.8164,-0.5669,0.1548,2.13,-3.96,1.95
1542,77604842,0.8120,-0.5645,0.1436,2.26,-3.90,1.83
1543,77609843,0.8169,-0.5649,0.1475,2.13,-3.78,1.89
1544,77614841,0.8145,-0.5615,0.1484,2.13,-3.66,1.89
1545,77619842,0.8145,-0.5640,0.1406,2.01,-3.60,1.89
1546,77624843,0.8145,-0.5610,0.1436,1.95,-3.29,1.89
1547,77629845,0.8120,-0.5635,0.1479,1.83,-3.48,1.95
1548,77634842,0.8149,-0.5630,0.1445,1.65,-3.17,1.95
1549,77639841,0.8135,-0.5615,0.1460,1.52,-3.05,1.95
1550,77644843,0.8125,-0.5610,0.1431,1.46,-3.17,1.83
1551,77649843,0.8135,-0.5640,0.1436,1.34,-2.87,1.89
1552,77654842,0.8110,-0.5635,0.1465,1.28,-2.93,1.95
1553,77659844,0.8159,-0.5645,0.1494,1.22,-2.68,1.95
1554,77664842,0.8135,-0.5615,0.1479,1.04,-2.56,1.89
1555,77669843,0.8179,-0.5605,0.1445,0.98,-2.38,1.95
1556,77674843,0.8179,-0.5596,0.1470,0.98,-2.32,2.01
1557,77679843,0.8179,-0.5596,0.1494,0.85,-2.20,1.95
1558,77684842,0.8169,-0.5601,0.1470,1.04,-2.01,1.89
1559,77689843,0.8159,-0.5610,0.1445,1.10,-1.95,1.83
1560,77694842,0.8159,-0.5586,0.1494,1.04,-1.71,1.89
1561,77699843,0.8164,-0.5610,0.1475,1.22,-1.59,1.95
1562,77704842,0.8179,-0.5571,0.1489,1.40,-1.46,1.95
1563,77709843,0.8203,-0.5610,0.1475,1.65,-1.40,2.01
1564,77714842,0.8179,-0.5620,0.1470,1.83,-1.34,1.95
1565,77719845,0.8203,-0.5596,0.1440,2.13,-1.16,1.95
1566,77724842,0.8198,-0.5610,0.1470,2.44,-0.98,1.95
1567,77729841,0.8198,-0.5601,0.1484,2.80,-1.10,2.01
1568,77734843,0.8193,-0.5601,0.1440,3.05,-1.04,2.01
1569,77739843,0.8208,-0.5610,0.1494,3.35,-0.85,2.07
1570,77744843,0.8213,-0.5610,0.1460,3.66,-0.85,2.20
1571,77749842,0.8223,-0.5586,0.1494,4.02,-0.91,2.13
1572,77754843,0.8193,-0.5615,0.1528,4.21,-0.73,2.20
1573,77759843,0.8203,-0.5576,0.1504,4.45,-0.73,2.20
1574,77764844,0.8237,-0.5591,0.1519,4.63,-0.55,2.32
1575,77769842,0.8242,-0.5615,0.1470,4.82,-0.67,2.38
1576,77774843,0.8218,-0.5615,0.1479,5.00,-0.55,2.32
1577,77779843,0.8213,-0.5586,0.1543,5.18,-0.55,2.32
1578,77784843,0.8237,-0.5576,0.1533,5.30,-0.37,2.38
1579,77789843,0.8213,-0.5601,0.1528,5.43,-0.37,2.44
1580,77794843,0.8262,-0.5547,0.1562,5.49,-0.37,2.56
1581,77799843,0.8232,-0.5605,0.1592,5.61,-0.37,2.56
1582,77804843,0.8257,-0.5586,0.1558,5.73,-0.24,2.62
1583,77809842,0.8228,-0.5591,0.1577,5.79,-0.18,2.62
1584,77814843,0.8252,-0.5601,0.1587,5.91,-0.30,2.68
1585,77819842,0.8276,-0.5664,0.1572,6.04,-0.24,2.74
1586,77824843,0.8247,-0.5630,0.1562,6.04,-0.18,2.80
1587,77829845,0.8286,-0.5669,0.1548,6.10,-0.18,2.93
1588,77834841,0.8262,-0.5620,0.1597,6.04,0.00,3.05
1589,77839843,0.8267,-0.5586,0.1597,5.98,-0.12,2.99
1590,77844842,0.8247,-0.5615,0.1562,5.98,-0.12,2.93
1591,77850370,0.8257,-0.5635,0.1631,5.79,0.00,2.93
1592,77854843,0.8257,-0.5605,0.1602,5.61,0.12,2.99
1593,77859844,0.8286,-0.5625,0.1562,5.49,0.12,3.05
1594,77864843,0.8247,-0.5610,0.1611,5.37,0.00,2.99
1595,77869841,0.8257,-0.5596,0.1616,5.18,-0.06,2.99
1596,77874843,0.8247,-0.5581,0.1626,4.94,0.00,2.99
1597,77879844,0.8218,-0.5605,0.1631,4.76,0.12,2.99
1598,77884843,0.8213,-0.5645,0.1641,4.63,0.18,2.93
1599,77889842,0.8247,-0.5659,0.1631,4.51,0.12,2.93
1600,77894843,0.8208,-0.5615,0.1655,4.27,0.18,2.93
1601,77899843,0.8184,-0.5610,0.1611,4.27,0.06,2.87
1602,77904845,0.8247,-0.5586,0.1650,4.09,0.24,2.87
1603,77909843,0.8237,-0.5620,0.1602,3.90,0.06,2.74
1604,77914843,0.8242,-0.5640,0.1621,3.90,-0.06,2.74
1605,77919842,0.8218,-0.5630,0.1689,3.78,0.06,2.74
1606,77924843,0.8218,-0.5664,0.1665,3.72,-0.12,2.68
1607,77929843,0.8203,-0.5664,0.1675,3.66,0.00,2.62
1608,77934843,0.8242,-0.5645,0.1641,3.66,0.00,2.62
1609,77939841,0.8281,-0.5654,0.1631,3.54,-0.06,2.50
1610,77944842,0.8237,-0.5601,0.1626,3.60,-0.30,2.44
1611,77949843,0.8218,-0.5654,0.1646,3.54,-0.24,2.44
1612,77954842,0.8218,-0.5654,0.1611,3.66,-0.24,2.32
1613,77959843,0.8218,-0.5669,0.1616,3.72,-0.43,2.32
1614,77964842,0.8223,-0.5659,0.1650,3.84,-0.30,2.20
1615,77969843,0.8218,-0.5654,0.1636,3.96,-0.49,2.13
1616,77974842,0.8213,-0.5664,0.1675,4.09,-0.61,2.07
1617,77979843,0.8193,-0.5645,0.1660,4.21,-0.61,2.07
1618,77984842,0.8174,-0.5674,0.1611,4.51,-0.73,1.95
1619,77989843,0.8154,-0.5679,0.1680,4.63,-0.79,1.83
1620,77994843,0.8159,-0.5615,0.1616,4.82,-1.10,1.89
1621,77999843,0.8198,-0.5630,0.1641,5.12,-1.22,1.89
1622,78004842,0.8154,-0.5615,0.1606,5.18,-1.28,1.77
1623,78009843,0.8149,-0.5610,0.1655,5.37,-1.34,1.71
1624,78014843,0.8115,-0.5576,0.1699,5.49,-1.34,1.65
1625,78020096,0.8091,-0.5537,0.1655,5.61,-1.52,1.52
1626,78024843,0.8115,-0.5547,0.1636,5.61,-1.59,1.52
1627,78029842,0.8091,-0.5571,0.1631,5.67,-1.59,1.34
1628,78034843,0.8125,-0.5566,0.1699,5.73,-1.77,1.34
1629,78039842,0.8154,-0.5552,0.1665,5.67,-1.89,1.34
1630,78044842,0.8140,-0.5547,0.1704,5.67,-2.07,1.34
1631,78049843,0.8169,-0.5610,0.1685,5.73,-2.01,1.28
1632,78054842,0.8154,-0.5625,0.1714,5.73,-2.01,1.34
1633,78059843,0.8223,-0.5630,0.1694,5.73,-2.20,1.40
1634,78064842,0.8193,-0.5610,0.1675,5.79,-2.20,1.40
1635,78069844,0.8174,-0.5640,0.1685,5.73,-2.38,1.46
1636,78074842,0.8267,-0.5654,0.1704,5.73,-2.32,1.52
1637,78079843,0.8242,-0.5669,0.1670,5.85,-2.26,1.65
1638,78084843,0.8228,-0.5688,0.1665,5.73,-2.44,1.77
1639,78089843,0.8223,-0.5649,0.1709,5.73,-2.26,1.89
1640,78094842,0.8242,-0.5645,0.1719,5.67,-2.44,1.95
1641,78099843,0.8237,-0.5620,0.1694,5.61,-2.38,2.01
1642,78104842,0.8223,-0.5625,0.1704,5.49,-2.38,2.20
1643,78109843,0.8198,-0.5649,0.1714,5.49,-2.56,2.26
1644,78114843,0.8203,-0.5645,0.1650,5.37,-2.44,2.26
1645,78119843,0.8223,-0.5610,0.1660,5.12,-2.44,2.32
1646,78124842,0.8203,-0.5679,0.1650,5.12,-2.56,2.38
1647,78129844,0.8193,-0.5664,0.1641,5.06,-2.68,2.38
1648,78134843,0.8198,-0.5649,0.1626,4.94,-2.56,2.38
1649,78139854,0.8184,-0.5635,0.1641,4.94,-2.80,2.44
1650,78144842,0.8184,-0.5659,0.1689,4.94,-2.87,2.50
1651,78149975,0.8179,-0.5625,0.1689,4.94,-2.99,2.44
1652,78154843,0.8159,-0.5625,0.1655,4.88,-2.99,2.44
1653,78159843,0.8140,-0.5552,0.1694,4.88,-3.11,2.44
1654,78164846,0.8188,-0.5625,0.1646,4.82,-3.11,2.44
1655,78169843,0.8179,-0.5562,0.1548,4.76,-3.35,2.50
1656,78174843,0.8203,-0.5601,0.1675,4.82,-3.35,2.38
1657,78179843,0.8218,-0.5576,0.1680,4.76,-3.41,2.32
1658,78184844,0.8198,-0.5625,0.1597,4.76,-3.66,2.32
1659,78189843,0.8184,-0.5630,0.1606,4.70,-3.66,2.26
1660,78194845,0.8247,-0.5581,0.1616,4.70,-3.66,2.26
1661,78199844,0.8218,-0.5557,0.1577,4.57,-3.96,2.26
1662,78204843,0.8262,-0.5542,0.1562,4.51,-4.02,2.26
1663,78209843,0.8247,-0.5586,0.1562,4.39,-4.09,2.32
1664,78214843,0.8257,-0.5591,0.1533,4.27,-4.15,2.32
1665,78219933,0.8232,-0.5640,0.1553,4.02,-4.21,2.26
1666,78224845,0.8247,-0.5625,0.1592,3.78,-4.21,2.38
1667,78229842,0.8320,-0.5615,0.1592,3.54,-4.33,2.44
1668,78234844,0.8291,-0.5625,0.1499,3.41,-4.21,2.44
1669,78239841,0.8291,-0.5591,0.1543,3.23,-4.15,2.50
1670,78244843,0.8311,-0.5610,0.1528,2.99,-4.15,2.56
1671,78249845,0.8320,-0.5591,0.1587,2.87,-4.15,2.62
1672,78254842,0.8281,-0.5596,0.1504,2.74,-4.27,2.68
1673,78259873,0.8286,-0.5605,0.1553,2.50,-4.09,2.62
1674,78264843,0.8296,-0.5566,0.1533,2.50,-3.96,2.62
1675,78269843,0.8257,-0.5557,0.1489,2.50,-4.02,2.68
1676,78274843,0.8291,-0.5601,0.1523,2.68,-3.96,2.80
1677,78280017,0.8311,-0.5654,0.1548,2.74,-3.90,2.74
1678,78284843,0.8271,-0.5654,0.1577,2.87,-3.66,2.74
1679,78290198,0.8301,-0.5679,0.1553,3.05,-3.84,2.80
1680,78294844,0.8335,-0.5693,0.1499,3.11,-3.84,2.80
1681,78299843,0.8286,-0.5684,0.1548,3.17,-3.72,2.87
1682,78304843,0.8271,-0.5708,0.1528,3.23,-3.72,2.93
1683,78309974,0.8281,-0.5693,0.1558,3.35,-3.54,2.80
1684,78314844,0.8291,-0.5679,0.1489,3.41,-3.54,2.87
1685,78319843,0.8271,-0.5664,0.1548,3.41,-3.54,2.74
1686,78324843,0.8271,-0.5688,0.1514,3.41,-3.35,2.56
1687,78329843,0.8276,-0.5669,0.1528,3.41,-3.41,2.56
1688,78334843,0.8252,-0.5664,0.1509,3.41,-3.29,2.38
1689,78339843,0.8267,-0.5718,0.1548,3.54,-3.11,2.26
1690,78344844,0.8247,-0.5688,0.1587,3.54,-3.23,2.13
1691,78349843,0.8252,-0.5698,0.1558,3.41,-2.99,2.01
1692,78354843,0.8223,-0.5674,0.1592,3.54,-3.05,1.83
1693,78359843,0.8208,-0.5688,0.1567,3.66,-2.80,1.71
1694,78364844,0.8247,-0.5674,0.1582,3.78,-2.68,1.59
1695,78369841,0.8213,-0.5659,0.1543,3.78,-2.62,1.40
1696,78374844,0.8188,-0.5659,0.1523,3.84,-2.56,1.28
1697,78379953,0.8188,-0.5664,0.1528,3.84,-2.38,1.10
1698,78384843,0.8159,-0.5664,0.1572,4.02,-2.50,1.04
1699,78389843,0.8145,-0.5620,0.1494,3.96,-2.26,0.85
1700,78394843,0.8164,-0.5615,0.1577,4.15,-2.32,0.61
1701,78399841,0.8184,-0.5620,0.1582,4.21,-2.20,0.49
1702,78404843,0.8154,-0.5601,0.1528,4.15,-2.13,0.24
1703,78409843,0.8188,-0.5645,0.1538,4.27,-2.01,0.12
1704,78414844,0.8174,-0.5645,0.1470,4.39,-1.95,0.00
1705,78419884,0.8198,-0.5649,0.1528,4.51,-2.01,-0.12
1706,78424843,0.8237,-0.5630,0.1514,4.51,-1.95,-0.24
1707,78429843,0.8193,-0.5620,0.1562,4.57,-1.95,-0.43
1708,78434843,0.8184,-0.5596,0.1572,4.63,-1.83,-0.55
1709,78439843,0.8164,-0.5625,0.1538,4.70,-1.71,-0.55
1710,78444849,0.8232,-0.5615,0.1548,4.76,-1.89,-0.55
1711,78449843,0.8218,-0.5601,0.1567,4.76,-1.77,-0.67
1712,78454842,0.8218,-0.5571,0.1553,4.88,-1.71,-0.79
1713,78459850,0.8232,-0.5566,0.1558,4.82,-1.59,-0.79
1714,78464842,0.8223,-0.5537,0.1562,4.88,-1.52,-0.73
1715,78469843,0.8242,-0.5522,0.1592,4.88,-1.46,-0.73
1716,78474842,0.8242,-0.5542,0.1504,5.00,-1.46,-0.85
1717,78479842,0.8247,-0.5552,0.1562,5.00,-1.46,-0.79
1718,78484843,0.8237,-0.5527,0.1626,5.06,-1.46,-0.91
1719,78489842,0.8188,-0.5527,0.1611,5.00,-1.46,-0.79
1720,78494844,0.8242,-0.5557,0.1572,5.12,-1.28,-0.79
1721,78499843,0.8252,-0.5547,0.1567,5.06,-1.40,-0.79
1722,78504844,0.8213,-0.5518,0.1616,5.12,-1.28,-0.79
1723,78509841,0.8223,-0.5547,0.1528,5.24,-1.28,-0.67
1724,78514845,0.8301,-0.5557,0.1567,5.37,-1.34,-0.73
1725,78519843,0.8232,-0.5581,0.1572,5.37,-1.16,-0.67
1726,78524842,0.8252,-0.5576,0.1597,5.43,-1.16,-0.67
1727,78529843,0.8237,-0.5566,0.1597,5.43,-1.16,-0.61
1728,78534914,0.8306,-0.5552,0.1582,5.49,-1.10,-0.43
1729,78539843,0.8262,-0.5581,0.1611,5.55,-1.10,-0.37
1730,78544843,0.8213,-0.5581,0.1606,5.49,-1.16,-0.37
1731,78549841,0.8232,-0.5596,0.1572,5.49,-1.22,-0.24
1732,78554846,0.8223,-0.5557,0.1636,5.37,-1.04,-0.37
1733,78559843,0.8276,-0.5601,0.1577,5.18,-1.10,-0.24
1734,78564843,0.8203,-0.5586,0.1597,4.94,-1.22,-0.18
1735,78569842,0.8252,-0.5586,0.1611,4.70,-1.34,-0.12
1736,78574843,0.8232,-0.5576,0.1631,4.21,-1.34,-0.06
1737,78579843,0.8262,-0.5547,0.1597,3.84,-1.40,-0.06
1738,78584843,0.8228,-0.5542,0.1611,3.23,-1.34,-0.12
1739,78589842,0.8262,-0.5542,0.1538,2.62,-1.34,-0.06
1740,78594871,0.8247,-0.5532,0.1548,1.77,-1.59,-0.18
1741,78599842,0.8232,-0.5571,0.1538,1.34,-1.65,-0.12
1742,78604845,0.8257,-0.5557,0.1572,0.73,-1.77,-0.18
1743,78609843,0.8281,-0.5596,0.1577,0.12,-2.01,-0.12
1744,78614843,0.8228,-0.5581,0.1577,-0.37,-1.95,-0.06
1745,78619843,0.8228,-0.5532,0.1597,-0.79,-2.07,-0.06
1746,78624842,0.8237,-0.5532,0.1577,-1.34,-2.26,0.06
1747,78630029,0.8286,-0.5488,0.1523,-1.89,-2.32,-0.06
1748,78634843,0.8223,-0.5518,0.1558,-2.26,-2.50,-0.06
1749,78639843,0.8242,-0.5454,0.1641,-2.74,-2.50,-0.06
1750,78644843,0.8271,-0.5439,0.1602,-3.05,-2.62,-0.18
1751,78649843,0.8281,-0.5415,0.1567,-3.35,-2.62,-0.06
1752,78654842,0.8306,-0.5410,0.1572,-3.60,-2.62,-0.12
