# skilleye imu stream v1
# device=xiao_esp32c6 imu=mpu6050 addr=0x68
# rate_hz=200 accel_range_g=16 gyro_range_dps=2000 dlpf_hz=94
# units: accel in g, gyro in deg/s, t_us in microseconds since boot (monotonic)
# no shared clock with the camera -- tap the racket once before each take
# so both recordings share a spike to align on
seq,t_us,ax,ay,az,gx,gy,gz
0,587833294,-0.7808,-0.4429,-0.3672,15.18,4.88,0.91
1,587838296,-0.7671,-0.4375,-0.3691,15.30,5.12,0.55
2,587843294,-0.7871,-0.4365,-0.3594,15.00,5.30,0.18
3,587848297,-0.8037,-0.4453,-0.3545,14.39,5.61,-0.18
4,587853300,-0.7998,-0.4473,-0.3579,13.41,5.85,-0.49
5,587858296,-0.7949,-0.4497,-0.3594,12.20,6.22,-0.91
6,587863764,-0.7788,-0.4395,-0.3486,10.73,6.46,-1.04
7,587868296,-0.7812,-0.4390,-0.3447,8.90,6.65,-1.22
8,587873296,-0.7949,-0.4438,-0.3462,7.13,7.07,-1.40
9,587878296,-0.7930,-0.4424,-0.3403,5.12,7.20,-1.59
10,587883298,-0.7769,-0.4404,-0.3413,2.80,7.62,-1.77
11,587888498,-0.7949,-0.4453,-0.3340,0.67,7.93,-1.95
12,587893295,-0.7866,-0.4458,-0.3340,-1.65,8.23,-1.95
13,587898296,-0.7744,-0.4429,-0.3364,-4.02,8.54,-2.01
14,587903296,-0.7734,-0.4414,-0.3325,-6.10,8.72,-2.07
15,587908295,-0.7725,-0.4414,-0.3306,-8.29,8.96,-2.07
16,587913296,-0.7690,-0.4365,-0.3301,-10.43,8.84,-2.20
17,587918295,-0.7793,-0.4331,-0.3286,-12.26,9.15,-2.20
18,587923295,-0.7847,-0.4331,-0.3267,-13.96,8.90,-2.32
19,587928294,-0.7891,-0.4385,-0.3335,-15.43,9.15,-2.32
20,587933294,-0.7896,-0.4375,-0.3330,-16.77,9.02,-2.44
21,587938294,-0.7715,-0.4355,-0.3252,-17.74,8.96,-2.56
22,587943294,-0.7578,-0.4233,-0.3359,-18.54,8.84,-2.62
23,587948294,-0.7656,-0.4258,-0.3271,-19.21,8.60,-2.87
24,587953298,-0.7700,-0.4233,-0.3262,-19.57,8.41,-2.87
25,587958295,-0.7612,-0.4224,-0.3276,-19.63,8.23,-3.11
26,587963296,-0.7642,-0.4165,-0.3291,-19.57,7.93,-3.35
27,587968296,-0.7744,-0.4214,-0.3296,-19.21,7.68,-3.48
28,587973296,-0.7583,-0.4155,-0.3252,-18.78,7.50,-3.72
29,587978296,-0.7642,-0.4194,-0.3301,-18.17,7.32,-3.96
30,587983296,-0.7705,-0.4204,-0.3262,-17.38,7.07,-4.27
31,587988296,-0.7676,-0.4175,-0.3281,-16.52,6.71,-4.45
32,587993295,-0.7524,-0.4111,-0.3237,-15.49,6.46,-4.63
33,587998296,-0.7583,-0.4121,-0.3276,-14.39,6.16,-4.88
34,588003730,-0.7646,-0.4150,-0.3252,-13.29,5.91,-5.12
35,588008296,-0.7710,-0.4224,-0.3237,-12.13,5.67,-5.37
36,588013296,-0.7671,-0.4126,-0.3311,-10.98,5.37,-5.67
37,588018370,-0.7661,-0.4116,-0.3232,-9.57,5.06,-5.85
38,588023296,-0.7896,-0.4189,-0.3281,-8.29,4.63,-6.16
39,588028296,-0.7793,-0.4160,-0.3252,-7.50,4.39,-6.28
40,588033297,-0.7808,-0.4175,-0.3311,-6.34,4.21,-6.59
41,588038296,-0.7734,-0.4116,-0.3218,-5.24,3.78,-6.65
42,588043493,-0.7627,-0.4004,-0.3247,-4.27,3.60,-6.77
43,588048752,-0.7695,-0.4023,-0.3286,-3.17,3.17,-7.07
44,588053296,-0.7808,-0.4033,-0.3242,-2.44,2.68,-7.07
45,588058296,-0.7842,-0.4072,-0.3276,-1.77,2.50,-7.13
46,588063296,-0.7871,-0.4043,-0.3271,-1.16,1.89,-7.38
47,588068296,-0.7915,-0.4048,-0.3325,-0.55,1.77,-7.38
48,588073296,-0.7793,-0.4053,-0.3291,-0.06,1.34,-7.50
49,588078295,-0.7598,-0.4023,-0.3242,0.24,0.85,-7.62
50,588083294,-0.7715,-0.3979,-0.3252,0.61,0.49,-7.62
51,588088294,-0.7817,-0.3999,-0.3291,0.73,0.12,-7.62
52,588093294,-0.7798,-0.4023,-0.3291,1.04,-0.30,-7.80
53,588098294,-0.7798,-0.4072,-0.3242,1.10,-0.67,-7.68
54,588103297,-0.7671,-0.4004,-0.3281,1.10,-1.16,-7.74
55,588108296,-0.7578,-0.3945,-0.3276,1.22,-1.59,-7.74
56,588113318,-0.7773,-0.4019,-0.3267,1.16,-1.89,-7.80
57,588118297,-0.7749,-0.4033,-0.3301,1.16,-2.20,-7.87
58,588123296,-0.7734,-0.4038,-0.3291,1.04,-2.62,-7.87
59,588128295,-0.7568,-0.3965,-0.3247,0.91,-2.99,-7.87
60,588133295,-0.7515,-0.3882,-0.3252,0.91,-3.35,-7.99
61,588138294,-0.7461,-0.3901,-0.3252,0.73,-3.78,-7.93
62,588143294,-0.7544,-0.3931,-0.3252,0.73,-4.15,-8.05
63,588148294,-0.7598,-0.3926,-0.3267,0.61,-4.39,-7.99
64,588153294,-0.7573,-0.3882,-0.3193,0.49,-4.63,-8.17
65,588158298,-0.7480,-0.3848,-0.3213,0.30,-4.88,-8.05
66,588163296,-0.7612,-0.3906,-0.3276,0.30,-5.30,-8.17
67,588168296,-0.7612,-0.3926,-0.3242,0.43,-5.73,-8.11
68,588173579,-0.7417,-0.3843,-0.3203,0.18,-5.85,-8.23
69,588178353,-0.7681,-0.3945,-0.3228,0.00,-6.16,-8.23
70,588183296,-0.7422,-0.3862,-0.3276,-0.06,-6.28,-8.35
71,588188295,-0.7485,-0.3828,-0.3247,-0.24,-6.65,-8.35
72,588193296,-0.7544,-0.3882,-0.3325,-0.43,-6.95,-8.41
73,588198298,-0.7622,-0.3882,-0.3281,-0.55,-7.26,-8.48
74,588203296,-0.7705,-0.3989,-0.3247,-0.85,-7.56,-8.41
75,588208296,-0.7622,-0.3931,-0.3271,-1.10,-7.74,-8.54
76,588213298,-0.7520,-0.3916,-0.3325,-1.34,-7.87,-8.54
77,588218295,-0.7603,-0.3896,-0.3335,-1.52,-8.17,-8.54
78,588223296,-0.7451,-0.3911,-0.3267,-2.01,-8.17,-8.54
79,588228296,-0.7495,-0.3970,-0.3306,-2.44,-8.23,-8.41
80,588233296,-0.7690,-0.4062,-0.3315,-2.80,-8.11,-8.23
81,588238297,-0.7886,-0.4150,-0.3384,-3.11,-8.17,-8.23
82,588243296,-0.7769,-0.4131,-0.3438,-3.72,-7.93,-8.11
83,588248296,-0.7788,-0.4116,-0.3384,-4.51,-8.05,-7.87
84,588253296,-0.8062,-0.4224,-0.3423,-4.94,-7.93,-7.62
85,588258296,-0.8027,-0.4307,-0.3462,-5.37,-7.74,-7.50
86,588263299,-0.8076,-0.4331,-0.3574,-5.73,-7.68,-7.32
87,588268296,-0.8027,-0.4307,-0.3550,-5.98,-7.44,-6.95
88,588273296,-0.8037,-0.4365,-0.3613,-6.34,-7.20,-6.65
89,588278296,-0.7954,-0.4336,-0.3618,-6.28,-6.95,-6.52
90,588283296,-0.8066,-0.4375,-0.3574,-5.91,-6.52,-6.28
91,588288296,-0.8188,-0.4438,-0.3657,-5.43,-6.46,-6.10
92,588293297,-0.8208,-0.4478,-0.3691,-4.76,-6.22,-5.91
93,588298296,-0.8218,-0.4541,-0.3613,-3.90,-6.04,-5.61
94,588303298,-0.7993,-0.4521,-0.3613,-2.74,-5.73,-5.49
95,588308295,-0.7788,-0.4468,-0.3599,-1.46,-5.43,-5.43
96,588313492,-0.7778,-0.4482,-0.3584,0.24,-5.24,-5.43
97,588318785,-0.7988,-0.4546,-0.3604,2.01,-4.94,-5.37
98,588323296,-0.7969,-0.4570,-0.3652,3.96,-4.76,-5.24
99,588328296,-0.7681,-0.4546,-0.3608,6.28,-4.70,-5.37
100,588333294,-0.7578,-0.4502,-0.3647,8.96,-4.51,-5.43
101,588338294,-0.7573,-0.4551,-0.3623,11.59,-4.45,-5.55
102,588343294,-0.7632,-0.4565,-0.3682,14.45,-4.45,-5.55
103,588348294,-0.7524,-0.4595,-0.3760,17.26,-4.57,-5.73
104,588353294,-0.7686,-0.4629,-0.3799,20.00,-4.88,-5.79
105,588358297,-0.7476,-0.4668,-0.3755,22.68,-5.12,-5.85
106,588363296,-0.7471,-0.4722,-0.3691,25.24,-5.37,-6.04
107,588368296,-0.7529,-0.4785,-0.3745,27.62,-5.61,-6.10
108,588373296,-0.7402,-0.4834,-0.3696,29.76,-5.91,-6.16
109,588378295,-0.7407,-0.4854,-0.3667,31.59,-6.22,-6.28
110,588383294,-0.7363,-0.4946,-0.3677,33.35,-6.71,-6.40
111,588388294,-0.7349,-0.4946,-0.3623,34.51,-7.07,-6.46
112,588393294,-0.7212,-0.4995,-0.3677,35.79,-7.56,-6.52
113,588398297,-0.7329,-0.4976,-0.3677,36.71,-8.11,-6.77
114,588403344,-0.7373,-0.5073,-0.3667,37.44,-8.41,-6.89
115,588408294,-0.7256,-0.5044,-0.3652,37.99,-8.72,-7.01
116,588413527,-0.7407,-0.5103,-0.3682,38.29,-8.96,-7.13
117,588418298,-0.7407,-0.5176,-0.3672,38.35,-9.39,-7.50
118,588423296,-0.7285,-0.5176,-0.3657,38.35,-9.51,-7.62
119,588428297,-0.7505,-0.5278,-0.3569,38.11,-9.57,-7.99
120,588433468,-0.7554,-0.5356,-0.3618,37.87,-9.94,-8.29
121,588438296,-0.7617,-0.5352,-0.3623,37.56,-10.00,-8.54
122,588443298,-0.7642,-0.5410,-0.3667,37.20,-10.30,-9.02
123,588448377,-0.7471,-0.5361,-0.3623,36.89,-10.55,-9.45
124,588453296,-0.7744,-0.5527,-0.3662,36.59,-10.91,-10.30
125,588458296,-0.7568,-0.5518,-0.3647,36.28,-11.10,-10.79
126,588463296,-0.7739,-0.5605,-0.3667,36.16,-11.46,-11.40
127,588468718,-0.7661,-0.5586,-0.3643,36.10,-11.77,-12.13
128,588473296,-0.7754,-0.5723,-0.3687,35.85,-11.89,-12.87
129,588478296,-0.7739,-0.5718,-0.3657,35.49,-12.13,-13.54
130,588483296,-0.7803,-0.5815,-0.3589,35.00,-12.26,-14.39
131,588488296,-0.7700,-0.5806,-0.3574,34.45,-12.38,-15.18
132,588493296,-0.7720,-0.5850,-0.3623,33.84,-12.38,-16.10
133,588498297,-0.7749,-0.5928,-0.3584,33.41,-12.44,-16.95
134,588503715,-0.8096,-0.6069,-0.3569,32.44,-12.38,-18.23
135,588508296,-0.8066,-0.6177,-0.3579,31.83,-12.26,-19.09
136,588513298,-0.8013,-0.6182,-0.3540,31.16,-12.01,-20.24
137,588518519,-0.7998,-0.6177,-0.3589,30.18,-11.83,-21.65
138,588523295,-0.8218,-0.6362,-0.3584,29.33,-11.46,-22.93
139,588528296,-0.7959,-0.6353,-0.3545,28.60,-11.10,-23.84
140,588533296,-0.8149,-0.6455,-0.3501,27.74,-10.73,-25.06
141,588538295,-0.8022,-0.6567,-0.3511,26.71,-10.24,-26.28
142,588543295,-0.8042,-0.6636,-0.3535,25.91,-9.82,-27.68
143,588548294,-0.8252,-0.6812,-0.3638,25.30,-9.27,-28.84
144,588553294,-0.8071,-0.6836,-0.3555,24.57,-9.09,-30.18
145,588558294,-0.7998,-0.6870,-0.3584,24.27,-8.60,-31.46
146,588563294,-0.7876,-0.6865,-0.3569,24.09,-8.23,-32.74
147,588568294,-0.8042,-0.6968,-0.3496,24.15,-7.80,-34.21
148,588573294,-0.8013,-0.7017,-0.3462,24.21,-7.26,-35.61
149,588578294,-0.8022,-0.7109,-0.3447,24.70,-6.89,-37.20
150,588583294,-0.7725,-0.7080,-0.3335,24.94,-6.22,-38.78
151,588588294,-0.7715,-0.7109,-0.3301,25.55,-5.85,-40.30
152,588593294,-0.7808,-0.7266,-0.3286,26.16,-5.30,-42.07
153,588598294,-0.7617,-0.7236,-0.3242,27.26,-4.82,-43.84
154,588603294,-0.7485,-0.7139,-0.3242,28.66,-4.33,-45.73
155,588608294,-0.7495,-0.7207,-0.3159,30.06,-3.84,-47.56
156,588613294,-0.7549,-0.7300,-0.3125,31.71,-3.41,-49.33
157,588618294,-0.7417,-0.7271,-0.3115,33.23,-2.93,-51.28
158,588623294,-0.7329,-0.7339,-0.3110,34.88,-2.87,-53.35
159,588628294,-0.7422,-0.7402,-0.3105,36.52,-2.44,-55.18
160,588633294,-0.7480,-0.7500,-0.3125,37.93,-2.20,-57.13
161,588638294,-0.7349,-0.7461,-0.3105,39.21,-2.07,-59.15
162,588643294,-0.7251,-0.7495,-0.3076,40.24,-2.01,-61.28
163,588648299,-0.7251,-0.7568,-0.3057,40.85,-1.95,-63.11
164,588653296,-0.7314,-0.7646,-0.3013,41.10,-1.65,-64.94
165,588658296,-0.7622,-0.7793,-0.3018,41.10,-1.65,-66.59
166,588663778,-0.7427,-0.7837,-0.2959,40.67,-1.40,-68.35
167,588668296,-0.7529,-0.7866,-0.2886,40.06,-1.52,-70.00
168,588673296,-0.7646,-0.7964,-0.2842,39.33,-1.22,-71.59
169,588678295,-0.7627,-0.8013,-0.2793,38.60,-1.10,-73.29
170,588683296,-0.7607,-0.8042,-0.2744,37.68,-0.91,-75.00
171,588688294,-0.7617,-0.8062,-0.2690,36.95,-0.91,-76.65
172,588693294,-0.7500,-0.8091,-0.2725,36.22,-0.67,-78.29
173,588698294,-0.7651,-0.8193,-0.2661,35.67,-0.55,-80.06
174,588703994,-0.7603,-0.8179,-0.2573,35.00,-0.49,-81.89
175,588708296,-0.7593,-0.8315,-0.2637,34.51,-0.55,-83.60
176,588713299,-0.7500,-0.8213,-0.2563,34.27,-0.55,-85.43
177,588718296,-0.7485,-0.8291,-0.2563,34.21,-0.67,-87.26
178,588723687,-0.7305,-0.8257,-0.2495,34.09,-0.98,-89.15
179,588728296,-0.7231,-0.8247,-0.2476,34.27,-1.16,-90.98
180,588733296,-0.7354,-0.8296,-0.2432,34.45,-1.71,-92.74
181,588738325,-0.7417,-0.8330,-0.2461,34.70,-2.20,-94.57
182,588743481,-0.7417,-0.8354,-0.2510,35.12,-2.74,-96.46
183,588748296,-0.7188,-0.8291,-0.2480,35.67,-3.54,-98.35
184,588753297,-0.7021,-0.8247,-0.2505,36.16,-4.27,-100.12
185,588758389,-0.7100,-0.8296,-0.2441,36.65,-5.00,-101.71
186,588763299,-0.7261,-0.8403,-0.2466,36.95,-5.85,-103.29
187,588768296,-0.7280,-0.8452,-0.2510,37.07,-6.77,-104.70
188,588773296,-0.7256,-0.8530,-0.2441,37.01,-7.80,-105.98
189,588778296,-0.7056,-0.8486,-0.2412,36.52,-8.60,-107.26
190,588783296,-0.7095,-0.8501,-0.2354,35.91,-9.57,-108.29
191,588788296,-0.7222,-0.8652,-0.2334,34.94,-10.49,-109.45
192,588793296,-0.6987,-0.8633,-0.2329,33.60,-11.40,-110.43
193,588798296,-0.7046,-0.8652,-0.2246,32.20,-12.50,-111.40
194,588803762,-0.7046,-0.8726,-0.2280,30.30,-13.48,-112.56
195,588808296,-0.6895,-0.8672,-0.2192,29.21,-14.33,-113.48
196,588813296,-0.6816,-0.8687,-0.2148,27.87,-15.30,-114.39
197,588818296,-0.6724,-0.8701,-0.2188,26.59,-16.52,-115.43
198,588823296,-0.6660,-0.8760,-0.2173,25.85,-17.44,-116.16
199,588828476,-0.6514,-0.8789,-0.2095,24.82,-18.48,-116.95
200,588833296,-0.6440,-0.8779,-0.2100,23.78,-19.57,-117.68
201,588838296,-0.6201,-0.8789,-0.1963,22.80,-20.85,-118.60
202,588843296,-0.6216,-0.8784,-0.1948,22.20,-21.65,-119.15
203,588848295,-0.6060,-0.8784,-0.2026,21.34,-22.68,-119.82
204,588853294,-0.6011,-0.8809,-0.1851,20.61,-23.48,-120.37
205,588858294,-0.5889,-0.8740,-0.1846,19.70,-24.39,-120.91
206,588863294,-0.5957,-0.8843,-0.1772,18.96,-25.24,-121.52
207,588868297,-0.5615,-0.8784,-0.1699,17.99,-25.85,-121.95
208,588873296,-0.5747,-0.8848,-0.1733,17.20,-26.65,-122.44
209,588878295,-0.5381,-0.8809,-0.1714,16.16,-27.38,-122.93
210,588883296,-0.5449,-0.8862,-0.1670,15.18,-28.35,-123.41
211,588888296,-0.5249,-0.8755,-0.1689,14.57,-28.90,-123.66
212,588893296,-0.5312,-0.8809,-0.1699,13.90,-29.70,-123.90
213,588898296,-0.5186,-0.8882,-0.1719,13.48,-30.43,-124.21
214,588903296,-0.5132,-0.8931,-0.1660,13.11,-30.85,-124.39
215,588908295,-0.5073,-0.8945,-0.1626,12.99,-31.34,-124.63
216,588913540,-0.5220,-0.9067,-0.1685,13.29,-32.13,-124.70
217,588918296,-0.4907,-0.8975,-0.1650,13.90,-32.56,-124.88
218,588923296,-0.4995,-0.8989,-0.1602,14.70,-32.93,-125.00
219,588928296,-0.4785,-0.9004,-0.1655,15.67,-33.60,-125.24
220,588933296,-0.4517,-0.8921,-0.1572,17.20,-34.09,-125.37
221,588938295,-0.4570,-0.8940,-0.1597,18.60,-34.45,-125.49
222,588943759,-0.4722,-0.8994,-0.1572,20.24,-35.00,-125.67
223,588948296,-0.4482,-0.8965,-0.1504,21.59,-35.24,-125.79
224,588953297,-0.4312,-0.8931,-0.1548,22.62,-35.55,-125.79
225,588958296,-0.4321,-0.8936,-0.1519,23.78,-35.98,-125.73
226,588963296,-0.4404,-0.8960,-0.1455,24.70,-36.40,-125.67
227,588968296,-0.4219,-0.8940,-0.1440,25.49,-36.89,-125.49
228,588973296,-0.4038,-0.8877,-0.1460,26.16,-37.32,-125.30
229,588978295,-0.4028,-0.8853,-0.1411,26.52,-37.68,-125.06
230,588983294,-0.4131,-0.8945,-0.1436,26.52,-38.05,-124.82
231,588988294,-0.3911,-0.8887,-0.1406,26.65,-38.41,-124.51
232,588993294,-0.3672,-0.8833,-0.1343,26.40,-39.02,-124.09
233,588998294,-0.3623,-0.8696,-0.1333,25.98,-39.39,-123.84
234,589003295,-0.3657,-0.8730,-0.1309,25.73,-39.88,-123.41
235,589008296,-0.3687,-0.8765,-0.1328,25.37,-40.37,-123.05
236,589013428,-0.3501,-0.8740,-0.1265,24.94,-40.98,-122.80
237,589018296,-0.3262,-0.8691,-0.1270,24.70,-41.22,-122.68
238,589023299,-0.2983,-0.8623,-0.1255,24.63,-41.83,-122.32
239,589028296,-0.3027,-0.8696,-0.1230,24.57,-42.56,-122.07
240,589033296,-0.3135,-0.8828,-0.1309,24.63,-42.99,-121.83
241,589038784,-0.2827,-0.8779,-0.1338,24.70,-43.66,-121.40
242,589043296,-0.2812,-0.8740,-0.1304,24.94,-44.51,-120.91
243,589048297,-0.2812,-0.8740,-0.1226,25.18,-45.12,-120.61
244,589053351,-0.2930,-0.8774,-0.1177,25.30,-45.61,-120.24
245,589058294,-0.2832,-0.8735,-0.1270,25.61,-46.22,-119.88
246,589063294,-0.2632,-0.8662,-0.1260,25.73,-46.95,-119.39
247,589068294,-0.2441,-0.8584,-0.1255,25.85,-47.62,-118.96
248,589073294,-0.2432,-0.8569,-0.1304,25.91,-48.41,-118.41
249,589078294,-0.2104,-0.8433,-0.1323,25.79,-49.27,-118.05
250,589083294,-0.2217,-0.8403,-0.1338,25.73,-50.18,-117.50
251,589088294,-0.2173,-0.8384,-0.1318,25.37,-51.22,-116.89
252,589093294,-0.1812,-0.8257,-0.1323,25.00,-52.26,-116.34
253,589098599,-0.1880,-0.8135,-0.1304,24.57,-53.29,-115.67
254,589103297,-0.1665,-0.8086,-0.1328,24.02,-54.45,-115.12
255,589108296,-0.1558,-0.7964,-0.1353,23.35,-55.55,-114.45
256,589113303,-0.1362,-0.7939,-0.1323,22.50,-56.59,-113.78
257,589118296,-0.1533,-0.7896,-0.1387,21.71,-57.74,-113.05
258,589123296,-0.1245,-0.7686,-0.1304,20.55,-58.66,-112.50
259,589128295,-0.1328,-0.7690,-0.1260,19.45,-59.70,-111.95
260,589133672,-0.1050,-0.7559,-0.1230,17.99,-60.49,-111.34
261,589138296,-0.1240,-0.7480,-0.1235,16.52,-61.40,-110.85
262,589143296,-0.0957,-0.7358,-0.1294,14.94,-62.20,-110.30
263,589148296,-0.1123,-0.7363,-0.1274,13.11,-63.05,-109.88
264,589153296,-0.0850,-0.7275,-0.1260,11.28,-64.02,-109.21
265,589158753,-0.0654,-0.7173,-0.1338,9.21,-64.94,-108.78
266,589163296,-0.0522,-0.7061,-0.1392,6.95,-65.73,-108.29
267,589168296,-0.0391,-0.7031,-0.1377,4.82,-66.77,-107.93
268,589173296,-0.0298,-0.7046,-0.1489,2.44,-67.87,-107.32
269,589178296,-0.0210,-0.7036,-0.1533,0.18,-68.78,-106.65
270,589183296,-0.0347,-0.7031,-0.1567,-2.20,-70.12,-106.04
271,589188296,-0.0332,-0.7017,-0.1528,-4.57,-70.91,-105.37
272,589193296,0.0020,-0.6890,-0.1416,-7.20,-71.83,-104.63
273,589198298,-0.0049,-0.6860,-0.1387,-9.76,-72.50,-104.02
274,589203296,0.0073,-0.6807,-0.1362,-13.17,-72.93,-103.23
275,589208296,0.0054,-0.6875,-0.1382,-15.55,-73.29,-102.68
276,589213296,0.0322,-0.6836,-0.1323,-18.60,-73.41,-101.95
277,589218295,0.0337,-0.6826,-0.1338,-21.71,-73.60,-101.10
278,589223296,0.0181,-0.6865,-0.1274,-24.76,-73.72,-100.18
279,589228296,0.0352,-0.6792,-0.1304,-27.74,-73.54,-99.33
280,589233296,0.0557,-0.6714,-0.1260,-30.73,-73.23,-98.29
281,589238310,0.0410,-0.6733,-0.1226,-33.78,-72.68,-97.32
282,589243294,0.0479,-0.6821,-0.1172,-36.77,-72.50,-96.16
283,589248374,0.0610,-0.6792,-0.1172,-39.76,-72.13,-94.94
284,589253295,0.0664,-0.6870,-0.1147,-42.56,-71.52,-93.72
285,589258294,0.0952,-0.6763,-0.1104,-45.24,-70.91,-92.26
286,589263294,0.1128,-0.6772,-0.1211,-47.74,-70.37,-90.91
287,589268294,0.1069,-0.6802,-0.1289,-49.82,-69.63,-89.45
288,589273294,0.1367,-0.7129,-0.1582,-51.59,-69.21,-87.99
289,589278297,0.1772,-0.7188,-0.1675,-53.54,-68.72,-86.46
290,589283408,0.1733,-0.6821,-0.1587,-55.37,-68.11,-85.18
291,589288296,0.1875,-0.6792,-0.1841,-56.40,-67.56,-83.72
292,589293296,0.2207,-0.7056,-0.1880,-56.89,-67.32,-82.68
293,589298297,0.2446,-0.7217,-0.1826,-57.32,-66.77,-81.46
294,589303296,0.2559,-0.7139,-0.2036,-57.80,-66.34,-80.12
295,589308296,0.2642,-0.7090,-0.2134,-57.87,-65.85,-79.09
296,589313296,0.2656,-0.7090,-0.2036,-57.99,-65.30,-78.05
297,589318296,0.2690,-0.7227,-0.1997,-58.05,-64.33,-76.83
298,589323294,0.2808,-0.7261,-0.2256,-57.99,-63.60,-75.61
299,589328296,0.2920,-0.7363,-0.2266,-57.80,-62.74,-74.76
300,589333295,0.3066,-0.7383,-0.2080,-57.56,-61.71,-73.66
301,589338297,0.3208,-0.7402,-0.2085,-57.26,-60.30,-72.62
302,589343296,0.3501,-0.7339,-0.2212,-56.71,-58.96,-71.65
303,589348527,0.3555,-0.7324,-0.2148,-55.79,-57.26,-70.55
304,589353780,0.3506,-0.7349,-0.1978,-54.82,-55.55,-69.57
305,589358296,0.3369,-0.7397,-0.1904,-53.78,-53.78,-68.54
306,589363297,0.3555,-0.7178,-0.1909,-52.80,-52.20,-67.62
307,589368296,0.3945,-0.6738,-0.1826,-51.52,-49.94,-66.46
308,589373296,0.3950,-0.6709,-0.1782,-51.10,-48.48,-65.85
309,589378295,0.3945,-0.6782,-0.2007,-50.79,-46.71,-64.51
310,589384008,0.3911,-0.6646,-0.2061,-51.34,-44.63,-62.74
311,589388296,0.3784,-0.6836,-0.2178,-52.32,-43.11,-61.10
312,589393294,0.4004,-0.6919,-0.2266,-53.54,-41.46,-59.27
313,589398296,0.4214,-0.6880,-0.2754,-55.06,-39.94,-57.26
314,589403296,0.4722,-0.6748,-0.3467,-56.77,-38.66,-55.18
315,589408296,0.5474,-0.6504,-0.4341,-58.66,-37.68,-53.05
316,589413768,0.6128,-0.6460,-0.5254,-60.55,-36.52,-50.79
317,589418296,0.6611,-0.6694,-0.5996,-62.80,-35.18,-48.72
318,589423297,0.6826,-0.6978,-0.5996,-65.12,-33.48,-46.46
319,589428295,0.7041,-0.6284,-0.5576,-66.52,-30.79,-44.09
320,589433296,0.6919,-0.6172,-0.5005,-66.16,-27.62,-41.89
321,589438296,0.6118,-0.6899,-0.4736,-64.51,-24.33,-39.15
322,589443296,0.5688,-0.7441,-0.4282,-61.77,-21.40,-35.98
323,589448296,0.5312,-0.7827,-0.4116,-57.44,-18.54,-32.50
324,589453296,0.5449,-0.7739,-0.3823,-51.89,-15.91,-28.96
325,589458296,0.5640,-0.7671,-0.3184,-45.18,-13.78,-25.61
326,589463295,0.5664,-0.7788,-0.3335,-37.50,-11.59,-22.26
327,589468294,0.5522,-0.7915,-0.3374,-28.90,-9.94,-19.27
328,589473294,0.5605,-0.7900,-0.2827,-19.76,-8.17,-16.16
329,589478294,0.5396,-0.7974,-0.2520,-9.88,-6.52,-13.11
330,589483295,0.5542,-0.8257,-0.2734,-0.06,-4.76,-10.24
331,589488314,0.5571,-0.8223,-0.3213,9.76,-3.35,-7.44
332,589493294,0.5435,-0.8325,-0.2793,20.06,-2.20,-4.94
333,589498443,0.5464,-0.8359,-0.2173,29.63,-0.55,-2.38
334,589503683,0.5479,-0.8306,-0.3013,39.09,0.85,-0.12
335,589508296,0.6338,-0.7949,-0.3633,47.50,1.34,1.83
336,589513296,0.6294,-0.7998,-0.3311,55.55,2.38,3.48
337,589518296,0.5908,-0.7744,-0.2979,62.93,3.72,5.12
338,589523296,0.5527,-0.7598,-0.2930,69.39,4.94,6.40
339,589528296,0.5552,-0.7544,-0.3105,74.63,6.52,7.50
340,589533295,0.5884,-0.7466,-0.2881,78.90,7.99,8.54
341,589538296,0.8306,-0.7905,-0.1880,81.16,9.57,9.51
342,589543777,0.9707,-0.8345,-0.1323,80.61,11.89,11.46
343,589548296,0.7769,-0.8198,-0.1567,78.11,13.66,13.29
344,589553296,0.6948,-0.8076,-0.1016,75.06,15.24,14.63
345,589558296,0.8516,-0.7471,-0.0493,72.26,17.01,15.37
346,589563296,0.7998,-0.7036,-0.0049,69.09,18.96,14.88
347,589568297,0.7334,-0.7085,-0.0093,67.68,19.94,14.33
348,589573296,0.6479,-0.7246,0.0332,66.52,21.71,13.54
349,589578296,0.6216,-0.7378,0.0195,66.16,23.60,12.68
350,589583296,0.6387,-0.7539,-0.0273,66.52,24.57,12.13
351,589588296,0.6284,-0.8027,-0.0181,67.56,25.79,11.40
352,589593296,0.6611,-0.8120,-0.0098,69.45,27.26,10.79
353,589598295,0.6294,-0.8174,-0.0132,71.04,28.23,10.30
354,589603294,0.5923,-0.8242,-0.0234,73.23,29.21,9.63
355,589608294,0.5576,-0.8169,-0.0088,75.37,30.37,8.78
356,589613294,0.5200,-0.8027,-0.0049,77.62,31.59,7.68
357,589618294,0.5269,-0.7793,-0.0229,79.82,32.68,6.40
358,589623294,0.5098,-0.7324,-0.0420,81.95,33.54,4.63
359,589628294,0.4482,-0.6909,-0.0659,84.21,34.63,2.44
360,589633294,0.4873,-0.6943,-0.0923,86.52,35.06,-0.12
361,589638294,0.5161,-0.6934,-0.0913,89.15,35.30,-2.38
362,589643294,0.5244,-0.6753,-0.0791,91.77,35.37,-4.57
363,589648294,0.5020,-0.6890,-0.0557,94.33,35.49,-6.52
364,589653294,0.4683,-0.7153,-0.0605,96.65,35.67,-8.35
365,589658294,0.4570,-0.7534,-0.0723,98.90,35.49,-9.57
366,589663294,0.4146,-0.7773,-0.0835,101.10,35.00,-10.24
367,589668294,0.3682,-0.7925,-0.1123,102.68,34.27,-10.55
368,589673294,0.3301,-0.8286,-0.1641,103.54,32.87,-9.88
369,589678294,0.2383,-0.8569,-0.2124,103.60,30.73,-8.66
370,589683294,0.1719,-0.8765,-0.2588,102.74,28.17,-6.52
371,589688294,0.1812,-0.8481,-0.3047,100.73,25.00,-4.15
372,589693294,0.1880,-0.8037,-0.3374,97.44,21.46,-1.83
373,589698294,0.1250,-0.8301,-0.3369,92.99,17.93,0.73
374,589703294,0.0913,-0.8574,-0.3052,87.32,14.57,3.60
375,589708295,0.1934,-0.8345,-0.2837,80.12,11.95,7.20
376,589713298,0.3745,-0.7725,-0.2505,71.65,10.30,10.30
377,589718294,0.5039,-0.7295,-0.1953,61.46,9.51,12.93
378,589723294,0.5439,-0.7358,-0.0967,49.88,10.00,14.82
379,589728294,0.5610,-0.7476,-0.0469,37.13,12.26,16.46
380,589733294,0.5654,-0.7397,0.0088,23.23,15.85,17.44
381,589738294,0.5151,-0.7651,0.0117,8.41,20.24,17.80
382,589743530,0.4971,-0.8154,-0.0391,-9.88,25.37,17.68
383,589748295,0.4917,-0.8350,-0.0767,-21.95,28.72,17.20
384,589753296,0.4478,-0.8540,-0.0933,-35.91,32.26,16.52
385,589758296,0.4775,-0.8628,-0.0884,-48.11,35.85,15.37
386,589763407,0.4951,-0.8823,-0.1055,-59.45,39.94,13.66
387,589768623,0.4888,-0.9097,-0.1113,-66.65,43.29,12.20
388,589773296,0.4160,-0.9453,-0.1440,-72.32,45.98,10.61
389,589778298,0.3735,-0.9697,-0.1748,-76.83,48.78,9.33
390,589783296,0.3428,-0.9819,-0.1777,-80.61,51.10,8.35
391,589788296,0.3564,-1.0117,-0.1855,-83.90,53.29,7.74
392,589793505,0.3911,-1.0352,-0.2046,-86.71,55.06,7.38
393,589798322,0.3867,-1.0464,-0.2163,-88.66,56.34,7.50
394,589803297,0.4224,-1.0269,-0.2095,-89.94,57.26,7.68
395,589808334,0.4048,-1.0166,-0.2412,-90.18,57.62,8.17
396,589813763,0.3960,-0.9980,-0.2793,-88.96,57.32,8.78
397,589818296,0.4102,-0.9463,-0.2671,-86.59,56.34,9.45
398,589823296,0.4297,-0.9097,-0.2661,-83.35,55.00,10.06
399,589828296,0.4497,-0.8770,-0.2720,-79.57,53.35,10.61
400,589833295,0.4507,-0.8657,-0.2817,-75.85,50.79,11.59
401,589838548,0.4912,-0.8232,-0.2417,-72.20,48.48,12.38
402,589843296,0.5278,-0.8062,-0.2002,-68.23,45.98,12.87
403,589848297,0.5469,-0.7866,-0.2056,-64.27,43.84,13.11
404,589853296,0.5371,-0.7583,-0.2085,-60.24,41.16,13.11
405,589858624,0.5571,-0.7217,-0.1919,-56.10,38.84,13.05
406,589863296,0.5488,-0.6904,-0.1670,-51.95,36.77,12.68
407,589868296,0.5337,-0.6904,-0.1748,-47.56,34.39,11.95
408,589873296,0.5630,-0.6743,-0.1675,-43.66,32.38,11.34
409,589878296,0.5347,-0.6802,-0.1450,-39.82,30.61,10.43
410,589883677,0.5410,-0.6816,-0.1313,-36.34,29.21,9.70
411,589888296,0.5049,-0.7056,-0.1431,-33.17,27.56,8.84
412,589893296,0.5000,-0.7173,-0.1382,-30.61,26.34,8.48
413,589898296,0.4692,-0.7461,-0.1182,-28.78,25.24,8.17
414,589903295,0.4604,-0.7646,-0.1035,-27.44,24.33,8.23
415,589908294,0.4551,-0.7988,-0.1162,-26.46,23.29,8.35
416,589913296,0.3672,-0.8184,-0.1001,-25.73,22.50,8.78
417,589918296,0.2729,-0.8359,-0.0942,-24.51,21.83,9.02
418,589923296,0.2324,-0.9072,-0.0957,-23.35,21.28,9.94
419,589928296,0.2900,-0.9282,-0.0498,-21.71,20.79,10.73
420,589933296,0.2148,-0.9507,-0.0039,-19.33,20.73,11.65
421,589938296,0.1138,-0.9639,0.0190,-15.67,20.91,12.62
422,589943296,0.0459,-0.9912,0.0312,-10.98,21.04,13.35
423,589948695,0.0718,-1.0229,0.0679,-5.00,21.16,14.51
424,589953296,0.1406,-1.0435,0.0967,1.59,21.22,15.61
425,589958296,0.1606,-1.0781,0.0938,7.99,20.98,16.77
426,589963295,0.1021,-1.1567,0.0479,13.29,19.94,18.72
427,589968297,0.1592,-1.0132,0.1392,17.44,18.96,20.49
428,589973294,0.2500,-0.9673,0.0840,20.61,18.29,20.85
429,589978294,0.3149,-0.9751,-0.0049,22.26,17.13,20.85
430,589983294,0.3579,-0.9800,-0.0332,22.32,16.22,20.67
431,589988294,0.3677,-1.0059,-0.0605,21.04,15.18,20.24
432,589993294,0.3911,-1.0254,-0.1226,18.84,14.27,19.76
433,589998294,0.4175,-1.0312,-0.1602,15.73,13.35,18.96
434,590003294,0.4609,-1.0166,-0.1772,11.65,12.13,17.87
435,590008297,0.4946,-0.9966,-0.2090,7.01,11.46,16.46
436,590013298,0.5063,-0.9985,-0.2642,1.95,10.55,14.88
437,590018295,0.4795,-1.0039,-0.2749,-3.41,9.94,13.23
438,590023296,0.5063,-0.9741,-0.3149,-10.12,9.45,11.16
439,590028296,0.5117,-0.9810,-0.3418,-14.94,9.51,9.45
440,590033296,0.5332,-0.9761,-0.3843,-21.34,9.27,7.07
441,590038296,0.5015,-0.9966,-0.3882,-27.99,9.88,4.82
442,590043759,0.4917,-1.0103,-0.3887,-36.04,10.98,1.71
443,590048296,0.4575,-1.0259,-0.4189,-40.98,12.07,-0.30
444,590053297,0.4570,-1.0391,-0.4102,-46.28,13.72,-2.93
445,590058296,0.4780,-1.0469,-0.4180,-51.16,16.04,-6.04
446,590063296,0.4648,-1.0591,-0.4316,-53.29,17.99,-7.93
447,590068296,0.4429,-1.0752,-0.4395,-54.82,20.37,-10.67
448,590073296,0.4399,-1.0718,-0.4531,-55.00,23.35,-13.72
449,590078296,0.4497,-1.0693,-0.4521,-54.57,25.49,-15.79
450,590083297,0.4609,-1.0601,-0.4746,-53.05,28.29,-18.23
451,590088296,0.4600,-1.0493,-0.4883,-51.04,30.98,-20.79
452,590093296,0.4360,-1.0493,-0.4976,-48.05,34.63,-23.72
453,590098296,0.4556,-1.0420,-0.5029,-46.04,36.95,-25.55
454,590103296,0.4561,-1.0391,-0.5127,-42.93,39.88,-27.74
455,590108296,0.4785,-1.0332,-0.5132,-39.88,43.17,-29.82
456,590113322,0.4722,-1.0259,-0.5083,-36.83,46.22,-32.13
457,590118794,0.4956,-1.0117,-0.5034,-33.05,50.24,-34.33
458,590123296,0.4834,-1.0063,-0.5127,-30.55,52.93,-36.04
459,590128296,0.4722,-1.0010,-0.5049,-27.68,56.16,-37.99
460,590133296,0.4907,-0.9722,-0.4946,-25.37,59.76,-39.94
461,590138296,0.4634,-0.9624,-0.4873,-23.35,63.05,-41.83
462,590143295,0.4785,-0.9429,-0.4844,-21.95,66.46,-43.54
463,590148770,0.4619,-0.9277,-0.4648,-20.91,70.37,-45.61
464,590153296,0.4795,-0.9102,-0.4512,-20.55,73.11,-46.89
465,590158295,0.4556,-0.9023,-0.4341,-20.49,76.52,-48.17
466,590163296,0.4409,-0.8926,-0.4287,-20.67,79.57,-49.45
467,590168296,0.4497,-0.8740,-0.4077,-21.10,83.11,-50.67
468,590173298,0.4409,-0.8696,-0.3989,-21.77,86.28,-51.71
469,590178296,0.4478,-0.8496,-0.3755,-22.56,89.09,-52.68
470,590183296,0.4292,-0.8389,-0.3579,-23.35,92.13,-53.54
471,590188296,0.4238,-0.8174,-0.3374,-24.15,95.24,-54.15
472,590193295,0.4038,-0.8105,-0.3286,-24.76,98.17,-54.70
473,590198294,0.4175,-0.7964,-0.3135,-25.00,100.49,-55.12
474,590203294,0.3940,-0.7949,-0.2837,-25.12,103.96,-55.43
475,590208294,0.3643,-0.7847,-0.2773,-25.24,106.83,-55.55
476,590213294,0.3950,-0.7651,-0.2744,-25.18,109.33,-55.67
477,590218807,0.3887,-0.7505,-0.2524,-25.12,111.89,-55.61
478,590223297,0.3916,-0.7422,-0.2227,-24.70,114.39,-55.49
479,590228296,0.3735,-0.7280,-0.2070,-24.33,116.95,-55.12
480,590233300,0.3628,-0.7100,-0.1982,-23.54,119.27,-54.82
481,590238296,0.3438,-0.7026,-0.1606,-22.56,121.59,-54.39
482,590243295,0.3516,-0.6909,-0.1533,-21.34,123.96,-53.96
483,590248684,0.3345,-0.6934,-0.1382,-19.88,126.10,-53.41
484,590253296,0.3208,-0.6777,-0.1265,-18.41,128.05,-52.87
485,590258295,0.3149,-0.6743,-0.0938,-17.01,130.06,-52.13
486,590263635,0.3252,-0.6499,-0.0762,-15.67,131.65,-51.28
487,590268296,0.3003,-0.6479,-0.0669,-14.45,133.41,-50.24
488,590273297,0.3154,-0.6367,-0.0410,-13.17,135.18,-49.21
489,590278296,0.2935,-0.6279,-0.0151,-11.89,136.65,-48.05
490,590283294,0.3154,-0.6108,0.0029,-10.91,138.11,-46.83
491,590288294,0.2969,-0.6108,0.0210,-9.88,139.45,-45.18
492,590293294,0.3115,-0.5977,0.0430,-9.02,140.73,-43.78
493,590298294,0.3154,-0.5967,0.0659,-8.05,141.89,-42.20
494,590303631,0.2998,-0.5918,0.0801,-7.44,142.93,-40.37
495,590308295,0.2964,-0.5864,0.1011,-6.77,143.90,-38.35
496,590313708,0.3140,-0.5796,0.1187,-6.28,144.94,-36.22
497,590318296,0.3091,-0.5796,0.1401,-5.79,145.79,-33.96
498,590323592,0.3027,-0.5737,0.1582,-5.49,146.65,-31.46
499,590328437,0.2920,-0.5654,0.1860,-4.94,147.38,-28.96
500,590333296,0.2979,-0.5557,0.1973,-4.39,148.11,-26.34
501,590338296,0.2861,-0.5518,0.2217,-3.84,148.90,-23.60
502,590343296,0.3037,-0.5405,0.2383,-3.29,149.70,-20.73
503,590348296,0.2988,-0.5386,0.2554,-2.44,150.18,-17.80
504,590353344,0.3013,-0.5273,0.2725,-1.71,151.10,-14.88
505,590358296,0.2979,-0.5254,0.2949,-0.98,151.89,-11.89
506,590363294,0.2866,-0.5161,0.3105,-0.12,152.62,-8.78
507,590368296,0.2910,-0.5083,0.3364,0.43,153.54,-5.79
508,590373296,0.2920,-0.4990,0.3413,0.79,154.39,-2.68
509,590378297,0.2759,-0.4897,0.3594,1.10,155.30,0.49
510,590383296,0.2729,-0.4863,0.3813,1.40,156.52,3.48
511,590388298,0.2656,-0.4697,0.4072,1.59,157.68,6.71
512,590393296,0.2471,-0.4722,0.4141,1.71,158.84,9.88
513,590398295,0.2661,-0.4604,0.4307,1.77,160.18,12.93
514,590403294,0.2456,-0.4575,0.4580,1.71,161.77,16.22
515,590408294,0.2173,-0.4722,0.4922,1.65,163.29,19.57
516,590413294,0.2563,-0.4287,0.4805,1.77,164.88,22.80
517,590418294,0.2129,-0.4507,0.5000,1.65,166.34,26.16
518,590423299,0.2007,-0.4614,0.5269,1.77,168.60,30.37
519,590428298,0.2085,-0.4546,0.5381,2.01,170.18,33.48
520,590433296,0.1777,-0.4575,0.5508,2.32,172.13,37.32
521,590438296,0.1680,-0.4653,0.5576,2.38,174.51,41.95
522,590443296,0.1499,-0.4814,0.5757,2.20,176.22,45.24
523,590448296,0.1440,-0.4937,0.5962,1.65,178.23,49.70
524,590453296,0.1479,-0.5176,0.6255,0.79,180.37,54.21
525,590458400,0.1177,-0.5420,0.6602,-0.55,182.50,59.09
526,590463296,0.0903,-0.5420,0.6919,-2.26,184.82,63.84
527,590468294,0.1035,-0.5078,0.7148,-4.51,187.20,69.63
528,590473296,0.0332,-0.4937,0.7212,-6.04,188.54,73.23
529,590478296,0.0010,-0.5054,0.7939,-8.11,190.37,78.11
530,590483297,0.0039,-0.5112,0.8438,-10.06,191.95,82.68
531,590488296,0.0044,-0.5366,0.8677,-11.89,193.23,87.93
532,590493297,-0.0293,-0.5371,0.9385,-13.54,194.15,91.83
533,590498300,-0.1323,-0.5586,0.9785,-14.09,194.51,97.13
534,590503296,-0.1689,-0.5781,1.0239,-13.23,194.02,100.73
535,590508296,-0.1392,-0.6025,1.1216,-10.98,192.80,105.12
536,590513375,-0.1802,-0.6387,1.2163,-6.89,191.04,110.37
537,590518488,-0.2520,-0.6572,1.3301,-1.89,188.78,114.70
538,590523296,-0.2627,-0.6958,1.3833,2.80,186.52,118.05
539,590528400,-0.3120,-0.7485,1.4424,10.06,182.32,122.32
540,590533299,-0.3667,-0.7905,1.5459,21.10,175.91,127.26
541,590538296,-0.3716,-0.8140,1.6543,29.76,170.85,130.55
542,590543296,-0.4082,-0.8696,1.7119,41.89,163.35,134.33
543,590548295,-0.4282,-0.9189,1.8057,55.49,154.33,138.05
544,590553296,-0.4346,-0.9663,1.9346,69.45,144.70,141.40
545,590558299,-0.4727,-1.0049,2.0537,86.40,131.34,145.24
546,590563296,-0.4658,-1.0151,2.1079,99.94,118.41,148.11
547,590568296,-0.4746,-1.0352,2.2412,110.00,107.32,150.24
548,590573296,-0.4873,-1.0605,2.3428,120.73,92.50,152.74
549,590578295,-0.4849,-1.0796,2.4170,129.02,76.10,155.00
550,590583298,-0.5186,-1.1157,2.5464,132.74,58.05,157.20
551,590588294,-0.5898,-1.1416,2.6460,134.88,39.09,159.70
552,590593294,-0.6055,-1.1538,2.7119,134.63,18.54,161.95
553,590598295,-0.6069,-1.1685,2.7949,132.50,-3.35,164.33
554,590603296,-0.6699,-1.1904,2.9092,128.78,-30.73,167.13
555,590608296,-0.7095,-1.2173,3.0146,123.48,-54.39,169.39
556,590613296,-0.7549,-1.2363,3.0791,118.54,-78.90,171.52
557,590618295,-0.7788,-1.2378,3.1040,113.84,-104.27,173.48
558,590623294,-0.8223,-1.2363,3.1523,110.67,-124.94,174.94
559,590628294,-0.8755,-1.2432,3.1938,107.01,-156.71,176.77
560,590633294,-0.9673,-1.2446,3.1753,105.00,-183.48,178.05
561,590638294,-1.0068,-1.2607,3.1802,104.27,-211.10,179.27
562,590643294,-1.0630,-1.2837,3.1875,105.24,-238.72,180.37
563,590648294,-1.0996,-1.3223,3.1543,107.87,-266.34,181.65
564,590653294,-1.1821,-1.3530,3.1108,112.13,-294.02,183.05
565,590658295,-1.2710,-1.3926,3.0796,117.32,-321.16,184.63
566,590663294,-1.3638,-1.4136,3.0195,122.68,-347.80,186.22
567,590668294,-1.4365,-1.4619,2.9639,127.44,-373.96,187.80
568,590673294,-1.5845,-1.4858,2.8936,132.50,-399.15,189.63
569,590678294,-1.6353,-1.5229,2.8125,136.46,-423.23,191.40
570,590683294,-1.6748,-1.5625,2.7188,139.76,-446.59,193.35
571,590688294,-1.7266,-1.6147,2.5732,142.62,-469.02,195.43
572,590693294,-1.7563,-1.6465,2.4282,145.49,-490.73,197.68
573,590698294,-1.8164,-1.6924,2.2856,147.93,-511.22,199.88
574,590703294,-1.8394,-1.7368,2.1128,149.33,-530.61,202.13
575,590708294,-1.8999,-1.7998,1.9111,150.00,-549.09,204.39
576,590713294,-1.9229,-1.8740,1.6870,149.45,-566.34,206.40
577,590718294,-1.9390,-1.9526,1.4736,147.32,-582.20,208.11
578,590723294,-1.9761,-2.0288,1.2368,143.05,-596.40,208.90
579,590728294,-2.0010,-2.0771,1.0049,135.67,-608.90,208.41
580,590733294,-2.0317,-2.1108,0.7905,125.24,-619.45,206.34
581,590738364,-2.0894,-2.1377,0.5273,111.04,-627.80,202.07
582,590743299,-2.1113,-2.1372,0.2788,93.60,-633.17,194.88
583,590748296,-2.1011,-2.0972,0.0942,72.20,-633.90,184.27
584,590753295,-2.0381,-2.0684,-0.1431,47.56,-628.35,168.90
585,590758296,-1.9893,-2.1543,-0.5659,19.94,-618.05,149.82
586,590763299,-1.9482,-2.2944,-1.0693,-9.76,-606.22,129.15
587,590768296,-1.8965,-2.3701,-1.3887,-40.30,-593.29,108.48
588,590773296,-1.8516,-2.3027,-1.6504,-69.94,-577.74,87.07
589,590778296,-1.8076,-2.1929,-1.9561,-97.38,-558.96,64.02
590,590783296,-1.7725,-2.1182,-2.2393,-120.73,-537.07,39.88
591,590788296,-1.6841,-2.0737,-2.4028,-139.21,-512.01,15.49
592,590793297,-1.6167,-2.0342,-2.5269,-152.56,-484.09,-7.68
593,590798295,-1.4985,-1.9541,-2.6880,-160.98,-453.84,-29.27
594,590803451,-1.4189,-1.8613,-2.8081,-164.21,-421.89,-49.02
595,590808665,-1.3413,-1.7656,-2.8516,-162.20,-388.48,-66.46
596,590813296,-1.1870,-1.6621,-2.8989,-153.96,-354.27,-81.16
597,590818646,-1.0132,-1.5703,-2.9062,-139.63,-319.70,-93.29
598,590823296,-0.8794,-1.4907,-2.8853,-119.51,-285.30,-102.13
599,590828296,-0.7515,-1.4121,-2.8433,-94.27,-252.01,-107.93
600,590833565,-0.6396,-1.3057,-2.8042,-63.72,-220.55,-111.10
601,590838346,-0.4966,-1.1992,-2.7212,-30.18,-190.79,-112.26
602,590843357,-0.4116,-1.1079,-2.6123,4.63,-163.17,-111.28
603,590848630,-0.3174,-1.0200,-2.4971,38.41,-137.68,-108.96
604,590853296,-0.2427,-0.9399,-2.3774,68.96,-114.33,-105.85
605,590858296,-0.1846,-0.8745,-2.2524,94.82,-93.05,-102.32
606,590863296,-0.1299,-0.8242,-2.1172,114.76,-73.60,-98.60
607,590868296,-0.0854,-0.7798,-1.9795,127.99,-55.85,-95.06
608,590873296,-0.0498,-0.7432,-1.8452,133.72,-39.88,-91.89
609,590878296,-0.0220,-0.7114,-1.7129,134.09,-25.43,-89.09
610,590883295,0.0088,-0.6802,-1.5742,129.45,-12.44,-87.07
611,590888294,0.0454,-0.6587,-1.4531,121.59,-0.91,-84.94
612,590893295,0.0859,-0.6333,-1.3154,110.37,9.45,-83.11
613,590898294,0.1294,-0.6123,-1.1831,97.80,18.41,-81.46
614,590903294,0.1416,-0.6025,-1.0718,84.51,26.34,-79.76
615,590908294,0.1548,-0.5835,-0.9653,71.59,32.50,-77.99
616,590913996,0.1841,-0.5557,-0.8438,57.26,38.60,-75.55
617,590918375,0.2134,-0.5381,-0.7661,48.78,41.59,-73.66
618,590923295,0.2310,-0.5269,-0.6719,39.94,44.63,-71.16
619,590928716,0.2666,-0.5024,-0.5708,31.95,47.32,-67.62
620,590933296,0.2910,-0.4844,-0.5068,28.11,48.41,-64.94
621,590938296,0.3232,-0.4702,-0.4609,25.30,49.21,-61.22
622,590943296,0.3330,-0.4634,-0.4009,24.09,49.21,-56.16
623,590948296,0.3672,-0.4644,-0.3618,24.63,48.78,-52.32
624,590953296,0.3770,-0.4653,-0.3262,26.04,47.93,-47.44
625,590958296,0.4028,-0.4575,-0.2686,28.17,46.40,-41.16
626,590963296,0.4136,-0.4546,-0.2261,29.39,45.18,-37.01
627,590968296,0.4414,-0.4604,-0.1899,30.61,43.54,-31.52
628,590973296,0.4424,-0.4746,-0.1567,31.16,41.71,-26.10
629,590978296,0.4536,-0.4839,-0.1279,31.10,39.88,-20.67
630,590983732,0.4814,-0.4995,-0.0928,29.94,37.26,-14.45
631,590988296,0.4736,-0.5166,-0.0728,28.54,35.67,-10.30
632,590993296,0.4858,-0.5361,-0.0435,25.79,33.48,-5.37
633,590998296,0.4990,-0.5537,-0.0308,21.83,31.16,-0.73
634,591003297,0.4888,-0.5840,-0.0122,16.71,28.90,3.72
635,591008296,0.4961,-0.5981,0.0039,10.37,26.83,7.93
636,591013750,0.5146,-0.6191,0.0176,1.83,24.21,12.62
637,591018296,0.4985,-0.6279,0.0166,-4.21,22.68,15.43
638,591023296,0.5205,-0.6343,0.0205,-11.95,20.67,18.78
639,591028296,0.5068,-0.6465,0.0264,-20.37,18.72,22.26
640,591033296,0.5103,-0.6548,0.0249,-26.04,17.01,24.94
641,591038296,0.5400,-0.6694,0.0195,-30.43,15.49,27.38
642,591043296,0.5405,-0.6812,0.0269,-33.41,13.84,29.63
643,591048610,0.5435,-0.7061,0.0166,-34.76,12.20,31.83
644,591053296,0.5664,-0.7158,0.0220,-35.12,10.49,33.72
645,591058296,0.5557,-0.7354,0.0171,-34.70,8.84,35.67
646,591063296,0.5649,-0.7559,0.0073,-33.29,7.32,37.32
647,591068296,0.5903,-0.7627,0.0186,-31.52,5.79,38.78
648,591073296,0.5693,-0.7852,0.0122,-29.27,4.39,40.18
649,591078296,0.5811,-0.8008,0.0146,-27.07,3.23,41.34
650,591083727,0.5947,-0.8213,0.0059,-24.70,2.20,42.20
651,591088296,0.6021,-0.8345,0.0024,-22.62,1.22,42.93
652,591093296,0.5903,-0.8521,0.0044,-20.79,0.55,43.48
653,591098296,0.6089,-0.8594,-0.0112,-19.39,0.00,43.84
654,591103295,0.6035,-0.8770,-0.0195,-18.35,-0.79,44.09
655,591108294,0.5947,-0.8848,-0.0220,-17.93,-1.34,44.02
656,591113323,0.6099,-0.8896,-0.0283,-17.80,-1.77,43.84
657,591118295,0.6079,-0.9072,-0.0327,-18.11,-2.20,43.41
658,591123483,0.5923,-0.9067,-0.0332,-18.66,-2.56,43.11
659,591128294,0.6001,-0.9185,-0.0376,-19.63,-2.74,42.56
660,591133296,0.5869,-0.9238,-0.0439,-20.73,-3.23,41.95
661,591138296,0.5884,-0.9263,-0.0542,-22.20,-3.41,41.34
662,591143296,0.5723,-0.9312,-0.0562,-23.60,-3.78,40.49
663,591148296,0.5688,-0.9292,-0.0615,-25.30,-4.21,39.57
664,591153296,0.5537,-0.9360,-0.0669,-26.83,-4.39,38.72
665,591158296,0.5566,-0.9316,-0.0718,-28.23,-4.70,37.87
666,591163296,0.5425,-0.9341,-0.0796,-29.27,-5.06,36.95
667,591168296,0.5269,-0.9409,-0.0864,-29.94,-5.43,36.04
668,591173296,0.5195,-0.9385,-0.0894,-30.06,-5.55,35.06
669,591178294,0.5190,-0.9385,-0.0908,-29.57,-5.98,34.09
670,591183294,0.5132,-0.9355,-0.0933,-28.90,-6.10,33.17
671,591188297,0.5127,-0.9395,-0.0898,-27.99,-6.10,32.32
672,591193295,0.4966,-0.9434,-0.0903,-26.65,-6.16,31.59
673,591198406,0.4883,-0.9404,-0.0854,-25.06,-6.22,30.85
674,591203296,0.4941,-0.9414,-0.0820,-23.17,-6.16,30.18
675,591208297,0.4761,-0.9380,-0.0820,-21.40,-6.16,29.70
676,591213294,0.4717,-0.9482,-0.0742,-19.57,-6.16,29.33
677,591218296,0.4800,-0.9429,-0.0684,-17.74,-5.91,29.09
678,591223295,0.4731,-0.9438,-0.0728,-16.28,-5.67,28.90
679,591228295,0.4561,-0.9429,-0.0703,-14.88,-5.43,28.90
680,591233488,0.4541,-0.9370,-0.0640,-13.84,-5.00,28.90
681,591238708,0.4570,-0.9351,-0.0615,-12.80,-4.76,28.78
682,591243296,0.4497,-0.9272,-0.0596,-12.07,-4.15,28.78
683,591248296,0.4307,-0.9233,-0.0581,-11.65,-3.78,28.84
684,591253296,0.4268,-0.9165,-0.0630,-11.22,-2.99,28.78
685,591258296,0.4224,-0.9087,-0.0649,-11.16,-2.62,28.66
686,591263296,0.4199,-0.9019,-0.0679,-11.16,-2.07,28.72
687,591268296,0.4072,-0.8955,-0.0596,-11.52,-1.34,28.66
688,591273296,0.4058,-0.8916,-0.0596,-11.59,-0.91,28.72
689,591278296,0.3999,-0.8916,-0.0703,-12.13,-0.37,28.84
690,591283296,0.3945,-0.8926,-0.0601,-12.32,0.24,29.15
691,591288296,0.4126,-0.8965,-0.0488,-12.56,0.85,29.45
692,591293296,0.4043,-0.8887,-0.0581,-12.62,1.52,29.94
693,591298747,0.3936,-0.8809,-0.0303,-12.01,2.44,30.73
694,591303295,0.3750,-0.8687,-0.0381,-11.52,3.11,31.28
695,591308294,0.3901,-0.8574,-0.0278,-10.43,3.90,31.77
696,591313294,0.3882,-0.8555,-0.0254,-9.63,4.39,32.44
697,591318294,0.3818,-0.8564,-0.0239,-8.96,5.06,33.23
698,591323294,0.3765,-0.8550,-0.0298,-7.93,5.61,33.96
699,591328294,0.3652,-0.8442,-0.0234,-6.95,6.34,34.76
700,591333298,0.3828,-0.8335,-0.0181,-5.30,7.01,35.55
701,591338296,0.3735,-0.8345,-0.0132,-3.17,7.74,36.40
702,591343299,0.3467,-0.8403,-0.0176,-0.37,8.60,37.50
703,591348296,0.3418,-0.8301,-0.0049,1.89,9.15,38.41
704,591353584,0.2920,-0.8315,-0.0132,5.49,9.88,39.82
705,591358298,0.3203,-0.8267,0.0112,7.87,10.49,40.61
706,591363295,0.3125,-0.8345,0.0146,11.77,11.10,42.32
707,591368296,0.3413,-0.8843,0.0122,14.09,11.59,43.35
708,591373296,0.2559,-0.9302,-0.0737,14.33,12.20,44.70
709,591378654,0.2524,-0.8799,-0.0591,11.34,12.74,46.04
710,591383296,0.3408,-0.8799,-0.0708,9.15,13.41,46.59
711,591388296,0.4004,-0.8721,-0.0811,5.98,14.33,47.13
712,591393296,0.3940,-0.8589,-0.0645,2.50,15.30,47.50
713,591398296,0.3296,-0.8540,-0.0654,-0.43,15.98,47.68
714,591403299,0.3047,-0.8374,-0.0664,-3.48,16.83,47.99
715,591408296,0.2900,-0.8325,-0.0542,-5.24,17.44,47.99
716,591413758,0.2935,-0.8042,-0.0532,-7.50,18.17,48.23
717,591418296,0.2715,-0.7920,-0.0547,-8.66,18.66,48.23
718,591423296,0.2661,-0.7764,-0.0625,-10.06,19.15,48.29
719,591428296,0.2744,-0.7598,-0.0708,-11.28,19.76,48.29
720,591433296,0.2441,-0.7612,-0.0674,-12.32,20.24,48.35
721,591438297,0.2559,-0.7549,-0.0698,-13.11,20.79,48.54
722,591443296,0.2358,-0.7632,-0.0845,-13.96,21.46,48.66
723,591448296,0.2510,-0.7534,-0.0854,-14.70,21.95,48.72
724,591453296,0.2407,-0.7510,-0.0850,-15.49,22.74,48.90
725,591458697,0.2451,-0.7510,-0.0845,-16.65,23.29,49.02
726,591463296,0.2646,-0.7368,-0.0991,-17.38,23.78,48.96
727,591468295,0.2378,-0.7422,-0.0977,-19.15,24.45,49.21
728,591473296,0.2612,-0.7334,-0.0947,-20.79,24.94,49.39
729,591478294,0.2451,-0.7285,-0.0957,-22.68,25.61,49.33
730,591483295,0.2358,-0.7339,-0.0952,-24.94,26.28,49.45
731,591488294,0.2500,-0.7388,-0.0913,-27.50,27.07,49.57
732,591493294,0.2285,-0.7451,-0.0869,-30.30,27.80,49.39
733,591498294,0.2510,-0.7363,-0.0859,-33.41,28.60,49.39
734,591503297,0.2188,-0.7422,-0.0903,-36.89,29.45,49.27
735,591508296,0.2319,-0.7324,-0.0815,-40.67,30.43,49.33
736,591513296,0.2236,-0.7363,-0.0835,-44.76,31.10,49.21
737,591518296,0.2261,-0.7300,-0.0771,-48.84,31.95,49.27
738,591523295,0.2251,-0.7275,-0.0723,-53.35,32.74,49.39
739,591528294,0.2324,-0.7275,-0.0664,-58.17,33.54,49.57
740,591533294,0.2461,-0.7246,-0.0664,-62.99,34.21,49.76
741,591538294,0.2456,-0.7349,-0.0645,-68.29,34.88,50.18
742,591543294,0.2451,-0.7388,-0.0728,-73.72,35.49,50.55
743,591548294,0.2368,-0.7554,-0.0684,-79.27,36.10,51.40
744,591553296,0.2280,-0.7637,-0.0649,-85.18,36.59,52.13
745,591558646,0.2217,-0.7676,-0.0679,-91.16,37.20,53.23
746,591563296,0.2217,-0.7856,-0.0625,-97.26,37.62,54.45
747,591568296,0.2036,-0.8032,-0.0601,-103.35,38.35,55.98
748,591573296,0.1997,-0.8120,-0.0596,-109.39,38.84,57.50
749,591578296,0.1963,-0.8193,-0.0659,-115.06,39.33,59.33
750,591583296,0.2041,-0.8232,-0.0630,-120.49,39.88,61.34
751,591588296,0.1929,-0.8325,-0.0586,-125.43,40.55,63.48
752,591593296,0.1895,-0.8364,-0.0703,-129.76,41.16,65.55
753,591598296,0.1826,-0.8428,-0.0757,-133.66,41.59,67.74
754,591603296,0.1777,-0.8364,-0.0737,-136.83,42.26,70.18
755,591608296,0.1758,-0.8354,-0.0747,-139.45,42.80,72.32
756,591613319,0.1675,-0.8354,-0.0864,-141.28,43.41,74.39
757,591618297,0.1445,-0.8354,-0.0854,-142.50,43.78,76.59
758,591623296,0.1426,-0.8267,-0.0811,-143.11,44.45,78.78
759,591628296,0.1426,-0.8267,-0.0947,-143.11,44.82,80.79
760,591633706,0.1216,-0.8252,-0.1011,-142.50,45.37,82.80
761,591638296,0.1123,-0.8242,-0.1084,-141.28,45.85,84.57
762,591643296,0.1040,-0.8159,-0.1060,-139.88,46.28,86.95
763,591648764,0.0991,-0.8130,-0.1099,-137.80,46.65,87.56
764,591653296,0.0732,-0.8140,-0.1143,-135.73,47.07,90.00
765,591658297,0.0723,-0.8066,-0.1206,-133.35,47.50,92.07
766,591663296,0.0596,-0.8013,-0.1235,-130.85,47.99,93.96
767,591668296,0.0645,-0.7925,-0.1245,-128.23,48.41,95.85
768,591673296,0.0405,-0.7935,-0.1206,-125.55,48.90,97.68
769,591678296,0.0391,-0.7979,-0.1211,-123.17,49.15,99.63
770,591683294,0.0249,-0.8008,-0.1221,-120.98,49.39,101.71
771,591688296,0.0269,-0.7954,-0.1240,-119.15,49.82,103.72
772,591693297,0.0117,-0.7983,-0.1279,-117.38,50.12,106.04
773,591698294,-0.0039,-0.7949,-0.1216,-116.04,50.30,108.17
774,591703294,-0.0063,-0.7881,-0.1245,-114.82,50.79,110.43
775,591708294,-0.0078,-0.7832,-0.1250,-113.84,50.79,112.74
776,591713510,-0.0083,-0.7773,-0.1211,-113.05,51.28,115.00
777,591718294,-0.0376,-0.7837,-0.1191,-112.62,51.59,117.38
778,591723294,-0.0439,-0.7817,-0.1201,-112.32,51.89,119.70
779,591728294,-0.0439,-0.7808,-0.1191,-112.38,52.26,122.13
780,591733295,-0.0474,-0.7773,-0.1216,-112.56,52.44,124.57
781,591738294,-0.0635,-0.7783,-0.1211,-113.17,52.50,127.13
782,591743294,-0.0801,-0.7734,-0.1221,-113.96,52.62,129.45
783,591748294,-0.0815,-0.7690,-0.1157,-114.63,52.74,132.07
784,591753294,-0.0815,-0.7695,-0.1104,-115.43,52.56,134.39
785,591758294,-0.0845,-0.7598,-0.1177,-115.98,52.44,136.71
786,591763294,-0.0859,-0.7578,-0.1313,-116.40,52.26,139.09
787,591768294,-0.1143,-0.7656,-0.1240,-116.71,51.83,141.46
788,591773294,-0.1089,-0.7617,-0.1323,-116.71,51.22,143.72
789,591778294,-0.1455,-0.7686,-0.1353,-116.52,50.49,146.16
790,591783294,-0.1299,-0.7651,-0.1440,-116.04,49.63,148.60
791,591788294,-0.1484,-0.7871,-0.1489,-115.55,48.66,151.28
792,591793294,-0.1709,-0.8091,-0.1602,-114.94,47.44,154.15
793,591798294,-0.1787,-0.8213,-0.1660,-114.39,45.85,157.20
794,591803297,-0.1797,-0.8345,-0.1670,-113.78,44.45,160.43
795,591808353,-0.1865,-0.8369,-0.1675,-113.11,42.93,163.78
796,591813296,-0.2144,-0.8521,-0.1709,-112.26,41.28,167.20
797,591818296,-0.2266,-0.8589,-0.1851,-111.04,39.45,171.34
798,591823296,-0.2285,-0.8608,-0.1816,-109.88,38.05,174.09
799,591828296,-0.2559,-0.8682,-0.1958,-108.23,36.28,177.56
800,591833296,-0.2603,-0.8662,-0.1895,-106.16,34.63,181.16
801,591838296,-0.2896,-0.8701,-0.1963,-103.84,33.11,184.51
802,591843296,-0.2876,-0.8682,-0.2031,-100.85,31.40,187.80
803,591848296,-0.3159,-0.8682,-0.2158,-97.56,29.63,191.16
804,591853725,-0.3501,-0.8706,-0.2271,-92.80,27.93,194.94
805,591858296,-0.3721,-0.8657,-0.2363,-89.45,26.83,197.50
806,591863623,-0.4043,-0.8667,-0.2520,-83.78,25.12,201.16
807,591868470,-0.4448,-0.8667,-0.2646,-78.66,24.02,204.21
808,591873296,-0.4756,-0.8726,-0.2695,-74.51,23.23,206.28
809,591878297,-0.4912,-0.8735,-0.2822,-69.39,22.62,208.96
810,591883296,-0.5225,-0.8896,-0.2925,-64.45,21.89,211.34
811,591888294,-0.5542,-0.8911,-0.2935,-59.09,21.40,213.90
812,591893296,-0.5718,-0.9023,-0.3081,-54.88,20.98,215.98
813,591898595,-0.5854,-0.9077,-0.3184,-50.73,20.49,218.11
814,591903386,-0.6118,-0.9229,-0.3213,-46.95,20.12,220.18
815,591908295,-0.6377,-0.9199,-0.3208,-43.17,19.76,222.50
816,591913296,-0.6460,-0.9199,-0.3267,-39.51,19.33,224.76
817,591918309,-0.6562,-0.9204,-0.3232,-35.91,18.78,226.83
818,591923297,-0.6543,-0.9175,-0.3188,-32.20,18.54,228.90
819,591928296,-0.6704,-0.9209,-0.3267,-28.29,18.35,230.91
820,591933296,-0.6846,-0.9238,-0.3315,-24.27,18.17,232.80
821,591938733,-0.7085,-0.9204,-0.3384,-20.00,18.11,234.45
822,591943296,-0.7295,-0.9175,-0.3354,-15.49,18.35,236.04
823,591948296,-0.7539,-0.9067,-0.3506,-10.24,18.84,237.38
824,591953296,-0.7739,-0.9023,-0.3540,-4.02,19.51,238.60
825,591958296,-0.7832,-0.8887,-0.3623,2.80,20.18,239.82
826,591963296,-0.8022,-0.8794,-0.3726,10.79,21.40,240.73
827,591968296,-0.8330,-0.8706,-0.3740,19.57,22.50,241.65
828,591973296,-0.8540,-0.8599,-0.3862,29.15,23.96,242.32
829,591978296,-0.8696,-0.8481,-0.3921,39.45,25.55,242.93
830,591983296,-0.8940,-0.8477,-0.4062,49.94,27.26,243.54
831,591988296,-0.9067,-0.8413,-0.4126,60.91,28.96,244.09
832,591993296,-0.9263,-0.8389,-0.4204,71.95,31.04,244.57
833,591998296,-0.9604,-0.8384,-0.4282,82.87,33.29,245.00
834,592003296,-0.9561,-0.8242,-0.4219,94.09,35.79,245.30
835,592008296,-0.9790,-0.8242,-0.4282,105.06,38.41,245.37
836,592013296,-0.9756,-0.8140,-0.4238,116.22,41.52,245.24
837,592018296,-0.9741,-0.8086,-0.4199,127.99,44.51,245.00
838,592023295,-0.9795,-0.8008,-0.4165,137.87,47.93,244.57
839,592028294,-1.0039,-0.7993,-0.4160,148.90,51.40,244.02
840,592033294,-1.0034,-0.7920,-0.4170,159.70,55.24,243.05
841,592038294,-0.9893,-0.7788,-0.4106,170.43,59.21,242.07
842,592043294,-1.0039,-0.7773,-0.4102,180.91,63.35,240.91
843,592048294,-1.0234,-0.7690,-0.4170,190.98,67.50,239.27
844,592053459,-1.0259,-0.7627,-0.4199,200.61,71.95,237.68
845,592058294,-1.0337,-0.7583,-0.4214,209.45,76.52,235.61
846,592063296,-1.0474,-0.7544,-0.4150,216.95,80.85,233.29
847,592068296,-1.0332,-0.7451,-0.4087,223.48,86.16,230.85
848,592073296,-1.0220,-0.7422,-0.3999,229.21,89.21,228.17
849,592078295,-1.0312,-0.7383,-0.3945,233.78,93.90,225.37
850,592083294,-1.0298,-0.7275,-0.3926,237.68,97.93,222.44
851,592088294,-1.0225,-0.7217,-0.3892,240.30,101.77,219.33
852,592093294,-1.0454,-0.7197,-0.3887,242.07,105.30,216.10
853,592098294,-1.0381,-0.7144,-0.3804,242.50,108.72,212.74
854,592103297,-1.0254,-0.7173,-0.3784,241.52,111.65,209.51
855,592108301,-1.0278,-0.7559,-0.3989,239.02,114.15,206.71
856,592113318,-1.0298,-0.6958,-0.3169,235.43,116.52,203.66
857,592118298,-1.0107,-0.6582,-0.3105,231.16,119.21,199.94
858,592123334,-1.0469,-0.6797,-0.3384,224.76,121.65,195.55
859,592128297,-1.0254,-0.6470,-0.3359,219.76,122.87,192.50
860,592133296,-1.0259,-0.6460,-0.2993,212.80,124.27,188.90
861,592138296,-1.0093,-0.6494,-0.3071,205.24,125.43,185.30
862,592143296,-0.9937,-0.6460,-0.3062,197.56,126.04,181.77
863,592148296,-0.9839,-0.6416,-0.2935,188.23,126.77,177.68
864,592153296,-0.9966,-0.6411,-0.2769,182.01,127.26,174.94
865,592158296,-0.9917,-0.6294,-0.2837,174.70,127.50,171.59
866,592163409,-0.9775,-0.6099,-0.2891,167.68,127.44,168.35
867,592168296,-0.9712,-0.6104,-0.2769,160.12,127.20,164.57
868,592173296,-0.9775,-0.6001,-0.2632,155.55,126.95,162.26
869,592178296,-0.9741,-0.5967,-0.2661,150.30,126.52,159.21
870,592183348,-0.9790,-0.5986,-0.2637,145.91,125.91,156.34
871,592188522,-0.9814,-0.5977,-0.2471,142.13,125.49,153.72
872,592193296,-0.9648,-0.5957,-0.2451,138.72,124.76,150.91
873,592198300,-0.9717,-0.5918,-0.2510,135.49,123.96,148.23
874,592203298,-0.9590,-0.5869,-0.2432,131.83,122.80,145.24
875,592208296,-0.9453,-0.5776,-0.2256,129.33,122.13,143.29
876,592213296,-0.9409,-0.5859,-0.2163,129.02,121.34,140.98
877,592218296,-0.9429,-0.6060,-0.2329,126.71,120.37,138.84
878,592223296,-0.9102,-0.6211,-0.2349,124.76,118.72,137.13
879,592228296,-0.9180,-0.5957,-0.2002,122.50,117.44,135.67
880,592233296,-0.9175,-0.5747,-0.2002,120.73,115.98,133.78
881,592238296,-0.9351,-0.5835,-0.2183,118.96,114.33,131.71
882,592243296,-0.9268,-0.5762,-0.2261,117.99,112.87,130.30
883,592248296,-0.9102,-0.5791,-0.2144,116.83,110.91,128.96
884,592253296,-0.9067,-0.5796,-0.2153,115.67,108.66,127.50
885,592258296,-0.8970,-0.5840,-0.2227,115.06,106.89,126.46
886,592263296,-0.9062,-0.5938,-0.2153,114.39,104.82,125.37
887,592268296,-0.9131,-0.5928,-0.2026,113.84,102.38,124.02
888,592273296,-0.9028,-0.5815,-0.2036,113.84,100.79,123.11
889,592278296,-0.8999,-0.5806,-0.2095,114.09,98.84,122.07
890,592283296,-0.9082,-0.5835,-0.1978,114.63,96.77,121.04
891,592288296,-0.9087,-0.5825,-0.1895,115.55,94.63,120.12
892,592293295,-0.8882,-0.5840,-0.1919,116.65,92.74,119.21
893,592298294,-0.9009,-0.5923,-0.1943,118.29,90.73,118.17
894,592303294,-0.8950,-0.5859,-0.1914,120.06,88.54,117.20
895,592308294,-0.8896,-0.5869,-0.1865,121.89,87.56,116.40
896,592313294,-0.8823,-0.5981,-0.1938,123.78,85.43,115.49
897,592318733,-0.8794,-0.5986,-0.1895,125.55,84.15,114.63
898,592323297,-0.8965,-0.5679,-0.1758,127.13,81.71,113.90
899,592328359,-0.8999,-0.5527,-0.1631,129.57,79.88,112.93
900,592333297,-0.9268,-0.5591,-0.1650,130.24,78.29,111.46
901,592338296,-0.9170,-0.5547,-0.1675,130.12,76.71,110.12
902,592343296,-0.8970,-0.5591,-0.1675,132.56,75.12,108.66
903,592348296,-0.8843,-0.5708,-0.1626,133.23,73.54,107.44
904,592353296,-0.8853,-0.5747,-0.1572,133.78,71.83,106.34
905,592358296,-0.8809,-0.5693,-0.1548,133.84,70.06,105.18
906,592363296,-0.8813,-0.5674,-0.1450,133.66,68.23,103.78
907,592368296,-0.8823,-0.5610,-0.1279,132.80,66.52,102.50
