# skilleye imu stream v1
# device=xiao_esp32c6 imu=mpu6050 addr=0x68
# rate_hz=200 accel_range_g=16 gyro_range_dps=2000 dlpf_hz=94
# units: accel in g, gyro in deg/s, t_us in microseconds since boot (monotonic)
# no shared clock with the camera -- tap the racket once before each take
# so both recordings share a spike to align on
seq,t_us,ax,ay,az,gx,gy,gz
0,162936983,-0.5522,0.1079,-0.7012,11.59,4.76,9.39
1,162942055,-0.5552,0.1060,-0.7046,11.65,4.94,9.09
2,162946984,-0.5508,0.1069,-0.6968,11.71,5.18,8.72
3,162951984,-0.5498,0.1064,-0.6958,11.59,5.37,8.41
4,162957447,-0.5522,0.1055,-0.7007,11.52,5.43,7.93
5,162961984,-0.5449,0.1074,-0.6919,11.59,5.43,7.50
6,162966984,-0.5474,0.1123,-0.6943,11.52,5.73,7.13
7,162971984,-0.5493,0.1084,-0.6929,11.46,5.73,6.77
8,162976984,-0.5439,0.1069,-0.6919,11.52,5.79,6.28
9,162981984,-0.5459,0.1123,-0.6929,11.46,5.73,5.85
10,162986984,-0.5479,0.1094,-0.6929,11.40,5.61,5.30
11,162991985,-0.5449,0.1113,-0.6953,11.28,5.43,4.94
12,162996983,-0.5444,0.1074,-0.6997,11.22,5.24,4.45
13,163001982,-0.5469,0.1074,-0.6997,10.85,5.06,4.15
14,163006982,-0.5513,0.1113,-0.6934,10.61,4.82,3.78
15,163011982,-0.5459,0.1138,-0.6914,10.30,4.70,3.48
16,163016982,-0.5493,0.1167,-0.6978,9.82,4.45,3.05
17,163021984,-0.5503,0.1113,-0.6968,9.51,4.33,2.62
18,163026982,-0.5503,0.1157,-0.6919,8.96,3.96,2.26
19,163031984,-0.5493,0.1162,-0.6904,8.17,3.60,1.65
20,163036984,-0.5498,0.1138,-0.6855,7.50,3.48,1.46
21,163041984,-0.5547,0.1099,-0.6919,6.71,3.29,1.10
22,163046984,-0.5532,0.1123,-0.6899,5.91,3.05,0.79
23,163051984,-0.5532,0.1162,-0.6899,5.12,2.68,0.55
24,163056984,-0.5562,0.1118,-0.6885,4.21,2.38,0.18
25,163061984,-0.5532,0.1118,-0.6924,3.41,2.26,-0.12
26,163066984,-0.5518,0.1108,-0.6870,2.56,1.71,-0.24
27,163071984,-0.5474,0.1094,-0.6929,1.77,1.52,-0.37
28,163076984,-0.5488,0.1099,-0.6929,0.91,0.98,-0.73
29,163081984,-0.5483,0.1157,-0.6909,0.24,0.91,-0.85
30,163086984,-0.5474,0.1147,-0.6895,-0.24,0.67,-1.04
31,163091984,-0.5503,0.1216,-0.6865,-0.79,0.24,-1.28
32,163096984,-0.5483,0.1235,-0.6890,-1.16,0.06,-1.52
33,163101984,-0.5498,0.1245,-0.6826,-1.28,-0.24,-1.83
34,163106984,-0.5488,0.1250,-0.6904,-1.34,-0.55,-2.01
35,163111984,-0.5508,0.1323,-0.6807,-1.28,-0.61,-2.20
36,163116985,-0.5547,0.1323,-0.6826,-1.16,-0.85,-2.44
37,163121984,-0.5557,0.1323,-0.6821,-0.98,-1.16,-2.74
38,163126984,-0.5615,0.1309,-0.6895,-0.67,-1.34,-2.93
39,163131984,-0.5625,0.1279,-0.6914,-0.30,-1.52,-3.17
40,163136984,-0.5645,0.1309,-0.6860,0.06,-1.77,-3.29
41,163141984,-0.5654,0.1274,-0.6943,0.43,-1.77,-3.41
42,163146984,-0.5645,0.1274,-0.6914,0.67,-2.07,-3.41
43,163151984,-0.5703,0.1328,-0.6855,0.98,-2.20,-3.54
44,163156984,-0.5703,0.1294,-0.6865,1.16,-2.13,-3.54
45,163161984,-0.5664,0.1235,-0.6841,1.46,-2.13,-3.54
46,163166984,-0.5693,0.1328,-0.6812,1.52,-2.26,-3.60
47,163171984,-0.5703,0.1318,-0.6899,1.71,-2.26,-3.60
48,163176984,-0.5684,0.1299,-0.6846,1.77,-2.07,-3.60
49,163181984,-0.5693,0.1357,-0.6885,1.65,-2.01,-3.66
50,163186984,-0.5693,0.1401,-0.6826,1.71,-1.89,-3.54
51,163192431,-0.5674,0.1436,-0.6812,1.65,-1.77,-3.72
52,163197459,-0.5703,0.1431,-0.6865,1.83,-1.59,-3.78
53,163201985,-0.5708,0.1465,-0.6865,1.89,-1.52,-3.72
54,163206984,-0.5718,0.1499,-0.6855,1.95,-1.34,-3.78
55,163211984,-0.5737,0.1523,-0.6831,1.89,-1.22,-3.72
56,163216984,-0.5742,0.1499,-0.6870,1.95,-1.22,-3.72
57,163221984,-0.5718,0.1562,-0.6870,1.71,-1.10,-3.66
58,163226984,-0.5698,0.1572,-0.6826,1.77,-0.98,-3.72
59,163231984,-0.5654,0.1597,-0.6821,1.65,-0.91,-3.72
60,163236984,-0.5591,0.1626,-0.6909,1.40,-0.85,-3.48
61,163241984,-0.5591,0.1606,-0.6855,1.16,-0.85,-3.41
62,163246984,-0.5518,0.1597,-0.6826,0.98,-0.79,-3.17
63,163251984,-0.5557,0.1587,-0.6895,0.43,-0.73,-2.99
64,163256984,-0.5566,0.1587,-0.6885,0.06,-0.73,-2.80
65,163262470,-0.5566,0.1538,-0.6875,-0.49,-0.98,-2.32
66,163266984,-0.5552,0.1489,-0.6885,-0.91,-0.79,-2.13
67,163271984,-0.5547,0.1528,-0.6885,-1.22,-0.85,-1.71
68,163276984,-0.5552,0.1523,-0.6816,-1.52,-0.79,-1.28
69,163281984,-0.5522,0.1597,-0.6807,-1.89,-0.79,-0.85
70,163286984,-0.5522,0.1611,-0.6890,-2.01,-0.73,-0.61
71,163291984,-0.5532,0.1665,-0.6880,-2.01,-0.79,-0.18
72,163296983,-0.5586,0.1685,-0.6943,-1.83,-0.91,0.12
73,163301982,-0.5601,0.1646,-0.6855,-1.65,-1.10,0.43
74,163306985,-0.5537,0.1655,-0.6880,-1.28,-1.16,0.61
75,163311982,-0.5503,0.1641,-0.6880,-0.98,-1.22,1.04
76,163316982,-0.5474,0.1641,-0.6934,-0.67,-1.46,1.40
77,163321982,-0.5410,0.1602,-0.6963,-0.24,-1.83,1.83
78,163326984,-0.5376,0.1567,-0.6987,0.00,-1.95,2.07
79,163331984,-0.5356,0.1587,-0.6924,0.30,-2.13,2.56
80,163336984,-0.5288,0.1616,-0.6875,0.55,-2.26,2.80
81,163341984,-0.5249,0.1577,-0.6885,0.61,-2.38,3.11
82,163346984,-0.5176,0.1587,-0.6821,0.55,-2.50,3.54
83,163351984,-0.5103,0.1582,-0.6870,0.55,-2.56,3.72
84,163356984,-0.5127,0.1597,-0.6792,0.43,-2.62,3.96
85,163361984,-0.5088,0.1582,-0.6768,0.30,-2.62,4.15
86,163366984,-0.5117,0.1558,-0.6733,-0.12,-2.56,4.39
87,163371984,-0.5166,0.1528,-0.6699,-0.43,-2.50,4.45
88,163376984,-0.5186,0.1470,-0.6787,-0.67,-2.13,4.63
89,163381984,-0.5234,0.1494,-0.6768,-1.04,-2.01,4.57
90,163386983,-0.5332,0.1479,-0.6738,-1.16,-1.83,4.57
91,163391982,-0.5308,0.1460,-0.6802,-1.28,-1.34,4.76
92,163396984,-0.5322,0.1440,-0.6772,-1.34,-0.98,4.70
93,163401984,-0.5308,0.1406,-0.6714,-1.34,-0.73,4.39
94,163406984,-0.5337,0.1426,-0.6753,-1.28,-0.43,4.39
95,163411984,-0.5386,0.1396,-0.6704,-1.10,0.24,4.27
96,163416984,-0.5376,0.1362,-0.6724,-0.85,0.49,4.02
97,163421984,-0.5410,0.1362,-0.6738,-0.49,1.04,3.78
98,163426984,-0.5449,0.1348,-0.6743,-0.12,1.59,3.66
99,163431984,-0.5454,0.1343,-0.6660,0.37,2.01,3.41
100,163436984,-0.5449,0.1313,-0.6675,0.85,2.32,3.23
101,163441984,-0.5444,0.1294,-0.6680,1.28,2.80,2.93
102,163446984,-0.5430,0.1313,-0.6680,1.77,3.23,2.80
103,163451984,-0.5371,0.1318,-0.6694,2.38,3.66,2.38
104,163457339,-0.5356,0.1357,-0.6646,3.23,3.96,2.07
105,163461984,-0.5352,0.1323,-0.6597,3.60,4.39,1.89
106,163467469,-0.5347,0.1328,-0.6641,4.51,4.57,1.59
107,163471984,-0.5312,0.1343,-0.6694,5.12,4.57,1.28
108,163477022,-0.5347,0.1333,-0.6660,5.67,4.70,1.04
109,163481984,-0.5322,0.1328,-0.6699,6.59,4.57,0.91
110,163486984,-0.5312,0.1323,-0.6753,7.20,4.57,0.67
111,163491984,-0.5298,0.1270,-0.6812,7.74,4.33,0.43
112,163496984,-0.5264,0.1284,-0.6895,8.48,4.02,0.18
113,163501984,-0.5273,0.1309,-0.6870,8.96,3.60,0.18
114,163506986,-0.5151,0.1265,-0.6870,9.45,3.23,0.00
115,163512198,-0.5059,0.1333,-0.6895,9.76,2.56,-0.18
116,163516984,-0.5034,0.1299,-0.6929,10.00,2.13,-0.24
117,163521984,-0.4976,0.1309,-0.6973,10.06,1.59,-0.37
118,163526984,-0.4966,0.1284,-0.6968,10.12,0.91,-0.61
119,163531984,-0.4951,0.1299,-0.7021,10.12,0.06,-0.91
120,163536987,-0.4863,0.1357,-0.7056,10.06,-0.73,-1.22
121,163541984,-0.4805,0.1406,-0.6948,10.06,-1.46,-1.59
122,163546984,-0.4771,0.1431,-0.7070,9.88,-2.13,-1.95
123,163551984,-0.4795,0.1470,-0.7070,9.76,-2.93,-2.32
124,163556984,-0.4746,0.1484,-0.7080,9.57,-3.72,-2.93
125,163561984,-0.4697,0.1509,-0.7095,9.27,-4.51,-3.60
126,163566984,-0.4712,0.1445,-0.7144,9.02,-5.37,-4.21
127,163571984,-0.4751,0.1416,-0.7090,8.48,-6.10,-4.82
128,163576984,-0.4722,0.1372,-0.7109,7.87,-6.95,-5.49
129,163581984,-0.4722,0.1323,-0.7163,6.89,-7.56,-5.98
130,163586984,-0.4751,0.1299,-0.7080,5.98,-8.11,-6.65
131,163591984,-0.4756,0.1260,-0.7090,4.76,-8.60,-7.32
132,163596984,-0.4761,0.1226,-0.7119,3.48,-9.09,-7.80
133,163601983,-0.4766,0.1191,-0.7061,2.38,-9.45,-8.41
134,163607434,-0.4775,0.1108,-0.7168,1.10,-9.82,-9.15
135,163611984,-0.4795,0.1108,-0.7100,0.30,-9.88,-9.76
136,163616982,-0.4819,0.1104,-0.7144,-0.49,-10.18,-10.30
137,163621985,-0.4844,0.1147,-0.7183,-1.16,-10.18,-11.04
138,163626984,-0.4849,0.1128,-0.7148,-1.71,-10.18,-11.71
139,163631984,-0.4810,0.1123,-0.7158,-2.01,-10.24,-12.50
140,163636984,-0.4932,0.1123,-0.7124,-2.26,-10.06,-13.23
141,163642465,-0.4932,0.1147,-0.7158,-2.26,-9.88,-14.33
142,163646984,-0.4946,0.1187,-0.7168,-2.01,-9.63,-15.06
143,163651984,-0.4985,0.1216,-0.7104,-2.01,-9.33,-16.10
144,163656984,-0.5015,0.1318,-0.7124,-1.46,-8.78,-17.13
145,163661984,-0.5098,0.1284,-0.7036,-0.98,-8.17,-18.41
146,163666984,-0.5078,0.1328,-0.7095,-0.24,-7.38,-19.45
147,163671984,-0.5166,0.1416,-0.7173,0.30,-6.77,-20.55
148,163676984,-0.5200,0.1377,-0.7153,1.10,-5.91,-21.95
149,163681984,-0.5254,0.1406,-0.7031,1.65,-4.94,-23.05
150,163686984,-0.5278,0.1406,-0.7046,2.20,-4.45,-23.84
151,163691985,-0.5298,0.1343,-0.7095,2.93,-3.54,-24.70
152,163696984,-0.5264,0.1328,-0.7090,3.48,-2.74,-25.61
153,163701984,-0.5249,0.1294,-0.7051,4.02,-1.83,-26.40
154,163706984,-0.5264,0.1265,-0.7051,4.51,-0.98,-27.07
155,163712305,-0.5264,0.1328,-0.7080,5.37,-0.30,-27.56
156,163716984,-0.5210,0.1284,-0.7026,5.79,0.30,-27.99
157,163721983,-0.5176,0.1279,-0.7017,6.71,1.04,-28.29
158,163726984,-0.5137,0.1313,-0.7080,7.68,1.59,-28.60
159,163731982,-0.5137,0.1343,-0.7065,8.72,2.20,-28.90
160,163736984,-0.5112,0.1362,-0.7021,10.12,2.68,-29.09
161,163741983,-0.5049,0.1309,-0.7046,11.10,3.23,-29.39
162,163746984,-0.5073,0.1401,-0.7021,12.50,3.60,-29.57
163,163751984,-0.5063,0.1431,-0.7070,13.66,3.90,-29.82
164,163756984,-0.5073,0.1421,-0.7056,14.88,4.33,-30.12
165,163761984,-0.5073,0.1431,-0.7134,16.10,4.51,-30.37
166,163766984,-0.5068,0.1416,-0.7080,16.95,4.82,-30.49
167,163772047,-0.5039,0.1406,-0.7080,18.05,5.12,-30.73
168,163777462,-0.5059,0.1367,-0.7065,18.66,5.30,-30.98
169,163781984,-0.4990,0.1362,-0.7070,19.21,5.55,-31.16
170,163786984,-0.4961,0.1304,-0.7129,19.57,5.79,-31.22
171,163791984,-0.5000,0.1279,-0.7124,19.82,5.98,-31.34
172,163796984,-0.4980,0.1240,-0.7139,19.88,6.22,-31.46
173,163801984,-0.4966,0.1191,-0.7188,19.88,6.34,-31.52
174,163806984,-0.4937,0.1123,-0.7192,20.00,6.52,-31.71
175,163811985,-0.4902,0.1064,-0.7197,20.06,6.40,-31.77
176,163816984,-0.4883,0.1025,-0.7231,20.30,6.46,-31.89
177,163821984,-0.4844,0.0986,-0.7227,20.55,6.71,-31.83
178,163826984,-0.4814,0.0962,-0.7300,20.79,6.77,-31.95
179,163831984,-0.4780,0.0957,-0.7300,21.16,6.77,-32.32
180,163836984,-0.4771,0.0889,-0.7285,21.71,7.01,-32.38
181,163841984,-0.4761,0.0859,-0.7305,22.13,7.26,-32.62
182,163846984,-0.4751,0.0791,-0.7349,22.80,7.38,-32.99
183,163851984,-0.4766,0.0776,-0.7212,23.29,7.80,-33.48
184,163856984,-0.4766,0.0718,-0.7256,23.72,8.11,-33.90
185,163861984,-0.4800,0.0674,-0.7402,24.27,8.48,-34.39
186,163866984,-0.4819,0.0615,-0.7383,24.94,8.96,-35.00
187,163872325,-0.4844,0.0605,-0.7373,25.67,9.51,-35.73
188,163876984,-0.4912,0.0508,-0.7407,26.22,10.00,-36.28
189,163881984,-0.4956,0.0459,-0.7471,26.95,10.43,-37.07
190,163886987,-0.4946,0.0405,-0.7554,27.99,10.98,-37.93
191,163891984,-0.4873,0.0396,-0.7617,28.66,11.52,-38.54
192,163896982,-0.4893,0.0391,-0.7549,29.63,12.13,-39.51
193,163901982,-0.4868,0.0356,-0.7573,30.73,12.87,-40.30
194,163906982,-0.4922,0.0259,-0.7583,31.77,13.54,-41.10
195,163911982,-0.4795,0.0107,-0.7671,33.11,14.33,-42.01
196,163916984,-0.4868,0.0083,-0.7725,34.39,14.82,-42.87
197,163922545,-0.4873,0.0039,-0.7627,35.73,15.67,-43.66
198,163926984,-0.4971,-0.0073,-0.7700,36.95,16.52,-44.39
199,163931983,-0.4917,-0.0190,-0.7681,37.99,17.01,-45.00
200,163936984,-0.4873,-0.0293,-0.7798,39.39,17.68,-45.61
201,163941984,-0.4844,-0.0371,-0.7769,40.43,18.41,-46.40
202,163946984,-0.4829,-0.0464,-0.7764,41.52,19.09,-47.07
203,163951984,-0.4849,-0.0527,-0.7798,42.80,19.70,-47.68
204,163956984,-0.4883,-0.0659,-0.7847,44.02,20.55,-48.35
205,163961984,-0.4829,-0.0723,-0.7905,45.18,21.16,-49.02
206,163967374,-0.4878,-0.0820,-0.7856,46.34,21.89,-49.51
207,163971984,-0.4893,-0.0850,-0.8008,47.38,22.56,-50.18
208,163976984,-0.4927,-0.0854,-0.8047,48.41,23.35,-50.91
209,163981984,-0.4902,-0.0879,-0.8066,49.45,24.02,-51.65
210,163986984,-0.4897,-0.0918,-0.8057,50.55,24.70,-52.44
211,163991984,-0.4858,-0.0923,-0.8076,51.46,25.37,-53.23
212,163996984,-0.4712,-0.1069,-0.8057,52.44,26.10,-54.21
213,164001984,-0.4810,-0.1118,-0.8145,53.23,26.71,-55.00
214,164006984,-0.4775,-0.1167,-0.8213,54.39,27.38,-55.73
215,164011983,-0.4731,-0.1260,-0.8242,55.43,27.87,-56.65
216,164016984,-0.4731,-0.1377,-0.8296,56.34,28.23,-57.50
217,164021984,-0.4731,-0.1475,-0.8369,57.32,28.78,-58.48
218,164026984,-0.4639,-0.1509,-0.8433,58.17,28.96,-59.33
219,164031982,-0.4580,-0.1562,-0.8418,58.96,29.33,-60.30
220,164037408,-0.4097,-0.1680,-0.8228,59.21,29.39,-61.16
221,164041984,-0.4355,-0.1816,-0.8369,59.02,29.88,-61.95
222,164046984,-0.4932,-0.1782,-0.8452,59.09,30.18,-62.93
223,164051984,-0.4917,-0.1719,-0.8677,59.51,30.30,-64.02
224,164056984,-0.4438,-0.1890,-0.8896,59.63,30.79,-65.18
225,164061984,-0.4561,-0.2007,-0.8872,59.70,31.04,-66.22
226,164066984,-0.4707,-0.2021,-0.8540,60.06,31.22,-67.44
227,164071984,-0.4624,-0.2007,-0.8662,60.18,31.83,-68.66
228,164076984,-0.4419,-0.1997,-0.8589,60.43,32.26,-70.00
229,164081984,-0.4136,-0.2207,-0.8789,60.06,32.80,-71.52
230,164086984,-0.4497,-0.2393,-0.8896,59.70,33.17,-72.74
231,164091984,-0.4805,-0.2383,-0.8643,59.33,33.72,-73.96
232,164096984,-0.4756,-0.2393,-0.8530,59.21,34.45,-75.43
233,164101984,-0.4634,-0.2461,-0.8701,58.84,34.88,-76.95
234,164106984,-0.4478,-0.2500,-0.8672,58.48,35.24,-78.48
235,164111984,-0.4492,-0.2495,-0.8521,57.80,35.67,-80.00
236,164116985,-0.4561,-0.2612,-0.8550,56.83,36.04,-81.52
237,164122153,-0.4717,-0.2827,-0.8594,55.43,36.40,-82.99
238,164126984,-0.4707,-0.2954,-0.8496,53.90,36.71,-84.39
239,164131984,-0.4727,-0.3052,-0.8320,52.01,37.07,-85.73
240,164136984,-0.4751,-0.3159,-0.8257,50.30,37.38,-87.07
241,164141984,-0.4692,-0.3232,-0.8306,48.29,37.62,-88.48
242,164146985,-0.4673,-0.3296,-0.8149,46.77,37.87,-89.63
243,164151984,-0.4614,-0.3350,-0.8115,45.37,38.11,-90.79
244,164156984,-0.4644,-0.3413,-0.8149,44.51,38.11,-91.95
245,164161984,-0.4531,-0.3462,-0.8042,43.90,38.23,-92.87
246,164166984,-0.4277,-0.3804,-0.8340,43.35,38.05,-93.41
247,164171984,-0.4717,-0.4023,-0.8452,42.93,37.38,-93.84
248,164176983,-0.5024,-0.4087,-0.8091,42.93,36.77,-94.27
249,164181984,-0.5029,-0.4121,-0.8062,43.23,36.28,-94.45
250,164186986,-0.4751,-0.4214,-0.8149,43.78,35.49,-94.57
251,164191982,-0.4551,-0.4360,-0.8047,44.39,34.88,-94.63
252,164196984,-0.4424,-0.4458,-0.7847,45.00,34.09,-94.45
253,164202254,-0.4370,-0.4629,-0.7695,45.43,33.35,-94.39
254,164206984,-0.4375,-0.4766,-0.7788,46.16,32.50,-94.21
255,164211984,-0.4321,-0.4897,-0.7749,46.77,31.40,-93.90
256,164216983,-0.4292,-0.4932,-0.7549,47.44,30.49,-93.60
257,164221984,-0.4204,-0.4961,-0.7471,48.17,29.57,-93.48
258,164226982,-0.3804,-0.5151,-0.7710,48.60,28.41,-93.29
259,164231984,-0.4106,-0.5312,-0.7720,49.02,27.20,-92.99
260,164236984,-0.4434,-0.5269,-0.7300,49.45,26.16,-92.80
261,164241984,-0.4512,-0.5273,-0.7202,50.00,25.30,-92.74
262,164246985,-0.4424,-0.5342,-0.7422,50.61,24.09,-92.74
263,164251984,-0.4282,-0.5439,-0.7183,51.28,22.99,-92.74
264,164256983,-0.3892,-0.5728,-0.6914,51.65,22.26,-92.68
265,164261984,-0.4043,-0.5957,-0.7031,52.13,21.40,-92.44
266,164266984,-0.4204,-0.5981,-0.6904,52.38,20.67,-92.26
267,164271984,-0.4429,-0.6094,-0.6831,52.74,19.57,-91.95
268,164276984,-0.4736,-0.6055,-0.6851,53.54,18.78,-91.71
269,164281984,-0.4785,-0.6235,-0.6904,54.21,17.87,-91.52
270,164286982,-0.4707,-0.6445,-0.6880,55.24,16.95,-91.10
271,164291985,-0.4673,-0.6641,-0.6753,56.22,15.91,-90.67
272,164296983,-0.4624,-0.6768,-0.6675,57.07,15.00,-90.06
273,164301984,-0.4741,-0.7061,-0.6807,57.50,13.90,-89.27
274,164306984,-0.5107,-0.7217,-0.6992,57.93,12.74,-88.23
275,164311984,-0.5386,-0.7427,-0.6841,58.35,11.52,-87.07
276,164316984,-0.5327,-0.7549,-0.6719,58.60,10.24,-85.79
277,164321984,-0.5220,-0.7729,-0.6787,58.66,9.09,-84.45
278,164326984,-0.5093,-0.7861,-0.6836,58.66,7.68,-82.87
279,164331984,-0.5054,-0.7949,-0.6729,58.66,6.28,-81.16
280,164336984,-0.5063,-0.8066,-0.6689,58.66,4.70,-79.45
281,164341984,-0.5039,-0.8140,-0.6670,58.48,3.05,-77.56
282,164347467,-0.4990,-0.8237,-0.6699,58.48,1.46,-75.55
283,164351984,-0.4932,-0.8276,-0.6592,58.54,-0.12,-73.60
284,164356984,-0.4878,-0.8286,-0.6509,58.72,-1.77,-71.59
285,164362495,-0.4746,-0.8301,-0.6514,59.09,-3.41,-69.57
286,164366984,-0.4639,-0.8257,-0.6465,59.76,-5.00,-67.68
287,164371984,-0.4536,-0.8203,-0.6367,60.30,-6.46,-65.73
288,164376984,-0.4380,-0.8120,-0.6226,61.28,-7.87,-63.90
289,164382479,-0.4307,-0.7983,-0.6201,62.32,-9.09,-62.20
290,164386984,-0.4131,-0.7842,-0.6079,63.54,-10.24,-60.73
291,164391984,-0.4009,-0.7676,-0.5830,64.94,-11.22,-59.45
292,164396984,-0.3540,-0.7612,-0.5820,66.16,-11.77,-58.35
293,164401984,-0.3667,-0.7607,-0.5708,67.32,-12.38,-57.32
294,164406984,-0.3799,-0.7378,-0.5371,68.35,-12.56,-56.40
295,164411984,-0.3711,-0.7109,-0.5225,69.63,-12.56,-55.79
296,164417440,-0.3345,-0.6997,-0.5205,70.61,-12.38,-55.30
297,164421984,-0.3052,-0.7021,-0.5044,71.52,-12.07,-54.76
298,164426984,-0.2964,-0.6973,-0.4824,72.56,-11.52,-54.33
299,164431984,-0.2881,-0.6899,-0.4829,73.41,-10.79,-53.90
300,164436983,-0.2744,-0.6924,-0.4731,74.45,-10.06,-53.41
301,164441984,-0.2495,-0.6924,-0.4463,75.67,-9.33,-53.05
302,164446984,-0.2324,-0.6929,-0.4414,76.77,-8.41,-52.56
303,164451984,-0.2153,-0.6895,-0.4395,77.87,-7.74,-52.07
304,164456984,-0.2021,-0.6968,-0.4355,78.96,-6.95,-51.40
305,164461984,-0.1919,-0.7017,-0.4141,80.00,-6.28,-50.79
306,164466984,-0.1812,-0.7090,-0.4082,81.28,-5.49,-49.94
307,164471984,-0.1729,-0.7134,-0.4189,82.56,-4.70,-49.27
308,164476984,-0.1587,-0.7158,-0.4131,83.96,-4.27,-48.41
309,164481984,-0.1499,-0.7158,-0.4077,85.67,-3.78,-47.62
310,164486984,-0.1367,-0.7134,-0.4131,87.50,-3.35,-46.65
311,164491984,-0.1250,-0.7129,-0.4272,89.39,-3.11,-45.91
312,164496983,-0.1133,-0.7100,-0.4189,91.65,-3.17,-45.18
313,164501982,-0.1128,-0.7129,-0.4199,94.09,-3.11,-44.57
314,164506982,-0.1035,-0.7148,-0.4385,96.65,-3.41,-43.66
315,164511982,-0.0942,-0.7222,-0.4316,99.27,-3.66,-42.93
316,164516982,-0.0859,-0.7275,-0.4336,101.89,-4.09,-42.26
317,164521984,-0.0811,-0.7354,-0.4277,104.39,-4.63,-41.40
318,164526982,-0.0723,-0.7485,-0.4326,107.01,-5.06,-40.61
319,164531984,-0.0610,-0.7578,-0.4438,109.45,-5.98,-39.70
320,164536985,-0.0347,-0.7705,-0.4385,111.83,-6.65,-38.78
321,164541984,-0.0254,-0.7798,-0.4233,114.15,-7.56,-37.80
322,164546984,-0.0444,-0.7920,-0.4292,116.34,-8.23,-36.95
323,164551984,-0.0522,-0.8110,-0.4346,118.54,-8.54,-35.91
324,164556984,-0.0625,-0.8262,-0.4321,120.85,-9.15,-34.94
325,164561984,-0.0522,-0.8154,-0.4019,123.05,-9.63,-34.09
326,164566984,-0.0156,-0.8335,-0.4146,124.82,-9.82,-33.29
327,164571984,-0.0220,-0.8530,-0.4370,127.13,-10.18,-32.44
328,164576984,-0.0527,-0.8501,-0.4175,128.35,-10.49,-31.52
329,164581984,-0.0703,-0.8535,-0.3989,129.76,-10.37,-30.91
330,164586984,-0.0669,-0.8647,-0.4106,129.88,-10.12,-30.37
331,164591984,-0.0596,-0.8745,-0.4214,132.13,-10.18,-29.88
332,164596984,-0.0464,-0.8828,-0.4033,132.62,-9.82,-29.45
333,164602697,-0.0435,-0.8965,-0.3843,132.99,-9.39,-28.90
334,164606984,-0.0410,-0.9102,-0.3926,132.93,-9.02,-28.54
335,164611984,-0.0479,-0.9209,-0.3965,132.44,-8.72,-28.05
336,164616984,-0.0601,-0.9277,-0.3779,131.71,-8.11,-27.68
337,164621984,-0.0566,-0.9448,-0.3628,129.57,-7.50,-27.26
338,164626984,-0.0591,-0.9365,-0.3799,129.21,-7.13,-26.77
339,164631984,-0.0591,-0.9468,-0.3804,129.27,-6.77,-26.52
340,164636984,-0.0483,-0.9326,-0.3740,129.02,-6.40,-26.46
341,164641984,-0.0342,-0.9287,-0.2373,128.41,-5.79,-26.46
342,164646984,-0.0469,-1.0195,-0.2363,127.56,-4.70,-26.46
343,164651984,0.0098,-0.9985,-0.5845,124.70,-5.12,-26.59
344,164656984,-0.0171,-0.9995,-0.4751,122.13,-5.55,-26.83
345,164661984,-0.0381,-0.9688,-0.2197,119.76,-3.96,-27.13
346,164666984,-0.0615,-0.8472,-0.3042,117.01,-2.62,-27.38
347,164671983,-0.0596,-0.8501,-0.3843,113.05,-3.23,-28.48
348,164676984,-0.0303,-1.0815,-0.2480,109.51,-2.01,-28.17
349,164681982,-0.0171,-1.1157,-0.3115,106.16,-0.85,-27.87
350,164686984,-0.0093,-1.0503,-0.3579,103.05,-0.37,-28.05
351,164691984,-0.0029,-0.9077,-0.3457,99.94,0.00,-28.17
352,164696984,-0.0088,-0.8081,-0.2915,96.46,0.85,-28.66
353,164701984,-0.0083,-0.8145,-0.3052,93.11,1.52,-28.96
354,164706984,0.0005,-0.8975,-0.3369,89.15,1.83,-29.27
355,164711984,0.0093,-0.9868,-0.3135,85.30,2.26,-29.21
356,164716984,0.0205,-1.0200,-0.2788,80.91,2.74,-29.27
357,164721984,0.0239,-1.0029,-0.2930,76.28,3.41,-29.39
358,164726984,0.0332,-0.9419,-0.3057,71.65,3.72,-29.57
359,164731984,0.0381,-0.8945,-0.2754,67.07,4.21,-30.24
360,164736984,0.0396,-0.8901,-0.2480,62.32,4.88,-30.73
361,164741984,0.0439,-0.8979,-0.2539,56.52,5.30,-31.22
362,164746984,0.0488,-0.9600,-0.2686,52.80,5.49,-31.59
363,164751983,0.2305,-0.7954,-0.4585,48.90,7.68,-31.52
364,164756984,0.1885,-0.7827,-0.3696,39.57,8.78,-33.48
365,164761984,0.0371,-0.8857,-0.1318,32.87,7.07,-34.02
366,164766984,0.0083,-0.9614,-0.2153,27.99,7.68,-34.76
367,164771984,0.0464,-1.0322,-0.3394,23.72,6.95,-35.49
368,164776987,0.0708,-1.0283,-0.2773,19.70,6.65,-36.65
369,164781984,0.0444,-1.0269,-0.0830,18.17,5.30,-37.38
370,164786984,0.0879,-1.0098,-0.1108,17.50,6.71,-38.66
371,164791984,0.1172,-0.9482,-0.2354,17.26,6.28,-40.00
372,164796983,0.0684,-0.9526,-0.1392,17.20,6.04,-41.40
373,164801983,0.0732,-0.9814,-0.0601,17.01,6.04,-42.93
374,164806982,0.0684,-1.0117,-0.1562,17.07,5.73,-44.39
375,164811982,0.0801,-1.0039,-0.2222,17.13,4.70,-45.85
376,164816985,0.0884,-0.9858,-0.0977,16.89,4.27,-47.38
377,164821984,0.0952,-0.9639,-0.0576,16.52,4.51,-48.90
378,164826984,0.1040,-0.9595,-0.1484,16.04,4.21,-50.55
379,164831984,0.0991,-0.9678,-0.1719,15.24,3.23,-52.26
380,164836984,0.0933,-0.9712,-0.0645,14.09,3.35,-53.84
381,164841984,0.0928,-0.9731,-0.0596,12.87,3.54,-55.24
382,164846984,0.0908,-0.9707,-0.1362,11.46,3.35,-56.65
383,164851984,0.0952,-0.9668,-0.1274,9.82,3.23,-57.80
384,164856984,0.0903,-0.9609,-0.0586,8.05,3.29,-59.09
385,164861984,0.0815,-0.9663,-0.0679,6.04,3.78,-60.12
386,164866984,0.0845,-0.9629,-0.1206,3.84,3.90,-60.85
387,164871984,0.0913,-0.9619,-0.0894,1.40,4.21,-61.52
388,164876984,0.0977,-0.9609,-0.0430,-1.16,4.76,-62.07
389,164881984,0.1074,-0.9565,-0.0527,-3.66,5.24,-62.62
390,164886984,0.1162,-0.9507,-0.0781,-5.98,5.55,-63.05
391,164891984,0.1143,-0.9458,-0.0659,-8.17,5.85,-63.23
392,164896984,0.1182,-0.9341,-0.0298,-10.30,6.22,-63.35
393,164901984,0.1113,-0.9160,-0.0552,-12.13,6.65,-63.48
394,164906984,0.1147,-0.8936,-0.0952,-13.66,6.89,-63.60
395,164911984,0.1011,-0.8799,-0.1006,-15.00,6.83,-63.60
396,164916984,0.0923,-0.8633,-0.1055,-16.10,7.01,-63.84
397,164921984,0.0869,-0.8374,-0.1406,-16.52,6.77,-63.84
398,164926984,0.0918,-0.8276,-0.1616,-16.83,6.59,-63.96
399,164931984,0.1025,-0.8271,-0.1660,-17.13,6.34,-63.96
400,164936985,0.1328,-0.8760,-0.1997,-17.74,6.34,-63.90
401,164941984,0.1538,-0.8560,-0.1934,-18.90,6.16,-63.90
402,164946984,0.1655,-0.8125,-0.1714,-19.70,6.28,-63.96
403,164951984,0.1914,-0.8164,-0.1748,-20.43,6.59,-64.02
404,164956984,0.2192,-0.8188,-0.1475,-21.04,6.95,-63.66
405,164961984,0.2285,-0.8071,-0.1250,-21.46,7.26,-63.48
406,164966984,0.2231,-0.8091,-0.1353,-21.34,7.44,-63.17
407,164971984,0.2124,-0.8188,-0.1611,-21.16,7.50,-62.68
408,164976984,0.2061,-0.8086,-0.1519,-21.04,7.68,-62.20
409,164981984,0.2100,-0.8154,-0.1509,-20.79,7.56,-61.65
410,164986984,0.2251,-0.8242,-0.1538,-20.55,7.74,-60.98
411,164991984,0.2412,-0.8330,-0.1611,-20.12,7.87,-60.49
412,164996984,0.2451,-0.8428,-0.1484,-19.57,8.11,-59.88
413,165001984,0.2456,-0.8438,-0.1509,-18.84,8.48,-59.33
414,165006985,0.2441,-0.8384,-0.1562,-18.11,8.66,-58.78
415,165011984,0.2451,-0.8364,-0.1641,-17.26,8.78,-58.35
416,165016984,0.2358,-0.8325,-0.1646,-16.28,8.96,-57.80
417,165021984,0.2339,-0.8301,-0.1665,-15.55,9.45,-57.50
418,165026987,0.2354,-0.8398,-0.1641,-14.57,9.57,-57.01
419,165031984,0.2363,-0.8379,-0.1724,-14.09,9.76,-56.46
420,165036984,0.2451,-0.8389,-0.1621,-13.48,10.30,-56.28
421,165041984,0.2515,-0.8389,-0.1616,-13.11,10.79,-55.91
422,165046984,0.2783,-0.8311,-0.1733,-12.80,11.22,-55.55
423,165051984,0.2773,-0.8477,-0.1753,-12.93,11.52,-55.49
424,165056984,0.2827,-0.8691,-0.1660,-13.41,11.83,-55.06
425,165061984,0.2871,-0.8867,-0.1523,-14.33,12.20,-54.51
426,165066984,0.2886,-0.8853,-0.1514,-15.55,12.68,-54.15
427,165071984,0.2900,-0.8799,-0.1309,-16.95,12.93,-53.60
428,165076984,0.3232,-0.8726,-0.1392,-18.41,13.23,-53.23
429,165081984,0.2783,-0.8999,-0.1421,-19.70,13.23,-52.74
430,165086984,0.2236,-0.9126,-0.1543,-20.24,13.35,-51.83
431,165091984,0.2085,-0.8730,-0.1284,-20.55,13.48,-51.10
432,165096983,0.2178,-0.9092,-0.1514,-20.73,13.66,-50.30
433,165101982,0.2358,-0.8804,-0.1455,-20.61,13.84,-49.21
434,165106982,0.2402,-0.8452,-0.1636,-20.73,14.09,-48.17
435,165111985,0.2324,-0.8008,-0.2280,-21.59,14.33,-47.56
436,165116982,0.2261,-0.7676,-0.2666,-23.23,14.21,-47.07
437,165121986,0.1978,-0.7563,-0.2817,-25.67,13.90,-46.59
438,165126984,0.1826,-0.7651,-0.3008,-28.66,13.54,-45.79
439,165131984,0.4512,-0.7285,-0.3008,-32.13,12.93,-44.88
440,165136984,0.7075,-0.7021,-0.2988,-35.98,12.13,-44.39
441,165141984,0.6465,-0.7144,-0.2065,-39.57,11.10,-44.15
442,165146984,0.6846,-0.7192,0.0234,-42.99,11.52,-43.78
443,165151984,0.5830,-0.7275,0.0732,-46.59,13.11,-42.93
444,165156984,0.5791,-0.7041,-0.0278,-49.70,14.45,-42.13
445,165161984,0.5771,-0.6787,-0.0718,-52.56,15.24,-41.34
446,165166984,0.6128,-0.6655,-0.0391,-55.06,16.04,-40.73
447,165171984,0.6323,-0.6782,-0.0430,-57.56,16.83,-39.76
448,165176984,0.6392,-0.6870,-0.1343,-59.02,16.65,-39.09
449,165181984,0.6143,-0.6860,-0.1377,-60.43,16.65,-38.23
450,165187484,0.5820,-0.6958,-0.1406,-61.52,16.46,-36.89
451,165191983,0.5581,-0.7036,-0.1465,-61.89,16.46,-36.22
452,165196986,0.5186,-0.7124,-0.1885,-61.95,16.28,-35.06
453,165201984,0.4785,-0.7163,-0.1743,-61.52,16.34,-34.09
454,165206984,0.4438,-0.7158,-0.1587,-60.43,16.52,-32.99
455,165211984,0.4355,-0.6914,-0.2412,-58.72,16.77,-32.01
456,165216984,0.4634,-0.6577,-0.3008,-56.52,16.83,-31.28
457,165221984,0.4746,-0.6421,-0.3218,-53.72,16.65,-30.79
458,165226984,0.4380,-0.6177,-0.3667,-50.18,16.16,-30.61
459,165231984,0.4067,-0.6270,-0.4243,-46.34,14.88,-30.73
460,165236984,0.3174,-0.6255,-0.4663,-41.10,13.41,-30.85
461,165241984,0.2891,-0.6133,-0.4541,-35.24,11.77,-30.98
462,165246984,0.2671,-0.6279,-0.5190,-29.21,9.27,-31.10
463,165251984,0.1982,-0.6538,-0.5718,-22.44,5.98,-30.79
464,165256984,0.1016,-0.6396,-0.5522,-14.94,2.80,-30.43
465,165262439,0.0791,-0.6626,-0.5425,-5.24,-1.95,-30.18
466,165266984,0.0322,-0.7529,-0.6064,1.34,-5.30,-29.70
467,165271984,-0.0337,-0.8076,-0.6470,9.45,-10.30,-28.23
468,165276984,-0.1172,-0.9131,-0.5498,17.26,-14.33,-25.12
469,165281984,-0.2354,-1.0186,-0.4370,24.45,-16.52,-19.76
470,165286985,-0.3081,-1.0088,-0.4966,29.45,-17.13,-12.38
471,165291984,-0.1533,-0.7480,-0.7158,31.46,-17.32,-5.55
472,165296984,0.1304,-0.6040,-0.7651,29.57,-18.23,-0.85
473,165301984,0.3999,-0.6113,-0.6616,23.84,-17.80,3.35
474,165306984,0.5796,-0.6294,-0.5498,14.76,-15.73,7.50
475,165311984,0.6567,-0.6538,-0.4551,0.85,-11.52,11.83
476,165316984,0.6738,-0.6797,-0.4033,-9.39,-8.29,14.21
477,165321984,0.6724,-0.6987,-0.3574,-22.26,-3.72,16.34
478,165326984,0.6558,-0.7153,-0.3496,-33.35,1.16,17.87
479,165331984,0.6094,-0.7124,-0.3945,-42.20,5.61,18.54
480,165336990,0.5635,-0.6982,-0.4297,-48.11,9.57,18.41
481,165341985,0.5205,-0.7031,-0.4180,-51.34,12.93,17.50
482,165346983,0.5249,-0.7417,-0.4453,-52.13,16.34,15.91
483,165351984,0.5210,-0.7290,-0.5210,-50.91,18.96,13.84
484,165356984,0.5391,-0.7241,-0.5054,-48.35,21.77,11.16
485,165361983,0.5225,-0.7446,-0.4600,-44.63,24.57,8.29
486,165366984,0.5166,-0.7939,-0.4790,-40.18,27.38,5.30
487,165371984,0.5093,-0.8286,-0.5283,-35.43,29.88,2.38
488,165376985,0.5005,-0.8442,-0.5171,-30.24,32.20,-0.49
489,165381984,0.5029,-0.8335,-0.5044,-24.94,34.21,-3.11
490,165386984,0.5107,-0.8159,-0.5181,-19.57,35.85,-5.79
491,165391984,0.5234,-0.7930,-0.5371,-14.70,36.89,-8.29
492,165396984,0.5376,-0.7749,-0.5215,-10.06,37.56,-10.55
493,165401984,0.5449,-0.7656,-0.5068,-5.91,37.93,-12.50
494,165406984,0.5625,-0.7617,-0.5024,-2.62,37.87,-14.21
495,165411982,0.5737,-0.7593,-0.5049,0.06,37.50,-15.49
496,165416983,0.6079,-0.7500,-0.4927,1.95,36.89,-16.77
497,165421984,0.6094,-0.7412,-0.4814,2.68,36.34,-17.74
498,165426984,0.5942,-0.7344,-0.4854,2.87,35.67,-18.84
499,165431984,0.5791,-0.7290,-0.4717,2.32,35.12,-19.76
500,165436982,0.5854,-0.7275,-0.4580,1.28,34.57,-20.43
501,165441987,0.5903,-0.7188,-0.4531,-0.55,33.90,-21.22
502,165446984,0.5903,-0.7158,-0.4536,-2.07,33.54,-21.59
503,165451986,0.5835,-0.7124,-0.4507,-4.09,33.29,-22.07
504,165457357,0.5728,-0.7075,-0.4312,-6.40,33.05,-22.68
505,165461984,0.5566,-0.7046,-0.4243,-7.74,32.99,-22.99
506,165466984,0.5464,-0.6963,-0.4204,-9.51,32.74,-23.23
507,165471984,0.5483,-0.6943,-0.4121,-11.22,32.74,-23.41
508,165477411,0.5415,-0.6924,-0.4019,-12.93,32.93,-23.48
509,165481984,0.5376,-0.6890,-0.3989,-13.84,32.80,-23.54
510,165487284,0.5200,-0.6841,-0.3877,-15.00,32.74,-23.29
511,165491984,0.5122,-0.6860,-0.3784,-15.30,32.62,-23.17
512,165496984,0.5078,-0.6787,-0.3804,-15.55,32.44,-22.56
513,165501984,0.4985,-0.6729,-0.3765,-15.30,32.13,-22.13
514,165506984,0.4980,-0.6660,-0.3789,-14.63,31.77,-21.46
515,165511984,0.4956,-0.6611,-0.3721,-13.72,31.16,-20.85
516,165516984,0.4883,-0.6562,-0.3770,-12.38,30.37,-20.12
517,165521984,0.4775,-0.6484,-0.3682,-10.98,29.51,-19.57
518,165526984,0.4717,-0.6440,-0.3604,-9.45,28.48,-18.72
519,165531984,0.4722,-0.6387,-0.3555,-7.80,27.62,-18.11
520,165536984,0.4751,-0.6274,-0.3481,-6.16,26.46,-17.50
521,165541982,0.4790,-0.6240,-0.3530,-4.33,25.18,-16.89
522,165546984,0.4790,-0.6177,-0.3442,-2.26,23.29,-16.16
523,165551984,0.4829,-0.6113,-0.3374,-0.79,22.26,-15.49
524,165556984,0.4819,-0.6064,-0.3354,0.91,20.67,-14.88
525,165561984,0.4673,-0.5938,-0.3306,2.50,19.15,-14.21
526,165566985,0.4595,-0.5835,-0.3188,4.15,17.26,-13.29
527,165571984,0.4531,-0.5840,-0.3130,5.67,15.43,-12.80
528,165576984,0.4546,-0.5801,-0.3052,7.13,13.60,-11.95
529,165581984,0.4600,-0.5859,-0.3013,8.29,11.52,-10.91
530,165586984,0.4648,-0.5894,-0.3032,9.27,9.63,-10.06
531,165591984,0.4653,-0.5947,-0.2964,9.57,7.50,-9.15
532,165596984,0.4634,-0.5962,-0.3032,9.39,5.49,-8.29
533,165601984,0.4668,-0.6025,-0.2993,8.48,2.93,-7.32
534,165606984,0.4697,-0.5972,-0.2915,7.44,1.28,-6.71
535,165611984,0.4805,-0.5957,-0.2949,5.91,-0.79,-6.16
536,165616984,0.4922,-0.5952,-0.2930,3.84,-2.80,-5.55
537,165621984,0.5024,-0.5996,-0.2817,1.40,-5.00,-5.12
538,165626984,0.5088,-0.6030,-0.2871,-1.46,-7.26,-4.57
539,165631984,0.5063,-0.6113,-0.2925,-4.51,-9.45,-3.96
540,165636984,0.5142,-0.6167,-0.2871,-7.93,-11.95,-3.23
541,165641985,0.5156,-0.6309,-0.2817,-11.71,-14.33,-2.32
542,165646984,0.5259,-0.6382,-0.2700,-15.79,-16.77,-1.46
543,165651984,0.5303,-0.6465,-0.2544,-20.37,-19.15,-0.37
544,165656984,0.5391,-0.6626,-0.2417,-25.30,-21.59,0.91
545,165661984,0.5464,-0.6865,-0.2231,-30.24,-23.78,2.38
546,165666984,0.5527,-0.6963,-0.2168,-34.76,-26.04,4.09
547,165671984,0.5610,-0.7085,-0.2075,-38.60,-28.17,5.73
548,165676984,0.5576,-0.7178,-0.1968,-41.89,-30.30,7.26
549,165681983,0.5513,-0.7246,-0.1914,-43.90,-32.20,8.60
550,165686984,0.5361,-0.7339,-0.1763,-45.00,-33.96,10.00
551,165691984,0.5259,-0.7432,-0.1592,-45.00,-35.00,10.85
552,165696983,0.5210,-0.7563,-0.1406,-43.78,-35.61,11.59
553,165701982,0.5166,-0.7710,-0.1147,-41.04,-35.73,12.13
554,165706982,0.5176,-0.7871,-0.1060,-37.32,-35.61,12.50
555,165711984,0.5215,-0.8022,-0.0938,-32.50,-35.18,12.80
556,165717475,0.5312,-0.8271,-0.0796,-25.61,-34.15,13.05
557,165721984,0.5386,-0.8535,-0.0679,-20.85,-33.29,13.11
558,165726984,0.5620,-0.8765,-0.0518,-15.06,-32.01,13.23
559,165731984,0.5840,-0.9067,-0.0273,-10.12,-30.55,13.23
560,165736984,0.6025,-0.9302,-0.0054,-5.91,-28.84,13.48
561,165741984,0.6211,-0.9531,0.0117,-2.20,-26.28,13.72
562,165746984,0.6333,-0.9609,0.0142,-0.43,-24.70,13.78
563,165751985,0.6426,-0.9595,0.0166,1.22,-22.62,13.78
564,165756984,0.6606,-0.9624,0.0244,2.26,-20.55,13.72
565,165761984,0.6724,-0.9575,0.0288,2.44,-18.66,13.72
566,165766983,0.6973,-0.9565,0.0332,2.26,-16.71,13.66
567,165771984,0.7202,-0.9443,0.0249,1.28,-15.12,13.54
568,165776984,0.7368,-0.9316,0.0122,0.06,-13.60,13.35
569,165781984,0.7363,-0.9087,-0.0029,-1.65,-12.38,12.99
570,165787385,0.7339,-0.8931,-0.0210,-3.96,-11.46,12.32
571,165791984,0.7305,-0.8779,-0.0376,-6.16,-11.04,11.95
572,165796984,0.7368,-0.8594,-0.0479,-10.00,-10.67,11.40
573,165801984,0.7422,-0.8438,-0.0576,-13.23,-10.61,10.91
574,165806984,0.7485,-0.8291,-0.0791,-19.09,-10.67,10.37
575,165811984,0.7456,-0.8174,-0.0972,-24.82,-10.85,10.00
576,165816984,0.7358,-0.8101,-0.1113,-31.46,-11.16,9.70
577,165821984,0.7246,-0.7954,-0.1362,-39.09,-11.46,9.27
578,165826984,0.7109,-0.7852,-0.1553,-47.44,-11.65,8.66
579,165831984,0.6948,-0.7759,-0.1787,-56.28,-11.71,7.87
580,165836984,0.6777,-0.7759,-0.1982,-65.12,-11.34,7.13
581,165841984,0.6558,-0.7749,-0.2363,-73.54,-10.91,6.28
582,165846984,0.6396,-0.7739,-0.2690,-80.91,-10.37,5.37
583,165851984,0.6250,-0.7681,-0.3022,-86.95,-9.39,4.21
584,165856984,0.6045,-0.7651,-0.3389,-91.52,-8.35,2.93
585,165861984,0.5776,-0.7749,-0.3716,-94.39,-6.77,1.52
586,165866984,0.5532,-0.7925,-0.3950,-95.24,-4.88,0.12
587,165871984,0.5249,-0.7925,-0.4351,-93.35,-2.68,-1.40
588,165876984,0.5020,-0.7944,-0.4829,-88.35,-0.55,-3.05
589,165881984,0.4814,-0.7979,-0.5269,-80.37,1.95,-5.00
590,165887425,0.4551,-0.8013,-0.5601,-69.45,4.33,-6.95
591,165891984,0.4380,-0.8096,-0.5806,-56.10,6.89,-8.84
592,165896984,0.4287,-0.8276,-0.6147,-40.24,9.39,-10.85
593,165901984,0.4312,-0.8398,-0.6216,-22.74,12.13,-12.68
594,165906984,0.4453,-0.8496,-0.6431,-3.60,14.57,-14.51
595,165911984,0.4575,-0.8623,-0.6519,16.46,17.13,-16.34
596,165916984,0.4512,-0.8633,-0.6660,36.46,19.82,-18.29
597,165921984,0.4409,-0.8608,-0.6646,56.10,22.13,-20.18
598,165926984,0.4346,-0.8667,-0.6562,73.90,24.51,-22.26
599,165931984,0.4404,-0.8779,-0.6460,89.33,26.77,-24.15
600,165936984,0.4590,-0.8848,-0.6328,101.95,28.90,-25.79
601,165941984,0.4722,-0.8936,-0.6133,111.28,31.04,-27.38
602,165946984,0.4863,-0.9004,-0.5928,118.11,33.23,-28.78
603,165951983,0.4937,-0.9004,-0.5771,122.68,35.06,-30.00
604,165956984,0.4907,-0.8970,-0.5527,125.24,36.95,-31.22
605,165961982,0.4937,-0.8960,-0.5464,126.77,38.66,-32.50
606,165966986,0.4844,-0.8965,-0.5186,128.72,40.30,-33.48
607,165971984,0.4746,-0.8828,-0.5078,128.11,41.59,-34.76
608,165976984,0.4673,-0.8672,-0.4912,129.39,42.56,-35.98
609,165981984,0.4590,-0.8403,-0.4834,129.51,43.23,-37.32
610,165986984,0.4561,-0.8115,-0.4800,129.27,43.35,-38.84
611,165991985,0.4722,-0.8032,-0.4443,126.83,43.41,-40.24
612,165996983,0.4976,-0.7954,-0.4106,123.05,43.48,-41.34
613,166001982,0.5234,-0.7876,-0.3706,117.01,43.48,-42.20
614,166006982,0.5430,-0.7769,-0.3271,109.21,43.54,-42.74
615,166011982,0.5601,-0.7671,-0.2905,99.76,43.72,-43.05
616,166016982,0.5698,-0.7500,-0.2539,89.76,43.90,-42.99
617,166021984,0.5747,-0.7339,-0.2222,78.96,43.90,-42.93
618,166026982,0.5869,-0.7061,-0.1895,67.68,44.09,-42.68
619,166031984,0.5957,-0.6870,-0.1582,56.40,43.84,-42.32
620,166036984,0.6089,-0.6714,-0.1201,45.43,44.09,-41.89
621,166041984,0.6060,-0.6460,-0.0894,34.88,43.90,-41.28
622,166046984,0.7554,-0.6538,-0.0747,22.26,43.11,-39.39
623,166051984,0.5923,-0.6040,0.0112,8.35,42.32,-36.77
624,166056984,0.5454,-0.4756,0.0571,-2.38,41.52,-35.18
625,166061985,0.6064,-0.3457,-0.0225,-9.39,40.73,-33.90
626,166067033,0.7109,-0.1758,0.0591,-14.94,39.33,-31.89
627,166071984,0.6982,-0.2051,0.0928,-21.71,37.99,-29.21
628,166076984,0.6572,-0.2847,0.0703,-26.95,35.67,-25.30
629,166081984,0.6602,-0.1831,0.0591,-30.49,33.66,-20.85
630,166086984,0.6157,-0.1499,0.0283,-30.43,31.52,-15.49
631,166091984,0.6143,-0.1328,-0.0410,-27.50,29.63,-9.94
632,166096984,0.6748,-0.0557,-0.1011,-22.20,27.74,-4.39
633,166101984,0.7007,-0.0088,-0.1147,-15.12,26.04,0.91
634,166106984,0.6865,0.0015,-0.1689,-6.95,24.57,6.46
635,166111984,0.6846,0.0029,-0.2705,3.54,23.48,11.95
636,166116985,0.6938,-0.0439,-0.3306,16.71,22.87,17.62
637,166121984,0.6792,-0.1157,-0.3325,28.29,22.87,22.99
638,166126984,0.6655,-0.1611,-0.3086,38.72,23.48,27.50
639,166131985,0.7231,-0.1948,-0.3062,46.65,24.15,31.46
640,166136984,0.7549,-0.2554,-0.2925,49.82,24.45,34.94
641,166142001,0.7500,-0.3218,-0.2275,48.96,25.24,37.87
642,166146984,0.7280,-0.3813,-0.1948,44.27,25.79,39.94
643,166151983,0.7046,-0.4775,-0.2690,36.95,26.10,41.46
644,166156984,0.6958,-0.5469,-0.2173,31.89,26.71,42.32
645,166161984,0.7227,-0.5854,-0.1797,24.51,28.23,42.20
646,166166984,0.6943,-0.6411,-0.2188,13.17,28.78,41.40
647,166171984,0.6826,-0.6719,-0.1968,0.98,29.57,39.94
648,166176983,0.6694,-0.6890,-0.1611,-12.07,30.24,37.99
649,166181984,0.6660,-0.7080,-0.1875,-24.82,30.98,35.61
650,166186984,0.6621,-0.7217,-0.2275,-37.44,31.40,32.93
651,166191983,0.6499,-0.7402,-0.2129,-49.02,31.83,30.12
652,166196986,0.6406,-0.7622,-0.1997,-59.27,32.62,27.07
653,166201984,0.6406,-0.7700,-0.2324,-67.68,33.29,24.33
654,166206984,0.6401,-0.7734,-0.2451,-74.15,33.78,21.46
655,166211984,0.6440,-0.7788,-0.2358,-78.41,34.33,18.66
656,166216985,0.6353,-0.7822,-0.2417,-80.67,34.82,15.91
657,166221984,0.6328,-0.7876,-0.2627,-81.28,35.06,13.05
658,166226983,0.6343,-0.7876,-0.2510,-80.55,35.43,10.06
659,166231984,0.6255,-0.7856,-0.2349,-79.09,35.79,7.07
660,166237444,0.6245,-0.7798,-0.2275,-77.13,36.10,4.09
661,166241984,0.6260,-0.7754,-0.2236,-75.24,36.52,1.10
662,166246984,0.6255,-0.7739,-0.2036,-73.84,36.95,-1.52
663,166251984,0.6211,-0.7700,-0.1729,-73.05,37.38,-4.15
664,166256984,0.6313,-0.7720,-0.1611,-73.29,37.93,-6.59
665,166261984,0.6382,-0.7705,-0.1445,-74.21,38.29,-8.72
666,166266984,0.6519,-0.7676,-0.1177,-75.98,38.96,-10.73
667,166271984,0.6616,-0.7622,-0.1016,-77.74,39.70,-12.50
668,166276984,0.6641,-0.7637,-0.0942,-79.94,40.73,-14.09
669,166281984,0.6729,-0.7705,-0.0840,-82.13,41.59,-15.43
670,166286984,0.6797,-0.7773,-0.0542,-84.15,42.74,-16.40
671,166291984,0.6899,-0.7817,-0.0459,-85.67,43.84,-17.13
672,166296982,0.7007,-0.7788,-0.0381,-86.59,44.82,-17.38
673,166301982,0.7051,-0.7798,-0.0293,-86.65,45.55,-17.38
674,166306982,0.7148,-0.7798,-0.0200,-85.55,46.40,-17.01
675,166311984,0.7202,-0.7812,-0.0015,-83.41,47.01,-16.46
676,166316984,0.7251,-0.7778,0.0034,-80.37,47.44,-15.61
677,166321984,0.7300,-0.7627,0.0161,-76.34,47.68,-14.51
678,166326984,0.7349,-0.7573,0.0308,-71.59,47.93,-13.29
679,166331984,0.7358,-0.7544,0.0439,-65.79,48.05,-12.07
680,166336984,0.7354,-0.7417,0.0518,-59.76,47.99,-10.67
681,166341985,0.7354,-0.7363,0.0610,-52.87,48.11,-9.15
682,166346984,0.7246,-0.7271,0.0713,-45.61,48.48,-7.80
683,166351984,0.7129,-0.7227,0.0811,-38.29,48.48,-6.40
684,166356984,0.7007,-0.7139,0.0820,-30.73,48.72,-4.88
685,166361984,0.6924,-0.7012,0.0918,-23.29,49.15,-3.54
686,166366984,0.6768,-0.6870,0.1089,-15.91,49.76,-2.07
687,166371984,0.6621,-0.6782,0.1128,-8.60,50.67,-0.67
688,166376984,0.6445,-0.6699,0.1172,-1.77,51.46,0.91
689,166381984,0.6309,-0.6621,0.1313,4.15,52.32,2.32
690,166386984,0.6284,-0.6611,0.1479,9.51,53.41,3.60
691,166391984,0.6138,-0.6553,0.1494,14.33,54.45,4.63
692,166396984,0.6050,-0.6450,0.1528,19.15,55.67,5.79
693,166401985,0.5898,-0.6318,0.1489,23.41,57.07,6.83
694,166406984,0.5820,-0.6172,0.1562,27.26,58.35,7.56
695,166411984,0.5718,-0.6030,0.1572,30.79,59.82,8.48
696,166416984,0.5664,-0.5864,0.1719,34.15,61.34,9.09
697,166421984,0.5615,-0.5649,0.1880,37.07,62.80,9.63
698,166426984,0.5498,-0.5376,0.2017,39.21,63.96,10.24
699,166431984,0.5273,-0.5059,0.2075,40.73,65.30,10.98
700,166436986,0.5088,-0.4961,0.2021,42.07,66.40,11.65
701,166441984,0.5171,-0.5122,0.1968,42.87,67.20,12.62
702,166446984,0.5371,-0.5332,0.2046,43.23,67.93,13.90
703,166451984,0.5591,-0.5547,0.2041,43.11,68.48,15.30
704,166456984,0.5703,-0.5620,0.2051,42.50,69.27,16.95
705,166461984,0.5830,-0.5596,0.2148,41.89,69.63,18.78
706,166466984,0.5903,-0.5547,0.2222,41.28,70.37,20.73
707,166471984,0.5957,-0.5591,0.2231,41.16,70.85,22.74
708,166476984,0.5977,-0.5610,0.2227,41.52,71.40,24.88
709,166482046,0.6011,-0.5532,0.2505,42.07,71.95,27.32
710,166486984,0.6104,-0.5415,0.2686,42.80,72.44,29.82
711,166491983,0.6240,-0.5430,0.2739,43.78,72.87,32.50
712,166496984,0.6357,-0.5352,0.2944,45.43,73.23,35.24
713,166501984,0.6304,-0.5186,0.3032,47.38,73.84,37.87
714,166506984,0.6128,-0.5132,0.3223,49.94,74.63,40.67
715,166511984,0.5957,-0.5034,0.3330,53.35,75.37,43.41
716,166516984,0.5918,-0.4819,0.3252,57.26,76.34,46.40
717,166521984,0.5791,-0.4692,0.3584,61.71,77.26,49.45
718,166526984,0.5854,-0.4810,0.3687,66.59,77.93,52.62
719,166531984,0.6089,-0.5000,0.3711,71.59,78.54,55.98
720,166536984,0.6260,-0.5146,0.3755,76.16,79.02,59.51
721,166541984,0.6299,-0.5239,0.4004,79.76,79.39,63.48
722,166546984,0.6299,-0.5132,0.4761,82.32,80.06,67.20
723,166551984,0.6152,-0.5054,0.5039,83.11,80.30,71.10
724,166556984,0.6030,-0.5112,0.4741,84.09,80.55,74.94
725,166561984,0.6060,-0.5132,0.4902,85.49,80.49,79.02
726,166566984,0.6104,-0.5098,0.5391,87.32,80.30,83.11
727,166571984,0.6123,-0.5146,0.5366,89.15,80.12,85.98
728,166576984,0.6084,-0.5283,0.5117,91.40,79.63,90.43
729,166581984,0.5977,-0.5361,0.5508,94.27,79.33,94.63
730,166586984,0.5898,-0.5454,0.5762,98.23,79.27,98.23
731,166591984,0.5806,-0.5596,0.5801,103.48,79.33,101.89
732,166596983,0.5732,-0.5732,0.5825,108.60,79.45,105.73
733,166601982,0.5669,-0.5908,0.6050,113.78,79.27,109.39
734,166606982,0.5693,-0.6094,0.6309,118.11,79.09,112.99
735,166611982,0.5684,-0.6328,0.6416,121.77,78.60,116.65
736,166616982,0.5649,-0.6226,0.6709,124.57,77.74,119.82
737,166621983,0.5488,-0.6265,0.7065,126.52,76.95,122.87
738,166626984,0.5264,-0.6343,0.7329,129.33,76.04,125.49
739,166631984,0.5103,-0.6353,0.7471,129.70,74.76,127.87
740,166636984,0.4927,-0.6519,0.7847,129.51,73.17,130.06
741,166641984,0.4780,-0.6748,0.8325,129.39,71.65,132.38
742,166646984,0.4546,-0.7026,0.8765,129.15,70.00,134.45
743,166651984,0.4209,-0.7471,0.9092,127.68,68.11,136.65
744,166656984,0.3955,-0.7915,0.9478,124.76,65.79,138.78
745,166661984,0.3760,-0.8257,0.9849,121.46,63.41,140.91
746,166666984,0.3564,-0.8521,1.0186,117.87,60.24,142.93
747,166671984,0.3281,-0.9453,1.0171,113.84,56.28,145.06
748,166676984,0.3311,-0.8809,1.1074,109.57,51.65,146.83
749,166681984,0.3271,-0.8735,1.1597,106.10,46.71,147.80
750,166686983,0.2773,-0.9229,1.1675,103.23,40.79,148.66
751,166691984,0.2422,-0.9937,1.2046,101.04,34.45,149.51
752,166696986,0.2329,-1.0537,1.2866,99.70,28.35,150.61
753,166701983,0.2183,-1.1108,1.3350,99.39,21.59,152.07
754,166706984,0.1494,-1.1558,1.3467,99.76,14.63,153.48
755,166711984,0.1226,-1.1816,1.3945,100.98,7.26,154.70
756,166716984,0.0889,-1.1938,1.4492,102.13,-0.12,155.79
757,166722434,0.0605,-1.2080,1.4668,103.41,-8.23,156.59
758,166726984,0.0381,-1.2358,1.4746,104.94,-19.02,157.13
759,166731984,0.0083,-1.2759,1.5322,105.73,-25.49,157.44
760,166736984,-0.0068,-1.3164,1.5605,106.40,-34.70,157.68
761,166741984,-0.0273,-1.3452,1.5537,107.01,-44.63,157.99
762,166746984,-0.0547,-1.3755,1.5586,107.38,-54.94,157.93
763,166751984,-0.0952,-1.3970,1.6025,107.32,-65.67,157.74
764,166756984,-0.1392,-1.4185,1.6221,106.71,-76.10,157.26
765,166761984,-0.1860,-1.4600,1.6372,105.43,-88.78,156.22
766,166766984,-0.2251,-1.4829,1.6333,104.21,-97.32,155.12
767,166771984,-0.2661,-1.5039,1.6499,102.87,-108.29,153.60
768,166776984,-0.2974,-1.5322,1.6597,101.46,-119.09,151.40
769,166781984,-0.3330,-1.5708,1.6567,100.24,-130.00,149.09
770,166786984,-0.3667,-1.6035,1.6548,99.33,-140.98,146.40
771,166791984,-0.4043,-1.6318,1.6606,98.84,-151.95,143.54
772,166796985,-0.4326,-1.6499,1.6431,99.02,-162.80,140.55
773,166801984,-0.4727,-1.6733,1.6216,99.76,-173.66,137.32
774,166806984,-0.5132,-1.7075,1.5957,101.22,-186.46,133.41
775,166812482,-0.5459,-1.7456,1.5747,102.62,-197.13,130.06
776,166816984,-0.5781,-1.7681,1.5513,103.72,-205.49,127.50
777,166821984,-0.6226,-1.7959,1.5205,104.82,-215.37,124.15
778,166826985,-0.6626,-1.8164,1.4805,105.24,-225.37,120.49
779,166831984,-0.6953,-1.8350,1.4346,105.61,-234.88,116.59
780,166836984,-0.7280,-1.8496,1.3848,105.73,-244.39,112.44
781,166841984,-0.7603,-1.8608,1.3506,105.61,-253.23,107.99
782,166846984,-0.7920,-1.8672,1.2969,105.12,-261.77,103.23
783,166851984,-0.8149,-1.8735,1.2393,104.51,-270.18,98.11
784,166856984,-0.8408,-1.8799,1.1821,103.90,-278.11,92.80
785,166861984,-0.8608,-1.8740,1.1309,103.54,-285.55,86.59
786,166866984,-0.8706,-1.8623,1.0771,103.78,-292.56,82.07
787,166871984,-0.8813,-1.8618,1.0137,105.30,-299.02,76.77
788,166877464,-0.8843,-1.8750,0.9385,108.17,-306.16,70.98
789,166881984,-0.9048,-1.8823,0.9043,110.06,-310.79,67.20
790,166886984,-0.9331,-1.8965,0.8506,111.10,-315.67,62.50
791,166891985,-0.9482,-1.9023,0.7661,110.67,-319.76,57.56
792,166896982,-0.8740,-1.8452,0.4160,108.48,-324.33,52.26
793,166901982,-0.7266,-1.8848,0.3291,106.28,-330.61,46.28
794,166906982,-0.6040,-1.9102,0.2729,101.04,-334.76,39.82
795,166911982,-0.5620,-1.8857,0.0576,90.43,-338.96,32.56
796,166916982,-0.5737,-1.8516,-0.0386,77.80,-342.87,24.27
797,166921984,-0.5703,-1.9097,-0.0713,65.00,-345.79,15.00
798,166926983,-0.6099,-2.0049,-0.0156,53.11,-346.89,5.67
799,166931984,-0.6709,-2.0312,-0.0332,44.45,-345.55,-3.60
800,166937331,-0.7612,-2.0859,0.0454,39.39,-343.05,-12.44
801,166941984,-0.8115,-2.0850,0.0674,37.80,-338.78,-20.98
802,166946984,-0.8477,-2.0454,0.0156,39.51,-333.66,-29.45
803,166951984,-0.8564,-2.0146,-0.0396,43.41,-328.11,-37.87
804,166956984,-0.8257,-1.9673,-0.1299,48.29,-321.04,-47.87
805,166961984,-0.8154,-1.9561,-0.1880,51.10,-315.98,-54.63
806,166966984,-0.7607,-1.9404,-0.2754,53.78,-309.51,-62.56
807,166971984,-0.6792,-1.9058,-0.3384,55.73,-302.93,-70.24
808,166976984,-0.6104,-1.8833,-0.3647,56.95,-296.28,-77.62
809,166981984,-0.5771,-1.8403,-0.3867,57.20,-289.45,-84.33
810,166986984,-0.5493,-1.7700,-0.4062,56.83,-282.38,-90.73
811,166991984,-0.5215,-1.6948,-0.4180,56.22,-275.49,-96.52
812,166996984,-0.4727,-1.6270,-0.4487,55.37,-269.02,-101.89
813,167001984,-0.4121,-1.5601,-0.4917,54.51,-262.62,-106.95
814,167006984,-0.3716,-1.5029,-0.5288,53.66,-256.46,-111.34
815,167011984,-0.3276,-1.4263,-0.5576,52.68,-249.63,-115.79
816,167016984,-0.3032,-1.3833,-0.5859,52.07,-245.24,-118.48
817,167021984,-0.2881,-1.3267,-0.6216,51.34,-239.63,-121.46
818,167026984,-0.2754,-1.2705,-0.6436,50.37,-234.33,-124.15
819,167031984,-0.2593,-1.2114,-0.6606,48.84,-228.84,-126.52
820,167036984,-0.2515,-1.1587,-0.6787,46.95,-223.05,-128.96
821,167041984,-0.2500,-1.1147,-0.7051,45.49,-217.01,-130.98
822,167046985,-0.2231,-1.0732,-0.7188,43.96,-210.85,-132.62
823,167051984,-0.1987,-1.0176,-0.7319,42.50,-204.39,-133.96
824,167056984,-0.1899,-0.9795,-0.7568,41.22,-198.05,-134.88
825,167061984,-0.1621,-0.9336,-0.7358,39.94,-191.52,-135.30
826,167066984,-0.1367,-0.9053,-0.7500,38.48,-184.51,-135.37
827,167071985,-0.0923,-0.8560,-0.7319,36.77,-177.62,-134.82
828,167076984,-0.0630,-0.7920,-0.7168,34.39,-170.30,-134.15
829,167081984,-0.0225,-0.7461,-0.7305,31.83,-163.17,-132.87
830,167086984,0.0151,-0.6904,-0.7192,28.72,-156.04,-131.22
831,167091984,0.0430,-0.6650,-0.7183,25.43,-148.66,-129.27
832,167097141,0.0835,-0.6396,-0.6924,22.07,-141.52,-126.71
833,167102461,0.1235,-0.5840,-0.6821,18.41,-132.93,-123.05
834,167106984,0.1606,-0.5532,-0.7231,16.52,-127.32,-120.24
835,167111984,0.2012,-0.5039,-0.7192,14.82,-120.67,-116.59
836,167116985,0.2144,-0.4678,-0.6909,13.90,-114.27,-112.38
837,167121984,0.2397,-0.4346,-0.6875,14.02,-107.99,-107.99
838,167126984,0.2578,-0.4038,-0.6953,14.76,-102.07,-103.11
839,167131984,0.2686,-0.3877,-0.6685,16.34,-96.22,-98.11
840,167136985,0.2866,-0.3672,-0.6475,18.35,-90.67,-92.93
841,167141984,0.3027,-0.3555,-0.6396,20.91,-85.12,-87.50
842,167146984,0.3164,-0.3403,-0.6265,23.54,-79.94,-82.07
843,167151984,0.3325,-0.3267,-0.5957,25.91,-74.70,-76.77
844,167156984,0.3486,-0.3203,-0.5781,27.80,-69.21,-71.34
845,167161984,0.3643,-0.3096,-0.5698,28.96,-64.02,-66.04
846,167166984,0.3872,-0.3042,-0.5547,29.21,-58.90,-60.85
847,167171985,0.4048,-0.3008,-0.5430,28.41,-53.78,-55.91
848,167176984,0.4219,-0.2930,-0.5376,26.71,-49.02,-51.16
849,167181984,0.4380,-0.2852,-0.5220,24.27,-44.21,-46.46
850,167186985,0.4502,-0.2827,-0.5024,20.98,-39.45,-42.26
851,167191982,0.4648,-0.2803,-0.4839,17.07,-35.18,-38.11
852,167196985,0.4790,-0.2769,-0.4648,13.11,-30.67,-34.02
853,167201982,0.4844,-0.2739,-0.4507,9.09,-26.65,-30.43
854,167206983,0.4893,-0.2778,-0.4277,5.18,-22.50,-26.89
855,167211984,0.5107,-0.2856,-0.4092,1.89,-18.84,-23.48
856,167216982,0.5215,-0.2886,-0.3926,-1.16,-15.43,-20.18
857,167221984,0.5244,-0.2852,-0.3784,-3.23,-12.07,-17.07
858,167226984,0.5249,-0.2910,-0.3643,-4.39,-9.09,-13.96
859,167231982,0.5366,-0.2949,-0.3423,-4.51,-6.28,-11.10
860,167236984,0.5420,-0.2993,-0.3228,-3.96,-3.66,-8.29
861,167241982,0.5537,-0.3013,-0.2959,-2.93,-0.98,-5.61
862,167246984,0.5615,-0.3066,-0.2778,-1.40,1.34,-3.17
863,167251984,0.5674,-0.3120,-0.2603,0.18,3.84,-0.79
864,167256984,0.5776,-0.3247,-0.2427,2.01,6.34,2.07
865,167261984,0.5854,-0.3286,-0.2158,3.11,7.87,3.90
866,167266984,0.5957,-0.3359,-0.2085,3.84,9.76,6.10
867,167271984,0.6074,-0.3442,-0.1860,3.84,11.65,8.17
868,167276984,0.6196,-0.3491,-0.1660,3.35,13.35,10.30
869,167281984,0.6328,-0.3574,-0.1494,1.83,15.00,12.20
870,167286984,0.6465,-0.3594,-0.1396,-0.06,16.34,14.02
871,167291984,0.6582,-0.3628,-0.1245,-2.68,17.68,15.79
872,167296984,0.6729,-0.3696,-0.1030,-5.43,19.02,17.26
873,167302042,0.6890,-0.3726,-0.0879,-8.60,19.94,18.78
874,167306984,0.7012,-0.3809,-0.0757,-11.83,21.10,19.88
875,167311984,0.7139,-0.3862,-0.0522,-15.06,21.77,21.10
876,167316984,0.7241,-0.3950,-0.0352,-18.05,22.38,22.32
877,167321984,0.7329,-0.4102,-0.0220,-21.04,22.87,23.41
878,167326984,0.7402,-0.4199,-0.0112,-23.78,22.99,24.51
879,167331984,0.7432,-0.4321,0.0024,-26.04,23.17,25.67
880,167336984,0.7529,-0.4429,0.0078,-28.17,22.99,26.83
881,167341984,0.7617,-0.4575,0.0244,-29.76,22.93,27.99
882,167346984,0.7676,-0.4707,0.0293,-31.10,22.62,28.96
883,167351984,0.7695,-0.4834,0.0308,-32.20,22.07,30.12
884,167356984,0.7734,-0.4976,0.0420,-33.23,21.59,31.10
885,167361984,0.7725,-0.5142,0.0498,-34.15,21.04,32.13
886,167366984,0.7734,-0.5308,0.0503,-35.00,20.49,33.11
887,167371984,0.7793,-0.5449,0.0571,-35.61,20.06,34.09
888,167376984,0.7822,-0.5581,0.0620,-36.28,19.45,35.00
889,167381984,0.7832,-0.5728,0.0679,-36.83,18.84,35.98
890,167386984,0.7861,-0.5874,0.0605,-37.32,18.35,36.71
891,167391984,0.7866,-0.6030,0.0688,-37.80,17.93,37.38
892,167396984,0.7856,-0.6133,0.0693,-38.11,17.38,38.23
893,167401984,0.7832,-0.6221,0.0654,-38.41,16.95,38.90
894,167406984,0.7744,-0.6377,0.0659,-38.72,16.40,39.27
895,167411984,0.7666,-0.6465,0.0605,-38.90,15.98,39.76
896,167416984,0.7578,-0.6465,0.0596,-39.15,15.49,40.06
897,167422417,0.7417,-0.6611,0.0547,-39.33,14.82,40.43
898,167426984,0.7339,-0.6670,0.0576,-39.39,14.27,40.55
899,167431984,0.7256,-0.6626,0.0503,-39.57,13.84,40.55
900,167436984,0.7129,-0.6650,0.0454,-39.76,13.35,40.37
901,167441984,0.6982,-0.6772,0.0444,-39.82,12.87,40.24
902,167446984,0.6895,-0.6670,0.0435,-39.82,12.56,40.12
903,167451984,0.6860,-0.6665,0.0327,-40.00,12.26,39.88
904,167456984,0.6797,-0.6646,0.0288,-40.37,11.83,39.33
905,167461984,0.6748,-0.6602,0.0205,-41.10,11.59,38.84
906,167466984,0.6748,-0.6587,0.0229,-42.32,11.52,38.41
907,167471984,0.6636,-0.6602,0.0342,-44.70,11.04,37.68
908,167476984,0.6509,-0.6685,0.0229,-46.77,11.22,37.20
909,167481984,0.6626,-0.6523,0.0151,-49.76,10.98,36.71
910,167486984,0.6670,-0.6499,0.0142,-53.54,10.79,36.04
911,167491984,0.6313,-0.6528,0.0107,-57.74,10.73,35.43
912,167496984,0.6226,-0.6514,0.0190,-62.44,10.49,34.88
913,167501982,0.6274,-0.6519,0.0039,-67.32,10.43,34.27
914,167506982,0.6152,-0.6553,0.0010,-72.26,10.06,33.66
915,167513000,0.6138,-0.6675,-0.0024,-77.93,9.76,33.48
916,167516984,0.5928,-0.6548,-0.0063,-81.40,9.57,33.11
917,167521986,0.5664,-0.6416,-0.0112,-85.91,9.21,32.62
918,167526983,0.5503,-0.6372,-0.0288,-88.72,8.84,32.32
919,167531984,0.5356,-0.6274,-0.0186,-91.77,8.54,32.13
920,167537452,0.5273,-0.6235,-0.0317,-94.70,8.17,31.71
921,167541984,0.5415,-0.6221,-0.0552,-96.40,7.87,31.65
922,167546984,0.5537,-0.6201,-0.0635,-97.74,7.56,31.34
923,167551984,0.5640,-0.6094,-0.0596,-98.78,7.20,31.16
924,167556984,0.5806,-0.6045,-0.0771,-99.45,6.95,30.91
925,167561984,0.5991,-0.5986,-0.0972,-99.94,6.52,30.67
926,167566984,0.6235,-0.5898,-0.1074,-100.06,6.16,30.49
927,167571984,0.6396,-0.5889,-0.1060,-100.43,5.73,30.30
928,167576984,0.6431,-0.5957,-0.1348,-100.98,5.49,30.18
929,167581984,0.6348,-0.5967,-0.1519,-101.71,5.30,30.12
930,167586984,0.6338,-0.6006,-0.1562,-102.74,5.24,30.18
931,167591984,0.6309,-0.6035,-0.1680,-104.21,5.00,30.37
932,167596984,0.6265,-0.6084,-0.1753,-106.10,4.94,30.61
933,167601986,0.6323,-0.6089,-0.1812,-108.48,5.06,30.98
934,167606983,0.6172,-0.6167,-0.1807,-111.34,5.30,31.28
935,167611984,0.5986,-0.6167,-0.1948,-115.12,5.79,31.83
936,167616984,0.5825,-0.6182,-0.2080,-118.17,6.28,32.38
937,167621984,0.5654,-0.6094,-0.2119,-121.34,6.89,32.80
938,167626984,0.5596,-0.6099,-0.2144,-123.72,7.56,33.23
939,167631984,0.5459,-0.6025,-0.2197,-127.44,8.66,33.66
940,167636984,0.5366,-0.6021,-0.2266,-129.57,9.27,34.27
941,167641984,0.5244,-0.5977,-0.2290,-132.74,10.61,35.06
942,167646984,0.5283,-0.5806,-0.2314,-134.94,11.71,35.73
943,167651984,0.5386,-0.5713,-0.2349,-136.83,12.56,36.34
944,167656984,0.5586,-0.5610,-0.2456,-138.41,13.48,37.20
945,167661984,0.5737,-0.5518,-0.2490,-140.00,14.39,37.80
946,167666984,0.5928,-0.5493,-0.2466,-141.40,15.24,38.60
947,167671984,0.5942,-0.5503,-0.2549,-142.87,16.04,39.45
948,167676984,0.5947,-0.5552,-0.2510,-144.45,16.52,40.30
949,167681984,0.5938,-0.5591,-0.2559,-146.10,17.13,41.46
950,167686984,0.5889,-0.5605,-0.2583,-147.93,17.87,42.56
951,167691984,0.5864,-0.5620,-0.2676,-150.00,18.48,43.78
952,167696984,0.5747,-0.5635,-0.2705,-152.26,19.15,45.06
953,167701984,0.5693,-0.5625,-0.2637,-154.33,19.94,46.40
954,167706984,0.5557,-0.5635,-0.2627,-156.46,20.79,47.80
955,167712114,0.5439,-0.5703,-0.2593,-158.35,21.46,49.39
956,167716984,0.5352,-0.5674,-0.2676,-159.94,22.32,51.34
957,167721984,0.5259,-0.5718,-0.2632,-161.28,22.99,53.11
958,167726984,0.5190,-0.5713,-0.2583,-162.26,23.60,55.12
959,167731984,0.5127,-0.5615,-0.2607,-162.74,24.27,57.13
960,167736984,0.5063,-0.5586,-0.2593,-162.80,24.82,59.21
961,167741984,0.5015,-0.5542,-0.2617,-162.50,25.55,61.34
962,167746984,0.5000,-0.5557,-0.2651,-161.77,26.04,63.66
963,167751984,0.4932,-0.5552,-0.2651,-160.79,26.34,65.98
964,167756984,0.4893,-0.5522,-0.2598,-159.76,26.71,68.54
965,167761984,0.4810,-0.5557,-0.2593,-158.41,27.01,71.22
966,167766984,0.4834,-0.5542,-0.2622,-156.89,27.20,73.78
967,167771984,0.4878,-0.5552,-0.2646,-155.43,27.26,76.59
968,167776984,0.4917,-0.5483,-0.2593,-153.66,27.38,79.45
969,167781984,0.4863,-0.5469,-0.2622,-152.01,27.44,82.20
970,167786984,0.4761,-0.5449,-0.2588,-150.24,27.56,84.88
971,167791984,0.4756,-0.5396,-0.2505,-148.48,27.38,87.32
972,167796984,0.4663,-0.5430,-0.2559,-146.77,27.20,90.85
973,167801984,0.4604,-0.5420,-0.2603,-145.30,26.95,94.02
974,167806982,0.4600,-0.5400,-0.2593,-143.78,26.71,97.26
975,167811984,0.4512,-0.5386,-0.2568,-142.38,26.22,100.43
976,167816982,0.4434,-0.5356,-0.2593,-141.04,25.79,103.60
977,167821984,0.4326,-0.5327,-0.2642,-139.76,25.24,106.71
978,167826984,0.4214,-0.5317,-0.2656,-138.72,24.45,109.63
979,167831984,0.4077,-0.5288,-0.2607,-137.74,23.78,112.68
980,167836984,0.3940,-0.5264,-0.2686,-136.77,23.05,115.67
981,167841984,0.3857,-0.5259,-0.2690,-135.85,21.89,118.66
982,167846984,0.3721,-0.5259,-0.2676,-135.12,20.79,121.59
983,167851984,0.3618,-0.5229,-0.2720,-134.57,19.88,124.45
984,167856984,0.3555,-0.5273,-0.2778,-134.02,18.54,127.32
985,167861984,0.3491,-0.5371,-0.2832,-133.48,17.01,130.18
986,167866984,0.3462,-0.5474,-0.2798,-133.29,15.43,133.29
987,167871984,0.3457,-0.5693,-0.2905,-132.99,13.60,136.52
988,167876987,0.3408,-0.5869,-0.2920,-132.80,11.59,139.94
989,167881984,0.3433,-0.6021,-0.2979,-132.93,9.45,143.54
990,167886984,0.3403,-0.6079,-0.3008,-133.23,7.13,147.38
991,167891984,0.3403,-0.6113,-0.3115,-133.23,4.76,151.10
992,167896984,0.3242,-0.6128,-0.3081,-133.48,2.56,154.76
993,167901984,0.3179,-0.6133,-0.3057,-133.60,0.00,158.29
994,167906984,0.3115,-0.6172,-0.3154,-133.41,-2.44,161.71
995,167911984,0.3027,-0.6191,-0.3149,-132.99,-5.06,164.94
996,167916984,0.2959,-0.6196,-0.3247,-132.38,-7.56,168.17
997,167921985,0.2808,-0.6230,-0.3262,-131.34,-10.12,171.22
998,167926983,0.2690,-0.6216,-0.3301,-130.37,-12.87,174.15
999,167931984,0.2529,-0.6255,-0.3384,-129.27,-15.30,176.83
1000,167936984,0.2344,-0.6245,-0.3403,-127.99,-17.80,179.21
1001,167942483,0.2119,-0.6270,-0.3457,-126.83,-20.06,181.59
1002,167946984,0.1836,-0.6216,-0.3564,-125.61,-22.20,183.23
1003,167951984,0.1519,-0.6230,-0.3652,-124.39,-24.21,184.88
1004,167956984,0.1230,-0.6357,-0.3843,-123.11,-26.10,186.34
1005,167961984,0.0942,-0.6538,-0.4038,-122.01,-27.93,187.74
1006,167966984,0.0791,-0.6782,-0.4272,-120.67,-29.76,189.15
1007,167971984,0.0688,-0.7012,-0.4380,-119.51,-31.46,190.61
1008,167976985,0.0596,-0.7114,-0.4629,-118.29,-33.17,192.07
1009,167981984,0.0386,-0.7192,-0.4829,-117.20,-34.82,193.41
1010,167986984,0.0269,-0.7280,-0.4937,-115.85,-36.40,194.63
1011,167991984,0.0190,-0.7334,-0.4941,-114.70,-37.80,195.61
1012,167996984,0.0010,-0.7437,-0.5200,-113.29,-39.09,196.52
1013,168001984,-0.0117,-0.7554,-0.5366,-112.13,-40.30,197.26
1014,168006986,-0.0278,-0.7607,-0.5444,-110.79,-41.46,197.99
1015,168011984,-0.0376,-0.7646,-0.5601,-109.21,-42.50,198.78
1016,168016983,-0.0444,-0.7598,-0.5664,-107.68,-43.78,199.51
1017,168021984,-0.0552,-0.7549,-0.5679,-105.98,-44.82,200.00
1018,168026984,-0.0640,-0.7476,-0.5664,-104.15,-45.79,200.37
1019,168031984,-0.0757,-0.7515,-0.5767,-102.13,-46.71,200.73
1020,168036984,-0.0835,-0.7617,-0.5850,-99.76,-47.62,201.04
1021,168041984,-0.0972,-0.7637,-0.5850,-97.32,-48.41,201.40
1022,168046984,-0.1084,-0.7695,-0.5962,-94.57,-49.33,201.89
1023,168051984,-0.1265,-0.7749,-0.6084,-91.46,-50.06,202.07
1024,168056984,-0.1470,-0.7695,-0.6196,-87.87,-50.61,202.50
1025,168061985,-0.1636,-0.7744,-0.6382,-83.72,-51.10,202.56
1026,168066984,-0.1816,-0.7842,-0.6606,-79.39,-51.71,202.56
1027,168071984,-0.2046,-0.7881,-0.6709,-74.63,-52.26,202.74
1028,168077390,-0.2148,-0.7930,-0.6875,-69.76,-52.74,202.74
1029,168081984,-0.2295,-0.7954,-0.6895,-64.51,-53.17,202.87
1030,168086984,-0.2354,-0.7852,-0.6978,-59.02,-53.54,202.93
1031,168091984,-0.2417,-0.7803,-0.6997,-53.48,-53.90,202.99
1032,168097111,-0.2495,-0.7749,-0.7041,-47.87,-54.27,202.74
1033,168101984,-0.2598,-0.7646,-0.7046,-42.13,-54.51,202.68
1034,168106982,-0.2661,-0.7598,-0.7041,-36.28,-54.82,202.38
1035,168111982,-0.2705,-0.7583,-0.7031,-30.37,-55.18,202.44
1036,168116985,-0.2773,-0.7539,-0.6968,-24.45,-55.49,202.44
1037,168121982,-0.2793,-0.7534,-0.6870,-18.66,-55.91,202.62
1038,168126984,-0.2871,-0.7510,-0.6934,-12.74,-56.28,203.05
1039,168131984,-0.2969,-0.7485,-0.6870,-6.77,-56.59,203.48
1040,168136984,-0.3120,-0.7485,-0.6860,-0.98,-56.83,204.09
1041,168141984,-0.3330,-0.7480,-0.6875,5.18,-57.38,204.76
1042,168146984,-0.3472,-0.7432,-0.6885,11.28,-57.56,205.55
1043,168151984,-0.3613,-0.7446,-0.6938,17.44,-57.87,206.40
1044,168156984,-0.3770,-0.7520,-0.6943,23.17,-57.99,207.38
1045,168161984,-0.3809,-0.7520,-0.6919,28.35,-57.99,208.17
1046,168166984,-0.3931,-0.7505,-0.6948,32.93,-57.26,208.96
1047,168171984,-0.4199,-0.7480,-0.6992,36.83,-56.28,209.21
1048,168176983,-0.4531,-0.7397,-0.7051,40.37,-55.06,209.39
1049,168181984,-0.4761,-0.7314,-0.7100,43.78,-53.60,209.39
1050,168186984,-0.4893,-0.7285,-0.7290,46.77,-52.13,209.27
1051,168191983,-0.5024,-0.7285,-0.7197,49.33,-50.73,209.15
1052,168196986,-0.5356,-0.7285,-0.7329,51.59,-49.27,208.90
1053,168201985,-0.5693,-0.7280,-0.7383,53.60,-47.80,208.48
1054,168206984,-0.5825,-0.7300,-0.7363,55.43,-46.10,208.05
1055,168211984,-0.5840,-0.7305,-0.7188,57.07,-44.45,207.44
1056,168216984,-0.5791,-0.7305,-0.7217,58.48,-42.80,206.71
1057,168221984,-0.5864,-0.7305,-0.7266,59.82,-41.04,205.85
1058,168226984,-0.6060,-0.7305,-0.7266,61.04,-39.51,204.94
1059,168231984,-0.6162,-0.7280,-0.7192,62.32,-37.80,203.90
1060,168236984,-0.6255,-0.7280,-0.7202,63.29,-36.22,202.87
1061,168241984,-0.6382,-0.7261,-0.7197,64.09,-34.33,201.40
1062,168246984,-0.6504,-0.7266,-0.7192,64.57,-32.56,200.12
1063,168251984,-0.6572,-0.7192,-0.7207,64.63,-30.73,198.72
1064,168256984,-0.6660,-0.7202,-0.7197,64.63,-28.96,197.20
1065,168261984,-0.6792,-0.7134,-0.7271,64.39,-27.13,195.61
1066,168266984,-0.6968,-0.7051,-0.7212,63.72,-25.43,193.60
1067,168271984,-0.6787,-0.6943,-0.6938,63.05,-23.78,191.77
1068,168276984,-0.6885,-0.6968,-0.7271,61.71,-22.32,189.88
1069,168281984,-0.7310,-0.6865,-0.7129,60.37,-21.16,188.11
1070,168286982,-0.7563,-0.6733,-0.7046,59.33,-20.00,186.22
1071,168291984,-0.7568,-0.6660,-0.7012,58.17,-18.96,184.21
1072,168296983,-0.7573,-0.6611,-0.6997,56.77,-18.17,182.32
1073,168301984,-0.7627,-0.6587,-0.6870,55.43,-17.56,180.49
1074,168306983,-0.7725,-0.6655,-0.6772,53.84,-16.89,178.72
1075,168311984,-0.7798,-0.6714,-0.6772,52.26,-16.16,177.13
1076,168316982,-0.7847,-0.6670,-0.6748,50.49,-15.24,175.18
1077,168321984,-0.7935,-0.6699,-0.6646,48.54,-14.21,173.23
1078,168326984,-0.7998,-0.6738,-0.6577,46.71,-13.05,171.04
1079,168331984,-0.7837,-0.6709,-0.6499,45.06,-11.65,168.78
1080,168337393,-0.7969,-0.6689,-0.6602,43.35,-10.49,166.65
1081,168341984,-0.8223,-0.6538,-0.6577,41.95,-9.39,164.33
1082,168347283,-0.8291,-0.6431,-0.6509,40.98,-8.29,162.07
1083,168351987,-0.8301,-0.6372,-0.6562,40.18,-7.26,159.70
1084,168357435,-0.8335,-0.6274,-0.6499,39.33,-6.52,157.38
1085,168362483,-0.8296,-0.6182,-0.6377,38.48,-5.67,155.06
1086,168366984,-0.8247,-0.6104,-0.6196,37.68,-4.88,152.93
1087,168371984,-0.8179,-0.5996,-0.6147,36.71,-4.27,150.73
1088,168376984,-0.8145,-0.5815,-0.6055,35.91,-3.90,148.78
1089,168381983,-0.8047,-0.5752,-0.5962,35.00,-3.66,146.83
1090,168386984,-0.7983,-0.5645,-0.5835,34.02,-3.41,144.94
1091,168391984,-0.7949,-0.5591,-0.5762,33.05,-3.35,143.23
1092,168396983,-0.7896,-0.5513,-0.5757,31.83,-3.60,141.59
1093,168401982,-0.7871,-0.5425,-0.5713,30.43,-3.72,139.88
1094,168407764,-0.7959,-0.5332,-0.5659,28.54,-3.72,137.80
1095,168411984,-0.7993,-0.5308,-0.5669,27.01,-3.90,136.59
1096,168416984,-0.7930,-0.5234,-0.5576,25.00,-4.09,135.00
1097,168421984,-0.7778,-0.5186,-0.5493,23.23,-4.15,133.41
1098,168427248,-0.7637,-0.5068,-0.5518,21.28,-4.51,131.89
1099,168431984,-0.7729,-0.4912,-0.5435,19.27,-4.94,130.49
1100,168436984,-0.7871,-0.4717,-0.5459,17.32,-5.37,128.96
1101,168441984,-0.7876,-0.4570,-0.5308,15.85,-6.04,127.32
1102,168447115,-0.7769,-0.4478,-0.5234,14.21,-6.40,125.73
1103,168452231,-0.7798,-0.4419,-0.5239,12.56,-7.07,124.39
1104,168456984,-0.7861,-0.4385,-0.5146,10.49,-7.87,123.05
1105,168461984,-0.8013,-0.4287,-0.5015,8.66,-8.66,121.71
1106,168466984,-0.8032,-0.4268,-0.4922,6.65,-9.39,120.67
1107,168472293,-0.7964,-0.4399,-0.4927,4.39,-10.24,119.70
1108,168476984,-0.8120,-0.4414,-0.5034,2.32,-11.16,118.90
1109,168481984,-0.8223,-0.4321,-0.4990,0.43,-12.07,118.11
1110,168486984,-0.8330,-0.4312,-0.4980,-1.52,-13.11,117.26
1111,168491984,-0.8408,-0.4224,-0.4980,-2.99,-14.15,116.40
1112,168496984,-0.8403,-0.4116,-0.5024,-4.33,-15.06,115.55
1113,168501984,-0.8398,-0.4062,-0.5000,-5.43,-15.79,114.45
1114,168506983,-0.8447,-0.3970,-0.4995,-6.22,-16.83,113.48
1115,168511982,-0.8486,-0.3960,-0.5024,-6.89,-17.50,112.38
1116,168516984,-0.8540,-0.3892,-0.4956,-7.26,-17.99,111.28
1117,168521984,-0.8628,-0.3848,-0.4951,-7.50,-18.48,109.94
1118,168526984,-0.8652,-0.3794,-0.4868,-7.74,-19.15,108.78
1119,168531984,-0.8682,-0.3804,-0.4839,-7.62,-19.57,107.50
1120,168536984,-0.8726,-0.3755,-0.4814,-7.68,-19.94,106.28
1121,168542469,-0.8809,-0.3706,-0.4849,-7.68,-20.30,105.12
1122,168546984,-0.8828,-0.3760,-0.4858,-7.56,-20.61,103.84
1123,168551984,-0.8828,-0.3740,-0.4805,-7.56,-20.85,102.50
1124,168556984,-0.8799,-0.3662,-0.4805,-7.56,-20.98,101.22
1125,168561982,-0.8730,-0.3623,-0.4829,-7.68,-21.04,99.94
1126,168567191,-0.8794,-0.3633,-0.4897,-7.80,-21.10,98.35
1127,168571984,-0.8853,-0.3599,-0.4849,-7.87,-21.10,96.89
1128,168576984,-0.8823,-0.3633,-0.4888,-7.87,-20.91,95.49
1129,168581984,-0.8799,-0.3730,-0.4883,-8.17,-20.73,93.96
1130,168586984,-0.8770,-0.3779,-0.4883,-8.41,-20.43,92.56
1131,168591984,-0.8813,-0.3760,-0.4966,-8.72,-19.82,90.85
1132,168596984,-0.8823,-0.3760,-0.5020,-8.96,-19.51,89.27
1133,168601984,-0.8755,-0.3745,-0.4985,-9.15,-18.78,87.38
1134,168606984,-0.8740,-0.3696,-0.5029,-9.33,-18.23,86.59
1135,168611983,-0.8701,-0.3691,-0.5039,-9.33,-17.50,85.61
1136,168616984,-0.8628,-0.3643,-0.5059,-9.27,-16.77,83.29
1137,168621984,-0.8516,-0.3569,-0.5078,-9.02,-16.10,81.28
1138,168626984,-0.8418,-0.3467,-0.5063,-8.48,-15.30,79.27
