# skilleye imu stream v1
# device=xiao_esp32c6 imu=mpu6050 addr=0x68
# rate_hz=200 accel_range_g=16 gyro_range_dps=2000 dlpf_hz=94
# units: accel in g, gyro in deg/s, t_us in microseconds since boot (monotonic)
# no shared clock with the camera -- tap the racket once before each take
# so both recordings share a spike to align on
seq,t_us,ax,ay,az,gx,gy,gz
0,178725336,0.9502,-0.3198,-0.1968,-4.33,8.60,3.17
1,178729788,0.9619,-0.3301,-0.1938,-4.82,9.09,3.41
2,178734785,0.9688,-0.3340,-0.1973,-5.24,9.63,3.66
3,178739788,0.9727,-0.3418,-0.1992,-5.98,9.94,3.90
4,178744787,0.9800,-0.3486,-0.1973,-6.52,10.30,4.09
5,178749786,0.9824,-0.3496,-0.2012,-6.95,10.79,4.39
6,178754789,0.9829,-0.3604,-0.2012,-7.38,11.28,4.57
7,178759787,0.9863,-0.3677,-0.2012,-7.68,11.71,4.76
8,178764786,0.9893,-0.3740,-0.2046,-8.11,12.13,5.00
9,178769787,0.9873,-0.3770,-0.2046,-8.23,12.44,5.06
10,178774785,0.9849,-0.3882,-0.2080,-8.41,12.68,5.18
11,178779785,0.9849,-0.3887,-0.2085,-8.48,13.05,5.24
12,178784787,0.9883,-0.3945,-0.2075,-8.60,13.41,5.49
13,178789788,0.9766,-0.4009,-0.2129,-8.66,13.78,5.67
14,178794787,0.9727,-0.4028,-0.2046,-9.02,14.09,5.67
15,178799788,0.9766,-0.4058,-0.2026,-9.33,14.21,5.79
16,178804787,0.9653,-0.4004,-0.2109,-9.63,14.33,5.85
17,178809892,0.9619,-0.4106,-0.2080,-10.37,14.57,5.85
18,178814932,0.9570,-0.4185,-0.2085,-10.79,14.70,6.04
19,178819788,0.9492,-0.4209,-0.2012,-11.52,15.00,6.22
20,178824785,0.9463,-0.4219,-0.2046,-12.26,15.06,6.28
21,178829788,0.9385,-0.4214,-0.1987,-12.99,15.24,6.40
22,178834785,0.9380,-0.4258,-0.1841,-13.72,15.49,6.65
23,178839786,0.9346,-0.4287,-0.1826,-14.57,15.79,6.89
24,178844785,0.9292,-0.4282,-0.1870,-15.24,15.98,7.13
25,178849787,0.9150,-0.4229,-0.1836,-15.98,16.28,7.50
26,178854788,0.9009,-0.4233,-0.1816,-16.46,16.52,7.74
27,178859786,0.8813,-0.4141,-0.1826,-16.77,16.77,7.87
28,178864787,0.8662,-0.4160,-0.1855,-16.83,17.01,8.23
29,178869785,0.8555,-0.4199,-0.1924,-16.59,17.13,8.35
30,178874787,0.8433,-0.4214,-0.1846,-16.16,17.20,8.72
31,178879785,0.8369,-0.4214,-0.1851,-15.79,17.44,9.09
32,178885290,0.8286,-0.4238,-0.1899,-15.24,17.50,9.33
33,178889787,0.8237,-0.4219,-0.1880,-14.70,17.56,9.70
34,178894787,0.8184,-0.4199,-0.1855,-14.09,17.68,9.88
35,178899787,0.8169,-0.4180,-0.1797,-13.72,17.68,10.24
36,178904789,0.8149,-0.4175,-0.1851,-13.41,17.80,10.55
37,178909786,0.8198,-0.4155,-0.1880,-13.35,17.68,10.79
38,178914786,0.8188,-0.4067,-0.1772,-13.41,17.74,11.04
39,178919787,0.8145,-0.4102,-0.1768,-13.96,17.74,11.22
40,178924786,0.8076,-0.4087,-0.1733,-14.63,17.74,11.40
41,178929789,0.8037,-0.4058,-0.1729,-15.37,17.74,11.59
42,178934786,0.7998,-0.4004,-0.1733,-16.34,17.80,11.77
43,178939787,0.7974,-0.4004,-0.1787,-17.07,17.56,11.95
44,178944786,0.7925,-0.4023,-0.1743,-17.99,17.38,12.01
45,178949789,0.7920,-0.4038,-0.1689,-18.72,17.20,12.13
46,178954785,0.7944,-0.4028,-0.1748,-19.51,17.07,12.32
47,178959787,0.7949,-0.4028,-0.1792,-20.30,16.83,12.50
48,178964786,0.7983,-0.3970,-0.1802,-20.85,16.77,12.56
49,178969787,0.8008,-0.3926,-0.1816,-21.46,16.65,12.68
50,178974785,0.8081,-0.3838,-0.1875,-22.20,16.22,12.74
51,178979787,0.8203,-0.3813,-0.1865,-22.99,16.04,12.74
52,178984785,0.8345,-0.3877,-0.1841,-23.84,15.79,12.99
53,178989787,0.8457,-0.3931,-0.1948,-24.57,15.73,12.99
54,178994787,0.8569,-0.3916,-0.2017,-24.88,15.43,13.17
55,178999787,0.8691,-0.3911,-0.2173,-24.76,15.12,13.23
56,179004785,0.8838,-0.3838,-0.2124,-24.27,14.94,13.23
57,179009787,0.8867,-0.3745,-0.2324,-23.35,14.70,13.35
58,179014786,0.8877,-0.3770,-0.2378,-22.44,14.45,13.29
59,179019785,0.9014,-0.3887,-0.2354,-21.40,14.09,13.23
60,179024789,0.9165,-0.4053,-0.2334,-20.06,13.90,13.17
61,179029785,0.9141,-0.4082,-0.2393,-18.84,13.54,13.05
62,179034787,0.9199,-0.4023,-0.2505,-17.50,13.29,13.11
63,179039786,0.9316,-0.4038,-0.2549,-16.16,12.93,13.17
64,179044785,0.9404,-0.3994,-0.2651,-14.82,12.50,12.99
65,179049787,0.9531,-0.3989,-0.2812,-13.29,12.13,12.80
66,179054788,0.9609,-0.4023,-0.2876,-11.83,11.71,12.74
67,179060211,0.9653,-0.4028,-0.3022,-10.43,11.04,12.56
68,179064787,0.9624,-0.4023,-0.2983,-9.57,10.49,12.20
69,179069788,0.9663,-0.3979,-0.2939,-8.96,9.94,12.01
70,179074787,0.9663,-0.3984,-0.2852,-8.48,9.51,11.65
71,179079786,0.9575,-0.3892,-0.2832,-8.29,9.09,11.22
72,179084785,0.8604,-0.3398,-0.2856,-8.66,8.41,10.79
73,179089785,0.8315,-0.3701,-0.2227,-10.37,8.11,10.24
74,179094787,0.8945,-0.3979,-0.1606,-12.20,7.93,10.24
75,179099886,0.9312,-0.3994,-0.1890,-13.78,8.05,10.43
76,179104787,0.9639,-0.4043,-0.2627,-14.70,8.05,10.67
77,179109787,0.9922,-0.3970,-0.3101,-15.12,7.80,10.91
78,179114787,1.0015,-0.3848,-0.3232,-15.12,7.50,11.28
79,179119789,0.9336,-0.2651,-0.3135,-14.51,7.26,11.71
80,179124787,0.9331,-0.2197,-0.3257,-14.45,6.83,11.95
81,179129785,0.9429,-0.2822,-0.3506,-14.51,6.28,12.26
82,179134787,0.9438,-0.3833,-0.3354,-14.27,5.73,13.11
83,179139787,0.9346,-0.4531,-0.2876,-13.54,5.43,14.09
84,179144787,0.9277,-0.4731,-0.2871,-12.80,5.30,15.37
85,179149785,0.9023,-0.4468,-0.3120,-12.07,4.88,16.46
86,179154786,0.8838,-0.3940,-0.2974,-11.34,4.63,17.68
87,179159787,0.8652,-0.3530,-0.2549,-10.43,4.57,18.72
88,179164786,0.8594,-0.3276,-0.2476,-9.39,4.51,19.82
89,179169787,0.8706,-0.3418,-0.2344,-8.29,4.33,20.91
90,179174785,0.8882,-0.3750,-0.2080,-7.07,4.45,22.32
91,179179787,0.9316,-0.4146,-0.2095,-5.55,4.45,23.66
92,179184786,0.9751,-0.4834,-0.2729,-4.15,4.57,25.30
93,179189787,1.0200,-0.5063,-0.3081,-2.62,4.02,27.07
94,179194790,1.0439,-0.5112,-0.2847,-0.49,3.78,28.90
95,179199805,1.0454,-0.5361,-0.2666,2.26,3.54,30.85
96,179204787,1.0146,-0.5396,-0.2690,4.76,3.54,32.87
97,179209787,0.9819,-0.5391,-0.2759,6.95,3.41,34.76
98,179214786,0.9565,-0.5278,-0.2661,8.54,2.99,36.59
99,179219787,0.9370,-0.5151,-0.2461,9.76,2.87,38.17
100,179224789,0.9258,-0.5122,-0.2261,10.18,2.68,39.63
101,179229788,0.9219,-0.5137,-0.2070,9.94,2.44,40.98
102,179234787,0.9199,-0.5073,-0.1973,9.27,2.44,42.26
103,179239789,0.9185,-0.4980,-0.1992,8.54,2.13,43.48
104,179244786,0.8970,-0.4858,-0.2207,7.26,1.95,44.45
105,179249785,0.8828,-0.4844,-0.2158,5.55,1.40,45.43
106,179254787,0.8657,-0.4941,-0.1934,3.78,0.91,46.16
107,179259785,0.8472,-0.5034,-0.1753,1.89,0.49,46.89
108,179264787,0.8311,-0.5010,-0.1699,0.18,0.12,47.68
109,179269788,0.8242,-0.5059,-0.1699,-1.22,-0.30,48.29
110,179274787,0.8154,-0.5073,-0.1460,-2.32,-0.73,48.96
111,179279786,0.8188,-0.5132,-0.1475,-3.05,-1.16,49.39
112,179284787,0.8193,-0.5200,-0.1455,-3.11,-1.65,49.94
113,179289785,0.8164,-0.5234,-0.1499,-2.50,-2.26,50.43
114,179295083,0.8120,-0.5225,-0.1509,-1.10,-2.80,50.73
115,179299787,0.8174,-0.5166,-0.1548,0.85,-3.41,51.28
116,179304786,0.8223,-0.5083,-0.1694,3.11,-4.02,51.52
117,179309785,0.8271,-0.5024,-0.1772,5.49,-5.00,51.71
118,179314787,0.8286,-0.4922,-0.1763,7.99,-5.49,51.77
119,179319786,0.8271,-0.4771,-0.1714,10.61,-6.40,51.89
120,179324787,0.8228,-0.4639,-0.1597,13.11,-7.13,51.77
121,179329788,0.8237,-0.4565,-0.1475,15.61,-7.74,51.46
122,179334787,0.8589,-0.4487,-0.1489,17.80,-8.48,51.10
123,179339786,0.8433,-0.4424,-0.1475,19.82,-8.96,50.67
124,179344787,0.8423,-0.4292,-0.1240,21.59,-9.76,50.06
125,179349786,0.8428,-0.4204,-0.1196,23.11,-10.24,49.63
126,179354787,0.8423,-0.4165,-0.1216,24.39,-10.67,49.02
127,179359786,0.8384,-0.4150,-0.1084,25.49,-11.16,48.48
128,179364786,0.8423,-0.4268,-0.0981,26.71,-11.65,47.80
129,179369789,0.8442,-0.4287,-0.1074,27.68,-12.01,47.07
130,179374789,0.8438,-0.4219,-0.1182,28.72,-12.68,46.46
131,179379788,0.8511,-0.4136,-0.1299,29.82,-13.29,45.91
132,179384786,0.8647,-0.4111,-0.1362,30.79,-13.66,45.12
133,179389785,0.8784,-0.4111,-0.1440,31.65,-14.21,44.45
134,179394785,0.8853,-0.4170,-0.1523,32.26,-15.06,43.78
135,179399787,0.8887,-0.4268,-0.1396,32.44,-15.73,43.11
136,179404787,0.9048,-0.4277,-0.1470,32.26,-16.16,42.32
137,179409787,0.9189,-0.4248,-0.1528,31.71,-16.95,41.71
138,179414785,0.9336,-0.4307,-0.1353,30.85,-17.56,40.91
139,179419785,0.9380,-0.4463,-0.1230,29.63,-17.93,40.30
140,179424789,0.9468,-0.4604,-0.1016,27.99,-18.54,39.70
141,179429787,0.9443,-0.4551,-0.0962,26.10,-18.90,39.02
142,179434786,0.9448,-0.4507,-0.0928,23.90,-19.27,38.35
143,179439790,0.9370,-0.4399,-0.0796,21.65,-19.63,37.68
144,179444787,0.9238,-0.4243,-0.0654,19.02,-19.94,36.95
145,179449785,0.9121,-0.4126,-0.0586,16.46,-20.06,36.10
146,179454785,0.8984,-0.4033,-0.0557,13.90,-20.61,35.12
147,179459789,0.8794,-0.4009,-0.0566,11.16,-20.85,34.21
148,179464787,0.8701,-0.3975,-0.0449,9.02,-21.04,33.66
149,179469787,0.8525,-0.3823,-0.0381,6.40,-21.46,32.80
150,179474787,0.8398,-0.3774,-0.0327,4.02,-21.71,31.77
151,179479787,0.8354,-0.3701,-0.0200,1.83,-22.01,30.79
152,179484786,0.8379,-0.3657,-0.0225,-0.30,-22.26,29.88
153,179489785,0.8384,-0.3618,-0.0254,-2.26,-22.56,28.84
154,179494785,0.8428,-0.3667,-0.0132,-4.15,-22.87,27.80
155,179499995,0.8447,-0.3740,0.0015,-6.34,-23.17,26.77
156,179504786,0.8452,-0.3770,0.0093,-7.80,-23.29,25.91
157,179509787,0.8506,-0.3848,0.0190,-9.51,-23.41,25.06
158,179514785,0.8540,-0.3872,0.0439,-10.98,-23.41,24.21
159,179519787,0.8569,-0.3906,0.0464,-12.07,-23.48,23.35
160,179524786,0.8579,-0.3867,0.0483,-12.93,-23.48,22.68
161,179529787,0.8633,-0.3818,0.0479,-13.60,-23.54,21.95
162,179534785,0.8711,-0.3804,0.0454,-13.96,-23.41,21.28
163,179539789,0.8706,-0.3784,0.0435,-14.09,-23.35,20.55
164,179544786,0.8740,-0.3740,0.0366,-13.96,-23.48,19.94
165,179549788,0.8638,-0.3765,0.0366,-13.41,-23.72,19.39
166,179554787,0.8574,-0.3745,0.0234,-12.68,-23.78,18.84
167,179559785,0.8413,-0.3687,0.0269,-11.71,-23.96,18.35
168,179564787,0.8169,-0.3589,0.0366,-10.06,-23.96,17.80
169,179569787,0.8477,-0.3838,0.0483,-8.17,-23.90,17.44
170,179574787,0.8594,-0.4478,0.1919,-5.79,-22.38,17.50
171,179579787,0.8862,-0.4092,0.1997,-1.59,-18.48,17.93
172,179584787,0.9360,-0.4004,-0.0161,2.80,-15.18,18.17
173,179589785,0.9463,-0.4224,-0.0762,7.44,-13.17,18.54
174,179594903,0.9126,-0.4648,0.0107,12.74,-10.49,19.09
175,179599818,0.8965,-0.4844,0.0166,18.48,-7.20,19.94
176,179604787,0.8955,-0.5015,-0.0747,23.96,-4.57,20.98
177,179609787,0.8921,-0.5103,-0.0864,28.72,-2.80,22.01
178,179614787,0.8696,-0.5308,-0.0264,32.50,-1.34,22.99
179,179619786,0.8540,-0.5513,-0.0117,35.73,0.30,24.09
180,179624787,0.8418,-0.5708,-0.0371,37.99,1.89,25.30
181,179629786,0.8379,-0.5698,-0.0488,39.39,2.80,26.95
182,179634787,0.8276,-0.5737,-0.0303,40.61,4.09,28.66
183,179639788,0.8228,-0.5615,-0.0430,41.65,5.12,30.43
184,179644787,0.8208,-0.5439,-0.0879,42.62,5.79,31.89
185,179649786,0.8149,-0.5464,-0.1064,43.23,5.85,33.41
186,179654787,0.8022,-0.5527,-0.0898,43.54,6.16,34.76
187,179659787,0.7998,-0.5649,-0.1040,43.60,6.34,35.98
188,179664789,0.7959,-0.5713,-0.1089,43.17,6.16,37.01
189,179669786,0.7808,-0.5283,-0.1045,42.26,6.04,37.62
190,179674787,0.7827,-0.3960,-0.1016,40.12,5.43,36.34
191,179679786,0.7729,-0.5708,-0.0479,37.32,5.00,34.76
192,179684787,0.7983,-0.5811,-0.0356,34.21,4.63,34.02
193,179689786,0.7744,-0.5713,-0.0283,30.67,4.39,32.74
194,179694795,0.7686,-0.5957,-0.0269,27.01,3.84,31.40
195,179699789,0.7690,-0.5918,-0.0088,22.99,3.48,29.94
196,179704786,0.7432,-0.5820,0.0015,18.84,3.41,28.35
197,179709787,0.7388,-0.5718,0.0269,15.06,3.23,26.59
198,179714785,0.7358,-0.5557,0.0356,11.40,3.48,25.12
199,179719787,0.7324,-0.5312,0.0327,8.17,4.27,23.84
200,179724787,0.7271,-0.5142,0.0151,5.18,4.94,22.32
201,179729787,0.7236,-0.5190,-0.0039,2.62,5.67,20.91
202,179734787,0.7192,-0.5337,-0.0332,0.85,6.59,20.06
203,179739785,0.7085,-0.5386,-0.0532,0.00,6.89,19.33
204,179744787,0.6943,-0.5347,-0.0649,-0.24,7.32,18.90
205,179749800,0.6802,-0.5283,-0.0786,-0.12,7.68,18.66
206,179754786,0.6719,-0.5303,-0.0771,0.43,7.99,18.66
207,179759785,0.6626,-0.5249,-0.0835,1.28,8.23,18.60
208,179764786,0.6558,-0.5254,-0.0889,2.44,8.48,18.60
209,179769787,0.6470,-0.5322,-0.0845,3.60,8.66,18.84
210,179774786,0.6470,-0.5298,-0.0840,4.94,8.96,19.02
211,179779787,0.6460,-0.5303,-0.0776,6.28,9.57,19.27
212,179784787,0.6411,-0.5352,-0.0903,7.62,10.00,19.51
213,179789787,0.6377,-0.5376,-0.0898,8.84,10.43,19.82
214,179794786,0.6372,-0.5400,-0.0869,10.00,10.73,20.30
215,179799785,0.6401,-0.5552,-0.0796,11.04,11.04,20.91
216,179804833,0.6392,-0.5679,-0.0771,12.01,11.59,21.52
217,179809787,0.6421,-0.5732,-0.0654,12.62,11.77,22.13
218,179814786,0.6392,-0.5674,-0.0532,13.05,12.20,22.74
219,179819787,0.6377,-0.5649,-0.0527,13.17,12.50,23.23
220,179824785,0.6313,-0.5630,-0.0562,13.41,12.56,23.60
221,179830314,0.6279,-0.5601,-0.0483,13.35,12.87,24.09
222,179834787,0.6299,-0.5566,-0.0439,13.29,13.17,24.51
223,179840013,0.6309,-0.5552,-0.0498,13.35,13.35,24.94
224,179844787,0.6348,-0.5605,-0.0508,13.41,13.72,25.55
225,179849786,0.6377,-0.5630,-0.0474,13.29,13.96,26.10
226,179854787,0.6372,-0.5713,-0.0400,13.29,14.33,26.65
227,179859786,0.6455,-0.5708,-0.0410,12.74,14.76,27.32
228,179864789,0.6426,-0.5737,-0.0415,12.13,15.49,27.93
229,179869894,0.6357,-0.5630,-0.0405,11.22,16.10,28.60
230,179874787,0.6528,-0.5513,-0.0371,10.61,16.65,29.09
231,179880080,0.6865,-0.5396,-0.0532,9.70,17.13,29.63
232,179884788,0.6963,-0.5474,-0.0420,8.48,17.44,29.88
233,179889786,0.6807,-0.5610,-0.0322,7.26,17.74,30.30
234,179894787,0.6714,-0.5664,0.0000,6.28,18.17,30.85
235,179899786,0.6602,-0.5610,0.0068,5.30,18.84,31.34
236,179904785,0.6597,-0.5542,0.0103,4.57,19.76,31.59
237,179909837,0.6504,-0.5503,0.0059,4.09,20.37,31.83
238,179914786,0.6372,-0.5508,0.0195,4.21,21.59,31.95
239,179919787,0.6250,-0.5527,0.0293,4.51,22.93,32.07
240,179924787,0.6206,-0.5596,0.0293,5.61,24.39,32.07
241,179929787,0.6250,-0.5708,0.0122,7.32,25.73,32.01
242,179934787,0.6318,-0.5864,0.0063,9.51,26.89,32.13
243,179939875,0.6499,-0.5981,0.0000,12.32,27.68,32.32
244,179944789,0.6489,-0.6152,-0.0049,15.55,28.29,32.62
245,179949785,0.6499,-0.6367,0.0010,19.51,28.66,33.17
246,179954787,0.6558,-0.6455,0.0034,23.60,29.02,33.90
247,179959923,0.6577,-0.6572,0.0088,27.80,29.21,34.51
248,179964788,0.6641,-0.6680,0.0103,31.83,29.09,35.37
249,179969786,0.6646,-0.6992,0.0229,35.61,28.90,35.98
250,179974787,0.6602,-0.6978,0.0342,39.27,28.48,36.71
251,179979786,0.6562,-0.6812,0.0371,42.68,28.17,37.50
252,179984787,0.6499,-0.6802,0.0518,45.49,27.68,37.99
253,179989787,0.6450,-0.7104,0.0698,48.11,27.32,38.29
254,179994847,0.6440,-0.7334,0.0679,50.24,26.83,38.84
255,179999786,0.6475,-0.7065,0.0571,51.52,26.40,38.96
256,180004787,0.6323,-0.7192,0.0425,52.32,25.55,39.27
257,180010219,0.6177,-0.7241,0.0693,52.62,24.88,39.63
258,180014787,0.6074,-0.7368,0.0850,52.44,24.70,39.76
259,180019787,0.5991,-0.7549,0.0796,51.77,24.21,40.00
260,180024787,0.5962,-0.7695,0.0825,50.49,23.66,40.37
261,180029786,0.6064,-0.7827,0.0981,48.84,23.66,40.79
262,180034787,0.6343,-0.7749,0.0986,46.52,23.41,41.52
263,180039785,0.6646,-0.7729,0.0894,43.60,23.17,42.07
264,180044787,0.6919,-0.7754,0.1030,40.06,22.74,42.44
265,180049786,0.7007,-0.7881,0.1152,36.22,22.38,42.68
266,180054787,0.7065,-0.7979,0.1377,31.77,21.95,42.80
267,180059786,0.7051,-0.7949,0.1494,27.38,21.34,42.87
268,180064817,0.7007,-0.8076,0.1445,22.99,21.16,42.74
269,180069785,0.6899,-0.7871,0.1362,18.78,20.37,42.56
270,180074787,0.6787,-0.7754,0.1499,14.51,19.76,42.32
271,180079787,0.6978,-0.7959,0.1494,10.73,18.90,41.77
272,180084787,0.7334,-0.8105,0.1401,6.65,18.11,41.28
273,180089787,0.7212,-0.8110,0.1450,2.74,17.01,40.98
274,180094785,0.7163,-0.8232,0.1763,-0.73,16.40,40.79
275,180099787,0.7114,-0.8467,0.1553,-3.60,15.85,40.85
276,180104786,0.7007,-0.8511,0.1421,-6.22,14.94,41.40
277,180109787,0.6943,-0.8394,0.1504,-8.72,14.27,41.95
278,180114785,0.6904,-0.8291,0.1587,-10.61,13.78,42.74
279,180119789,0.7026,-0.8315,0.1367,-12.32,13.05,43.41
280,180124786,0.7119,-0.8237,0.1187,-13.78,12.13,44.02
281,180130182,0.7178,-0.8037,0.1147,-15.43,10.85,44.57
282,180134787,0.7314,-0.7949,0.1260,-16.16,10.12,44.51
283,180139895,0.7383,-0.7876,0.1133,-16.95,8.84,44.27
284,180144787,0.7344,-0.7847,0.1152,-17.13,7.50,43.78
285,180149787,0.7319,-0.7759,0.1333,-17.13,5.73,42.74
286,180154786,0.7310,-0.7695,0.1416,-16.83,4.27,41.28
287,180159786,0.7319,-0.7598,0.1392,-15.98,2.74,39.45
288,180164785,0.7329,-0.7554,0.1519,-14.70,1.16,37.26
289,180169785,0.7192,-0.7593,0.1680,-13.05,-0.43,34.70
290,180174785,0.7173,-0.7690,0.1724,-10.85,-2.01,32.07
291,180179788,0.7051,-0.7764,0.1807,-8.48,-3.48,29.33
292,180184785,0.6929,-0.7900,0.1836,-5.91,-5.00,26.83
293,180189833,0.6855,-0.8003,0.1802,-3.35,-5.98,24.39
294,180194787,0.6924,-0.8018,0.1777,-1.04,-7.01,21.89
295,180199785,0.7070,-0.8052,0.1582,0.91,-7.87,19.82
296,180204788,0.7202,-0.7998,0.1372,2.56,-8.84,17.56
297,180209786,0.7271,-0.8018,0.1299,3.60,-9.63,15.61
298,180215146,0.7339,-0.8003,0.1167,4.39,-10.18,13.60
299,180219787,0.7388,-0.8027,0.1167,4.51,-10.61,11.77
300,180224787,0.7500,-0.8037,0.1035,4.63,-10.91,9.88
301,180229786,0.7598,-0.7974,0.0967,4.45,-11.10,7.80
302,180234787,0.7710,-0.8013,0.0908,4.27,-11.16,5.79
303,180239785,0.7808,-0.8135,0.0747,3.84,-11.28,3.60
304,180244787,0.7925,-0.8281,0.0840,3.17,-11.40,1.22
305,180249789,0.7896,-0.8428,0.0796,2.62,-11.65,-1.16
306,180254786,0.7954,-0.8579,0.0859,1.89,-11.71,-3.48
307,180259785,0.8062,-0.8750,0.0732,1.40,-12.07,-6.10
308,180264787,0.8130,-0.8892,0.0713,0.98,-12.20,-8.60
309,180269791,0.8364,-0.8887,0.0747,0.55,-12.44,-11.22
310,180274786,0.8540,-0.9092,0.0859,0.30,-12.62,-13.78
311,180279787,0.8784,-0.9268,0.0913,0.00,-12.74,-16.16
312,180284785,0.9126,-0.9463,0.0869,-0.37,-12.87,-18.41
313,180289787,0.9434,-0.9668,0.0933,-0.73,-12.93,-20.55
314,180294786,0.9736,-0.9834,0.0991,-0.85,-12.99,-22.62
315,180299787,1.0347,-0.9976,0.0981,-0.98,-12.99,-24.70
316,180304785,1.0708,-0.9971,0.0923,-0.73,-13.11,-26.77
317,180309785,1.0518,-1.0093,0.0869,0.24,-13.29,-29.15
318,180314785,1.0337,-1.0254,0.0820,1.46,-13.54,-31.34
319,180319787,1.0337,-1.0356,0.1064,3.11,-13.54,-33.84
320,180324788,1.0459,-1.0474,0.1382,5.24,-13.66,-36.52
321,180329786,1.0430,-1.0469,0.1455,7.74,-13.84,-39.39
322,180334785,1.0312,-1.0508,0.1455,10.43,-14.27,-42.56
323,180339787,1.0811,-1.1021,0.2031,13.54,-14.70,-45.43
324,180344787,1.0728,-1.0239,0.1772,16.71,-15.18,-48.29
325,180349785,1.0879,-1.1113,0.2686,19.57,-15.67,-51.65
326,180354789,1.0879,-1.1548,0.2856,23.23,-15.67,-54.15
327,180359786,1.1016,-1.1362,0.2583,27.99,-15.85,-57.07
328,180364788,1.1138,-1.1294,0.2700,33.72,-16.59,-60.12
329,180369785,1.1147,-1.1372,0.2710,40.98,-17.44,-63.11
330,180374785,1.1172,-1.1245,0.2974,49.82,-18.48,-66.22
331,180379787,1.1011,-1.1050,0.3081,60.12,-19.09,-69.51
332,180384789,1.0723,-1.1040,0.3301,72.07,-20.24,-72.93
333,180389786,1.0532,-1.1011,0.3613,85.55,-21.46,-76.46
334,180394787,1.0410,-1.0952,0.3618,100.73,-22.93,-79.82
335,180399785,1.0215,-1.0796,0.3809,116.52,-24.82,-83.23
336,180404787,0.9810,-1.0864,0.3979,132.32,-26.89,-86.52
337,180409786,1.0059,-1.0522,0.4565,148.60,-29.39,-89.70
338,180414785,1.0132,-1.0171,0.4878,163.96,-31.71,-92.93
339,180419832,0.9927,-0.9951,0.5098,178.11,-34.51,-95.79
340,180424787,0.9756,-0.9746,0.5366,190.61,-37.38,-98.35
341,180429786,0.9707,-0.9326,0.5664,201.40,-40.43,-100.61
342,180434787,0.9663,-0.9062,0.5752,210.30,-43.78,-102.38
343,180439785,0.9692,-0.8770,0.5840,217.01,-47.13,-103.96
344,180444787,0.9697,-0.8540,0.6104,221.89,-50.85,-105.24
345,180449786,0.9717,-0.8354,0.6133,224.82,-54.57,-106.28
346,180454787,0.9678,-0.8213,0.6187,225.73,-58.60,-106.77
347,180459785,0.9688,-0.7979,0.6401,225.06,-62.62,-107.07
348,180464787,0.9712,-0.7817,0.6431,222.74,-66.95,-107.13
349,180469788,0.9683,-0.7739,0.6484,219.09,-71.34,-106.95
350,180475101,0.9575,-0.7705,0.6519,214.51,-75.49,-106.52
351,180479787,0.9531,-0.7666,0.6719,209.09,-80.06,-106.16
352,180484786,0.9434,-0.7563,0.6841,203.29,-84.45,-105.79
353,180489787,0.9282,-0.7466,0.6855,197.32,-88.96,-105.37
354,180494787,0.9170,-0.7451,0.6953,191.77,-93.17,-105.30
355,180499787,0.9126,-0.7402,0.6958,187.50,-96.83,-105.12
356,180504786,0.8926,-0.7397,0.6875,182.38,-101.16,-104.88
357,180509968,0.8779,-0.7300,0.6816,176.65,-106.34,-104.94
358,180514790,0.8677,-0.7231,0.6675,172.99,-109.94,-104.82
359,180519787,0.8525,-0.7197,0.6558,168.66,-114.21,-104.82
360,180524787,0.8389,-0.7163,0.6440,164.33,-118.35,-104.88
361,180529787,0.8335,-0.7119,0.6289,159.88,-122.50,-105.00
362,180534787,0.8262,-0.7202,0.6016,155.43,-126.59,-105.18
363,180539786,0.8218,-0.7192,0.6050,150.79,-130.43,-105.30
364,180544787,0.8267,-0.7144,0.5732,146.28,-134.27,-105.55
365,180549785,0.8198,-0.7148,0.5435,141.83,-137.93,-105.79
366,180554785,0.8115,-0.7275,0.5303,137.32,-141.46,-106.10
367,180559785,0.7993,-0.7310,0.4980,132.50,-144.70,-106.16
368,180564785,0.7720,-0.7310,0.4731,128.90,-147.62,-106.46
369,180569788,0.6377,-0.7520,0.4458,123.60,-150.49,-106.52
370,180574786,0.6841,-0.7104,0.3608,120.18,-153.48,-106.34
371,180579785,0.7378,-0.6782,0.3760,117.74,-156.34,-106.89
372,180584787,0.7651,-0.6890,0.3477,115.43,-158.66,-107.74
373,180589787,0.7231,-0.7080,0.3306,112.62,-160.49,-108.72
374,180594787,0.7051,-0.7153,0.3359,109.27,-162.01,-109.27
375,180599786,0.7256,-0.7056,0.3193,105.61,-162.93,-109.94
376,180604787,0.7402,-0.6953,0.2910,101.83,-163.66,-110.79
377,180609786,0.7192,-0.6914,0.2622,97.93,-164.02,-111.65
378,180614787,0.6895,-0.6973,0.2490,94.09,-164.27,-112.68
379,180619786,0.6855,-0.6929,0.2290,90.06,-164.27,-113.48
380,180624867,0.6870,-0.6733,0.2119,86.65,-164.09,-114.21
381,180629787,0.6553,-0.6978,0.1938,83.84,-164.02,-115.00
382,180634787,0.6753,-0.6826,0.2056,81.65,-163.41,-115.55
383,180639786,0.6938,-0.6699,0.1436,79.57,-162.62,-116.10
384,180644787,0.7002,-0.6709,0.1089,77.80,-161.77,-116.52
385,180649786,0.7085,-0.6758,0.1235,76.52,-160.30,-116.77
386,180654787,0.6924,-0.6626,0.0752,75.37,-158.66,-117.07
387,180659786,0.7075,-0.6450,0.0254,74.51,-157.13,-117.56
388,180664787,0.7056,-0.6387,0.0186,74.15,-155.06,-117.93
389,180669786,0.7075,-0.6343,-0.0015,74.39,-152.68,-118.29
390,180674788,0.7100,-0.6240,-0.0361,75.06,-150.61,-118.48
391,180679787,0.7041,-0.6079,-0.0508,75.91,-148.11,-118.66
392,180685022,0.7061,-0.5928,-0.0732,77.32,-145.49,-118.96
393,180689787,0.7002,-0.5864,-0.0957,78.90,-143.11,-119.09
394,180695318,0.6968,-0.5708,-0.1138,81.16,-140.18,-119.27
395,180699787,0.6899,-0.5659,-0.1250,82.74,-138.05,-119.33
396,180704787,0.6758,-0.5493,-0.1362,84.94,-135.73,-119.51
397,180709787,0.6646,-0.5376,-0.1567,87.32,-133.48,-119.82
398,180714790,0.6372,-0.5264,-0.1733,90.24,-130.91,-120.18
399,180719787,0.6226,-0.5166,-0.1836,92.07,-129.27,-120.37
400,180724785,0.6167,-0.5107,-0.1968,94.21,-127.13,-120.61
401,180729787,0.6138,-0.4932,-0.2173,96.10,-125.12,-120.73
402,180734788,0.6069,-0.4790,-0.2324,97.44,-122.99,-120.85
403,180739787,0.6138,-0.4722,-0.2417,98.48,-120.73,-120.73
404,180744790,0.6206,-0.4604,-0.2544,98.90,-118.41,-120.49
405,180749785,0.6255,-0.4443,-0.2563,98.96,-115.85,-120.12
406,180754785,0.6143,-0.4458,-0.2661,98.78,-113.48,-119.82
407,180759785,0.6011,-0.4258,-0.2524,98.29,-111.16,-119.33
408,180764790,0.5845,-0.4150,-0.2710,97.68,-108.84,-119.15
409,180769785,0.5693,-0.4033,-0.2651,96.71,-106.89,-118.66
410,180774785,0.5557,-0.3979,-0.2656,95.91,-105.00,-118.23
411,180779785,0.5732,-0.3936,-0.3164,94.94,-103.48,-117.99
412,180784785,0.6079,-0.4111,-0.3770,93.96,-101.95,-117.62
413,180789785,0.5747,-0.4111,-0.3975,93.41,-100.43,-117.44
414,180794785,0.5571,-0.3960,-0.3794,91.95,-98.72,-117.01
415,180799785,0.5522,-0.3677,-0.3999,89.94,-96.59,-116.71
416,180804789,0.5435,-0.3433,-0.4136,87.13,-94.45,-116.28
417,180809785,0.5503,-0.3359,-0.4131,83.90,-92.32,-115.91
418,180814787,0.5396,-0.3271,-0.4155,80.12,-90.00,-115.30
419,180819786,0.5278,-0.3066,-0.4307,75.79,-87.50,-114.76
420,180824787,0.5293,-0.2935,-0.4336,70.73,-84.82,-114.09
421,180829786,0.5225,-0.2803,-0.4487,65.55,-82.13,-113.72
422,180834787,0.5195,-0.2700,-0.4600,59.94,-79.09,-113.05
423,180839787,0.5132,-0.2598,-0.4678,54.57,-76.34,-112.68
424,180844786,0.5054,-0.2461,-0.4771,49.63,-73.41,-112.20
425,180849785,0.5005,-0.2314,-0.4849,45.43,-70.61,-111.83
426,180854785,0.4961,-0.2188,-0.5010,42.13,-67.80,-111.46
427,180859785,0.4873,-0.2114,-0.5132,39.82,-65.12,-111.04
428,180864785,0.4819,-0.2056,-0.5200,38.29,-62.56,-110.49
429,180870235,0.4771,-0.1929,-0.5391,37.56,-60.12,-109.88
430,180874787,0.4790,-0.1860,-0.5498,37.68,-57.56,-109.21
431,180879786,0.4746,-0.1772,-0.5620,38.17,-55.18,-108.29
432,180884788,0.4785,-0.1646,-0.5747,38.84,-52.74,-107.26
433,180889788,0.4780,-0.1514,-0.5737,39.09,-50.43,-106.22
434,180894787,0.4746,-0.1396,-0.5820,39.02,-47.99,-105.18
435,180899787,0.4805,-0.1265,-0.5767,38.54,-45.37,-104.02
436,180905192,0.4805,-0.1138,-0.5869,37.62,-42.80,-102.93
437,180909787,0.4858,-0.0923,-0.5771,36.46,-40.49,-101.89
438,180915324,0.4834,-0.0767,-0.5786,35.00,-37.99,-100.61
439,180919788,0.4907,-0.0552,-0.5781,33.35,-35.61,-99.51
440,180924785,0.4932,-0.0352,-0.5835,31.89,-33.23,-98.35
441,180929785,0.4941,-0.0122,-0.5879,30.55,-31.10,-97.07
442,180934792,0.4912,0.0015,-0.5884,29.63,-28.96,-95.79
443,180939787,0.4917,0.0146,-0.5874,28.78,-27.13,-94.33
444,180944788,0.4863,0.0317,-0.5850,28.35,-25.18,-92.87
445,180949845,0.4839,0.0474,-0.5850,28.29,-23.72,-91.28
446,180954785,0.4756,0.0635,-0.5830,28.41,-22.13,-89.76
447,180959787,0.4727,0.0742,-0.5913,28.60,-20.79,-88.11
448,180964886,0.4741,0.0898,-0.5884,28.96,-19.63,-86.34
449,180969788,0.4673,0.1094,-0.5820,29.27,-18.72,-84.57
450,180975302,0.4678,0.1299,-0.5845,29.63,-17.68,-82.87
451,180979787,0.4590,0.1533,-0.5835,29.76,-17.01,-81.22
452,180984785,0.4497,0.1646,-0.5859,29.70,-16.28,-79.57
453,180989785,0.4463,0.1875,-0.5933,29.45,-15.91,-77.80
454,180994788,0.4385,0.2095,-0.5908,28.96,-15.18,-75.98
455,180999787,0.4346,0.2285,-0.5947,28.11,-14.82,-74.15
456,181004905,0.4224,0.2524,-0.5981,27.32,-14.27,-72.26
457,181009787,0.4150,0.2681,-0.6045,26.34,-13.72,-70.37
458,181014787,0.4058,0.2812,-0.6016,25.18,-13.17,-68.05
459,181019786,0.4019,0.3008,-0.6016,24.15,-12.68,-65.98
460,181024785,0.3965,0.3101,-0.6069,23.35,-12.32,-64.15
461,181029785,0.3877,0.3237,-0.6099,22.26,-11.83,-61.59
462,181034860,0.3721,0.3423,-0.6157,21.16,-11.34,-58.41
463,181039788,0.3525,0.3555,-0.6177,20.37,-10.85,-55.55
464,181044787,0.3384,0.3667,-0.6206,19.51,-10.37,-53.29
465,181049788,0.3057,0.3813,-0.6226,18.48,-10.06,-50.24
466,181054786,0.2769,0.3940,-0.6289,17.13,-9.63,-47.26
467,181059787,0.2407,0.4111,-0.6343,15.55,-8.84,-44.02
468,181064789,0.2134,0.4219,-0.6387,13.96,-8.05,-40.61
469,181069786,0.1934,0.4292,-0.6377,12.32,-7.26,-37.13
470,181074787,0.1660,0.4375,-0.6304,10.67,-6.22,-33.17
471,181079786,0.1328,0.4517,-0.6235,8.96,-4.88,-29.33
472,181084788,0.1143,0.4570,-0.6240,7.38,-3.48,-25.24
473,181089787,0.0845,0.4678,-0.6313,5.79,-2.07,-20.91
474,181094787,0.0449,0.4854,-0.6318,4.70,-0.55,-16.71
475,181099786,0.0044,0.5005,-0.6348,3.35,0.79,-12.26
476,181104787,-0.0327,0.5078,-0.6333,1.65,2.32,-7.93
477,181109787,-0.0776,0.5117,-0.6299,-0.61,3.78,-3.35
478,181114787,-0.1201,0.5225,-0.6323,-3.48,5.30,1.34
479,181119789,-0.1748,0.5332,-0.6240,-6.77,6.83,6.16
480,181124787,-0.2217,0.5254,-0.6304,-10.61,8.48,11.40
481,181129786,-0.2539,0.5273,-0.6313,-14.88,9.88,16.71
482,181134785,-0.2803,0.5273,-0.6274,-19.27,11.65,22.44
483,181139789,-0.2988,0.5308,-0.6328,-23.90,12.93,28.41
484,181145330,-0.3037,0.5312,-0.6245,-29.76,14.63,35.98
485,181149788,-0.3018,0.5288,-0.6108,-33.72,15.98,41.40
486,181154787,-0.2837,0.5269,-0.6055,-38.41,17.62,48.48
487,181159787,-0.2715,0.5273,-0.5908,-42.74,19.21,55.91
488,181164787,-0.2593,0.5293,-0.5786,-46.59,20.67,63.84
489,181169787,-0.2417,0.5176,-0.5659,-49.45,22.32,72.20
490,181174788,-0.2168,0.5098,-0.5586,-51.52,23.84,81.28
491,181179787,-0.1865,0.5049,-0.5488,-53.05,25.18,89.88
492,181184787,-0.1626,0.5029,-0.5332,-53.54,26.46,99.45
493,181189786,-0.1323,0.4995,-0.5234,-53.72,27.62,109.02
494,181194785,-0.1104,0.4849,-0.5107,-53.05,28.78,118.72
495,181199785,-0.0835,0.4688,-0.5054,-51.71,29.57,128.54
496,181204787,-0.0654,0.4575,-0.5024,-49.88,30.37,138.29
497,181209786,-0.0630,0.4385,-0.4961,-47.99,30.91,148.11
498,181214787,-0.0420,0.4116,-0.4941,-46.10,31.40,157.68
499,181219786,-0.0190,0.3745,-0.4888,-44.33,31.71,167.38
500,181224787,0.0000,0.3330,-0.4844,-42.62,31.71,176.95
501,181229786,0.0117,0.2993,-0.4897,-41.40,31.77,186.22
502,181234785,0.0137,0.2603,-0.4849,-40.98,31.46,195.06
503,181239850,0.0132,0.2153,-0.4722,-41.10,31.16,203.41
504,181244787,0.0166,0.1680,-0.4854,-41.28,30.61,211.46
505,181249789,0.0278,0.1157,-0.4810,-41.22,29.76,219.15
506,181254787,0.0425,0.0679,-0.4678,-40.91,28.78,226.71
507,181259787,0.0581,0.0249,-0.4707,-40.43,27.62,233.78
508,181264998,0.0732,-0.0239,-0.4619,-39.45,26.28,240.61
509,181269787,0.0977,-0.0713,-0.4600,-38.35,25.00,247.26
510,181274788,0.1230,-0.1270,-0.4600,-37.26,23.41,253.90
511,181279787,0.1353,-0.1782,-0.4497,-36.71,21.95,260.30
512,181284787,0.1411,-0.2192,-0.4351,-36.77,20.55,266.28
513,181289787,0.1455,-0.2686,-0.4272,-37.87,19.21,271.89
514,181295168,0.1479,-0.3184,-0.4141,-40.00,17.87,277.20
515,181299787,0.1587,-0.3711,-0.4023,-42.50,16.89,282.13
516,181304787,0.1704,-0.4165,-0.3857,-45.61,16.04,286.65
517,181309787,0.1724,-0.4668,-0.3672,-48.96,15.37,290.67
518,181314787,0.1753,-0.5044,-0.3423,-52.01,14.57,294.02
519,181319787,0.1743,-0.5498,-0.3223,-54.21,13.90,296.77
520,181324787,0.1855,-0.6011,-0.3110,-54.88,13.48,299.15
521,181329788,0.2065,-0.6558,-0.3013,-53.84,12.80,301.22
522,181334785,0.2305,-0.7119,-0.2871,-50.98,12.32,302.99
523,181339913,0.2515,-0.7559,-0.2749,-46.95,11.83,304.39
524,181344787,0.2773,-0.7998,-0.2559,-41.83,11.65,305.37
525,181349789,0.3091,-0.8394,-0.2534,-36.04,11.77,305.91
526,181354787,0.3452,-0.8989,-0.2363,-29.88,11.71,306.22
527,181359788,0.3901,-0.9360,-0.2163,-23.84,11.89,306.22
528,181364787,0.4263,-0.9741,-0.2104,-18.35,12.01,305.85
529,181369787,0.4487,-1.0132,-0.2012,-13.48,12.38,305.00
530,181374787,0.4692,-1.0605,-0.1958,-9.57,12.38,303.78
531,181379787,0.4966,-1.0991,-0.1963,-6.52,12.32,302.26
532,181384787,0.5190,-1.1509,-0.1885,-4.39,12.01,300.49
533,181389787,0.5527,-1.2002,-0.1792,-3.66,11.83,298.48
534,181394787,0.5913,-1.2622,-0.1875,-3.96,11.40,296.22
535,181399788,0.6455,-1.3223,-0.1782,-5.61,11.34,293.72
536,181404785,0.6895,-1.3677,-0.1602,-8.48,11.22,290.73
537,181409787,0.7363,-1.4341,-0.1733,-12.13,11.40,287.32
538,181414787,0.7715,-1.4951,-0.1714,-15.67,11.83,283.60
539,181419787,0.7993,-1.5557,-0.1675,-19.02,12.20,279.15
540,181424787,0.8052,-1.6113,-0.1675,-21.34,12.87,274.21
541,181429787,0.8130,-1.6621,-0.1675,-22.87,13.35,268.60
542,181434785,0.8120,-1.7173,-0.1660,-22.99,14.02,262.32
543,181439785,0.8145,-1.7661,-0.1655,-21.46,14.70,255.61
544,181444789,0.8296,-1.8188,-0.1743,-18.17,15.24,248.35
545,181449787,0.8354,-1.8633,-0.1743,-13.41,15.98,240.55
546,181454787,0.8384,-1.9141,-0.1724,-7.44,16.59,232.62
547,181459787,0.8452,-1.9580,-0.1763,-0.85,17.32,224.09
548,181464787,0.8354,-1.9990,-0.1772,5.24,18.11,215.18
549,181469787,0.8262,-2.0273,-0.1714,10.24,19.15,205.85
550,181475203,0.8262,-2.0498,-0.1724,13.90,20.06,196.16
551,181479787,0.8384,-2.0610,-0.1699,16.04,21.16,186.16
552,181484787,0.8521,-2.0679,-0.1660,16.46,22.32,175.85
553,181489787,0.8667,-2.0698,-0.1660,15.98,23.23,165.43
554,181494787,0.8872,-2.0537,-0.1567,14.63,24.15,155.30
555,181499788,0.9087,-2.0400,-0.1475,12.56,24.63,144.94
556,181504787,0.9307,-2.0088,-0.1528,10.43,25.06,134.82
557,181509788,0.9536,-1.9810,-0.1475,7.99,25.18,125.18
558,181514787,0.9814,-1.9429,-0.1411,5.37,25.24,115.79
559,181519787,0.9902,-1.9082,-0.1387,2.74,25.18,106.89
560,181524787,1.0029,-1.8745,-0.1333,0.18,25.12,98.29
561,181529787,1.0146,-1.8379,-0.1289,-2.74,24.88,89.63
562,181534785,1.0146,-1.8027,-0.1270,-5.49,24.70,82.50
563,181539789,1.0146,-1.7656,-0.1294,-7.99,24.51,75.00
564,181544786,1.0015,-1.7290,-0.1289,-10.24,24.27,67.93
565,181549787,0.9941,-1.6929,-0.1294,-11.95,24.21,61.16
566,181554787,0.9751,-1.6543,-0.1333,-12.87,23.84,54.94
567,181559787,0.9595,-1.6172,-0.1313,-12.93,23.48,48.66
568,181564787,0.9463,-1.5771,-0.1392,-12.44,23.11,42.87
569,181569787,0.9370,-1.5420,-0.1416,-11.40,22.93,37.26
570,181574787,0.9238,-1.5039,-0.1372,-10.12,22.56,32.38
571,181579787,0.9106,-1.4683,-0.1392,-8.96,22.13,28.35
572,181584787,0.8979,-1.4302,-0.1406,-7.80,21.83,23.78
573,181589788,0.8833,-1.3843,-0.1406,-6.34,21.52,18.72
574,181594787,0.8721,-1.3525,-0.1401,-5.30,21.22,15.43
575,181599787,0.8574,-1.3247,-0.1343,-4.39,20.85,11.65
576,181604787,0.8384,-1.2866,-0.1416,-3.54,20.49,8.29
577,181609787,0.8184,-1.2559,-0.1406,-3.05,20.06,4.88
578,181614787,0.7979,-1.2305,-0.1401,-2.74,19.39,1.89
579,181619787,0.7793,-1.1992,-0.1436,-2.87,18.96,-0.91
580,181624787,0.7554,-1.1729,-0.1367,-3.23,18.17,-3.60
581,181629787,0.7383,-1.1431,-0.1396,-4.02,17.38,-6.16
582,181634787,0.7183,-1.1235,-0.1387,-4.82,16.40,-8.48
583,181639787,0.6997,-1.0981,-0.1377,-5.73,15.61,-10.79
584,181644787,0.6782,-1.0752,-0.1343,-6.77,14.94,-12.62
585,181649787,0.6665,-1.0571,-0.1401,-7.62,14.15,-14.51
586,181654787,0.6484,-1.0342,-0.1313,-8.66,13.29,-16.16
587,181659787,0.6392,-1.0146,-0.1299,-9.45,12.93,-17.62
588,181665096,0.6309,-0.9922,-0.1284,-10.06,11.95,-19.15
589,181669788,0.6313,-0.9717,-0.1230,-10.18,11.40,-20.00
590,181674787,0.6206,-0.9556,-0.1270,-10.00,10.98,-20.73
591,181679787,0.6147,-0.9375,-0.1250,-9.33,10.37,-21.46
592,181684812,0.6104,-0.9263,-0.1245,-8.54,9.70,-22.01
593,181689787,0.6060,-0.9077,-0.1206,-7.32,9.21,-22.32
594,181694787,0.5957,-0.8926,-0.1167,-6.04,8.66,-22.68
595,181699787,0.5850,-0.8843,-0.1152,-4.51,8.05,-22.68
596,181705005,0.5781,-0.8696,-0.1196,-3.05,7.38,-23.05
597,181709787,0.5605,-0.8574,-0.1191,-1.52,6.71,-23.05
598,181714787,0.5562,-0.8506,-0.1152,-0.12,6.16,-23.17
599,181719787,0.5444,-0.8379,-0.1123,1.16,5.73,-23.17
600,181724787,0.5386,-0.8315,-0.1123,2.38,5.06,-23.17
601,181729788,0.5293,-0.8262,-0.1089,3.48,4.57,-23.17
602,181734787,0.5239,-0.8149,-0.1099,4.57,3.96,-23.11
603,181739787,0.5151,-0.8086,-0.1123,5.37,3.54,-23.05
604,181744785,0.5161,-0.8052,-0.1064,6.40,3.05,-22.87
605,181749788,0.5166,-0.7983,-0.1079,7.07,2.74,-22.68
606,181754996,0.5142,-0.7998,-0.1099,7.87,2.44,-22.38
607,181759788,0.5078,-0.7930,-0.1094,8.66,1.89,-22.01
608,181764787,0.5068,-0.7925,-0.1025,9.33,1.52,-21.71
609,181769786,0.5029,-0.7910,-0.1055,10.30,1.34,-21.34
610,181774787,0.4961,-0.7866,-0.1064,11.28,1.04,-20.98
611,181779786,0.4785,-0.7920,-0.1050,12.26,0.67,-20.67
612,181784787,0.4644,-0.7915,-0.1099,13.48,0.61,-20.37
613,181789786,0.4531,-0.7930,-0.1108,14.82,0.37,-20.37
614,181794787,0.4453,-0.7900,-0.1055,16.34,0.43,-20.37
615,181799787,0.4424,-0.7910,-0.1099,17.99,0.24,-20.37
616,181804813,0.4390,-0.7852,-0.1113,19.76,0.06,-20.37
617,181809787,0.4302,-0.7832,-0.1177,21.52,0.06,-20.61
618,181814786,0.4297,-0.7812,-0.1196,23.05,0.00,-20.73
619,181819787,0.4355,-0.7754,-0.1157,24.39,0.00,-20.79
620,181824787,0.4355,-0.7720,-0.1211,25.61,0.00,-20.91
621,181829788,0.4370,-0.7725,-0.1216,26.65,0.06,-20.85
622,181834787,0.4395,-0.7671,-0.1226,27.62,-0.30,-20.79
623,181839787,0.4443,-0.7622,-0.1221,28.35,-0.24,-20.61
624,181844785,0.4487,-0.7607,-0.1284,28.96,-0.18,-20.30
625,181849785,0.4502,-0.7603,-0.1304,29.27,-0.43,-20.00
626,181854787,0.4565,-0.7549,-0.1304,29.57,-0.61,-19.76
627,181859788,0.4512,-0.7524,-0.1333,29.51,-0.73,-19.39
628,181864787,0.4531,-0.7515,-0.1313,29.15,-1.04,-18.96
629,181869787,0.4609,-0.7524,-0.1313,28.54,-1.40,-18.54
630,181874829,0.4634,-0.7480,-0.1382,27.87,-1.59,-18.05
631,181879787,0.4663,-0.7461,-0.1348,26.83,-1.77,-17.68
632,181884787,0.4741,-0.7427,-0.1357,25.67,-2.07,-17.20
633,181889786,0.4814,-0.7446,-0.1367,24.94,-2.44,-16.65
634,181894787,0.4951,-0.7427,-0.1372,24.09,-2.62,-16.04
635,181899786,0.5000,-0.7407,-0.1401,23.29,-3.05,-15.43
636,181904788,0.5029,-0.7422,-0.1416,22.87,-3.35,-14.88
637,181909787,0.5083,-0.7427,-0.1367,22.50,-3.84,-14.21
638,181914787,0.5176,-0.7446,-0.1401,22.32,-4.27,-13.66
639,181919786,0.5239,-0.7480,-0.1416,22.26,-4.51,-13.11
640,181924789,0.5249,-0.7515,-0.1465,22.26,-5.00,-12.56
641,181929786,0.5391,-0.7573,-0.1533,22.44,-5.37,-12.01
642,181934787,0.5439,-0.7646,-0.1489,22.38,-5.85,-11.52
643,181939786,0.5483,-0.7729,-0.1470,22.50,-6.10,-10.98
644,181944787,0.5581,-0.7852,-0.1484,22.62,-6.40,-10.43
645,181949786,0.5645,-0.7915,-0.1523,22.80,-6.89,-10.12
646,181954785,0.5664,-0.8032,-0.1484,22.99,-7.20,-9.70
647,181959787,0.5703,-0.8105,-0.1465,23.11,-7.56,-9.51
648,181964787,0.5771,-0.8267,-0.1475,23.60,-7.74,-9.33
649,181969787,0.5825,-0.8364,-0.1431,24.09,-7.99,-9.27
650,181974788,0.5796,-0.8467,-0.1372,24.63,-8.29,-9.27
651,181979787,0.5742,-0.8555,-0.1328,25.43,-8.54,-9.33
652,181984785,0.5786,-0.8647,-0.1299,26.34,-8.78,-9.39
653,181989787,0.5732,-0.8765,-0.1289,27.38,-9.02,-9.76
654,181994787,0.5708,-0.8843,-0.1270,28.60,-9.45,-10.24
655,181999787,0.5669,-0.8906,-0.1304,29.76,-9.94,-10.79
656,182004787,0.5645,-0.9009,-0.1255,30.61,-10.49,-11.46
657,182009786,0.5586,-0.9097,-0.1211,31.52,-11.10,-12.38
658,182014785,0.5601,-0.9150,-0.1206,32.07,-11.89,-13.29
659,182020301,0.5557,-0.9233,-0.1235,32.38,-12.62,-14.57
660,182024789,0.5537,-0.9277,-0.1187,32.26,-13.35,-15.73
661,182029786,0.5542,-0.9346,-0.1182,31.83,-14.21,-16.95
662,182034787,0.5645,-0.9399,-0.1099,30.85,-15.12,-18.17
663,182039786,0.5737,-0.9497,-0.1060,29.88,-16.04,-19.51
664,182044789,0.5840,-0.9521,-0.1050,28.78,-16.71,-20.79
665,182049786,0.5894,-0.9551,-0.0986,27.44,-17.68,-22.01
666,182054785,0.5952,-0.9600,-0.0928,26.52,-18.54,-23.35
667,182059785,0.6006,-0.9590,-0.0913,25.61,-19.57,-24.39
668,182064789,0.6011,-0.9590,-0.0840,25.06,-20.37,-25.73
669,182069786,0.5918,-0.9565,-0.0820,24.94,-21.28,-27.01
670,182074785,0.5962,-0.9517,-0.0859,25.24,-22.26,-28.11
671,182079799,0.5898,-0.9448,-0.0806,25.91,-23.35,-29.33
672,182084787,0.5884,-0.9443,-0.0781,26.83,-24.21,-30.43
673,182089787,0.5977,-0.9399,-0.0825,28.05,-25.06,-31.46
674,182094788,0.6001,-0.9385,-0.0845,29.45,-26.04,-32.50
675,182099787,0.6040,-0.9316,-0.0825,30.85,-26.89,-33.05
676,182104787,0.6079,-0.9292,-0.0869,32.68,-27.87,-34.09
677,182109787,0.6074,-0.9248,-0.0889,34.21,-28.78,-34.88
678,182114897,0.6011,-0.9199,-0.0938,35.85,-29.94,-35.73
679,182119900,0.5996,-0.9150,-0.0928,37.13,-30.79,-36.46
680,182125158,0.5952,-0.9009,-0.0938,38.17,-31.89,-37.32
681,182129787,0.5957,-0.8975,-0.0908,38.84,-32.62,-37.93
682,182134786,0.5928,-0.8940,-0.1021,39.57,-33.48,-38.66
683,182139787,0.5874,-0.8872,-0.1016,40.37,-34.27,-39.27
684,182144787,0.5825,-0.8740,-0.1040,40.79,-35.06,-40.00
685,182149794,0.5811,-0.8672,-0.1035,41.34,-35.79,-40.55
686,182154787,0.5786,-0.8589,-0.1064,42.01,-36.52,-41.04
687,182159787,0.5747,-0.8442,-0.1123,42.62,-37.20,-41.65
688,182164806,0.5771,-0.8354,-0.1353,43.78,-38.05,-41.95
689,182169785,0.5747,-0.8281,-0.1309,44.33,-38.72,-42.13
690,182174785,0.5654,-0.8130,-0.1411,45.61,-39.82,-42.50
691,182179787,0.5537,-0.8027,-0.1460,46.16,-40.43,-42.56
692,182184788,0.5439,-0.7881,-0.1470,46.52,-41.34,-42.87
693,182189789,0.5386,-0.7734,-0.1582,46.59,-42.20,-42.99
694,182194787,0.5312,-0.7588,-0.1577,46.28,-43.17,-43.17
695,182199787,0.5195,-0.7427,-0.1665,45.55,-44.15,-43.29
696,182204787,0.5112,-0.7236,-0.1670,44.51,-44.88,-43.29
697,182209788,0.5068,-0.7090,-0.1660,43.17,-45.61,-43.11
698,182214787,0.5039,-0.6948,-0.1777,41.59,-46.22,-43.17
699,182219788,0.5015,-0.6816,-0.1743,39.82,-47.01,-42.93
700,182224785,0.5054,-0.6631,-0.1772,38.23,-47.56,-42.50
701,182229787,0.5034,-0.6509,-0.1758,36.83,-48.17,-41.95
702,182234787,0.5039,-0.6343,-0.1772,35.49,-48.60,-41.22
703,182239787,0.4995,-0.6147,-0.1816,34.51,-49.15,-40.43
704,182244787,0.4912,-0.5942,-0.1758,33.84,-49.57,-39.51
705,182249787,0.4829,-0.5791,-0.1797,33.54,-50.06,-38.54
706,182254787,0.4722,-0.5615,-0.1792,33.66,-50.43,-37.38
707,182259787,0.4580,-0.5527,-0.1743,34.02,-51.22,-36.22
708,182264787,0.4497,-0.5371,-0.1768,34.82,-51.77,-34.94
709,182269787,0.4409,-0.5205,-0.1753,35.73,-52.50,-33.35
710,182274787,0.4336,-0.5054,-0.1689,36.95,-53.11,-31.95
711,182279787,0.4214,-0.4912,-0.1655,38.23,-54.02,-30.43
712,182284785,0.4155,-0.4756,-0.1567,39.39,-54.70,-28.78
713,182289787,0.4111,-0.4551,-0.1426,40.55,-55.67,-27.07
714,182295168,0.4082,-0.4478,-0.1323,41.83,-56.59,-24.82
715,182299787,0.4111,-0.4380,-0.1323,42.74,-57.01,-23.23
716,182304786,0.4146,-0.4268,-0.1455,43.48,-57.93,-21.16
717,182309785,0.4238,-0.4116,-0.1855,43.48,-58.54,-19.09
718,182314788,0.4697,-0.3833,-0.3364,41.89,-59.27,-17.13
719,182319788,0.5557,-0.3237,-0.6870,36.46,-59.70,-15.30
720,182324787,0.5439,-0.1514,-0.9136,25.43,-59.02,-14.21
721,182329785,0.5703,-0.1802,-0.9302,10.00,-57.26,-12.99
722,182334879,0.6196,-0.1841,-0.8862,-6.89,-54.45,-10.12
723,182339787,0.5845,-0.1958,-0.8003,-23.11,-51.59,-6.04
724,182344786,0.4438,-0.2617,-0.6821,-36.65,-49.02,-1.40
725,182349786,0.3223,-0.3062,-0.5742,-46.46,-47.68,2.87
726,182354787,0.2915,-0.3105,-0.4712,-53.72,-47.26,6.59
727,182359787,0.3325,-0.3198,-0.3657,-59.51,-47.50,9.76
728,182364785,0.3818,-0.3350,-0.2646,-64.88,-48.23,12.38
729,182369787,0.2988,-0.3652,-0.1943,-69.94,-49.51,14.94
730,182374788,0.2974,-0.3491,-0.1587,-74.76,-51.34,17.01
731,182379787,0.3550,-0.4233,-0.0898,-79.45,-53.54,18.60
732,182384787,0.5166,-0.5161,-0.0112,-84.27,-55.85,20.18
733,182389787,0.6831,-0.6279,-0.0342,-88.72,-59.02,21.77
734,182394787,0.6987,-0.6982,-0.0737,-92.32,-63.66,23.23
735,182399786,0.6509,-0.6982,-0.0874,-95.85,-68.72,24.27
736,182404787,0.6104,-0.6694,-0.0952,-98.41,-74.51,24.27
737,182409787,0.5854,-0.6611,-0.0669,-99.21,-80.37,23.54
738,182414788,0.5376,-0.6167,-0.2944,-98.11,-87.01,21.59
739,182419786,0.4146,-0.7144,-0.2134,-94.76,-93.17,18.96
740,182424787,0.4199,-0.5830,-0.0181,-88.48,-97.62,16.83
741,182429785,0.5249,-0.5630,-0.2539,-80.85,-101.59,13.90
742,182434787,0.6250,-0.6992,-0.2236,-76.83,-103.54,13.72
743,182439791,0.6387,-0.7012,-0.2241,-75.18,-103.05,14.45
744,182444785,0.6143,-0.6675,-0.4375,-74.09,-103.54,14.45
745,182449792,0.5522,-0.6021,-0.5830,-73.41,-105.37,13.96
746,182454787,0.4531,-0.5430,-0.4253,-72.38,-106.22,13.11
747,182459787,0.3955,-0.5210,-0.2681,-70.85,-105.98,12.32
748,182464787,0.3916,-0.5063,-0.3848,-68.90,-105.73,11.52
749,182469786,0.4082,-0.5054,-0.4775,-66.95,-105.91,10.98
750,182475228,0.4185,-0.5322,-0.3926,-65.30,-105.55,10.18
751,182479787,0.4238,-0.5874,-0.3403,-63.17,-104.51,9.45
752,182484786,0.4453,-0.5991,-0.4194,-60.98,-103.66,8.60
753,182489787,0.4585,-0.5747,-0.4487,-58.60,-102.68,8.11
754,182495038,0.4785,-0.5684,-0.3857,-55.98,-101.34,7.56
755,182499787,0.5024,-0.5815,-0.3784,-53.11,-99.45,7.13
756,182504787,0.5190,-0.6118,-0.4277,-49.88,-97.50,7.01
757,182509788,0.5176,-0.6401,-0.4351,-46.28,-95.55,7.01
758,182514787,0.5127,-0.6489,-0.4180,-42.44,-92.93,7.07
759,182519786,0.5098,-0.6484,-0.4536,-38.29,-90.61,7.26
760,182524787,0.5000,-0.6685,-0.4839,-33.78,-88.29,7.44
761,182529787,0.4888,-0.6460,-0.4995,-28.54,-85.91,7.68
762,182534787,0.4780,-0.6206,-0.5234,-22.38,-83.23,8.05
763,182539787,0.4585,-0.5977,-0.5483,-15.79,-80.61,8.29
764,182544787,0.4429,-0.6147,-0.5557,-9.39,-77.87,8.41
765,182549787,0.4360,-0.6875,-0.5239,-2.68,-75.06,8.90
766,182554787,0.4463,-0.6431,-0.5444,5.12,-71.77,9.45
767,182559787,0.4565,-0.6055,-0.5801,13.23,-68.60,9.88
768,182564787,0.4492,-0.6201,-0.5820,21.40,-65.55,10.37
769,182569787,0.4458,-0.6484,-0.5913,29.70,-62.26,10.98
770,182574787,0.4473,-0.6577,-0.5825,37.99,-58.66,11.59
771,182579786,0.4463,-0.6611,-0.5845,45.67,-55.12,12.13
772,182584787,0.4512,-0.6685,-0.5903,52.80,-51.52,12.87
773,182589786,0.4517,-0.6680,-0.5835,58.72,-47.87,13.41
774,182594787,0.4541,-0.6621,-0.5747,63.66,-43.96,13.78
775,182599789,0.4536,-0.6597,-0.5747,67.38,-39.82,14.21
776,182604786,0.4502,-0.6655,-0.5742,70.24,-35.98,14.39
777,182609787,0.4507,-0.6738,-0.5747,72.01,-32.13,14.63
778,182614787,0.4443,-0.6831,-0.5703,72.93,-27.99,14.88
779,182619787,0.4395,-0.6948,-0.5771,73.23,-24.27,15.06
780,182624785,0.4380,-0.7026,-0.5762,72.87,-20.49,15.00
781,182629789,0.4331,-0.7056,-0.5747,71.95,-16.65,15.00
782,182634786,0.4263,-0.7188,-0.5752,70.61,-12.99,14.88
783,182639787,0.4141,-0.7290,-0.5762,68.90,-9.57,14.63
784,182644788,0.4082,-0.7388,-0.5684,67.50,-6.83,14.39
785,182649787,0.4053,-0.7441,-0.5659,65.37,-3.54,14.02
786,182654787,0.3984,-0.7412,-0.5620,62.68,-0.37,13.41
787,182659787,0.3901,-0.7539,-0.5479,60.12,2.56,12.74
788,182664785,0.3857,-0.7607,-0.5405,57.26,5.43,12.01
789,182669785,0.3838,-0.7661,-0.5396,54.57,8.29,11.04
790,182674789,0.3784,-0.7803,-0.5337,51.40,11.28,9.70
791,182679789,0.3745,-0.7808,-0.5283,49.21,13.29,8.84
792,182684787,0.3711,-0.7891,-0.5156,46.77,15.73,7.62
793,182689787,0.3701,-0.7930,-0.5142,44.57,17.93,6.34
794,182694788,0.3813,-0.8120,-0.5356,42.32,19.76,5.06
795,182699787,0.3579,-0.7920,-0.5132,39.94,21.52,3.66
796,182704785,0.3667,-0.8101,-0.4727,37.44,23.41,2.13
797,182709789,0.3711,-0.7910,-0.4941,35.00,24.94,0.73
798,182714787,0.3872,-0.7842,-0.4971,32.68,26.52,-0.85
799,182719788,0.3779,-0.7988,-0.4805,30.85,27.99,-2.44
800,182724866,0.3701,-0.7993,-0.4795,28.96,29.88,-4.45
801,182729785,0.3721,-0.8110,-0.4897,28.17,30.85,-5.61
802,182734785,0.3765,-0.8125,-0.4902,27.50,31.95,-7.07
803,182739787,0.3804,-0.8193,-0.4839,27.01,33.23,-8.60
804,182744894,0.3833,-0.8223,-0.4722,26.65,34.27,-9.94
805,182749787,0.3877,-0.8208,-0.4717,26.34,35.30,-11.28
806,182754787,0.3887,-0.8193,-0.4629,25.91,36.28,-12.56
807,182759787,0.3950,-0.8145,-0.4595,25.30,37.20,-13.72
808,182764787,0.4028,-0.8120,-0.4517,24.21,38.23,-14.88
809,182769787,0.4082,-0.8066,-0.4468,23.35,39.39,-16.10
810,182774785,0.4131,-0.8076,-0.4380,22.13,40.37,-17.07
811,182779787,0.4175,-0.8096,-0.4404,20.91,41.28,-17.93
812,182784787,0.4189,-0.8125,-0.4316,19.70,42.07,-18.72
813,182789787,0.4263,-0.8096,-0.4302,18.60,43.05,-19.45
814,182794788,0.4326,-0.8184,-0.4360,17.32,43.84,-20.00
815,182799787,0.4360,-0.8169,-0.4321,16.40,44.76,-20.37
816,182804787,0.4385,-0.8213,-0.4263,15.43,45.55,-20.67
817,182809787,0.4458,-0.8213,-0.4272,14.57,46.34,-20.85
818,182814787,0.4551,-0.8257,-0.4268,13.60,47.20,-20.91
819,182819787,0.4600,-0.8262,-0.4268,12.80,47.99,-20.73
820,182824787,0.4624,-0.8218,-0.4263,11.95,49.09,-20.61
821,182829787,0.4731,-0.8174,-0.4287,11.16,49.76,-20.37
822,182834785,0.4790,-0.8154,-0.4214,10.43,50.43,-20.00
823,182839879,0.4849,-0.8105,-0.4229,9.45,51.40,-19.63
824,182844787,0.4941,-0.8135,-0.4165,8.48,52.07,-19.21
825,182849787,0.4995,-0.8066,-0.4175,7.68,52.93,-18.54
826,182854787,0.5039,-0.8071,-0.4170,6.71,53.72,-17.93
827,182859787,0.5063,-0.8027,-0.4194,5.98,54.39,-17.32
828,182864787,0.5063,-0.8022,-0.4160,5.30,55.06,-16.71
829,182869787,0.5083,-0.7935,-0.4136,4.51,55.43,-15.98
830,182874785,0.5098,-0.7876,-0.4097,3.84,56.16,-15.18
831,182879789,0.5083,-0.7798,-0.3999,3.29,56.52,-14.51
832,182884787,0.5103,-0.7749,-0.3970,2.62,57.07,-13.84
833,182889787,0.5078,-0.7739,-0.3999,2.20,57.32,-13.05
834,182894787,0.5112,-0.7690,-0.3994,1.59,57.62,-12.13
835,182899787,0.5210,-0.7695,-0.3984,1.10,57.93,-11.52
836,182904787,0.5264,-0.7690,-0.3882,0.61,57.99,-10.73
837,182909786,0.5273,-0.7695,-0.3892,0.37,58.23,-9.88
838,182914787,0.5293,-0.7622,-0.3794,-0.18,58.17,-9.09
839,182919786,0.5278,-0.7617,-0.3804,-0.61,58.11,-8.23
840,182924788,0.5264,-0.7554,-0.3755,-1.04,57.99,-7.50
841,182929786,0.5215,-0.7520,-0.3735,-1.40,57.87,-6.77
842,182934787,0.5195,-0.7441,-0.3623,-1.71,57.56,-6.10
843,182939787,0.5190,-0.7432,-0.3643,-1.83,57.32,-5.43
844,182944787,0.5176,-0.7441,-0.3613,-1.89,56.71,-4.76
845,182949786,0.5161,-0.7427,-0.3486,-1.83,56.28,-4.15
846,182954787,0.5190,-0.7412,-0.3472,-1.89,55.79,-3.66
847,182959786,0.5195,-0.7422,-0.3491,-1.71,55.18,-2.93
848,182964866,0.5195,-0.7393,-0.3394,-1.71,54.57,-2.38
849,182969788,0.5200,-0.7427,-0.3350,-1.65,53.90,-1.83
850,182974785,0.5210,-0.7446,-0.3325,-1.46,53.05,-1.28
851,182979785,0.5210,-0.7427,-0.3281,-1.65,52.38,-0.79
852,182984787,0.5283,-0.7446,-0.3208,-1.52,51.34,-0.24
853,182989787,0.5273,-0.7402,-0.3188,-1.77,50.43,0.37
854,182994787,0.5254,-0.7388,-0.3140,-1.89,49.63,0.85
855,182999786,0.5298,-0.7383,-0.3140,-2.26,48.72,1.40
856,183004787,0.5303,-0.7339,-0.3081,-2.87,47.87,1.77
857,183009787,0.5361,-0.7300,-0.3037,-3.41,47.13,2.32
858,183014787,0.5347,-0.7310,-0.2974,-4.27,46.04,2.87
859,183019786,0.5381,-0.7280,-0.2886,-5.06,45.06,3.23
860,183024789,0.5400,-0.7256,-0.2891,-5.98,44.09,3.72
861,183029786,0.5454,-0.7227,-0.2793,-6.89,43.23,4.15
862,183034789,0.5518,-0.7197,-0.2773,-7.80,42.20,4.57
863,183039788,0.5537,-0.7197,-0.2798,-8.66,41.16,5.06
864,183044859,0.5581,-0.7148,-0.2710,-9.21,40.43,5.43
865,183049788,0.5620,-0.7134,-0.2729,-9.82,39.45,5.73
866,183054787,0.5679,-0.7119,-0.2637,-10.18,38.48,6.22
867,183059787,0.5679,-0.7129,-0.2671,-10.43,37.44,6.52
868,183064787,0.5732,-0.7119,-0.2671,-10.49,36.52,6.89
869,183069788,0.5703,-0.7153,-0.2627,-10.24,35.37,7.13
870,183074785,0.5767,-0.7173,-0.2632,-9.82,34.51,7.44
871,183079785,0.5752,-0.7153,-0.2583,-9.45,33.60,7.74
872,183084787,0.5776,-0.7134,-0.2622,-9.02,32.56,7.93
873,183089788,0.5811,-0.7119,-0.2510,-8.48,31.59,8.29
874,183094787,0.5835,-0.7090,-0.2490,-7.93,30.61,8.48
875,183099787,0.5811,-0.7100,-0.2476,-7.56,29.70,8.72
876,183104788,0.5811,-0.7070,-0.2446,-7.13,28.78,8.72
877,183109787,0.5806,-0.7080,-0.2471,-6.46,27.80,8.96
878,183114787,0.5801,-0.7046,-0.2422,-6.04,26.83,9.02
879,183119788,0.5854,-0.7056,-0.2290,-5.79,25.98,9.21
880,183124787,0.5825,-0.7061,-0.2266,-5.43,25.12,9.33
881,183129787,0.5854,-0.7046,-0.2334,-5.18,24.21,9.33
882,183134786,0.5801,-0.7017,-0.2261,-4.88,23.29,9.39
883,183139787,0.5811,-0.7036,-0.2300,-4.57,22.44,9.33
884,183144788,0.5815,-0.7065,-0.2217,-4.39,21.52,9.33
885,183149787,0.5786,-0.7026,-0.2188,-4.09,20.67,9.27
886,183154787,0.5820,-0.7036,-0.2212,-3.78,19.76,9.21
887,183159787,0.5781,-0.7080,-0.2188,-3.48,19.09,9.33
888,183164787,0.5815,-0.7085,-0.2192,-3.23,18.41,9.09
889,183169787,0.5815,-0.7104,-0.2202,-2.74,17.26,9.02
890,183174958,0.5928,-0.7065,-0.2222,-2.44,16.34,9.02
891,183179786,0.5942,-0.7100,-0.2241,-2.26,15.67,9.15
892,183184947,0.5952,-0.7173,-0.2163,-1.83,14.70,9.15
893,183189789,0.6016,-0.7153,-0.2217,-1.52,13.96,8.96
894,183194787,0.6006,-0.7192,-0.2158,-1.04,12.99,8.90
895,183199787,0.6030,-0.7183,-0.2217,-0.91,12.20,8.90
896,183204787,0.6035,-0.7178,-0.2192,-0.67,11.40,8.84
897,183209787,0.6060,-0.7163,-0.2134,-0.37,10.49,8.84
898,183214787,0.6069,-0.7163,-0.2183,-0.43,9.82,8.72
899,183219787,0.6064,-0.7139,-0.2144,-0.37,8.90,8.60
900,183224787,0.6069,-0.7090,-0.2109,-0.49,8.05,8.54
901,183229788,0.6025,-0.7090,-0.2163,-0.55,7.26,8.35
902,183234787,0.6035,-0.7065,-0.2095,-0.79,6.59,8.11
903,183239787,0.6055,-0.7080,-0.2090,-0.85,5.79,8.05
904,183244785,0.5996,-0.7095,-0.2109,-1.04,5.12,7.68
905,183250135,0.6006,-0.7104,-0.2109,-1.22,4.09,7.44
906,183254787,0.6006,-0.7051,-0.2080,-1.22,3.66,7.26
907,183259786,0.6035,-0.7075,-0.2100,-1.22,2.99,7.01
908,183264787,0.6030,-0.7002,-0.2090,-1.34,2.32,6.65
909,183269786,0.6016,-0.7002,-0.2017,-1.46,1.77,6.34
910,183274787,0.6030,-0.6948,-0.2036,-1.65,1.16,6.28
911,183279786,0.6021,-0.6914,-0.2012,-1.89,0.61,5.79
912,183284785,0.6030,-0.6919,-0.2075,-2.13,0.06,5.49
913,183289787,0.5981,-0.6919,-0.2017,-2.38,-0.43,5.18
914,183294787,0.5962,-0.6885,-0.2051,-2.44,-0.79,4.82
915,183299787,0.5981,-0.6851,-0.2041,-2.38,-1.28,4.33
916,183304787,0.5986,-0.6860,-0.2109,-2.26,-1.59,3.96
917,183309788,0.5889,-0.6807,-0.2109,-2.13,-2.07,3.48
918,183314785,0.5874,-0.6807,-0.2114,-1.77,-2.38,3.05
919,183319787,0.5840,-0.6787,-0.2085,-1.22,-2.80,2.62
920,183324787,0.5825,-0.6743,-0.2051,-0.79,-3.05,2.13
921,183329787,0.5825,-0.6689,-0.2095,-0.30,-3.48,1.71
922,183334787,0.5859,-0.6753,-0.2100,0.37,-3.72,1.34
923,183339787,0.5830,-0.6714,-0.2114,1.10,-3.84,0.79
924,183344787,0.5859,-0.6724,-0.2095,1.89,-4.09,0.55
925,183349787,0.5903,-0.6763,-0.2178,2.50,-4.45,0.06
926,183354789,0.5830,-0.6709,-0.2173,3.35,-4.63,-0.30
927,183359786,0.5845,-0.6729,-0.2163,4.15,-5.00,-0.55
928,183364802,0.5850,-0.6787,-0.2212,4.94,-5.06,-0.91
929,183369786,0.5898,-0.6826,-0.2236,5.79,-5.12,-1.16
930,183374789,0.5928,-0.6836,-0.2290,6.65,-5.49,-1.40
931,183379786,0.5898,-0.6860,-0.2290,7.38,-5.55,-1.52
932,183384787,0.5923,-0.6880,-0.2383,8.05,-5.67,-1.77
933,183389786,0.5884,-0.6865,-0.2363,8.72,-5.91,-2.01
934,183394787,0.5918,-0.6851,-0.2422,9.15,-6.34,-2.07
935,183399786,0.5972,-0.6870,-0.2427,9.51,-6.46,-2.26
936,183404787,0.5957,-0.6929,-0.2461,9.82,-6.46,-2.26
937,183409786,0.5996,-0.6948,-0.2427,9.82,-6.65,-2.26
938,183414789,0.6025,-0.6997,-0.2520,9.88,-6.71,-2.38
939,183419787,0.6050,-0.6978,-0.2515,9.82,-6.83,-2.44
940,183424787,0.6060,-0.7017,-0.2642,9.88,-6.89,-2.32
941,183429787,0.6069,-0.7031,-0.2568,9.82,-6.95,-2.13
942,183434787,0.6094,-0.7065,-0.2627,9.82,-7.07,-2.20
943,183439787,0.6118,-0.7109,-0.2749,10.06,-7.01,-1.95
944,183444787,0.6113,-0.7104,-0.2729,10.37,-7.13,-1.95
945,183449787,0.6108,-0.7114,-0.2725,10.43,-7.26,-1.89
946,183454787,0.6094,-0.7163,-0.2817,10.79,-7.20,-1.59
947,183459787,0.6069,-0.7173,-0.2788,11.16,-7.20,-1.52
948,183464787,0.6064,-0.7153,-0.2842,11.40,-7.32,-1.40
949,183469787,0.6069,-0.7144,-0.2837,11.59,-7.38,-1.22
950,183474787,0.6055,-0.7119,-0.2783,11.65,-7.32,-1.04
951,183479787,0.6035,-0.7119,-0.2817,11.52,-7.44,-0.85
952,183484785,0.6025,-0.7134,-0.2856,11.28,-7.62,-0.85
953,183489785,0.5986,-0.7144,-0.2856,10.91,-7.68,-0.79
954,183494789,0.5986,-0.7163,-0.2866,10.30,-7.68,-0.61
955,183499786,0.5996,-0.7153,-0.2930,9.88,-7.56,-0.43
956,183504837,0.5947,-0.7124,-0.2876,9.09,-7.80,-0.30
957,183509786,0.5928,-0.7090,-0.2935,8.29,-7.93,-0.18
958,183514787,0.5957,-0.7139,-0.2930,7.44,-7.74,-0.06
959,183519786,0.5938,-0.7129,-0.2866,6.65,-7.80,0.12
960,183524787,0.5962,-0.7090,-0.2920,5.85,-7.74,0.30
961,183529786,0.5962,-0.7114,-0.2905,5.12,-7.68,0.37
962,183535257,0.5947,-0.7075,-0.2896,4.33,-7.56,0.49
963,183539787,0.5952,-0.7051,-0.2842,3.66,-7.56,0.73
964,183544787,0.5938,-0.7036,-0.2856,3.05,-7.44,0.98
965,183549787,0.5928,-0.7012,-0.2871,2.50,-7.38,1.04
966,183554785,0.5928,-0.6973,-0.2817,1.89,-7.13,1.16
967,183559787,0.5894,-0.7021,-0.2856,1.46,-6.95,1.34
968,183564787,0.5864,-0.6963,-0.2798,1.10,-6.83,1.40
969,183569786,0.5869,-0.6973,-0.2832,0.79,-6.52,1.59
970,183574787,0.5903,-0.6948,-0.2749,0.55,-6.40,1.59
971,183579786,0.5879,-0.6997,-0.2803,0.43,-6.04,1.65
972,183584785,0.5894,-0.6934,-0.2808,0.18,-5.98,1.77
973,183589785,0.5933,-0.6958,-0.2822,0.12,-5.79,1.83
974,183595202,0.5894,-0.6948,-0.2793,0.00,-5.24,1.77
975,183599787,0.5884,-0.6978,-0.2856,-0.18,-5.12,1.83
976,183604786,0.5859,-0.6943,-0.2749,-0.43,-4.76,1.89
977,183609787,0.5894,-0.6958,-0.2778,-0.55,-4.45,2.01
978,183614787,0.5908,-0.6958,-0.2803,-0.61,-4.09,1.95
979,183619788,0.5933,-0.6982,-0.2729,-0.73,-3.78,2.01
980,183624785,0.5869,-0.6992,-0.2754,-0.85,-3.48,2.07
981,183629787,0.5889,-0.7036,-0.2676,-0.91,-3.23,2.07
982,183634787,0.5908,-0.7031,-0.2695,-0.98,-2.80,2.07
983,183639787,0.5894,-0.7031,-0.2725,-0.98,-2.56,1.95
984,183644787,0.5898,-0.7061,-0.2695,-0.85,-2.20,1.95
