# skilleye imu stream v1
# device=xiao_esp32c6 imu=mpu6050 addr=0x68
# rate_hz=200 accel_range_g=16 gyro_range_dps=2000 dlpf_hz=94
# units: accel in g, gyro in deg/s, t_us in microseconds since boot (monotonic)
# no shared clock with the camera -- tap the racket once before each take
# so both recordings share a spike to align on
seq,t_us,ax,ay,az,gx,gy,gz
0,302845327,0.1777,0.2163,1.1001,8.41,-26.77,26.10
1,302849787,0.1807,0.2144,1.0977,8.54,-27.20,25.73
2,302855384,0.1875,0.2192,1.0981,8.90,-27.74,25.06
3,302859787,0.1826,0.2217,1.0962,9.02,-28.17,24.70
4,302864786,0.1870,0.2227,1.0903,9.27,-28.72,24.21
5,302869787,0.1929,0.2251,1.0938,9.76,-29.21,23.66
6,302874785,0.1880,0.2295,1.0957,10.00,-29.57,23.29
7,302879787,0.1963,0.2246,1.0986,10.37,-29.88,22.93
8,302884785,0.2012,0.2290,1.0923,10.79,-30.37,22.62
9,302889785,0.1992,0.2339,1.0859,11.04,-30.73,22.26
10,302894789,0.2017,0.2295,1.0879,11.22,-31.16,22.01
11,302899787,0.2021,0.2290,1.0830,11.34,-31.59,21.71
12,302904787,0.2012,0.2314,1.0811,11.28,-31.77,21.34
13,302909787,0.2065,0.2344,1.0767,11.46,-32.01,21.16
14,302914791,0.2114,0.2373,1.0776,11.40,-32.44,20.91
15,302919785,0.2207,0.2412,1.0786,11.28,-32.80,20.61
16,302924787,0.2261,0.2378,1.0723,11.10,-32.99,20.49
17,302929787,0.2285,0.2441,1.0664,11.10,-33.35,20.43
18,302934788,0.2397,0.2466,1.0703,10.91,-33.66,20.24
19,302939786,0.2363,0.2456,1.0698,10.91,-33.96,20.24
20,302944787,0.2383,0.2495,1.0688,10.91,-34.21,20.18
21,302949785,0.2397,0.2471,1.0649,10.73,-34.51,20.12
22,302954787,0.2427,0.2500,1.0669,10.85,-34.63,20.24
23,302959787,0.2461,0.2476,1.0620,10.98,-34.70,20.37
24,302964787,0.2510,0.2500,1.0649,10.98,-34.88,20.49
25,302969788,0.2563,0.2529,1.0562,11.10,-35.06,20.49
26,302974787,0.2617,0.2490,1.0557,11.34,-35.18,20.61
27,302980227,0.2671,0.2505,1.0581,11.59,-35.37,20.79
28,302984788,0.2739,0.2461,1.0581,11.77,-35.43,20.85
29,302989786,0.2759,0.2520,1.0557,12.01,-35.67,21.04
30,302994785,0.2817,0.2534,1.0552,12.32,-35.67,21.16
31,302999971,0.2778,0.2524,1.0483,12.62,-35.79,21.40
32,303004788,0.2827,0.2559,1.0557,12.93,-35.79,21.52
33,303009787,0.2900,0.2563,1.0498,13.23,-35.73,21.65
34,303014786,0.2944,0.2622,1.0513,13.35,-35.91,21.71
35,303019787,0.3042,0.2612,1.0513,13.54,-35.91,21.95
36,303024785,0.3032,0.2661,1.0503,13.66,-35.98,21.89
37,303029787,0.3086,0.2617,1.0449,13.48,-35.91,22.07
38,303034786,0.3101,0.2627,1.0376,13.23,-35.91,22.07
39,303039787,0.3198,0.2627,1.0435,12.93,-35.91,22.13
40,303044786,0.3262,0.2612,1.0435,12.50,-35.85,22.13
41,303049843,0.3345,0.2642,1.0396,12.07,-35.91,22.01
42,303054787,0.3394,0.2671,1.0322,11.34,-35.91,22.01
43,303059786,0.3428,0.2695,1.0361,10.79,-35.91,21.89
44,303064787,0.3472,0.2637,1.0376,10.24,-35.91,21.95
45,303069787,0.3496,0.2642,1.0293,9.51,-35.73,21.89
46,303074786,0.3555,0.2642,1.0376,8.96,-35.67,21.89
47,303079787,0.3599,0.2671,1.0303,8.41,-35.61,21.65
48,303084787,0.3672,0.2661,1.0356,7.74,-35.49,21.59
49,303089786,0.3721,0.2598,1.0312,7.32,-35.43,21.40
50,303094785,0.3765,0.2612,1.0269,6.89,-35.37,21.34
51,303099789,0.3823,0.2559,1.0308,6.59,-35.18,21.34
52,303104786,0.3779,0.2593,1.0264,6.28,-35.18,21.22
53,303109787,0.3857,0.2612,1.0239,6.16,-34.94,21.22
54,303114787,0.3882,0.2598,1.0259,6.16,-34.88,21.04
55,303120283,0.3911,0.2534,1.0215,6.40,-34.82,20.91
56,303124787,0.3960,0.2593,1.0112,6.59,-34.63,20.73
57,303129787,0.4019,0.2510,1.0195,6.71,-34.45,20.61
58,303134808,0.4082,0.2500,1.0210,6.89,-34.33,20.30
59,303139871,0.4136,0.2471,1.0171,7.07,-34.15,20.24
60,303144786,0.4204,0.2505,1.0137,7.32,-34.15,19.88
61,303149785,0.4219,0.2476,1.0098,7.38,-34.09,19.70
62,303154787,0.4277,0.2441,1.0107,7.56,-33.96,19.45
63,303159786,0.4316,0.2456,1.0054,7.62,-33.90,19.27
64,303164787,0.4390,0.2451,1.0000,7.74,-33.78,18.78
65,303169787,0.4409,0.2456,0.9956,7.74,-33.72,18.48
66,303174787,0.4438,0.2471,0.9985,7.74,-33.66,18.17
67,303179787,0.4414,0.2490,1.0010,7.87,-33.54,17.80
68,303184787,0.4419,0.2456,1.0063,7.99,-33.41,17.50
69,303189785,0.4434,0.2456,1.0083,8.29,-33.05,17.13
70,303194788,0.4385,0.2417,1.0039,8.48,-32.87,16.83
71,303199787,0.4351,0.2402,1.0083,8.90,-32.56,16.59
72,303204789,0.4336,0.2358,1.0054,9.39,-32.13,16.28
73,303209787,0.4375,0.2363,1.0098,9.82,-31.95,16.22
74,303214786,0.4385,0.2334,1.0005,10.30,-31.65,15.91
75,303219787,0.4395,0.2349,1.0024,10.91,-31.28,15.61
76,303224787,0.4443,0.2383,1.0049,11.46,-30.79,15.43
77,303229787,0.4492,0.2407,0.9951,11.89,-30.73,15.12
78,303234787,0.4521,0.2393,0.9946,12.62,-30.37,14.82
79,303239787,0.4502,0.2417,0.9941,12.93,-30.06,14.57
80,303244787,0.4521,0.2466,0.9893,13.35,-29.57,14.21
81,303249787,0.4556,0.2407,0.9937,13.60,-29.21,13.90
82,303254787,0.4512,0.2417,0.9849,13.54,-28.90,13.41
83,303259787,0.4521,0.2393,0.9854,13.48,-28.48,13.17
84,303264787,0.4512,0.2349,0.9834,13.11,-28.11,12.99
85,303269787,0.4487,0.2363,0.9790,12.93,-27.87,12.56
86,303274787,0.4526,0.2358,0.9810,12.26,-27.56,12.38
87,303279787,0.4546,0.2344,0.9731,11.52,-27.26,12.01
88,303284787,0.4517,0.2334,0.9678,11.04,-26.89,11.71
89,303289787,0.4478,0.2329,0.9639,10.24,-26.59,11.40
90,303294787,0.4487,0.2319,0.9644,9.57,-26.34,11.10
91,303299785,0.4536,0.2319,0.9546,8.84,-26.10,10.79
92,303304789,0.4556,0.2275,0.9546,8.35,-25.67,10.43
93,303309787,0.4595,0.2251,0.9512,7.62,-25.43,10.00
94,303314787,0.4609,0.2266,0.9487,7.07,-25.24,9.70
95,303319787,0.4609,0.2246,0.9448,6.65,-24.94,9.57
96,303324787,0.4580,0.2236,0.9458,6.16,-24.70,9.15
97,303329787,0.4614,0.2207,0.9473,5.85,-24.51,8.90
98,303334786,0.4629,0.2197,0.9419,5.55,-24.27,8.54
99,303339787,0.4614,0.2183,0.9424,5.18,-24.15,8.17
100,303344787,0.4619,0.2202,0.9360,5.12,-23.96,7.87
101,303349788,0.4648,0.2158,0.9399,5.24,-23.78,7.62
102,303354857,0.4536,0.2144,0.9365,5.37,-23.60,7.20
103,303359785,0.4546,0.2124,0.9355,5.55,-23.54,6.95
104,303364787,0.4614,0.2139,0.9336,5.98,-23.41,6.65
105,303369787,0.4590,0.2148,0.9395,6.46,-23.23,6.34
106,303374787,0.4595,0.2173,0.9355,6.71,-23.11,5.98
107,303379787,0.4634,0.2158,0.9287,7.13,-22.99,5.61
108,303384787,0.4600,0.2173,0.9233,7.38,-22.87,5.24
109,303389787,0.4634,0.2173,0.9297,7.62,-22.80,4.94
110,303394787,0.4629,0.2148,0.9209,7.80,-22.80,4.57
111,303399785,0.4653,0.2163,0.9219,7.93,-22.74,4.09
112,303404785,0.4619,0.2163,0.9194,8.11,-22.68,3.72
113,303409787,0.4590,0.2134,0.9160,8.23,-22.74,3.29
114,303414786,0.4604,0.2119,0.9175,8.48,-22.74,2.80
115,303419787,0.4585,0.2153,0.9121,8.48,-22.80,2.38
116,303424786,0.4585,0.2124,0.9102,8.72,-22.80,1.89
117,303429787,0.4609,0.2124,0.9087,8.90,-22.99,1.40
118,303434786,0.4639,0.2178,0.9023,9.09,-23.11,0.98
119,303439790,0.4619,0.2192,0.8936,9.09,-23.29,0.37
120,303444786,0.4575,0.2139,0.8950,9.21,-23.41,-0.18
121,303449788,0.4624,0.2158,0.8862,9.45,-23.66,-0.79
122,303454786,0.4604,0.2134,0.8833,9.63,-23.84,-1.40
123,303459787,0.4595,0.2139,0.8848,9.76,-24.02,-2.07
124,303464786,0.4595,0.2158,0.8853,10.00,-24.27,-2.62
125,303469785,0.4580,0.2163,0.8716,10.24,-24.39,-3.35
126,303474787,0.4580,0.2124,0.8667,10.49,-24.57,-3.96
127,303479787,0.4561,0.2100,0.8677,10.73,-24.94,-4.63
128,303484786,0.4541,0.2134,0.8691,11.16,-25.06,-5.30
129,303489785,0.4487,0.2114,0.8677,11.89,-25.24,-5.98
130,303494787,0.4390,0.2188,0.8745,12.32,-25.37,-6.65
131,303499786,0.4346,0.2217,0.8730,12.99,-25.49,-7.56
132,303504785,0.4346,0.2261,0.8701,13.84,-25.55,-8.29
133,303510170,0.4297,0.2261,0.8740,14.63,-25.73,-9.15
134,303514788,0.4287,0.2271,0.8682,15.30,-25.73,-9.82
135,303519787,0.4233,0.2314,0.8711,15.91,-25.85,-10.67
136,303524827,0.4233,0.2334,0.8691,16.77,-25.85,-11.52
137,303529787,0.4199,0.2339,0.8711,17.26,-25.67,-12.38
138,303534786,0.4209,0.2363,0.8638,17.74,-25.85,-13.35
139,303539787,0.4189,0.2383,0.8672,18.05,-25.91,-14.15
140,303544786,0.4268,0.2407,0.8750,18.17,-25.98,-15.06
141,303549931,0.4248,0.2422,0.8696,18.29,-26.16,-16.10
142,303554787,0.4307,0.2495,0.8740,18.35,-26.34,-17.01
143,303559786,0.4292,0.2495,0.8735,18.05,-26.46,-18.17
144,303564785,0.4336,0.2485,0.8823,17.99,-26.77,-19.27
145,303569789,0.4346,0.2495,0.8887,17.87,-26.89,-20.24
146,303574787,0.4346,0.2544,0.8984,17.56,-27.38,-21.34
147,303579788,0.4429,0.2573,0.8999,17.20,-27.56,-22.56
148,303584787,0.4507,0.2681,0.9180,16.95,-27.74,-23.72
149,303589940,0.4473,0.2759,0.9180,16.59,-27.99,-25.06
150,303594787,0.4526,0.2939,0.9243,16.34,-28.23,-26.28
151,303599786,0.4551,0.3032,0.9258,15.79,-28.60,-28.05
152,303604785,0.4600,0.3115,0.9277,15.24,-28.84,-29.15
153,303609787,0.4668,0.3208,0.9390,14.27,-29.33,-31.16
154,303614787,0.4697,0.3242,0.9443,12.87,-29.70,-32.74
155,303619787,0.4692,0.3291,0.9507,11.34,-30.12,-34.57
156,303624788,0.4731,0.3350,0.9531,9.57,-30.37,-36.34
157,303629787,0.4697,0.3433,0.9521,7.44,-30.73,-38.05
158,303634786,0.4692,0.3467,0.9590,5.18,-31.40,-40.00
159,303639787,0.4683,0.3472,0.9517,2.62,-32.01,-41.77
160,303644787,0.4707,0.3467,0.9507,-0.24,-32.50,-43.72
161,303649787,0.4751,0.3530,0.9551,-3.29,-33.17,-45.55
162,303654786,0.4751,0.3560,0.9536,-5.98,-33.78,-47.01
163,303659787,0.4800,0.3628,0.9497,-9.57,-34.39,-49.09
164,303664786,0.4819,0.3721,0.9414,-14.09,-35.30,-51.34
165,303669785,0.4854,0.3794,0.9385,-17.13,-36.10,-52.93
166,303674787,0.4897,0.3838,0.9380,-21.28,-37.01,-54.88
167,303679787,0.4834,0.3926,0.9331,-25.12,-37.93,-56.83
168,303684787,0.4893,0.3950,0.9351,-29.09,-38.78,-58.84
169,303689787,0.4834,0.3960,0.9390,-32.87,-39.70,-60.67
170,303694787,0.4790,0.3975,0.9385,-36.59,-40.49,-62.68
171,303699787,0.4795,0.4004,0.9302,-40.00,-41.16,-64.45
172,303704786,0.4790,0.3994,0.9321,-43.41,-42.07,-66.28
173,303709785,0.4795,0.3984,0.9263,-46.52,-42.68,-67.93
174,303714787,0.4746,0.3984,0.9263,-49.39,-43.48,-69.76
175,303719787,0.4780,0.4038,0.9185,-52.13,-44.09,-71.40
176,303724786,0.4829,0.4067,0.9175,-54.57,-44.63,-73.05
177,303729787,0.4839,0.4126,0.9150,-56.77,-45.12,-74.63
178,303734786,0.4834,0.4233,0.9131,-58.66,-45.67,-76.34
179,303739787,0.4790,0.4297,0.9150,-60.30,-46.10,-78.05
180,303744786,0.4819,0.4370,0.9170,-61.77,-46.65,-79.70
181,303749787,0.4824,0.4438,0.9111,-62.87,-47.13,-81.34
182,303754787,0.4858,0.4468,0.9160,-63.84,-47.50,-82.93
183,303759788,0.4844,0.4487,0.9082,-64.82,-47.87,-84.51
184,303764786,0.4912,0.4497,0.8994,-65.67,-48.29,-86.04
185,303769785,0.5034,0.4453,0.8921,-66.77,-48.78,-87.44
186,303775300,0.5142,0.4458,0.8848,-68.17,-49.45,-89.09
187,303779787,0.5264,0.4429,0.8794,-69.45,-49.70,-90.43
188,303784786,0.5396,0.4448,0.8745,-71.10,-50.18,-91.71
189,303789936,0.5532,0.4453,0.8589,-73.60,-50.79,-93.35
190,303794787,0.5679,0.4438,0.8506,-75.24,-51.16,-94.45
191,303799786,0.5820,0.4463,0.8467,-77.56,-51.52,-95.91
192,303804789,0.5884,0.4575,0.8301,-80.00,-52.07,-97.32
193,303809787,0.5977,0.4595,0.8281,-82.32,-52.20,-98.72
194,303814787,0.6006,0.4639,0.8252,-84.45,-52.62,-100.12
195,303819787,0.6860,0.4697,0.7920,-85.98,-53.29,-101.46
196,303824787,0.7217,0.4341,0.7734,-85.85,-55.73,-102.93
197,303829787,0.7158,0.4209,0.5977,-85.30,-59.88,-103.90
198,303834788,0.7031,0.4214,0.8174,-84.09,-62.68,-104.27
199,303840087,0.7095,0.4102,0.8345,-81.22,-66.52,-104.02
200,303844788,0.7261,0.3774,0.6128,-78.41,-70.24,-103.48
201,303849787,0.7183,0.3462,0.6323,-74.09,-76.89,-102.01
202,303854788,0.6919,0.3701,0.8491,-69.21,-81.89,-100.18
203,303859788,0.6865,0.4146,0.7905,-64.09,-86.04,-99.09
204,303864786,0.6680,0.4346,0.7241,-58.17,-91.52,-98.48
205,303869785,0.6523,0.4248,0.8721,-53.17,-95.55,-98.05
206,303874785,0.6411,0.4277,1.0225,-49.39,-96.40,-97.62
207,303879787,0.6284,0.4224,0.9619,-46.22,-96.77,-97.32
208,303884786,0.6128,0.4214,0.8481,-43.66,-97.50,-97.07
209,303889789,0.5981,0.4336,0.9004,-41.89,-97.87,-97.01
210,303894786,0.5996,0.4478,0.9668,-40.73,-97.26,-97.01
211,303899787,0.6069,0.4702,0.9160,-40.55,-96.83,-97.32
212,303904787,0.6128,0.4912,0.8916,-41.10,-96.04,-97.93
213,303909785,0.6138,0.5054,0.9453,-42.26,-94.88,-98.96
214,303914785,0.6157,0.4941,0.9756,-44.21,-93.11,-100.24
215,303919787,0.6201,0.4780,0.9487,-46.77,-90.91,-101.52
216,303924786,0.6123,0.4736,0.9399,-49.57,-88.78,-102.68
217,303929787,0.6021,0.4644,0.9717,-52.62,-86.34,-103.84
218,303934788,0.5830,0.4575,0.9565,-55.79,-83.72,-105.06
219,303939787,0.5752,0.4492,0.9282,-58.84,-81.16,-106.16
220,303944787,0.5635,0.4326,0.9434,-61.83,-78.66,-107.32
221,303949823,0.5527,0.4165,0.9609,-64.82,-75.91,-108.23
222,303954785,0.5459,0.4028,0.9604,-67.44,-73.17,-109.27
223,303959787,0.5171,0.2964,0.9727,-70.30,-70.30,-109.57
224,303964789,0.5220,0.3027,0.9824,-73.17,-66.83,-108.48
225,303969786,0.5239,0.4009,0.9468,-76.46,-63.72,-107.80
226,303974787,0.5430,0.4233,0.9268,-79.57,-61.28,-107.74
227,303979822,0.5581,0.3770,0.9414,-82.80,-58.78,-107.68
228,303984787,0.6147,0.3735,0.9595,-86.22,-56.10,-107.44
229,303989865,0.6328,0.3940,0.9761,-89.51,-53.35,-107.26
230,303994787,0.6211,0.4072,0.9526,-92.20,-50.73,-107.26
231,303999787,0.6284,0.4087,0.9502,-94.51,-48.17,-107.38
232,304004787,0.6357,0.4077,0.9644,-96.52,-45.73,-107.80
233,304009787,0.6201,0.3945,0.9648,-97.80,-43.23,-108.35
234,304014787,0.6543,0.3867,0.9531,-98.72,-40.79,-108.96
235,304019787,0.6729,0.3867,0.9595,-98.72,-38.60,-109.88
236,304024788,0.6831,0.3906,0.9805,-97.93,-36.46,-110.79
237,304029787,0.6846,0.4067,0.9810,-96.46,-34.21,-111.71
238,304034787,0.6641,0.4199,0.9600,-94.63,-32.01,-112.74
239,304039787,0.6597,0.4199,0.9756,-92.62,-30.06,-113.72
240,304044787,0.6611,0.4165,0.9971,-90.43,-27.74,-114.57
241,304050205,0.6460,0.4165,1.0000,-87.50,-25.06,-115.49
242,304054787,0.6284,0.4165,0.9878,-85.43,-23.29,-115.79
243,304059786,0.6064,0.4243,0.9956,-82.68,-21.04,-116.16
244,304064788,0.5967,0.4238,0.9805,-80.00,-18.96,-116.40
245,304069787,0.5908,0.4268,0.9443,-77.38,-17.13,-116.40
246,304074787,0.5864,0.4189,0.9097,-74.63,-15.79,-116.16
247,304079787,0.5957,0.3906,0.8838,-71.89,-15.18,-115.61
248,304084787,0.6113,0.3672,0.8350,-69.09,-15.55,-114.57
249,304089787,0.6284,0.3359,0.7812,-66.10,-17.20,-113.17
250,304094787,0.6196,0.2886,0.7612,-62.62,-19.45,-111.28
251,304099787,0.5986,0.2788,0.7627,-59.70,-22.26,-108.78
252,304104787,0.5771,0.3149,0.7617,-56.89,-25.49,-106.65
253,304109973,0.5303,0.3389,0.7715,-54.45,-28.11,-104.45
254,304114787,0.4688,0.3428,0.8076,-51.71,-30.37,-102.74
255,304119788,0.4263,0.3364,0.8203,-49.21,-31.89,-101.34
256,304124787,0.4116,0.3281,0.8271,-46.65,-33.29,-100.00
257,304129787,0.4224,0.3130,0.8105,-43.90,-34.27,-98.78
258,304134787,0.4365,0.2939,0.8022,-41.28,-35.37,-97.74
259,304139787,0.4424,0.2812,0.7905,-38.66,-36.22,-96.89
260,304144788,0.4424,0.2749,0.7930,-36.28,-36.89,-95.91
261,304149787,0.4482,0.2778,0.7969,-34.57,-37.38,-95.30
262,304154787,0.4458,0.2661,0.8032,-33.11,-37.56,-94.82
263,304159787,0.4487,0.2637,0.8223,-32.32,-37.32,-94.02
264,304164788,0.4478,0.2686,0.8281,-31.71,-36.89,-93.48
265,304169787,0.4194,0.2217,0.7847,-31.46,-36.65,-92.80
266,304174787,0.3853,0.2002,0.7812,-32.01,-36.59,-91.89
267,304179785,0.4360,0.2549,0.8203,-33.41,-36.34,-90.85
268,304184787,0.4937,0.2769,0.8159,-35.24,-35.98,-89.94
269,304189788,0.5366,0.3247,0.8262,-36.89,-35.61,-89.15
270,304194788,0.5449,0.3452,0.8350,-39.27,-35.18,-88.41
271,304200128,0.5229,0.3491,0.8262,-42.20,-34.70,-87.93
272,304204787,0.4199,0.3091,0.8320,-45.73,-34.45,-87.32
273,304209787,0.4150,0.3159,0.7778,-50.18,-34.76,-86.71
274,304214787,0.3857,0.3335,0.7905,-55.30,-35.12,-86.34
275,304219787,0.3750,0.3345,0.8564,-62.13,-35.61,-86.10
276,304224787,0.3794,0.3223,0.8813,-70.49,-35.61,-85.79
277,304229787,0.3696,0.3164,0.8813,-80.18,-35.91,-85.43
278,304234787,0.3848,0.3228,0.9185,-90.98,-36.28,-84.94
279,304239787,0.4111,0.3398,0.9609,-102.74,-36.28,-84.51
280,304244787,0.4380,0.3599,0.9863,-115.24,-36.34,-84.21
281,304249787,0.4619,0.3833,1.0112,-128.23,-36.16,-83.84
282,304254789,0.4678,0.3877,1.0435,-141.83,-36.10,-83.48
283,304259787,0.4653,0.3931,1.0688,-155.55,-35.98,-83.05
284,304264787,0.4575,0.4028,1.0850,-168.90,-36.04,-82.56
285,304269814,0.4209,0.4082,1.1084,-181.95,-36.16,-81.95
286,304274787,0.2715,0.4141,1.1484,-194.76,-36.40,-81.40
287,304279785,0.3389,0.4170,1.1748,-206.89,-36.89,-81.04
288,304284785,0.3921,0.4058,1.2173,-218.41,-37.20,-80.67
289,304289785,0.4565,0.4033,1.2197,-228.72,-38.11,-80.37
290,304294788,0.4937,0.4219,1.2505,-237.74,-39.21,-80.24
291,304299786,0.5386,0.4663,1.2661,-244.51,-39.88,-80.30
292,304304789,0.5771,0.5122,1.2744,-248.78,-40.91,-80.30
293,304309787,0.5786,0.5244,1.3247,-249.76,-42.01,-80.24
294,304314787,0.5723,0.5259,1.3594,-247.99,-43.11,-79.94
295,304319787,0.5542,0.5049,1.4106,-243.17,-44.45,-79.57
296,304324787,0.5474,0.4893,1.4355,-235.73,-45.73,-79.15
297,304329793,0.5674,0.4341,1.4492,-226.10,-47.32,-78.66
298,304334785,0.6001,0.3677,1.4546,-214.33,-49.21,-78.29
299,304339788,0.6299,0.3125,1.4883,-201.34,-51.04,-77.74
300,304344787,0.6475,0.2651,1.5005,-186.89,-52.74,-77.38
301,304349787,0.6416,0.2173,1.5205,-171.83,-54.39,-77.13
302,304354786,0.6187,0.1753,1.5361,-156.40,-56.22,-76.89
303,304359787,0.5889,0.1455,1.5400,-141.59,-57.62,-76.71
304,304364786,0.5708,0.1362,1.5474,-127.68,-59.27,-76.59
305,304369793,0.5547,0.1255,1.5454,-115.00,-60.85,-76.65
306,304374786,0.5322,0.1152,1.5425,-104.09,-62.20,-76.77
307,304379785,0.5132,0.1104,1.5312,-94.88,-63.90,-76.95
308,304384785,0.5200,0.1094,1.5122,-87.50,-65.24,-77.07
309,304389787,0.5391,0.1060,1.4941,-81.95,-66.95,-77.32
310,304394787,0.5591,0.1108,1.4854,-78.11,-68.66,-77.68
311,304399788,0.5767,0.1118,1.4775,-76.04,-70.30,-77.99
312,304404787,0.5991,0.1108,1.4658,-75.55,-71.89,-78.41
313,304409788,0.6064,0.1206,1.4629,-76.71,-73.54,-78.84
314,304414962,0.5898,0.1309,1.4468,-79.09,-75.00,-79.27
315,304419787,0.5767,0.1396,1.4404,-82.87,-76.40,-79.82
316,304424787,0.5693,0.1421,1.4155,-88.05,-77.68,-80.37
317,304429787,0.5508,0.1914,1.4033,-93.96,-78.84,-81.16
318,304434787,0.5161,0.2031,1.3779,-100.49,-79.51,-82.26
319,304439787,0.4927,0.2070,1.3750,-107.80,-80.06,-83.54
320,304444787,0.4565,0.2632,1.3657,-114.63,-80.00,-85.91
321,304449786,0.4741,0.2178,1.3169,-121.04,-80.24,-88.72
322,304454857,0.5068,0.1675,1.2695,-127.32,-80.61,-91.34
323,304459787,0.5381,0.1260,1.2393,-133.17,-81.34,-93.54
324,304464787,0.5449,0.1055,1.2441,-138.90,-82.07,-95.55
325,304469786,0.5430,0.0923,1.2417,-144.21,-82.56,-97.50
326,304474788,0.5229,0.0737,1.2427,-149.76,-82.68,-99.33
327,304479786,0.5176,0.0366,1.2422,-155.24,-82.26,-100.06
328,304484787,0.5269,0.0801,1.2197,-161.04,-81.77,-100.24
329,304489787,0.5156,0.1528,1.1855,-166.59,-81.16,-100.18
330,304494787,0.5054,0.1733,1.1895,-172.13,-80.37,-100.00
331,304499786,0.4932,0.1875,1.1919,-177.62,-79.21,-99.39
332,304504787,0.4780,0.1992,1.1636,-182.56,-77.99,-98.35
333,304509786,0.4629,0.2168,1.1460,-187.62,-76.83,-97.20
334,304514787,0.4858,0.2710,1.1377,-192.20,-75.73,-95.98
335,304519786,0.5132,0.3130,1.1353,-195.98,-74.70,-94.88
336,304524785,0.5459,0.3320,1.0728,-199.02,-74.15,-93.72
337,304529785,0.5728,0.3633,1.0410,-201.52,-74.27,-92.74
338,304534789,0.5562,0.3730,1.0132,-203.17,-75.30,-92.07
339,304539786,0.5083,0.3574,0.9951,-204.15,-77.07,-91.59
340,304544787,0.4463,0.3218,0.9951,-204.70,-79.39,-91.46
341,304549786,0.3975,0.2837,1.0117,-204.63,-81.77,-91.16
342,304554785,0.3706,0.2461,1.0327,-203.60,-84.09,-90.91
343,304559785,0.3667,0.2285,1.0615,-202.26,-86.34,-90.79
344,304564873,0.3804,0.2266,1.0830,-200.37,-88.23,-90.73
345,304569786,0.3779,0.2266,1.1128,-197.87,-89.45,-90.67
346,304574789,0.3296,0.2495,1.1587,-195.43,-90.06,-90.98
347,304579786,0.3198,0.2549,1.1211,-193.29,-90.49,-91.71
348,304584785,0.3008,0.2646,1.0723,-191.46,-91.28,-92.56
349,304589785,0.3203,0.2134,1.0977,-190.24,-92.20,-93.48
350,304594786,0.3608,0.2012,1.0796,-189.27,-92.56,-94.27
351,304599787,0.4048,0.2109,1.0552,-188.35,-93.48,-95.12
352,304604787,0.4482,0.2183,1.0649,-187.44,-94.09,-96.10
353,304609787,0.4878,0.2246,1.0728,-187.01,-94.76,-97.32
354,304614787,0.5347,0.2134,1.0688,-186.52,-95.00,-98.23
355,304619788,0.5708,0.2168,1.0537,-186.34,-95.00,-99.09
356,304624785,0.5938,0.2134,1.0356,-186.10,-94.76,-99.57
357,304629787,0.5977,0.2124,1.0146,-185.85,-94.88,-99.76
358,304634786,0.5820,0.2217,1.0083,-185.30,-95.06,-99.70
359,304639787,0.5498,0.2422,1.0117,-184.21,-95.37,-99.27
360,304644787,0.5117,0.2612,1.0176,-182.68,-95.37,-98.60
361,304649786,0.4907,0.2715,1.0166,-181.34,-95.37,-98.17
362,304654787,0.4961,0.2788,1.0249,-179.02,-95.67,-97.32
363,304659786,0.5137,0.2876,1.0234,-177.01,-95.67,-96.83
364,304664785,0.5347,0.2998,1.0137,-174.57,-95.49,-96.28
365,304669787,0.5640,0.2935,1.0039,-171.46,-95.24,-95.98
366,304674786,0.5845,0.2754,0.9893,-169.45,-95.43,-95.73
367,304679787,0.5845,0.2622,0.9634,-166.95,-95.61,-95.18
368,304684787,0.5640,0.2573,0.9419,-164.57,-95.91,-94.45
369,304689787,0.5518,0.2642,0.9526,-162.26,-96.10,-93.66
370,304694787,0.5562,0.2593,0.9639,-160.30,-95.67,-92.74
371,304699787,0.5742,0.2432,0.9541,-158.29,-95.55,-91.40
372,304704787,0.6040,0.2231,0.9429,-156.34,-95.00,-89.51
373,304709787,0.6353,0.2241,0.9419,-154.70,-94.39,-87.50
374,304714787,0.6538,0.2583,0.9375,-153.17,-93.96,-85.06
375,304720167,0.6265,0.2822,0.9155,-150.73,-93.05,-82.13
376,304724787,0.6050,0.3013,0.8945,-148.35,-92.68,-79.94
377,304729785,0.5898,0.3286,0.9141,-144.45,-91.65,-77.26
378,304735337,0.5913,0.3452,0.8716,-137.99,-90.73,-74.02
379,304739787,0.6206,0.3223,0.8589,-133.05,-90.06,-71.65
380,304744787,0.6689,0.3203,0.8545,-126.28,-89.15,-68.54
381,304749786,0.7275,0.2637,0.8281,-118.66,-88.29,-65.24
382,304754787,0.7837,0.2275,0.7998,-110.18,-87.56,-61.89
383,304759786,0.7798,0.2041,0.7622,-101.77,-87.26,-58.90
384,304764787,0.7637,0.1973,0.7671,-92.74,-86.89,-56.04
385,304769786,0.7720,0.2012,0.7544,-83.84,-86.59,-53.41
386,304774787,0.7983,0.2021,0.7178,-75.30,-86.65,-50.73
387,304779787,0.8320,0.2114,0.7036,-67.74,-86.89,-48.29
388,304784788,0.8823,0.2358,0.7231,-61.83,-86.95,-46.16
389,304789786,0.9229,0.2192,0.7153,-58.60,-86.95,-44.45
390,304795098,0.9199,0.1885,0.6992,-59.27,-87.01,-42.87
391,304799787,0.8975,0.1514,0.7119,-62.93,-86.95,-42.44
392,304804787,0.8745,0.1494,0.7031,-71.16,-86.83,-42.74
393,304809788,0.8672,0.1538,0.6919,-82.93,-86.83,-43.78
394,304814787,0.8906,0.1343,0.7378,-97.68,-86.89,-45.37
395,304819787,0.8647,0.0996,0.7407,-114.70,-86.95,-47.20
396,304824787,0.8408,0.1025,0.7285,-133.90,-87.32,-49.33
397,304829787,0.8408,0.1147,0.7559,-153.84,-87.50,-51.65
398,304834785,0.8149,0.1021,0.7363,-174.27,-87.80,-54.27
399,304839789,0.8057,0.0884,0.7266,-194.33,-87.87,-57.01
400,304844787,0.7954,0.0889,0.7476,-213.23,-88.29,-59.63
401,304849787,0.8052,0.0771,0.7314,-230.30,-88.35,-62.20
402,304854785,0.7959,0.0664,0.7236,-245.12,-88.48,-64.63
403,304859787,0.7720,0.0679,0.7100,-257.62,-88.35,-66.83
404,304864787,0.7607,0.0752,0.7002,-267.26,-88.23,-68.96
405,304869788,0.7471,0.0771,0.6865,-274.27,-88.17,-70.85
406,304874787,0.7383,0.0791,0.6724,-278.54,-87.87,-72.56
407,304879788,0.7363,0.0781,0.6582,-279.94,-87.74,-74.09
408,304884900,0.7314,0.0830,0.6401,-278.90,-87.38,-75.49
409,304889785,0.7310,0.0879,0.6289,-275.73,-86.83,-76.65
410,304894785,0.7280,0.0972,0.5991,-270.79,-86.34,-77.80
411,304899785,0.7227,0.1089,0.5879,-264.88,-85.67,-78.78
412,304904888,0.7241,0.1221,0.5679,-257.99,-84.88,-79.88
413,304909787,0.7261,0.1396,0.5391,-250.79,-83.90,-80.91
414,304914787,0.7227,0.1558,0.5117,-243.60,-83.17,-81.95
415,304919787,0.7173,0.1768,0.4854,-236.71,-82.26,-83.05
416,304924787,0.7144,0.1934,0.4663,-230.18,-81.16,-84.21
417,304929787,0.7207,0.2119,0.4531,-224.09,-80.12,-85.37
418,304934788,0.7212,0.2310,0.4272,-218.60,-78.78,-86.65
419,304939787,0.7197,0.2471,0.4053,-213.72,-77.50,-87.80
420,304944787,0.7178,0.2603,0.3745,-209.51,-76.10,-88.96
421,304949787,0.7090,0.2739,0.3569,-205.91,-74.94,-90.24
422,304954787,0.7065,0.2812,0.3325,-203.35,-73.66,-91.46
423,304959788,0.6963,0.3022,0.3198,-201.16,-72.20,-92.68
424,304964785,0.6904,0.3164,0.3062,-199.76,-70.79,-94.09
425,304969789,0.6841,0.3320,0.2891,-198.72,-69.33,-95.49
426,304974787,0.6748,0.3452,0.2676,-197.99,-67.68,-97.07
427,304979787,0.6685,0.3545,0.2500,-196.89,-66.22,-98.72
428,304984788,0.6685,0.3682,0.2319,-195.73,-64.45,-100.49
429,304989787,0.6685,0.3691,0.2090,-193.90,-62.62,-102.13
430,304994787,0.6641,0.3750,0.1943,-191.46,-60.73,-103.66
431,304999787,0.6597,0.3779,0.1753,-188.23,-58.72,-105.12
432,305004871,0.6577,0.3765,0.1489,-184.27,-56.46,-106.34
433,305009787,0.6401,0.3794,0.1323,-179.88,-54.27,-107.32
434,305014787,0.6250,0.3794,0.1255,-174.94,-52.01,-108.35
435,305019787,0.6187,0.3877,0.1157,-169.88,-49.33,-109.33
436,305024843,0.6060,0.3857,0.1060,-164.63,-46.89,-110.30
437,305029787,0.5972,0.3901,0.1021,-159.70,-44.27,-111.34
438,305034786,0.5884,0.3960,0.0898,-155.00,-41.65,-112.38
439,305039785,0.5747,0.4058,0.0850,-150.85,-38.96,-113.41
440,305044788,0.5596,0.4160,0.0835,-147.50,-36.40,-114.70
441,305049787,0.5562,0.4224,0.0796,-144.70,-33.84,-116.04
442,305054787,0.5415,0.4248,0.0747,-142.68,-31.28,-117.26
443,305059787,0.5352,0.4189,0.0679,-141.16,-28.90,-118.48
444,305064788,0.5298,0.4233,0.0664,-140.06,-26.59,-119.76
445,305069787,0.5278,0.4277,0.0674,-139.27,-24.15,-120.79
446,305074787,0.5195,0.4287,0.0723,-138.90,-21.89,-121.71
447,305079786,0.5190,0.4351,0.0776,-138.78,-19.57,-122.80
448,305085215,0.5244,0.4434,0.0806,-139.02,-17.26,-123.90
449,305089788,0.5229,0.4512,0.0752,-139.63,-14.76,-125.06
450,305094786,0.5122,0.4595,0.0820,-140.61,-12.50,-126.28
451,305099787,0.5088,0.4717,0.0859,-142.07,-10.24,-127.44
452,305104787,0.4951,0.4814,0.0942,-143.84,-8.05,-128.72
453,305109787,0.4771,0.4917,0.1011,-145.73,-5.73,-130.06
454,305114787,0.4575,0.4980,0.1050,-147.74,-3.29,-131.40
455,305119786,0.4414,0.5034,0.1016,-149.45,-1.16,-132.68
456,305124789,0.4326,0.5078,0.1060,-150.85,1.04,-133.78
457,305129787,0.4185,0.5127,0.1016,-151.59,3.23,-134.88
458,305134787,0.4038,0.5195,0.1108,-151.83,5.37,-136.04
459,305139785,0.4072,0.5317,0.1279,-151.65,7.99,-137.20
460,305145150,0.4170,0.5381,0.1343,-150.49,10.37,-138.17
461,305149787,0.4160,0.5493,0.1440,-148.96,12.99,-139.15
462,305154787,0.3730,0.5981,0.1826,-147.07,15.91,-140.43
463,305159787,0.4146,0.5415,0.1387,-145.30,18.48,-141.65
464,305164786,0.4473,0.5527,0.1606,-143.23,21.16,-142.74
465,305169787,0.4243,0.5610,0.1685,-140.49,23.48,-143.54
466,305174787,0.3989,0.5801,0.1636,-137.50,25.91,-144.21
467,305179787,0.3740,0.5801,0.1709,-133.84,28.17,-144.76
468,305184786,0.3765,0.5688,0.1821,-129.82,30.49,-145.06
469,305189786,0.3716,0.5674,0.1748,-125.73,32.50,-145.12
470,305194790,0.3667,0.5806,0.1870,-121.59,34.39,-145.37
471,305199787,0.3491,0.6016,0.1997,-117.26,36.34,-145.79
472,305204785,0.3467,0.6216,0.2051,-113.11,38.23,-146.28
473,305209786,0.3545,0.6377,0.2026,-109.02,40.00,-146.89
474,305214789,0.3354,0.6455,0.2256,-105.24,41.89,-147.62
475,305219786,0.3193,0.6587,0.2256,-101.71,43.72,-148.29
476,305224787,0.3140,0.6748,0.2329,-98.54,45.55,-149.02
477,305229786,0.3110,0.6772,0.2480,-95.43,47.44,-149.51
478,305234787,0.3013,0.6875,0.2544,-92.44,49.09,-150.06
479,305239785,0.2891,0.6958,0.2603,-89.82,50.85,-150.43
480,305244785,0.2715,0.7100,0.2710,-87.20,52.38,-150.67
481,305249787,0.2500,0.7319,0.2793,-84.51,53.90,-151.10
482,305254787,0.2373,0.7437,0.2847,-81.83,55.24,-151.52
483,305259786,0.2256,0.7656,0.2959,-79.02,56.40,-152.07
484,305264787,0.2227,0.7842,0.3086,-76.28,57.87,-152.87
485,305269786,0.2183,0.8047,0.3286,-73.60,59.33,-153.60
486,305274787,0.2080,0.8169,0.3379,-70.98,60.61,-154.51
487,305279786,0.1997,0.8345,0.3359,-68.96,61.77,-155.18
488,305284785,0.1587,0.8433,0.3535,-67.38,62.99,-155.73
489,305289789,0.1338,0.8579,0.3784,-66.28,64.27,-156.34
490,305294793,0.1274,0.8647,0.3877,-65.67,65.30,-156.71
491,305299787,0.1172,0.8745,0.3921,-65.30,66.65,-157.01
492,305304786,0.0996,0.8877,0.3999,-65.18,67.50,-157.01
493,305309785,0.0659,0.8838,0.3989,-65.12,68.41,-156.77
494,305314787,0.0376,0.8857,0.4062,-64.70,69.15,-156.22
495,305319786,0.0059,0.8848,0.4214,-64.09,69.70,-155.43
496,305324787,-0.0146,0.8877,0.4307,-63.05,70.24,-154.57
497,305329786,-0.0312,0.8877,0.4438,-61.52,70.85,-153.48
498,305334787,-0.0469,0.9014,0.4604,-59.51,71.28,-152.56
499,305339785,-0.0601,0.9209,0.4819,-57.68,72.13,-151.71
500,305344785,-0.0811,0.9365,0.4976,-55.91,72.87,-151.16
501,305349986,-0.1055,0.9473,0.5049,-54.57,73.66,-150.98
502,305354787,-0.1309,0.9678,0.5229,-53.35,74.57,-150.85
503,305359786,-0.1562,1.0010,0.5342,-52.38,75.43,-151.10
504,305364787,-0.1919,1.0273,0.5542,-51.65,76.16,-151.34
505,305369787,-0.2222,1.0522,0.5718,-50.79,77.01,-151.83
506,305374787,-0.2554,1.0649,0.5698,-49.70,77.87,-152.01
507,305379786,-0.2842,1.0762,0.5723,-48.23,78.60,-151.89
508,305384787,-0.3062,1.0879,0.5757,-46.59,79.09,-151.52
509,305389787,-0.3345,1.0957,0.5757,-44.76,79.51,-150.79
510,305394787,-0.3599,1.1016,0.5737,-43.17,80.24,-149.76
511,305399786,-0.3765,1.1055,0.5693,-41.71,80.91,-148.54
512,305404793,-0.3911,1.1045,0.5610,-40.79,81.95,-146.89
513,305409788,-0.4009,1.1099,0.5630,-40.37,83.05,-145.43
514,305414786,-0.4043,1.1118,0.5640,-40.49,85.24,-143.78
515,305419787,-0.4092,1.1265,0.5688,-41.22,85.98,-142.32
516,305424827,-0.4219,1.1377,0.5737,-42.38,86.46,-140.67
517,305429787,-0.4365,1.1528,0.5703,-43.72,89.70,-139.21
518,305434786,-0.4482,1.1641,0.5757,-45.12,92.32,-137.80
519,305439787,-0.4575,1.1841,0.5879,-46.10,95.06,-136.22
520,305444786,-0.4746,1.1890,0.5933,-46.52,98.23,-134.51
521,305449785,-0.4946,1.1958,0.5967,-45.85,101.40,-132.50
522,305454789,-0.5142,1.2012,0.6025,-44.33,104.70,-130.30
523,305459789,-0.5356,1.2124,0.6216,-41.89,108.41,-127.93
524,305464786,-0.5654,1.2231,0.6289,-38.90,112.13,-125.49
525,305469785,-0.6030,1.2334,0.6265,-35.61,115.91,-122.87
526,305474787,-0.6421,1.2432,0.6240,-32.26,119.63,-120.00
527,305479787,-0.6826,1.2476,0.6299,-29.39,123.41,-117.26
528,305484787,-0.7163,1.2485,0.6367,-26.89,127.38,-114.21
529,305489788,-0.7485,1.2593,0.6445,-24.94,131.28,-111.10
530,305494785,-0.7847,1.2739,0.6523,-23.72,135.55,-107.87
531,305499789,-0.8403,1.2773,0.6558,-23.11,139.94,-104.51
532,305504843,-0.9009,1.2852,0.6528,-23.17,144.51,-100.98
533,305509789,-0.9429,1.2900,0.6655,-24.09,148.84,-97.32
534,305514786,-0.9956,1.2974,0.6890,-25.61,153.96,-93.41
535,305519787,-1.0342,1.3037,0.6592,-27.38,159.02,-89.39
536,305524787,-1.0879,1.3120,0.6670,-29.51,164.39,-85.24
537,305529786,-1.1436,1.3301,0.6885,-31.16,169.70,-80.79
538,305534787,-1.1772,1.3442,0.6733,-32.44,175.12,-76.46
539,305539786,-1.1968,1.3618,0.6860,-33.23,180.98,-71.83
540,305544785,-1.2271,1.3677,0.6929,-33.72,187.01,-66.89
541,305549785,-1.2651,1.3701,0.6797,-33.90,193.35,-61.83
542,305554787,-1.2939,1.3706,0.6763,-33.90,199.57,-56.16
543,305559786,-1.3135,1.3657,0.6816,-33.23,205.85,-49.94
544,305564787,-1.3315,1.3569,0.6768,-32.20,212.13,-43.17
545,305569786,-1.3564,1.3516,0.6738,-30.43,218.48,-35.85
546,305574789,-1.3926,1.3564,0.6943,-28.60,225.00,-28.29
547,305579786,-1.4292,1.3643,0.7031,-26.65,231.71,-20.37
548,305584787,-1.4824,1.3687,0.7207,-25.24,238.35,-12.50
549,305589787,-1.5449,1.3696,0.7349,-24.51,245.30,-4.21
550,305594786,-1.6187,1.3672,0.7578,-24.39,252.32,4.45
551,305599787,-1.6997,1.3755,0.7622,-25.18,259.27,13.23
552,305604786,-1.7808,1.3838,0.7666,-26.83,266.10,22.26
553,305609785,-1.8477,1.3887,0.7744,-29.21,273.05,31.52
554,305614785,-1.9214,1.3984,0.8071,-32.26,279.88,41.10
555,305619785,-1.9727,1.4033,0.8135,-35.00,285.43,48.84
556,305624785,-2.0518,1.4082,0.8301,-39.27,294.09,60.79
557,305629786,-2.1172,1.4224,0.8535,-42.62,301.28,71.04
558,305634787,-2.1738,1.4199,0.8901,-45.67,308.78,81.77
559,305639786,-2.2163,1.4121,0.9204,-47.56,315.06,90.18
560,305644787,-2.2700,1.4028,0.9502,-49.39,323.17,101.59
561,305649787,-2.3286,1.3936,0.9790,-50.61,331.46,112.93
562,305654785,-2.4097,1.3931,1.0093,-51.65,339.70,124.57
563,305659789,-2.4995,1.3911,1.0474,-52.20,347.99,136.22
564,305664786,-2.5933,1.3833,1.0850,-52.44,356.16,147.87
565,305669788,-2.7007,1.3794,1.1240,-52.26,364.27,159.15
566,305674787,-2.8169,1.3721,1.1592,-51.89,372.01,170.43
567,305679788,-2.9302,1.3647,1.1968,-51.16,379.39,181.89
568,305684785,-3.0542,1.3491,1.2451,-50.00,388.11,195.24
569,305689787,-3.1270,1.3418,1.2900,-49.09,393.72,204.09
570,305694787,-3.2183,1.3325,1.3369,-48.23,400.79,215.06
571,305699788,-3.3071,1.3130,1.3862,-47.20,409.39,227.87
572,305704786,-3.3721,1.2949,1.4146,-46.40,415.18,236.34
573,305709830,-3.4551,1.2793,1.4761,-45.06,422.56,246.83
574,305714785,-3.5435,1.2500,1.5244,-43.35,429.63,257.13
575,305719787,-3.6362,1.2290,1.5737,-41.22,436.77,267.62
576,305724787,-3.7358,1.2139,1.6211,-38.84,443.54,277.68
577,305729787,-3.8374,1.2012,1.6548,-36.22,450.24,287.44
578,305734786,-3.9580,1.1982,1.7007,-33.72,456.16,296.59
579,305739787,-4.0791,1.1875,1.7407,-30.98,461.59,305.00
580,305744787,-4.2026,1.1807,1.7871,-27.50,466.65,313.05
581,305749787,-4.2964,1.1641,1.8247,-23.60,471.46,320.55
582,305754785,-4.3877,1.1528,1.8760,-18.72,475.98,327.74
583,305759787,-4.4507,1.1465,1.9116,-13.78,480.49,334.51
584,305764787,-4.5342,1.1177,1.9365,-8.48,485.24,340.98
585,305769786,-4.5913,1.1113,1.9780,-2.62,490.24,347.32
586,305774787,-4.6216,1.0879,2.0034,3.66,495.55,353.90
587,305779787,-4.6465,1.0737,2.0132,10.85,501.34,359.94
588,305784787,-4.6621,1.0708,2.0474,17.93,507.38,366.22
589,305789786,-4.6616,1.0552,2.0435,24.94,513.66,372.26
590,305794787,-4.6646,1.0542,2.0967,31.89,520.43,377.68
591,305799786,-4.7056,1.0513,2.1118,37.87,527.56,382.93
592,305804788,-4.7729,1.0425,2.1382,43.11,534.27,387.44
593,305809859,-4.8472,1.0620,2.1909,46.95,540.67,391.40
594,305814787,-4.9331,1.0605,2.2119,49.39,546.10,395.12
595,305819786,-5.0356,1.0508,2.2578,51.59,550.73,398.54
596,305824789,-5.1250,1.0669,2.3086,52.50,554.39,401.77
597,305829786,-5.1772,1.0542,2.3398,53.54,557.44,405.06
598,305834787,-5.2017,1.0645,2.3784,54.39,559.94,408.17
599,305839786,-5.2183,1.0605,2.4214,54.15,562.20,411.40
600,305844896,-5.2036,1.0684,2.4424,54.02,564.21,414.82
601,305849787,-5.1973,1.0767,2.5122,53.84,566.46,418.41
602,305854786,-5.2349,1.0508,2.5283,53.84,568.72,422.32
603,305859785,-5.2754,1.0566,2.5825,54.45,569.88,426.71
604,305864789,-5.3115,1.0640,2.6299,56.10,570.00,430.85
605,305869786,-5.3481,1.0703,2.6631,58.29,568.60,435.12
606,305874838,-5.4189,1.0640,2.7070,60.61,565.67,439.27
607,305879785,-5.4819,1.0693,2.7476,62.80,561.10,443.48
608,305884787,-5.5098,1.0762,2.7812,63.29,554.76,447.56
609,305889787,-5.5029,1.0752,2.7886,63.05,546.59,451.71
610,305894787,-5.4868,1.0903,2.8188,61.22,537.13,455.98
611,305899786,-5.4590,1.1050,2.8105,57.44,526.34,460.61
612,305904873,-5.4170,1.0947,2.8271,52.32,514.33,465.73
613,305909786,-5.3467,1.1016,2.8369,45.73,501.28,471.28
614,305915060,-5.2695,1.0928,2.8140,36.34,483.96,479.21
615,305919788,-5.2012,1.0835,2.8232,29.09,471.65,484.82
616,305924786,-5.1030,1.0820,2.8071,18.72,455.55,492.80
617,305929787,-5.0088,1.0688,2.8076,6.77,438.66,501.22
618,305934787,-4.9014,1.0498,2.8013,-7.32,421.16,510.12
619,305939787,-4.7983,1.0283,2.7935,-23.11,403.23,519.63
620,305944786,-4.6851,0.9995,2.7690,-40.24,384.82,529.45
621,305949787,-4.5571,0.9653,2.7505,-58.05,366.28,540.00
622,305954786,-4.4282,0.9131,2.7280,-76.16,347.38,550.85
623,305959787,-4.3057,0.8667,2.7021,-93.60,328.11,562.01
624,305964790,-4.1880,0.7964,2.6680,-110.06,308.78,573.35
625,305969787,-4.0928,0.7285,2.6431,-125.85,289.45,584.94
626,305974787,-4.0020,0.6489,2.6069,-140.79,269.88,596.65
627,305979786,-3.9302,0.5659,2.5654,-154.63,249.94,608.35
628,305985326,-3.8638,0.4629,2.5273,-170.61,225.79,621.95
629,305989787,-3.8247,0.3989,2.5044,-181.04,209.63,630.55
630,305994787,-3.7842,0.3076,2.4722,-194.02,188.96,641.04
631,305999787,-3.7490,0.2114,2.4390,-207.01,168.05,650.85
632,306004785,-3.7178,0.1138,2.4072,-220.18,146.77,659.82
633,306009788,-3.6982,0.0371,2.3594,-233.23,125.18,668.35
634,306014786,-3.6948,-0.0444,2.3145,-245.24,102.93,676.10
635,306019789,-3.7080,-0.1147,2.2607,-257.50,80.24,683.17
636,306024787,-3.7100,-0.1880,2.1953,-270.79,56.89,689.76
637,306029786,-3.7070,-0.2539,2.1294,-286.10,32.93,695.55
638,306034787,-3.4590,-0.5640,2.8853,-302.80,9.88,701.28
639,306039786,-2.5508,-0.6641,2.3413,-320.43,-16.95,706.59
640,306044787,-3.0229,-0.9917,3.6562,-341.65,-46.46,710.43
641,306049786,-3.4663,-0.9268,3.0098,-366.77,-75.00,712.62
642,306054787,-3.3726,-0.9614,2.5024,-396.52,-107.80,711.59
643,306059786,-3.3813,-0.9360,2.2583,-427.38,-139.88,707.80
644,306064787,-3.6714,-0.7935,1.8413,-454.33,-172.32,701.34
645,306069896,-3.8018,-0.6748,1.5957,-475.73,-204.82,691.59
646,306074787,-3.7300,-0.5942,1.4448,-492.38,-236.65,679.27
647,306079786,-3.6592,-0.5918,1.3008,-505.30,-267.44,663.90
648,306084789,-3.5933,-0.6240,1.1978,-514.82,-297.13,646.10
649,306089786,-3.5215,-0.6665,1.1006,-521.10,-325.30,625.98
650,306094874,-3.5679,-0.7090,0.9673,-523.84,-351.46,604.02
651,306099786,-3.5933,-0.7275,0.7363,-522.74,-376.22,580.49
652,306104947,-3.5664,-0.7700,0.5811,-517.13,-399.02,555.67
653,306109787,-3.4990,-0.7720,0.4717,-507.01,-419.15,530.18
654,306114786,-3.4497,-0.6846,0.3354,-492.38,-436.89,503.29
655,306119787,-3.3315,-0.7021,0.1958,-472.50,-452.13,475.61
656,306124790,-3.1958,-0.7930,0.1724,-445.79,-464.70,448.05
657,306129787,-2.9956,-0.9556,0.1514,-412.32,-474.09,421.40
658,306134787,-2.8672,-1.1089,0.1206,-372.50,-480.24,395.73
659,306139788,-2.6992,-1.2852,0.0166,-327.99,-483.66,371.22
660,306144786,-2.6006,-1.3618,-0.0054,-281.34,-483.78,347.80
661,306149787,-2.5244,-1.4209,-0.1216,-234.70,-480.67,325.18
662,306154787,-2.4624,-1.4512,-0.2251,-190.67,-476.52,303.23
663,306159787,-2.4185,-1.4805,-0.3115,-151.83,-470.30,282.44
664,306164787,-2.3726,-1.4971,-0.4219,-120.12,-462.80,262.74
665,306169787,-2.3179,-1.4839,-0.5049,-96.65,-454.33,244.09
666,306174787,-2.2627,-1.4243,-0.5630,-82.20,-445.24,225.85
667,306179788,-2.2358,-1.3765,-0.6323,-75.61,-435.79,208.11
668,306184786,-2.1992,-1.2983,-0.6948,-75.91,-426.52,190.61
669,306189788,-2.1968,-1.2207,-0.7842,-81.52,-416.83,173.05
670,306194787,-2.2368,-1.1865,-0.8877,-90.73,-407.68,155.85
671,306199787,-2.3062,-1.1802,-1.0020,-101.28,-398.11,139.15
672,306204790,-2.4180,-1.2095,-1.1562,-111.28,-388.60,123.29
673,306209788,-2.5723,-1.2681,-1.3301,-120.43,-378.96,108.41
674,306214787,-2.7563,-1.3975,-1.5200,-127.80,-369.02,94.70
675,306219787,-2.8467,-1.5127,-1.6704,-133.60,-357.50,82.26
676,306224785,-2.9932,-1.6294,-1.8198,-138.60,-345.98,70.00
677,306229785,-3.1001,-1.7324,-1.9385,-143.78,-333.72,58.54
678,306234789,-2.9429,-1.8247,-2.0454,-149.88,-320.85,47.62
679,306239786,-2.8818,-1.9136,-2.0801,-154.21,-307.38,37.38
680,306244787,-2.7295,-1.9429,-2.1445,-157.01,-293.05,27.93
681,306249786,-2.5640,-1.9399,-2.1538,-158.72,-277.38,18.48
682,306254787,-2.4443,-1.8374,-2.1426,-159.27,-260.67,8.84
683,306259787,-2.1504,-1.8418,-2.1035,-158.11,-243.48,-0.49
684,306264785,-1.9546,-1.7632,-2.0864,-154.88,-226.16,-9.82
685,306269787,-1.7217,-1.6152,-2.0396,-149.51,-208.29,-19.21
686,306274787,-1.4907,-1.5195,-1.9370,-140.61,-190.24,-28.84
687,306279788,-1.2661,-1.4185,-1.8506,-128.84,-171.77,-38.11
688,306284785,-1.0586,-1.3120,-1.7832,-114.21,-153.48,-47.20
689,306289787,-0.8711,-1.2021,-1.6875,-98.17,-135.49,-56.40
690,306294787,-0.7031,-1.1201,-1.5957,-81.83,-117.80,-65.55
691,306299787,-0.5757,-1.0635,-1.5264,-66.04,-100.73,-74.76
692,306304787,-0.4712,-1.0127,-1.4468,-51.40,-83.96,-83.60
693,306309786,-0.3823,-0.9663,-1.3599,-38.60,-68.05,-92.32
694,306314787,-0.3218,-0.9438,-1.2983,-27.38,-52.93,-100.85
695,306319787,-0.2817,-0.9155,-1.2158,-17.80,-38.54,-109.02
696,306324785,-0.2515,-0.8931,-1.1421,-9.70,-25.18,-116.77
697,306329785,-0.2461,-0.8799,-1.0654,-2.68,-12.74,-124.09
698,306334785,-0.2559,-0.8652,-0.9961,3.66,-0.91,-130.85
699,306339787,-0.2744,-0.8530,-0.9175,9.76,10.06,-137.01
700,306344787,-0.3008,-0.8413,-0.8511,15.98,20.24,-142.68
701,306349788,-0.3271,-0.8345,-0.7920,22.26,29.57,-147.74
702,306354786,-0.3550,-0.8330,-0.7354,28.84,37.87,-152.07
703,306359787,-0.3779,-0.8281,-0.6807,35.67,45.55,-156.10
704,306364786,-0.3950,-0.8291,-0.6431,42.74,52.13,-159.57
705,306369785,-0.4121,-0.8311,-0.5908,49.70,58.11,-162.44
706,306374813,-0.4326,-0.8306,-0.5562,56.46,63.23,-164.94
707,306379787,-0.4438,-0.8291,-0.5195,62.99,67.68,-167.01
708,306384787,-0.4619,-0.8096,-0.4897,69.02,71.40,-168.90
709,306389785,-0.4663,-0.8076,-0.4795,75.00,74.57,-170.55
710,306394787,-0.4761,-0.8071,-0.4600,80.67,76.95,-171.59
711,306400082,-0.4829,-0.8018,-0.4385,85.67,78.60,-172.38
712,306404788,-0.4766,-0.8008,-0.4175,90.18,79.70,-173.11
713,306409786,-0.4683,-0.8022,-0.4009,94.27,80.30,-173.48
714,306414787,-0.4521,-0.8022,-0.3896,97.32,80.49,-173.72
715,306419787,-0.4395,-0.8071,-0.3760,99.94,80.30,-173.60
716,306424786,-0.4155,-0.8164,-0.3569,101.59,79.70,-173.48
717,306429785,-0.3999,-0.8198,-0.3403,102.80,78.72,-172.93
718,306434785,-0.3789,-0.8281,-0.3354,103.35,77.87,-172.44
719,306439787,-0.3638,-0.8325,-0.3267,103.35,76.71,-171.71
720,306444787,-0.3711,-0.8389,-0.3120,102.93,75.67,-170.91
721,306449787,-0.3364,-0.8291,-0.3003,101.89,74.39,-169.88
722,306454786,-0.2925,-0.8213,-0.2856,100.55,73.17,-168.78
723,306459787,-0.2646,-0.8276,-0.2705,99.39,71.95,-167.74
724,306464786,-0.2446,-0.8330,-0.2485,98.05,70.61,-166.40
725,306469785,-0.2236,-0.8276,-0.2290,96.46,69.51,-165.00
726,306474785,-0.2031,-0.8203,-0.2119,95.12,68.41,-163.72
727,306479828,-0.1709,-0.8115,-0.1958,93.90,67.38,-162.32
728,306484786,-0.1440,-0.8042,-0.1841,92.87,66.22,-160.98
729,306489785,-0.1152,-0.7910,-0.1631,92.26,65.12,-159.51
730,306494787,-0.0977,-0.7886,-0.1562,91.77,64.15,-158.05
731,306499907,-0.0820,-0.7759,-0.1538,91.65,63.11,-156.71
732,306504787,-0.0737,-0.7666,-0.1455,91.46,62.32,-155.18
733,306509786,-0.0566,-0.7495,-0.1392,91.71,61.71,-153.78
734,306514787,-0.0493,-0.7427,-0.1289,92.07,61.16,-152.26
735,306519959,-0.0396,-0.7271,-0.1240,92.50,60.79,-150.85
736,306524788,-0.0361,-0.7173,-0.1206,92.99,60.55,-149.51
737,306529785,-0.0308,-0.7056,-0.1099,93.29,60.55,-148.17
738,306534796,-0.0308,-0.6904,-0.1001,93.60,60.73,-147.07
739,306539786,-0.0244,-0.6802,-0.0879,93.54,61.16,-146.16
740,306544786,-0.0142,-0.6729,-0.0806,93.17,61.95,-145.30
741,306549963,0.0000,-0.6694,-0.0625,92.38,62.80,-144.70
742,306554787,0.0127,-0.6685,-0.0581,91.65,63.54,-144.27
743,306559787,0.0493,-0.6724,-0.0303,90.12,64.63,-143.78
744,306564788,0.0947,-0.6763,-0.0181,88.17,65.85,-143.41
745,306569937,0.1406,-0.6943,0.0020,85.12,67.74,-143.17
746,306574788,0.1616,-0.6968,0.0239,82.93,69.02,-143.05
747,306579787,0.1836,-0.7012,0.0278,79.76,70.67,-142.99
748,306584787,0.1953,-0.6987,0.0430,76.46,72.68,-142.99
749,306589786,0.2026,-0.6938,0.0518,72.87,74.76,-143.11
750,306594787,0.2104,-0.6909,0.0537,69.70,76.95,-143.23
751,306599787,0.2153,-0.6860,0.0566,66.77,79.02,-143.35
752,306604788,0.2222,-0.6787,0.0688,64.45,81.34,-143.60
753,306609929,0.2368,-0.6714,0.0776,62.20,83.72,-143.96
754,306614788,0.2476,-0.6621,0.0972,61.46,85.79,-143.96
755,306619787,0.2725,-0.6499,0.1064,60.79,86.95,-144.21
756,306624877,0.3003,-0.6372,0.1255,60.61,90.67,-144.70
757,306629786,0.3311,-0.6284,0.1216,60.55,92.56,-145.06
758,306634787,0.3779,-0.6177,0.1050,59.94,94.27,-145.49
759,306639786,0.4077,-0.6240,0.1445,58.35,95.98,-146.34
760,306644786,0.4263,-0.6152,0.1289,56.34,97.50,-146.71
761,306649788,0.4287,-0.6216,0.1274,53.48,98.84,-147.38
762,306654789,0.4370,-0.6362,0.1465,49.94,100.06,-147.62
763,306659786,0.4966,-0.6118,0.1089,46.04,100.79,-147.87
764,306664791,0.4927,-0.6621,0.1699,41.59,101.40,-147.99
765,306669786,0.4609,-0.6816,0.1719,36.52,102.32,-147.44
766,306674785,0.4336,-0.6494,0.1841,31.16,103.54,-146.34
767,306679785,0.4268,-0.5986,0.2222,25.85,105.06,-145.18
768,306684789,0.4316,-0.5757,0.2437,20.55,106.83,-144.09
769,306689786,0.5552,-0.5610,0.2275,15.49,108.29,-143.05
770,306694785,0.6597,-0.4985,0.2563,10.73,109.33,-142.56
771,306699786,0.7207,-0.5503,0.1763,7.50,109.39,-142.44
772,306704788,0.7202,-0.5537,0.2559,5.43,108.72,-142.32
773,306709787,0.8506,-0.5664,0.0264,7.38,106.83,-143.54
774,306714788,0.8755,-0.5361,0.2769,11.28,104.51,-144.39
775,306719785,0.8735,-0.4512,0.3032,15.24,102.07,-144.76
776,306724785,0.8545,-0.4175,0.1143,19.51,98.17,-145.06
777,306729787,0.8452,-0.4482,0.1304,23.78,93.96,-144.94
778,306734786,0.8389,-0.5200,0.3325,28.23,90.67,-144.76
779,306739785,0.8408,-0.5894,0.3271,32.56,87.93,-144.33
780,306744787,0.8481,-0.6143,0.1738,36.71,85.55,-143.90
781,306749787,0.8457,-0.5718,0.2231,40.61,80.43,-143.41
782,306754786,0.8364,-0.4932,0.3760,44.39,77.50,-142.99
783,306759787,0.8267,-0.4160,0.3340,47.80,74.63,-142.44
784,306764785,0.8193,-0.3809,0.2148,51.22,70.91,-141.83
785,306769789,0.8071,-0.3936,0.2852,54.39,67.44,-141.16
786,306774786,0.7905,-0.4390,0.4209,57.20,65.18,-140.18
787,306779824,0.7871,-0.4795,0.3525,60.18,62.68,-138.96
788,306784786,0.7803,-0.4907,0.2593,62.68,59.57,-137.62
789,306789787,0.7651,-0.4526,0.3403,65.12,56.89,-136.28
790,306794787,0.7554,-0.3887,0.4253,67.32,54.88,-134.82
791,306799787,0.7510,-0.3340,0.3501,69.27,52.62,-133.48
792,306804787,0.7456,-0.2988,0.2896,70.91,49.94,-131.95
793,306810283,0.7412,-0.2988,0.3110,72.80,47.26,-129.82
794,306814788,0.7319,-0.3320,0.4375,73.72,45.98,-128.41
795,306819787,0.7339,-0.3569,0.3574,74.88,44.15,-126.34
796,306824787,0.7285,-0.3618,0.3281,75.79,42.07,-124.33
797,306829786,0.7236,-0.3403,0.4209,76.71,40.73,-122.20
798,306834787,0.7319,-0.2944,0.4595,77.38,39.63,-120.06
799,306839786,0.7329,-0.2476,0.3853,78.05,38.48,-117.87
800,306844785,0.7300,-0.2207,0.3813,78.72,37.20,-115.61
801,306849789,0.7251,-0.2241,0.4648,79.33,36.59,-113.54
802,306854786,0.7280,-0.2388,0.4795,79.45,36.22,-111.28
803,306859787,0.7378,-0.2534,0.4072,79.51,35.37,-108.90
804,306864786,0.7407,-0.2515,0.4155,79.09,34.57,-106.65
805,306870197,0.7485,-0.2339,0.4531,78.11,34.09,-104.02
806,306874787,0.7549,-0.2002,0.4966,77.07,33.96,-102.38
807,306879786,0.7651,-0.1675,0.4341,75.43,33.78,-100.18
808,306884819,0.7808,-0.1538,0.4473,72.99,33.05,-98.17
809,306889787,0.7842,-0.1567,0.5073,70.30,32.62,-96.04
810,306894786,0.8013,-0.1675,0.4888,67.20,32.44,-93.84
811,306900264,0.8184,-0.1465,0.4634,63.05,31.46,-91.28
812,306904787,0.8267,-0.1733,0.4678,60.12,30.85,-89.63
813,306909787,0.8320,-0.1650,0.5093,56.28,30.55,-87.68
814,306914812,0.8472,-0.1421,0.4888,52.44,29.76,-85.55
815,306919786,0.8618,-0.1191,0.4619,48.72,28.96,-83.60
816,306924787,0.8701,-0.1040,0.4956,45.06,28.41,-81.71
817,306929787,0.8755,-0.0986,0.5415,41.59,28.05,-79.76
818,306934787,0.8862,-0.1016,0.5156,38.35,27.68,-77.99
819,306939785,0.8901,-0.1060,0.5000,35.43,27.20,-76.28
820,306944785,0.8984,-0.0977,0.5391,32.80,26.77,-74.57
821,306949787,0.9014,-0.0874,0.5708,30.67,26.59,-72.87
822,306954787,0.9019,-0.0625,0.5552,29.33,26.28,-71.10
823,306959787,0.9004,-0.0508,0.5537,28.72,25.61,-69.51
824,306964787,0.8984,-0.0386,0.5869,28.54,25.12,-67.62
825,306969786,0.9023,-0.0361,0.6055,29.15,24.76,-65.98
826,306974789,0.9072,-0.0337,0.5845,30.00,24.09,-64.21
827,306979786,0.9170,-0.0225,0.5981,31.40,23.17,-62.44
828,306984785,0.9224,-0.0142,0.6304,33.11,22.50,-60.85
829,306989786,0.9297,0.0044,0.6475,34.82,21.95,-59.51
830,306994787,0.9438,0.0210,0.6353,36.46,21.10,-58.17
831,306999787,0.9497,0.0356,0.6528,38.17,20.37,-56.89
832,307004787,0.9492,0.0430,0.6812,39.63,19.63,-55.73
833,307009824,0.9536,0.0522,0.6914,41.28,19.09,-54.57
834,307014794,0.9551,0.0581,0.6885,42.93,18.48,-53.54
835,307019785,0.9590,0.0571,0.7051,44.76,17.74,-52.32
836,307024789,0.9639,0.0630,0.7417,46.59,17.26,-51.28
837,307029786,0.9668,0.0718,0.7476,48.48,16.83,-50.24
838,307034785,0.9785,0.0737,0.7368,50.18,16.28,-49.15
839,307039785,0.9912,0.0898,0.7588,51.83,15.91,-48.11
840,307044789,0.9985,0.0996,0.7837,53.17,15.49,-47.26
841,307049786,1.0137,0.1128,0.7788,54.33,15.30,-46.46
842,307054787,1.0298,0.1216,0.7695,54.82,15.00,-45.61
843,307059787,1.0352,0.1309,0.7808,54.82,14.63,-44.94
844,307064786,1.0483,0.1357,0.7852,54.27,14.33,-44.27
845,307069787,1.0566,0.1426,0.7661,53.29,13.90,-43.66
846,307074786,1.0645,0.1558,0.7573,51.77,13.48,-43.29
847,307079785,1.0601,0.1602,0.7603,49.88,12.87,-42.68
848,307084785,1.0518,0.1626,0.7583,47.62,12.68,-42.13
849,307089805,1.0493,0.1646,0.7407,45.12,12.07,-41.40
850,307094789,1.0474,0.1587,0.7261,42.56,11.52,-40.61
851,307099787,1.0474,0.1519,0.7300,39.45,11.16,-39.76
852,307104786,1.0444,0.1431,0.7227,36.34,10.73,-38.72
853,307109858,1.0415,0.1377,0.7070,33.23,10.30,-37.44
854,307114787,1.0376,0.1377,0.6846,30.00,9.82,-36.16
855,307119786,1.0391,0.1470,0.6865,26.83,9.33,-34.88
856,307124790,1.0376,0.1533,0.6699,23.72,8.78,-33.54
857,307129787,1.0312,0.1577,0.6475,20.67,8.23,-32.26
858,307134786,1.0298,0.1636,0.6333,17.80,7.62,-31.10
859,307139789,1.0317,0.1694,0.6333,15.12,7.07,-29.82
860,307144786,1.0239,0.1689,0.6196,12.56,6.52,-28.48
861,307149785,1.0225,0.1733,0.5962,10.24,5.73,-27.26
862,307154788,1.0142,0.1743,0.5845,8.11,5.30,-26.10
863,307159788,1.0044,0.1758,0.5820,6.16,4.70,-24.82
864,307164787,1.0015,0.1675,0.5635,4.51,4.15,-23.54
865,307169788,0.9888,0.1611,0.5493,2.99,3.60,-22.13
866,307174787,0.9790,0.1548,0.5469,1.95,3.23,-20.67
867,307179787,0.9678,0.1543,0.5444,1.10,2.93,-19.27
868,307184787,0.9585,0.1465,0.5317,0.49,2.44,-17.74
869,307189785,0.9521,0.1465,0.5195,-0.12,2.20,-16.28
870,307194790,0.9395,0.1470,0.5220,-0.24,1.77,-14.82
871,307199900,0.9331,0.1426,0.5142,-0.55,1.59,-13.29
872,307204787,0.9238,0.1484,0.5039,-0.79,1.34,-11.83
873,307209785,0.9219,0.1509,0.5000,-1.04,0.91,-10.49
874,307214785,0.9146,0.1479,0.4990,-1.22,0.61,-9.21
875,307219789,0.9092,0.1416,0.4976,-1.34,0.43,-7.80
876,307224787,0.9038,0.1401,0.4854,-1.52,-0.18,-6.46
877,307229787,0.9009,0.1294,0.4761,-1.83,-0.73,-5.12
878,307234786,0.8921,0.1260,0.4814,-2.13,-1.28,-3.78
879,307239789,0.8960,0.1191,0.4712,-2.56,-1.77,-2.32
880,307244786,0.8911,0.1113,0.4614,-2.80,-2.50,-1.04
881,307249785,0.8926,0.1064,0.4585,-3.17,-3.54,0.61
882,307254785,0.8848,0.1035,0.4648,-3.41,-4.27,1.95
883,307259864,0.8892,0.0977,0.4727,-3.35,-5.06,3.35
884,307264786,0.8853,0.0933,0.4668,-2.93,-5.98,4.70
885,307269876,0.8838,0.0923,0.4731,-2.50,-7.01,5.91
886,307274786,0.8809,0.0898,0.4814,-1.52,-7.68,7.26
887,307279787,0.8809,0.0854,0.4854,-0.37,-8.54,8.54
888,307284786,0.8774,0.0830,0.4873,1.10,-9.27,9.63
889,307289785,0.8735,0.0806,0.4937,3.05,-10.06,10.91
890,307294785,0.8735,0.0791,0.5107,5.30,-10.55,11.95
891,307299789,0.8706,0.0762,0.5190,7.80,-11.22,13.05
892,307304786,0.8672,0.0732,0.5200,10.49,-11.59,13.90
893,307309787,0.8633,0.0723,0.5327,13.54,-11.89,14.76
894,307314786,0.8682,0.0708,0.5439,16.59,-12.26,15.61
895,307319787,0.8755,0.0693,0.5557,19.76,-12.44,16.28
896,307324786,0.8818,0.0688,0.5728,22.80,-12.56,16.77
897,307329785,0.8936,0.0747,0.5801,25.73,-12.62,17.32
898,307334789,0.9087,0.0713,0.6011,28.54,-12.44,17.62
899,307339787,0.9131,0.0708,0.6157,31.22,-12.32,17.80
900,307344786,0.9263,0.0752,0.6187,33.60,-11.95,17.87
901,307350052,0.9277,0.0752,0.6372,35.49,-11.83,17.93
902,307354787,0.9360,0.0762,0.6382,37.20,-11.40,17.74
903,307359786,0.9399,0.0713,0.6411,38.29,-11.10,17.50
904,307364788,0.9438,0.0718,0.6455,39.15,-10.67,17.32
905,307369787,0.9482,0.0664,0.6519,39.45,-10.30,17.13
906,307374786,0.9531,0.0615,0.6592,38.96,-10.06,16.77
907,307379805,0.9556,0.0571,0.6577,38.17,-9.88,16.52
908,307384786,0.9556,0.0586,0.6567,36.46,-9.51,16.22
909,307389785,0.9561,0.0566,0.6519,34.57,-9.27,16.04
910,307394785,0.9585,0.0552,0.6519,32.13,-9.33,15.61
911,307400398,0.9570,0.0469,0.6479,29.21,-9.09,15.24
912,307404788,0.9546,0.0444,0.6475,26.04,-9.09,15.00
913,307409787,0.9531,0.0337,0.6416,22.50,-9.21,14.82
914,307414787,0.9482,0.0332,0.6338,18.66,-9.33,14.70
915,307419789,0.9390,0.0322,0.6289,14.82,-9.57,14.51
916,307424786,0.9360,0.0288,0.6235,10.98,-9.82,14.51
917,307429787,0.9331,0.0220,0.6216,7.20,-10.06,14.63
918,307434786,0.9229,0.0181,0.6133,3.72,-10.37,14.70
919,307439785,0.9160,0.0186,0.6138,0.18,-10.55,14.88
920,307444788,0.9087,0.0083,0.6060,-2.93,-10.91,15.12
921,307449788,0.9048,0.0103,0.5947,-5.85,-11.10,15.49
922,307454787,0.9028,0.0078,0.5991,-8.48,-11.46,15.79
923,307459785,0.9004,0.0054,0.5884,-10.61,-11.71,16.28
924,307464789,0.8979,0.0034,0.5879,-12.38,-11.83,16.59
925,307469790,0.8940,0.0005,0.5757,-13.96,-12.07,17.07
926,307474786,0.8931,-0.0073,0.5786,-14.76,-12.26,17.50
927,307479785,0.8887,-0.0083,0.5757,-15.61,-12.56,17.99
928,307484787,0.8892,-0.0127,0.5684,-16.22,-12.62,18.72
929,307489787,0.8823,-0.0103,0.5654,-16.34,-12.87,19.39
930,307494786,0.8853,-0.0107,0.5674,-16.10,-13.11,19.76
931,307499785,0.8843,-0.0073,0.5703,-15.37,-13.35,20.30
932,307504787,0.8882,-0.0112,0.5649,-14.39,-13.35,20.91
933,307509788,0.8853,-0.0122,0.5576,-13.05,-13.48,21.40
934,307514787,0.8892,-0.0137,0.5610,-11.52,-13.54,21.95
935,307519822,0.8921,-0.0146,0.5537,-9.57,-13.66,22.44
936,307524787,0.8911,-0.0176,0.5503,-8.05,-13.66,22.80
937,307529788,0.8931,-0.0122,0.5459,-6.10,-13.60,23.23
938,307534787,0.8960,-0.0156,0.5420,-4.27,-13.66,23.60
939,307539789,0.8994,-0.0127,0.5400,-2.50,-13.72,23.90
940,307544786,0.9014,-0.0166,0.5332,-0.61,-13.84,24.15
941,307550199,0.9019,-0.0122,0.5303,1.40,-14.02,24.45
942,307554787,0.9067,-0.0171,0.5288,2.74,-14.09,24.57
943,307559785,0.9097,-0.0156,0.5210,4.39,-14.15,24.63
944,307564911,0.9116,-0.0122,0.5200,6.22,-14.27,24.76
945,307569789,0.9126,-0.0176,0.5156,7.26,-14.27,24.70
946,307574786,0.9194,-0.0171,0.5166,8.60,-14.21,24.70
947,307579789,0.9224,-0.0190,0.5161,10.06,-14.33,24.63
948,307584786,0.9204,-0.0181,0.5166,11.22,-14.21,24.45
949,307589787,0.9229,-0.0205,0.5156,12.38,-14.09,24.27
950,307594786,0.9253,-0.0176,0.5083,13.60,-14.02,23.96
951,307599785,0.9297,-0.0151,0.5142,14.76,-13.72,23.60
952,307604789,0.9302,-0.0151,0.5068,15.91,-13.48,23.35
953,307609832,0.9336,-0.0176,0.5059,16.89,-13.35,22.87
954,307614786,0.9253,-0.0176,0.5054,17.99,-12.93,22.62
955,307619787,0.9277,-0.0200,0.5151,19.02,-12.44,22.13
956,307624786,0.9277,-0.0225,0.5112,19.82,-12.13,21.89
957,307629789,0.9268,-0.0239,0.5122,20.67,-11.52,21.46
958,307634786,0.9248,-0.0317,0.5010,21.34,-10.98,21.16
959,307639787,0.9282,-0.0371,0.4956,21.89,-10.49,20.98
960,307644786,0.9238,-0.0415,0.4927,22.20,-9.94,20.67
961,307649788,0.9297,-0.0420,0.4863,22.44,-9.45,20.30
962,307654786,0.9331,-0.0459,0.4863,22.50,-9.15,19.94
963,307659785,0.9346,-0.0518,0.4780,22.62,-8.66,19.82
964,307664785,0.9351,-0.0527,0.4819,22.68,-8.23,19.51
965,307670019,0.9360,-0.0552,0.4756,23.05,-7.74,19.15
966,307674787,0.9326,-0.0591,0.4795,23.29,-7.56,18.90
967,307679788,0.9321,-0.0581,0.4761,23.78,-7.07,18.72
968,307684787,0.9331,-0.0586,0.4717,24.15,-6.59,18.29
969,307689787,0.9316,-0.0542,0.4795,24.76,-6.34,18.05
970,307694787,0.9326,-0.0586,0.4756,25.24,-5.91,17.62
971,307699785,0.9326,-0.0581,0.4653,25.49,-5.30,17.13
972,307704785,0.9307,-0.0552,0.4614,25.67,-5.12,16.83
973,307709785,0.9297,-0.0615,0.4663,25.37,-4.70,16.52
974,307714788,0.9307,-0.0596,0.4673,24.88,-4.45,16.04
975,307719786,0.9307,-0.0557,0.4624,24.27,-4.21,15.55
976,307724788,0.9243,-0.0596,0.4663,23.17,-4.02,15.18
977,307729787,0.9253,-0.0615,0.4697,21.65,-3.78,14.82
978,307734786,0.9199,-0.0688,0.4639,20.00,-3.54,14.45
979,307739791,0.9194,-0.0698,0.4619,17.99,-3.54,14.21
980,307744786,0.9160,-0.0693,0.4639,15.98,-3.29,13.90
981,307749789,0.9160,-0.0693,0.4644,13.72,-3.17,13.60
982,307754786,0.9131,-0.0679,0.4702,11.40,-2.99,13.29
983,307759785,0.9033,-0.0674,0.4668,8.72,-2.80,12.99
984,307764788,0.9087,-0.0659,0.4722,6.89,-2.68,12.68
985,307769786,0.9072,-0.0674,0.4775,4.63,-2.44,12.38
986,307774789,0.9072,-0.0664,0.4746,2.80,-2.38,12.07
987,307779787,0.9009,-0.0654,0.4839,0.98,-2.26,11.77
988,307784786,0.8989,-0.0718,0.4736,-0.73,-2.13,11.46
989,307789803,0.9019,-0.0703,0.4810,-2.20,-1.89,11.16
990,307794789,0.8984,-0.0762,0.4868,-3.48,-1.71,10.85
991,307800016,0.8979,-0.0781,0.4863,-4.63,-1.65,10.67
992,307804787,0.8955,-0.0806,0.4824,-5.55,-1.40,10.43
993,307809787,0.8955,-0.0820,0.4893,-6.34,-1.10,10.18
994,307814787,0.8950,-0.0835,0.4829,-6.95,-0.98,10.00
995,307819787,0.8916,-0.0884,0.4912,-7.50,-0.91,9.88
996,307824787,0.8882,-0.0942,0.4912,-7.80,-0.61,9.70
997,307829787,0.8882,-0.0981,0.4961,-7.80,-0.55,9.57
998,307834787,0.8892,-0.0957,0.4941,-7.74,-0.18,9.39
999,307839785,0.8916,-0.0962,0.4976,-7.50,0.00,9.09
1000,307844785,0.8887,-0.0986,0.4912,-6.95,0.12,9.09
1001,307849785,0.8901,-0.0986,0.4946,-6.28,0.24,8.96
1002,307854789,0.8887,-0.0977,0.5063,-5.49,0.55,8.78
1003,307859786,0.8887,-0.0977,0.5083,-4.39,0.73,8.54
1004,307864785,0.8867,-0.1045,0.5044,-3.17,1.04,8.41
1005,307869785,0.8906,-0.1016,0.5059,-2.01,1.28,8.23
1006,307874789,0.8906,-0.1035,0.5054,-0.67,1.52,7.99
1007,307879788,0.8916,-0.1016,0.5122,0.61,1.77,7.80
1008,307884787,0.8950,-0.1030,0.5073,1.65,1.77,7.56
1009,307889787,0.8911,-0.1099,0.5073,2.80,2.01,7.32
1010,307894787,0.8955,-0.1089,0.5103,3.72,2.01,7.01
1011,307899787,0.8921,-0.1138,0.4990,4.51,2.32,6.89
1012,307904787,0.8916,-0.1089,0.5049,5.30,2.20,6.46
1013,307909787,0.8945,-0.1133,0.5112,5.91,2.32,6.22
