# skilleye imu stream v1
# device=xiao_esp32c6 imu=mpu6050 addr=0x68
# rate_hz=200 accel_range_g=16 gyro_range_dps=2000 dlpf_hz=94
# units: accel in g, gyro in deg/s, t_us in microseconds since boot (monotonic)
# no shared clock with the camera -- tap the racket once before each take
# so both recordings share a spike to align on
seq,t_us,ax,ay,az,gx,gy,gz
0,129329787,0.6748,-0.6641,0.3218,5.49,-2.87,13.96
1,129334790,0.6719,-0.6694,0.3169,5.85,-2.99,14.09
2,129339787,0.6729,-0.6694,0.3184,6.10,-2.99,14.21
3,129344999,0.6758,-0.6738,0.3208,6.34,-2.87,14.27
4,129349787,0.6777,-0.6748,0.3213,6.40,-2.74,14.39
5,129354786,0.6777,-0.6782,0.3203,6.34,-2.74,14.39
6,129359787,0.6841,-0.6787,0.3237,6.28,-2.74,14.51
7,129364785,0.6899,-0.6836,0.3223,5.98,-2.68,14.57
8,129369787,0.6963,-0.6885,0.3252,5.49,-2.62,14.76
9,129374787,0.6963,-0.6938,0.3232,5.06,-2.62,14.82
10,129379786,0.6997,-0.6934,0.3218,4.51,-2.44,14.88
11,129384785,0.6968,-0.6992,0.3193,4.15,-2.13,14.94
12,129389787,0.6938,-0.6963,0.3174,3.90,-2.13,15.06
13,129394787,0.6968,-0.6973,0.3154,3.78,-1.89,15.18
14,129399787,0.6909,-0.6982,0.3164,3.84,-1.77,15.24
15,129404786,0.6846,-0.7007,0.3154,3.90,-1.77,15.24
16,129409787,0.6821,-0.7012,0.3203,4.09,-1.59,15.24
17,129414785,0.6841,-0.7021,0.3184,4.51,-1.52,15.30
18,129419785,0.6816,-0.6987,0.3140,4.88,-1.40,15.24
19,129424852,0.6797,-0.7051,0.3076,5.06,-1.28,15.24
20,129429787,0.6802,-0.7021,0.3198,5.30,-1.34,15.24
21,129434787,0.6763,-0.7036,0.3145,5.67,-1.28,15.18
22,129439787,0.6812,-0.7075,0.3149,5.85,-1.16,15.00
23,129444785,0.6851,-0.7056,0.3159,5.79,-1.10,15.12
24,129449787,0.6846,-0.7080,0.3169,5.98,-1.04,15.18
25,129454785,0.6919,-0.7104,0.3198,5.73,-0.85,15.24
26,129459789,0.6895,-0.7163,0.3198,5.61,-0.67,15.24
27,129464786,0.6880,-0.7188,0.3184,5.24,-0.79,15.18
28,129469785,0.6846,-0.7212,0.3188,4.94,-0.61,15.18
29,129474788,0.6885,-0.7246,0.3218,4.57,-0.30,15.24
30,129479786,0.6782,-0.7251,0.3198,4.21,-0.24,15.12
31,129484785,0.6812,-0.7310,0.3247,3.96,-0.18,15.18
32,129489787,0.6787,-0.7319,0.3267,3.96,0.12,15.12
33,129494788,0.6787,-0.7305,0.3203,3.90,0.06,14.94
34,129499787,0.6699,-0.7319,0.3184,4.09,0.12,14.94
35,129504787,0.6665,-0.7319,0.3232,4.27,0.24,14.82
36,129509786,0.6650,-0.7319,0.3252,4.76,0.24,14.82
37,129514785,0.6660,-0.7305,0.3198,5.24,0.43,14.70
38,129519787,0.6626,-0.7285,0.3281,5.98,0.43,14.51
39,129524785,0.6509,-0.7261,0.3193,6.77,0.37,14.51
40,129529787,0.6587,-0.7300,0.3237,7.32,0.30,14.33
41,129534787,0.6587,-0.7256,0.3193,7.93,0.37,14.21
42,129539787,0.6509,-0.7256,0.3267,8.41,0.43,14.09
43,129544785,0.6558,-0.7251,0.3242,8.84,0.37,13.90
44,129549787,0.6558,-0.7314,0.3271,8.78,0.37,13.84
45,129554786,0.6509,-0.7275,0.3335,8.72,0.37,13.60
46,129559789,0.6460,-0.7231,0.3267,8.48,0.24,13.60
47,129564787,0.6504,-0.7256,0.3262,8.23,0.24,13.41
48,129569787,0.6494,-0.7271,0.3257,7.80,0.24,13.35
49,129574786,0.6519,-0.7295,0.3281,7.26,0.37,13.29
50,129579787,0.6509,-0.7266,0.3320,6.89,0.30,13.05
51,129584785,0.6484,-0.7314,0.3330,6.40,0.24,12.87
52,129589786,0.6460,-0.7319,0.3311,6.22,0.37,12.68
53,129594787,0.6475,-0.7310,0.3315,5.91,0.30,12.62
54,129599785,0.6494,-0.7271,0.3320,5.61,0.18,12.50
55,129604787,0.6484,-0.7280,0.3369,5.55,0.18,12.26
56,129609787,0.6460,-0.7275,0.3418,5.61,-0.12,12.01
57,129614787,0.6504,-0.7300,0.3452,5.67,0.00,12.07
58,129619788,0.6509,-0.7324,0.3359,5.79,-0.12,11.77
59,129624785,0.6509,-0.7324,0.3433,5.91,-0.18,11.89
60,129629786,0.6484,-0.7339,0.3394,6.22,-0.18,11.52
61,129634787,0.6479,-0.7339,0.3423,6.40,-0.30,11.46
62,129640180,0.6450,-0.7339,0.3418,6.65,-0.61,11.28
63,129644786,0.6440,-0.7373,0.3462,6.83,-0.30,11.16
64,129649882,0.6396,-0.7393,0.3428,7.13,-0.67,11.10
65,129654787,0.6387,-0.7368,0.3467,7.07,-0.67,10.85
66,129659786,0.6396,-0.7432,0.3516,7.32,-0.79,10.79
67,129664785,0.6348,-0.7417,0.3540,7.26,-1.04,10.67
68,129669993,0.6328,-0.7412,0.3511,7.07,-1.22,10.43
69,129674787,0.6304,-0.7471,0.3584,7.01,-1.46,10.24
70,129679786,0.6289,-0.7446,0.3608,6.89,-1.65,10.18
71,129684803,0.6294,-0.7446,0.3589,6.46,-1.71,9.88
72,129689786,0.6294,-0.7471,0.3696,6.46,-2.01,9.57
73,129694787,0.6323,-0.7500,0.3770,6.22,-2.32,9.39
74,129699883,0.6343,-0.7520,0.3765,5.98,-2.50,9.15
75,129704787,0.6318,-0.7598,0.3882,5.98,-2.93,8.84
76,129709786,0.6274,-0.7529,0.3857,6.04,-3.60,8.48
77,129714785,0.6230,-0.7607,0.3989,6.10,-4.21,8.23
78,129719787,0.6304,-0.7578,0.4116,6.16,-4.94,7.80
79,129724785,0.6338,-0.7598,0.4116,6.34,-5.67,7.38
80,129729785,0.6333,-0.7632,0.4111,6.40,-6.65,7.01
81,129734787,0.6304,-0.7598,0.4209,6.16,-7.68,6.77
82,129739788,0.6338,-0.7637,0.4209,5.61,-8.48,6.28
83,129744785,0.6343,-0.7622,0.4189,5.00,-9.63,5.98
84,129749787,0.6353,-0.7661,0.4316,4.15,-10.79,5.61
85,129754786,0.6348,-0.7617,0.4331,3.17,-11.52,5.24
86,129759787,0.6328,-0.7646,0.4375,1.89,-12.80,4.76
87,129764785,0.6328,-0.7676,0.4438,0.79,-13.66,4.45
88,129769789,0.6357,-0.7671,0.4531,-0.43,-14.57,4.09
89,129774785,0.6357,-0.7720,0.4590,-1.22,-15.49,3.78
90,129779868,0.6328,-0.7720,0.4668,-2.01,-16.46,3.48
91,129784787,0.6289,-0.7744,0.4673,-2.20,-17.32,3.11
92,129789787,0.6270,-0.7754,0.4727,-1.89,-18.11,3.11
93,129794785,0.6260,-0.7725,0.4824,-1.22,-18.90,2.93
94,129799787,0.6274,-0.7705,0.4878,0.18,-19.88,2.87
95,129804785,0.6294,-0.7749,0.4922,1.77,-20.73,2.87
96,129809787,0.6265,-0.7705,0.4941,4.02,-21.59,3.11
97,129814789,0.6270,-0.7671,0.4990,6.46,-22.68,3.23
98,129819786,0.6270,-0.7622,0.5044,9.33,-23.72,3.48
99,129824785,0.6289,-0.7612,0.5146,12.20,-24.76,3.66
100,129829785,0.6304,-0.7544,0.5161,15.43,-25.73,4.09
101,129835254,0.6333,-0.7544,0.5288,18.48,-26.65,4.45
102,129839787,0.6367,-0.7485,0.5415,21.77,-27.93,4.88
103,129844786,0.6362,-0.7451,0.5493,25.18,-29.09,5.30
104,129849787,0.6318,-0.7422,0.5552,28.54,-30.61,5.85
105,129854785,0.6270,-0.7363,0.5625,31.77,-32.07,6.34
106,129859787,0.6230,-0.7339,0.5840,34.88,-33.35,6.89
107,129864786,0.6230,-0.7310,0.5972,37.87,-35.00,7.50
108,129869787,0.6191,-0.7251,0.6074,40.98,-36.52,8.11
109,129874785,0.6162,-0.7222,0.6182,43.84,-38.17,8.90
110,129879787,0.6113,-0.7109,0.6313,46.95,-39.88,9.70
111,129884786,0.6069,-0.7075,0.6372,49.94,-41.59,10.43
112,129889786,0.6089,-0.7051,0.6411,53.11,-43.66,11.28
113,129894789,0.6074,-0.6909,0.6460,56.34,-45.67,12.38
114,129899787,0.6069,-0.6870,0.6538,59.33,-47.87,13.41
115,129904786,0.6079,-0.6787,0.6621,62.38,-50.18,14.51
116,129909787,0.6045,-0.6719,0.6689,65.06,-52.68,15.79
117,129914785,0.5996,-0.6689,0.6753,67.56,-55.18,16.95
118,129919787,0.6011,-0.6597,0.6860,69.63,-57.80,18.05
119,129924786,0.5952,-0.6504,0.6948,71.65,-60.61,19.51
120,129929787,0.5908,-0.6382,0.6943,73.48,-63.29,20.79
121,129934785,0.5908,-0.6328,0.7012,75.18,-66.28,22.20
122,129939787,0.5928,-0.6250,0.7007,76.59,-69.33,23.66
123,129945025,0.5869,-0.6206,0.7056,78.11,-72.38,25.24
124,129949787,0.5825,-0.6099,0.7065,79.51,-75.61,26.71
125,129954786,0.5796,-0.6050,0.7041,81.10,-78.96,28.35
126,129959787,0.5747,-0.6016,0.6997,82.80,-82.38,30.00
127,129964787,0.5781,-0.5996,0.7007,84.39,-85.85,31.59
128,129969785,0.5723,-0.5986,0.6982,85.73,-89.33,33.29
129,129974787,0.5713,-0.5908,0.6924,86.77,-93.35,35.12
130,129979787,0.5615,-0.5869,0.6826,87.44,-96.89,36.83
131,129984787,0.5513,-0.5879,0.6787,87.26,-100.79,38.48
132,129989786,0.5410,-0.5786,0.6753,86.59,-104.63,40.00
133,129994787,0.5386,-0.5757,0.6611,85.24,-108.54,41.52
134,129999787,0.5283,-0.5747,0.6572,83.41,-112.38,42.80
135,130004786,0.5186,-0.5742,0.6470,81.28,-116.28,44.27
136,130009787,0.5132,-0.5742,0.6426,78.96,-119.94,45.61
137,130014825,0.5010,-0.5771,0.6240,76.40,-123.84,46.77
138,130019787,0.4995,-0.5820,0.6235,73.78,-127.44,48.05
139,130024786,0.4927,-0.5864,0.6099,71.28,-131.04,49.09
140,130029787,0.4888,-0.5962,0.5986,68.66,-134.39,50.12
141,130034785,0.4839,-0.6001,0.5903,66.52,-137.20,51.10
142,130039789,0.4697,-0.6055,0.5796,63.54,-141.34,52.26
143,130044785,0.4604,-0.6128,0.5732,61.46,-144.09,52.93
144,130049787,0.4468,-0.6167,0.5513,58.78,-147.38,53.48
145,130054854,0.4351,-0.6201,0.5381,55.55,-151.16,54.21
146,130059787,0.4282,-0.6240,0.5269,53.23,-153.54,54.51
147,130064809,0.4214,-0.6304,0.5005,50.55,-156.77,54.82
148,130069786,0.4170,-0.6338,0.4863,47.80,-159.76,55.06
149,130074787,0.4111,-0.6372,0.4658,44.88,-162.62,55.12
150,130079786,0.3989,-0.6343,0.4453,41.95,-165.61,55.30
151,130084787,0.3926,-0.6323,0.4277,38.60,-168.48,55.37
152,130089787,0.3901,-0.6260,0.4097,34.94,-170.98,55.18
153,130094785,0.3843,-0.6177,0.3867,31.28,-173.66,55.12
154,130099788,0.3799,-0.6079,0.3647,27.13,-176.16,55.00
155,130104787,0.3770,-0.6001,0.3364,22.74,-178.48,55.00
156,130109786,0.3735,-0.5830,0.3228,18.17,-180.61,54.94
157,130114789,0.3672,-0.5684,0.2954,13.29,-182.74,54.94
158,130119785,0.5371,-0.6387,0.1758,7.01,-184.33,54.45
159,130124785,0.4565,-0.6719,0.0195,-0.43,-186.22,53.23
160,130129789,0.4468,-0.6685,0.1011,-8.72,-187.38,52.07
161,130134789,0.5244,-0.6289,-0.0171,-18.90,-187.80,50.85
162,130139786,0.6572,-0.6338,-0.4077,-32.32,-188.48,48.96
163,130144787,0.7954,-0.6772,-0.5806,-50.61,-188.11,46.46
164,130149786,0.7158,-0.5640,-0.5337,-71.46,-186.22,43.17
165,130154787,0.5483,-0.4829,-0.3965,-90.55,-183.41,39.82
166,130159786,0.4004,-0.4219,-0.2178,-106.46,-181.34,37.50
167,130164787,0.3682,-0.3403,-0.1406,-118.54,-179.57,35.85
168,130169787,0.3350,-0.2700,0.0815,-126.22,-176.59,34.21
169,130174787,0.3438,-0.3257,-0.2495,-130.61,-175.18,32.56
170,130179787,0.2881,-0.4351,-0.3198,-131.89,-176.95,31.22
171,130184786,0.2661,-0.5112,-0.0312,-131.65,-177.87,30.55
172,130189787,0.2593,-0.5581,0.0898,-130.73,-176.89,30.18
173,130194786,0.2573,-0.5781,0.0312,-129.27,-175.79,29.76
174,130199787,0.2383,-0.5596,0.0522,-127.01,-175.00,29.02
175,130204911,0.2153,-0.5498,0.1406,-124.45,-174.09,27.93
176,130209787,0.2026,-0.5469,0.1421,-121.04,-173.35,27.32
177,130214788,0.2383,-0.5605,0.1279,-117.38,-172.99,26.65
178,130219881,0.2075,-0.6860,0.1426,-113.72,-173.05,26.10
179,130224786,0.2485,-0.7852,0.2085,-109.76,-172.20,26.89
180,130229787,0.3555,-0.8687,0.2681,-105.91,-170.85,28.17
181,130234786,0.4521,-0.9966,0.1558,-100.91,-169.51,30.12
182,130239785,0.5244,-1.2134,0.0591,-93.90,-168.90,33.23
183,130244786,0.6577,-1.1987,-0.0391,-85.55,-168.35,37.07
184,130249787,0.6689,-1.1392,-0.2021,-76.95,-168.23,40.67
185,130255142,0.6602,-0.9722,-0.4517,-67.68,-169.09,43.78
186,130259788,0.7202,-0.7207,-0.6948,-54.94,-170.43,45.73
187,130264787,0.5874,-0.9331,-0.7192,-36.77,-172.01,47.38
188,130269787,0.3779,-1.1426,-0.5928,-12.93,-172.07,50.49
189,130274787,0.2632,-1.1587,-0.5571,13.66,-171.16,54.21
190,130279785,0.2817,-1.1191,-0.5820,41.22,-169.76,57.93
191,130284787,0.3750,-1.1265,-0.5649,68.29,-167.74,61.95
192,130289786,0.5029,-1.1680,-0.5508,93.72,-165.61,66.77
193,130294787,0.5234,-1.1431,-0.5229,116.04,-163.05,71.83
194,130299786,0.5166,-1.1064,-0.4956,134.09,-159.70,77.07
195,130304787,0.5073,-1.1104,-0.4614,149.21,-155.61,81.89
196,130309880,0.4863,-1.1460,-0.4482,160.79,-151.28,87.20
197,130314787,0.4458,-1.1870,-0.4536,169.39,-146.65,90.43
198,130319788,0.4087,-1.2197,-0.4434,175.49,-141.95,94.51
199,130324787,0.3662,-1.2412,-0.4502,179.45,-137.07,98.23
200,130330061,0.3364,-1.2534,-0.4683,180.79,-132.68,101.71
201,130334787,0.2964,-1.2646,-0.4639,180.43,-128.48,104.94
202,130339785,0.2456,-1.2666,-0.4600,177.87,-124.27,107.87
203,130344786,0.2031,-1.2515,-0.4365,173.29,-120.24,110.37
204,130350032,0.1592,-1.2305,-0.4087,166.89,-116.40,112.38
205,130354787,0.1191,-1.2212,-0.3862,158.48,-112.56,113.96
206,130359787,0.0859,-1.2100,-0.3525,148.90,-108.90,114.88
207,130364787,0.0483,-1.2075,-0.2988,137.56,-105.37,115.18
208,130369787,0.0083,-1.1870,-0.2661,125.18,-101.77,115.06
209,130374787,0.0049,-1.1704,-0.2705,111.16,-98.41,114.27
210,130379785,-0.0273,-1.1504,-0.2456,95.85,-95.43,112.68
211,130384789,-0.0542,-1.1260,-0.2104,79.94,-92.38,110.61
212,130389875,-0.0835,-1.1108,-0.2178,63.41,-89.94,108.05
213,130394787,-0.1011,-1.0938,-0.2163,46.95,-87.62,105.06
214,130399785,-0.1284,-1.0830,-0.2046,30.43,-85.73,101.65
215,130404789,-0.1660,-1.0815,-0.1953,14.57,-83.96,97.93
216,130409786,-0.1743,-1.0659,-0.2002,-0.43,-82.62,93.96
217,130414786,-0.1875,-1.0542,-0.2144,-14.70,-81.77,89.27
218,130419787,-0.1938,-1.0527,-0.2158,-28.05,-80.79,85.24
219,130424786,-0.2070,-1.0449,-0.2207,-40.37,-80.18,81.10
220,130429787,-0.1875,-1.0845,-0.2324,-51.77,-80.00,76.46
221,130434785,-0.2236,-1.0337,-0.2705,-62.87,-80.00,72.07
222,130439785,-0.2578,-0.9854,-0.2524,-72.80,-79.94,67.20
223,130444785,-0.2666,-0.9595,-0.2070,-81.59,-80.06,62.07
224,130449787,-0.2666,-0.9189,-0.2290,-89.15,-79.88,56.77
225,130454786,-0.2373,-0.9287,-0.2510,-95.55,-80.00,51.22
226,130459787,-0.2661,-0.9292,-0.2505,-100.49,-80.06,45.91
227,130464785,-0.2788,-0.9321,-0.2393,-103.54,-80.30,40.55
228,130469787,-0.2642,-0.9277,-0.2739,-104.76,-80.37,35.24
229,130474787,-0.2495,-0.9116,-0.2822,-104.45,-80.55,29.88
230,130479787,-0.2388,-0.9004,-0.2827,-102.68,-80.91,24.57
231,130484785,-0.2358,-0.8940,-0.2939,-99.63,-80.79,19.33
232,130489787,-0.2275,-0.9077,-0.3086,-95.67,-80.91,14.39
233,130494786,-0.1948,-1.0117,-0.3276,-91.89,-80.98,9.51
234,130499788,-0.2153,-1.0073,-0.3086,-87.68,-80.91,5.18
235,130504785,-0.2192,-0.8882,-0.3032,-82.44,-80.79,0.67
236,130509786,-0.1841,-0.8164,-0.3306,-76.89,-80.61,-4.02
237,130514787,-0.1567,-0.8228,-0.3457,-70.98,-80.24,-8.41
238,130520079,-0.1489,-0.8613,-0.3354,-64.70,-80.00,-12.62
239,130524787,-0.1343,-0.9150,-0.3442,-58.48,-79.45,-16.34
240,130529789,-0.1118,-0.9424,-0.3486,-52.13,-79.09,-19.70
241,130534786,-0.0903,-0.9346,-0.3560,-45.61,-78.54,-22.80
242,130539787,-0.0464,-0.9453,-0.3755,-39.45,-78.05,-25.73
243,130544785,-0.0537,-0.9150,-0.4082,-33.72,-77.80,-28.48
244,130549805,-0.0869,-0.8994,-0.3936,-28.54,-77.56,-31.10
245,130554787,-0.0703,-0.9165,-0.3540,-23.84,-77.13,-33.66
246,130559787,-0.0361,-0.9312,-0.3511,-19.57,-76.46,-35.98
247,130564787,-0.0107,-0.9360,-0.3750,-15.85,-75.85,-38.23
248,130569787,0.0132,-0.9458,-0.3882,-12.62,-75.24,-40.12
249,130574787,0.0264,-0.9492,-0.3916,-9.94,-74.70,-41.95
250,130579787,0.0337,-0.9492,-0.3955,-8.11,-74.27,-42.99
251,130584787,0.0557,-0.9609,-0.4136,-5.98,-74.02,-44.45
252,130589787,0.0386,-0.9502,-0.4253,-4.27,-73.72,-45.79
253,130594787,0.0298,-0.9521,-0.4131,-3.29,-73.41,-46.77
254,130599788,0.0415,-0.9551,-0.3926,-2.26,-72.99,-47.80
255,130604787,0.0640,-0.9453,-0.4102,-1.40,-72.62,-48.72
256,130609785,0.0801,-0.9346,-0.4209,-0.67,-72.32,-49.70
257,130615146,0.0869,-0.9268,-0.4189,-0.30,-71.95,-50.67
258,130619787,0.0894,-0.9204,-0.4072,-0.30,-71.71,-51.46
259,130624786,0.0991,-0.9189,-0.4141,-0.24,-71.52,-52.32
260,130629787,0.1021,-0.9053,-0.4360,-0.55,-71.22,-53.17
261,130634785,0.0830,-0.9038,-0.4277,-1.34,-71.10,-54.02
262,130639875,0.0942,-0.9072,-0.4116,-1.95,-71.10,-54.88
263,130644789,0.1201,-0.9053,-0.4009,-2.56,-70.85,-55.79
264,130649785,0.1255,-0.8960,-0.4077,-3.29,-71.04,-56.83
265,130654787,0.1191,-0.8945,-0.4043,-4.33,-71.28,-57.56
266,130659789,0.1226,-0.9082,-0.3848,-5.37,-71.28,-58.54
267,130664786,0.1260,-0.9141,-0.3535,-6.22,-71.10,-59.21
268,130669785,0.1333,-0.9048,-0.3647,-7.62,-70.67,-59.94
269,130674787,0.1362,-0.9092,-0.3765,-8.54,-70.49,-60.55
270,130679787,0.1348,-0.8989,-0.3711,-9.63,-69.76,-61.16
271,130684788,0.1274,-0.9131,-0.3691,-10.73,-69.33,-61.95
272,130689787,0.1079,-0.9189,-0.3618,-11.16,-68.72,-62.50
273,130694786,0.1118,-0.9116,-0.3799,-10.79,-68.17,-62.93
274,130699787,0.1035,-0.8931,-0.4009,-9.88,-67.74,-63.54
275,130704836,0.1118,-0.8774,-0.3877,-8.66,-67.26,-64.21
276,130709787,0.1074,-0.8740,-0.3779,-6.59,-66.65,-65.06
277,130714786,0.1255,-0.8281,-0.3599,-4.39,-66.22,-65.73
278,130719789,0.1011,-0.8721,-0.3599,-2.56,-65.55,-66.83
279,130724786,0.1040,-0.8525,-0.3706,1.10,-65.30,-67.68
280,130729787,0.1143,-0.8350,-0.3701,5.55,-64.82,-68.23
281,130734786,0.1489,-0.8584,-0.3315,10.43,-64.21,-69.27
282,130739787,0.0815,-0.8408,-0.3442,15.12,-63.60,-70.12
283,130744787,0.1265,-0.8511,-0.3882,18.84,-63.48,-71.65
284,130749785,0.0864,-0.9575,-0.3447,22.38,-62.93,-72.56
285,130754785,0.0635,-0.9072,-0.3066,26.46,-62.32,-73.60
286,130759789,0.0967,-0.8481,-0.3662,30.43,-61.71,-74.45
287,130764786,0.1226,-0.8066,-0.3926,33.84,-61.52,-75.61
288,130769787,0.1187,-0.8057,-0.3809,36.71,-61.22,-76.83
289,130774786,0.1279,-0.8389,-0.3604,38.60,-60.85,-77.99
290,130779785,0.1460,-0.8853,-0.3643,39.82,-60.24,-79.09
291,130784789,0.1611,-0.8960,-0.3418,40.24,-59.94,-80.18
292,130789787,0.1729,-0.8882,-0.3267,39.82,-59.33,-81.16
293,130794787,0.1855,-0.8657,-0.3359,38.60,-58.48,-82.26
294,130799787,0.2017,-0.8555,-0.3447,36.83,-57.93,-83.54
295,130804787,0.2124,-0.8608,-0.3354,34.88,-57.20,-84.39
296,130809842,0.2246,-0.8745,-0.3120,32.80,-56.71,-85.37
297,130814829,0.2300,-0.8838,-0.3149,30.91,-55.98,-86.22
298,130819786,0.2251,-0.8706,-0.3169,29.45,-55.18,-86.95
299,130824787,0.2437,-0.8530,-0.3081,28.17,-54.45,-87.80
300,130829787,0.2544,-0.8438,-0.2900,27.13,-53.60,-88.72
301,130834787,0.2563,-0.8560,-0.2954,26.34,-52.68,-89.51
302,130839785,0.2666,-0.8638,-0.2983,25.67,-52.01,-90.18
303,130844789,0.2720,-0.8618,-0.2935,25.55,-51.16,-90.61
304,130849786,0.2939,-0.8584,-0.2896,25.98,-50.37,-91.16
305,130854785,0.3101,-0.8633,-0.3013,26.89,-49.51,-91.34
306,130859787,0.3091,-0.8745,-0.2939,28.11,-48.72,-91.59
307,130864787,0.3135,-0.8828,-0.2954,29.88,-47.99,-91.59
308,130869787,0.3149,-0.8828,-0.2935,31.52,-47.38,-91.52
309,130874787,0.3213,-0.8809,-0.2915,33.11,-46.65,-91.22
310,130879787,0.3208,-0.8623,-0.2715,34.51,-46.10,-91.04
311,130884787,0.3330,-0.8579,-0.2632,35.79,-45.30,-90.79
312,130889866,0.3423,-0.8628,-0.2617,36.95,-44.63,-90.37
313,130894787,0.3521,-0.8691,-0.2603,37.80,-43.84,-89.94
314,130899787,0.3623,-0.8691,-0.2563,38.41,-43.41,-89.33
315,130904787,0.3667,-0.8774,-0.2573,38.66,-42.68,-88.41
316,130909787,0.3745,-0.8828,-0.2549,38.90,-42.26,-87.56
317,130914788,0.3882,-0.8906,-0.2588,38.84,-41.65,-86.59
318,130919785,0.3887,-0.8906,-0.2505,38.78,-41.22,-85.49
319,130924787,0.3931,-0.8901,-0.2534,38.66,-40.91,-84.33
320,130929789,0.3867,-0.8896,-0.2573,38.54,-40.55,-83.05
321,130934786,0.3887,-0.8862,-0.2515,38.41,-40.00,-81.83
322,130939785,0.3950,-0.8940,-0.2417,38.11,-39.63,-80.49
323,130944787,0.3887,-0.8828,-0.2500,38.05,-39.02,-79.02
324,130949788,0.3931,-0.8721,-0.2500,37.87,-38.72,-77.80
325,130954787,0.4062,-0.8677,-0.2422,37.74,-38.48,-76.40
326,130960247,0.4141,-0.8706,-0.2393,37.74,-37.80,-74.94
327,130964787,0.4204,-0.8740,-0.2290,37.80,-37.26,-73.60
328,130969787,0.4224,-0.8735,-0.2334,38.41,-36.77,-72.01
329,130974911,0.4282,-0.8740,-0.2393,39.21,-36.10,-70.49
330,130979787,0.4365,-0.8682,-0.2368,40.24,-35.55,-68.90
331,130984790,0.4370,-0.8662,-0.2402,41.59,-34.82,-67.26
332,130989786,0.4341,-0.8618,-0.2461,42.99,-34.39,-65.49
333,130994790,0.4287,-0.8560,-0.2510,44.33,-33.90,-63.96
334,130999787,0.4229,-0.8496,-0.2559,45.55,-33.29,-62.20
335,131004786,0.4282,-0.8467,-0.2598,46.28,-32.68,-60.67
336,131009789,0.4258,-0.8418,-0.2568,46.71,-32.20,-59.02
337,131014786,0.4302,-0.8423,-0.2598,46.65,-31.71,-57.44
338,131019785,0.4336,-0.8408,-0.2583,45.85,-30.98,-55.79
339,131024787,0.4370,-0.8374,-0.2524,44.57,-30.30,-54.15
340,131029787,0.4385,-0.8315,-0.2607,42.93,-29.70,-52.50
341,131034787,0.4395,-0.8286,-0.2510,40.61,-29.09,-50.91
342,131039788,0.4438,-0.8188,-0.2471,37.93,-28.05,-49.51
343,131044787,0.4429,-0.8140,-0.2427,35.18,-27.32,-47.87
344,131049787,0.4390,-0.8120,-0.2407,32.01,-26.46,-46.40
345,131054786,0.4458,-0.8057,-0.2378,28.90,-25.43,-44.94
346,131059789,0.4468,-0.8091,-0.2358,25.85,-24.39,-43.41
347,131064787,0.4434,-0.8022,-0.2373,23.05,-23.35,-42.07
348,131069950,0.4438,-0.7949,-0.2495,20.79,-22.32,-40.55
349,131074787,0.4370,-0.7925,-0.2534,18.66,-21.16,-39.27
350,131079787,0.4341,-0.7935,-0.2451,16.95,-20.00,-37.87
351,131084787,0.4355,-0.7900,-0.2461,15.73,-18.90,-36.52
352,131089787,0.4351,-0.7886,-0.2510,14.70,-17.62,-35.24
353,131094787,0.4331,-0.7905,-0.2495,13.96,-16.59,-33.84
354,131099787,0.4297,-0.7900,-0.2437,13.60,-15.43,-32.50
355,131104787,0.4253,-0.7871,-0.2451,13.29,-14.51,-31.52
356,131109787,0.4219,-0.7798,-0.2378,12.62,-12.93,-30.00
357,131114788,0.4204,-0.7812,-0.2397,11.95,-11.71,-28.90
358,131119788,0.4189,-0.7773,-0.2354,11.46,-10.61,-28.11
359,131124787,0.4209,-0.7720,-0.2339,10.61,-9.33,-26.83
360,131129785,0.4219,-0.7681,-0.2251,9.63,-8.05,-25.73
361,131134785,0.4238,-0.7671,-0.2236,8.41,-6.52,-24.45
362,131139787,0.4224,-0.7671,-0.2192,7.44,-5.49,-23.66
363,131144786,0.4233,-0.7632,-0.2139,6.34,-4.21,-22.68
364,131149787,0.4268,-0.7627,-0.2090,5.18,-2.87,-21.71
365,131155118,0.4243,-0.7676,-0.2158,3.90,-1.28,-20.67
366,131159787,0.4253,-0.7607,-0.2080,3.35,-0.12,-20.06
367,131164785,0.4209,-0.7617,-0.2124,2.80,1.22,-19.21
368,131169787,0.4199,-0.7607,-0.2021,2.50,2.44,-18.35
369,131174787,0.4170,-0.7637,-0.2095,2.44,3.78,-17.68
370,131179785,0.4150,-0.7656,-0.2119,2.44,5.00,-16.95
371,131184788,0.4121,-0.7656,-0.2026,2.50,6.04,-16.16
372,131190301,0.4180,-0.7729,-0.2021,2.80,7.50,-15.30
373,131194791,0.4233,-0.7749,-0.2061,2.87,8.41,-14.70
374,131199788,0.4238,-0.7720,-0.1992,2.93,9.57,-13.90
375,131204787,0.4248,-0.7729,-0.1934,2.74,10.79,-13.29
376,131209786,0.4224,-0.7744,-0.1934,2.68,11.89,-12.68
377,131214787,0.4248,-0.7729,-0.1929,2.26,12.80,-11.89
378,131219789,0.4199,-0.7690,-0.1899,1.71,13.90,-11.40
379,131224786,0.4209,-0.7700,-0.1860,1.04,15.12,-10.73
380,131230312,0.4238,-0.7744,-0.1885,0.43,16.34,-10.18
381,131234787,0.4312,-0.7744,-0.1812,0.00,17.13,-9.63
382,131239787,0.4351,-0.7778,-0.1792,-0.61,18.05,-9.09
383,131244787,0.4385,-0.7788,-0.1714,-1.16,19.09,-8.54
384,131249786,0.4409,-0.7822,-0.1777,-1.46,19.94,-7.99
385,131254788,0.4448,-0.7891,-0.1758,-1.59,20.91,-7.38
386,131259786,0.4492,-0.7939,-0.1807,-1.46,21.77,-6.83
387,131264786,0.4497,-0.7939,-0.1826,-1.04,22.56,-6.28
388,131269787,0.4482,-0.7949,-0.1831,-0.55,23.41,-5.67
389,131274786,0.4468,-0.7988,-0.1812,0.18,24.02,-5.18
390,131279789,0.4482,-0.8027,-0.1758,0.79,24.57,-4.63
391,131284786,0.4497,-0.8037,-0.1758,1.59,25.18,-4.09
392,131289787,0.4561,-0.8101,-0.1763,2.13,25.67,-3.66
393,131294786,0.4541,-0.8169,-0.1836,2.80,26.10,-3.05
394,131299787,0.4580,-0.8174,-0.1787,3.35,26.52,-2.62
395,131304786,0.4590,-0.8213,-0.1797,3.66,26.89,-2.13
396,131309787,0.4644,-0.8223,-0.1802,3.78,27.20,-1.52
397,131314788,0.4648,-0.8257,-0.1831,3.90,27.50,-0.91
398,131319788,0.4634,-0.8267,-0.1768,3.90,27.50,-0.43
399,131324787,0.4707,-0.8281,-0.1802,3.90,27.87,0.06
400,131329785,0.4663,-0.8242,-0.1807,3.78,27.87,0.61
401,131334787,0.4663,-0.8286,-0.1826,3.60,28.05,1.10
402,131339787,0.4683,-0.8301,-0.1772,3.35,27.99,1.65
403,131344787,0.4780,-0.8311,-0.1753,3.11,27.87,2.26
404,131349788,0.4780,-0.8315,-0.1758,2.93,27.74,2.87
405,131354787,0.4834,-0.8320,-0.1816,2.74,27.62,3.41
406,131359785,0.4849,-0.8354,-0.1826,2.62,27.38,4.15
407,131364787,0.4873,-0.8354,-0.1826,2.44,27.13,4.57
408,131369787,0.4917,-0.8389,-0.1938,2.38,26.83,5.12
409,131374789,0.4917,-0.8364,-0.1880,2.13,26.52,5.73
410,131379787,0.4941,-0.8325,-0.1899,2.07,26.04,6.28
411,131384788,0.4946,-0.8369,-0.1968,1.77,25.67,6.89
412,131389785,0.4951,-0.8345,-0.1919,1.46,25.12,7.38
413,131394787,0.4971,-0.8306,-0.1919,0.98,24.70,7.87
414,131399788,0.4961,-0.8281,-0.1924,0.43,24.27,8.54
415,131404787,0.5005,-0.8340,-0.1875,-0.12,23.72,8.96
416,131409787,0.5054,-0.8301,-0.1924,-0.73,23.23,9.57
417,131414786,0.5068,-0.8267,-0.1802,-1.52,22.93,10.12
418,131419788,0.5063,-0.8228,-0.1831,-2.26,22.32,10.67
419,131424787,0.5049,-0.8174,-0.1821,-2.93,22.01,11.10
420,131429785,0.5039,-0.8140,-0.1816,-3.66,21.40,11.65
421,131434787,0.5034,-0.8086,-0.1738,-4.45,20.91,12.01
422,131439787,0.5010,-0.8022,-0.1792,-5.18,20.43,12.44
423,131444786,0.4971,-0.7998,-0.1768,-5.67,20.00,12.56
424,131449787,0.5044,-0.7954,-0.1777,-6.40,19.57,12.93
425,131454785,0.5059,-0.7964,-0.1758,-6.95,19.09,13.23
426,131459787,0.4937,-0.7983,-0.1807,-7.32,18.72,13.41
427,131464786,0.5029,-0.7925,-0.1758,-7.68,18.11,13.66
428,131469787,0.5132,-0.7915,-0.1733,-8.05,17.80,14.09
429,131475314,0.5190,-0.7852,-0.1763,-8.35,17.38,14.15
430,131479787,0.5171,-0.7866,-0.1631,-8.60,16.89,14.27
431,131484787,0.5171,-0.7798,-0.1665,-8.96,16.46,14.51
432,131489785,0.5093,-0.7837,-0.1655,-9.15,16.04,14.63
433,131494789,0.5093,-0.7788,-0.1641,-9.21,15.61,14.63
434,131499787,0.5068,-0.7817,-0.1650,-9.33,15.30,14.70
435,131504787,0.5078,-0.7798,-0.1680,-9.39,14.94,14.82
436,131509787,0.5103,-0.7812,-0.1636,-9.51,14.57,14.94
437,131514787,0.5166,-0.7793,-0.1621,-9.45,14.39,15.12
438,131519788,0.5156,-0.7778,-0.1636,-9.45,13.84,15.12
439,131524787,0.5146,-0.7778,-0.1597,-9.51,13.54,15.12
440,131529785,0.5098,-0.7754,-0.1519,-9.45,13.29,15.18
441,131534787,0.5142,-0.7739,-0.1519,-9.45,13.29,15.12
442,131539787,0.5122,-0.7754,-0.1572,-9.39,12.87,15.00
443,131544787,0.5059,-0.7729,-0.1523,-9.21,12.56,15.00
444,131549787,0.5054,-0.7783,-0.1582,-8.96,12.26,15.00
445,131554787,0.5044,-0.7769,-0.1538,-8.60,12.01,14.88
446,131559787,0.5034,-0.7773,-0.1626,-8.05,11.65,14.70
447,131564786,0.5005,-0.7759,-0.1631,-7.50,11.40,14.63
448,131569785,0.5024,-0.7808,-0.1582,-6.95,11.16,14.63
449,131574789,0.5034,-0.7798,-0.1582,-6.46,10.98,14.39
450,131579787,0.5029,-0.7788,-0.1562,-5.98,10.73,14.33
451,131584787,0.5000,-0.7759,-0.1572,-5.49,10.61,14.09
452,131589787,0.5020,-0.7808,-0.1470,-5.12,10.30,13.96
453,131594785,0.4985,-0.7793,-0.1455,-4.94,10.18,13.78
454,131599787,0.5010,-0.7783,-0.1533,-4.70,9.94,13.60
455,131604786,0.4990,-0.7788,-0.1475,-4.57,9.94,13.48
456,131609787,0.4980,-0.7769,-0.1450,-4.63,9.88,13.23
457,131614785,0.5034,-0.7852,-0.1426,-4.70,9.70,12.99
458,131619787,0.5034,-0.7871,-0.1436,-4.57,9.82,12.93
459,131624786,0.5078,-0.7910,-0.1426,-4.21,9.70,12.74
460,131629785,0.5083,-0.7930,-0.1479,-4.15,9.51,12.44
461,131634787,0.5083,-0.7939,-0.1494,-3.90,9.51,12.44
462,131639837,0.5059,-0.7935,-0.1514,-3.54,9.33,12.01
463,131644789,0.5098,-0.7954,-0.1519,-3.11,9.39,11.95
464,131649787,0.5039,-0.7979,-0.1538,-2.80,9.39,11.71
465,131654787,0.5029,-0.7896,-0.1499,-2.32,9.33,11.46
466,131659788,0.5063,-0.7939,-0.1538,-1.77,9.45,11.10
467,131664787,0.5059,-0.7974,-0.1558,-1.40,9.51,10.98
468,131669785,0.5020,-0.7993,-0.1514,-0.79,9.39,10.61
469,131674787,0.5088,-0.7964,-0.1519,-0.55,9.57,10.37
470,131679789,0.5127,-0.8057,-0.1421,-0.12,9.57,10.00
471,131684786,0.5229,-0.8057,-0.1411,0.00,9.70,9.76
472,131689787,0.5244,-0.8105,-0.1353,0.30,9.82,9.63
473,131694785,0.5244,-0.8110,-0.1367,0.61,10.00,9.39
474,131699789,0.5244,-0.8154,-0.1313,0.79,10.30,9.02
475,131704786,0.5269,-0.8154,-0.1250,1.22,10.49,8.84
476,131709787,0.5264,-0.8184,-0.1216,1.59,10.55,8.60
477,131714785,0.5254,-0.8213,-0.1206,2.13,10.73,8.23
478,131719874,0.5293,-0.8228,-0.1255,2.80,11.04,7.87
479,131724787,0.5254,-0.8271,-0.1265,3.41,11.04,7.44
480,131729787,0.5220,-0.8257,-0.1270,4.15,11.22,7.01
481,131734788,0.5200,-0.8218,-0.1260,4.94,11.28,6.65
482,131739785,0.5215,-0.8291,-0.1250,5.73,11.46,6.22
483,131744787,0.5151,-0.8306,-0.1274,6.52,11.65,5.61
484,131749786,0.5171,-0.8306,-0.1284,7.13,11.71,5.06
485,131754787,0.5146,-0.8345,-0.1270,7.62,11.71,4.51
486,131759785,0.5127,-0.8359,-0.1260,8.23,11.89,4.15
487,131764787,0.5112,-0.8369,-0.1206,8.72,11.89,3.54
488,131769786,0.5088,-0.8369,-0.1235,9.02,11.77,2.99
489,131774785,0.5112,-0.8413,-0.1274,9.15,11.71,2.44
490,131779785,0.5098,-0.8423,-0.1245,9.27,11.71,1.83
491,131784787,0.5137,-0.8428,-0.1255,9.27,11.59,1.28
492,131790210,0.5122,-0.8423,-0.1270,9.21,11.52,0.61
493,131794787,0.5132,-0.8447,-0.1289,9.27,11.46,0.24
494,131799785,0.5112,-0.8496,-0.1318,9.21,11.40,-0.30
495,131804785,0.5112,-0.8501,-0.1328,9.21,11.22,-0.85
496,131809787,0.5107,-0.8491,-0.1289,9.15,10.91,-1.28
497,131814787,0.5093,-0.8462,-0.1353,9.02,10.85,-1.77
498,131819929,0.5083,-0.8506,-0.1338,8.96,10.55,-2.26
499,131824787,0.5112,-0.8501,-0.1377,8.90,10.30,-2.87
500,131829786,0.5107,-0.8501,-0.1313,8.84,10.06,-3.35
501,131834789,0.5068,-0.8496,-0.1382,8.72,9.88,-3.72
502,131839787,0.5103,-0.8496,-0.1367,8.66,9.63,-4.27
503,131844788,0.5093,-0.8467,-0.1396,8.41,9.33,-4.70
504,131849787,0.5029,-0.8428,-0.1396,8.17,8.96,-5.18
505,131854787,0.5044,-0.8428,-0.1382,8.17,8.66,-5.49
506,131859787,0.5073,-0.8447,-0.1348,7.93,8.29,-6.04
507,131864787,0.5083,-0.8447,-0.1348,7.62,7.87,-6.46
508,131869787,0.5078,-0.8433,-0.1362,7.32,7.62,-6.77
509,131874787,0.5137,-0.8442,-0.1387,6.95,7.26,-7.01
510,131879785,0.5112,-0.8452,-0.1362,6.59,6.89,-7.50
511,131884789,0.5142,-0.8398,-0.1396,6.34,6.52,-7.74
512,131889787,0.5156,-0.8384,-0.1387,5.91,6.10,-8.05
513,131894787,0.5107,-0.8364,-0.1396,5.73,5.85,-8.29
514,131899787,0.5137,-0.8364,-0.1421,5.18,5.43,-8.48
515,131904787,0.5171,-0.8320,-0.1421,4.94,5.06,-8.84
516,131909787,0.5117,-0.8306,-0.1440,4.57,4.70,-8.96
517,131914786,0.5176,-0.8296,-0.1411,4.15,4.39,-9.15
518,131919787,0.5205,-0.8257,-0.1401,3.78,4.15,-9.21
519,131924785,0.5137,-0.8232,-0.1309,3.35,3.84,-9.51
520,131929788,0.5161,-0.8184,-0.1421,2.87,3.48,-9.57
521,131934786,0.5181,-0.8193,-0.1377,2.56,3.35,-9.76
522,131939787,0.5176,-0.8149,-0.1387,2.26,2.93,-9.82
523,131944785,0.5151,-0.8110,-0.1353,1.95,2.80,-10.00
524,131949787,0.5195,-0.8081,-0.1348,1.71,2.38,-10.00
525,131954786,0.5210,-0.8042,-0.1343,1.52,2.26,-10.00
526,131959787,0.5166,-0.8013,-0.1387,1.46,2.01,-10.06
527,131964785,0.5171,-0.7974,-0.1323,1.40,1.77,-10.00
528,131969787,0.5166,-0.8008,-0.1284,1.46,1.71,-10.06
529,131974786,0.5181,-0.7988,-0.1284,1.71,1.34,-10.00
530,131979787,0.5151,-0.8003,-0.1284,1.89,1.34,-9.94
531,131984785,0.5156,-0.7920,-0.1304,2.07,1.16,-9.94
532,131989787,0.5151,-0.7915,-0.1313,2.20,1.04,-9.82
533,131994786,0.5151,-0.7949,-0.1313,2.32,0.98,-9.76
534,131999787,0.5151,-0.7910,-0.1226,2.44,0.67,-9.63
535,132004785,0.5137,-0.7915,-0.1226,2.56,0.55,-9.45
536,132009787,0.5151,-0.7876,-0.1255,2.50,0.67,-9.27
537,132014786,0.5127,-0.7925,-0.1245,2.50,0.37,-9.21
538,132019787,0.5098,-0.7905,-0.1216,2.38,0.12,-8.96
539,132024785,0.5151,-0.7905,-0.1279,2.20,0.12,-8.96
540,132029787,0.5103,-0.7866,-0.1270,1.95,0.00,-8.78
541,132034786,0.5107,-0.7881,-0.1270,1.71,0.00,-8.54
542,132039789,0.5068,-0.7817,-0.1299,1.34,-0.18,-8.35
543,132044785,0.5112,-0.7852,-0.1230,0.91,-0.18,-8.11
544,132049814,0.5117,-0.7827,-0.1230,0.73,-0.18,-7.99
545,132054786,0.5103,-0.7832,-0.1299,0.37,-0.24,-7.62
546,132059787,0.5127,-0.7827,-0.1284,0.06,-0.37,-7.38
547,132064785,0.5107,-0.7837,-0.1313,-0.24,-0.43,-7.13
548,132069852,0.5137,-0.7871,-0.1284,-0.37,-0.37,-6.71
549,132074786,0.5127,-0.7886,-0.1265,-0.43,-0.43,-6.34
550,132079788,0.5151,-0.7891,-0.1284,-0.55,-0.43,-6.10
551,132084786,0.5132,-0.7881,-0.1274,-0.67,-0.43,-5.73
552,132089830,0.5127,-0.7847,-0.1201,-0.67,-0.43,-5.24
553,132094836,0.5132,-0.7842,-0.1211,-0.55,-0.37,-4.82
554,132099790,0.5205,-0.7886,-0.1250,-0.49,-0.30,-4.45
555,132104787,0.5215,-0.7881,-0.1211,-0.18,-0.30,-4.02
556,132109786,0.5195,-0.7920,-0.1279,0.06,-0.12,-3.60
557,132114786,0.5186,-0.7969,-0.1270,0.37,-0.06,-3.17
558,132120177,0.5205,-0.7969,-0.1313,0.79,-0.06,-2.56
559,132124787,0.5200,-0.7988,-0.1294,1.16,0.00,-2.20
560,132129787,0.5181,-0.7998,-0.1250,1.59,-0.12,-1.65
561,132134788,0.5225,-0.8003,-0.1304,2.13,0.06,-1.16
562,132139785,0.5215,-0.7993,-0.1270,2.56,0.06,-0.73
563,132144789,0.5186,-0.7983,-0.1250,2.93,0.18,-0.24
564,132149786,0.5171,-0.8037,-0.1304,3.29,0.06,0.06
565,132154787,0.5171,-0.8062,-0.1343,3.66,0.24,0.49
566,132159787,0.5181,-0.8003,-0.1309,3.84,0.30,0.91
567,132164786,0.5190,-0.7964,-0.1265,4.02,0.24,1.10
568,132169787,0.5171,-0.8027,-0.1270,3.90,0.12,1.46
569,132174787,0.5181,-0.7998,-0.1240,3.90,0.18,1.65
570,132179787,0.5127,-0.8047,-0.1245,3.72,0.12,1.95
571,132184787,0.5122,-0.8032,-0.1245,3.54,0.12,2.26
572,132189788,0.5132,-0.8071,-0.1245,3.29,0.00,2.50
573,132194788,0.5137,-0.8032,-0.1226,3.17,0.00,2.74
574,132199789,0.5151,-0.8052,-0.1284,2.99,-0.24,2.87
575,132204786,0.5127,-0.8086,-0.1182,2.87,-0.18,3.11
576,132209787,0.5112,-0.8101,-0.1182,2.87,-0.30,3.35
577,132214790,0.5146,-0.8096,-0.1230,2.93,-0.24,3.60
578,132219787,0.5200,-0.8120,-0.1211,3.17,-0.30,3.84
579,132224786,0.5146,-0.8130,-0.1240,3.35,-0.30,3.96
580,132229787,0.5176,-0.8110,-0.1230,3.78,-0.49,4.15
581,132234786,0.5171,-0.8101,-0.1216,4.33,-0.67,4.45
582,132239788,0.5151,-0.8076,-0.1230,4.82,-0.67,4.57
583,132244787,0.5117,-0.8042,-0.1138,5.49,-0.73,4.70
584,132249787,0.5142,-0.8052,-0.1211,5.91,-0.98,4.76
585,132254786,0.5088,-0.8022,-0.1157,6.40,-1.04,4.94
586,132259789,0.5098,-0.8062,-0.1177,6.95,-1.16,4.94
587,132264786,0.5117,-0.8062,-0.1104,7.26,-1.22,4.94
588,132269787,0.5132,-0.8022,-0.1113,7.50,-1.46,4.94
589,132274786,0.5083,-0.8032,-0.1143,7.80,-1.40,4.94
590,132279785,0.5083,-0.8013,-0.1172,7.93,-1.59,5.00
591,132284785,0.5068,-0.8027,-0.1167,7.99,-1.71,4.82
592,132289844,0.5059,-0.8032,-0.1138,8.05,-1.89,4.82
593,132294787,0.5098,-0.8047,-0.1099,8.05,-2.01,4.82
594,132299786,0.5083,-0.8057,-0.1157,8.17,-2.01,4.70
595,132304814,0.5063,-0.8071,-0.1162,8.29,-2.38,4.45
596,132309787,0.5068,-0.8086,-0.1177,8.35,-2.44,4.39
597,132314787,0.5073,-0.8101,-0.1133,8.54,-2.62,4.39
598,132319786,0.5122,-0.8120,-0.1182,8.78,-2.80,4.21
599,132324787,0.5127,-0.8105,-0.1123,8.90,-2.93,4.15
600,132329787,0.5146,-0.8101,-0.1206,8.84,-2.87,3.96
601,132334787,0.5142,-0.8110,-0.1172,8.90,-3.23,3.72
602,132339786,0.5132,-0.8105,-0.1152,8.96,-3.35,3.60
603,132344786,0.5127,-0.8081,-0.1177,8.90,-3.60,3.66
604,132349787,0.5161,-0.8140,-0.1187,8.84,-3.66,3.48
605,132354786,0.5181,-0.8115,-0.1182,8.66,-3.66,3.23
606,132359787,0.5186,-0.8125,-0.1245,8.48,-3.84,3.17
607,132364787,0.5215,-0.8130,-0.1201,8.35,-4.09,3.05
608,132369788,0.5229,-0.8115,-0.1226,8.17,-4.09,2.99
609,132374787,0.5215,-0.8105,-0.1250,7.99,-4.33,2.80
610,132379788,0.5195,-0.8081,-0.1279,7.74,-4.39,2.80
611,132384785,0.5249,-0.8062,-0.1294,7.50,-4.33,2.68
612,132389785,0.5234,-0.8066,-0.1245,7.13,-4.45,2.68
613,132394787,0.5244,-0.8062,-0.1294,6.89,-4.45,2.56
614,132399787,0.5273,-0.8062,-0.1313,6.46,-4.45,2.62
615,132404786,0.5298,-0.8057,-0.1294,6.16,-4.51,2.62
616,132409814,0.5293,-0.8066,-0.1304,5.67,-4.39,2.68
617,132414787,0.5322,-0.7998,-0.1294,5.24,-4.51,2.68
618,132419786,0.5312,-0.8018,-0.1279,4.94,-4.57,2.74
619,132424787,0.5308,-0.8032,-0.1338,4.76,-4.45,2.99
620,132429786,0.5317,-0.8052,-0.1318,4.63,-4.45,3.05
621,132434787,0.5337,-0.8052,-0.1353,4.39,-4.21,3.05
622,132439785,0.5347,-0.8027,-0.1372,4.33,-4.33,3.11
623,132444787,0.5391,-0.7998,-0.1333,4.21,-4.21,3.23
624,132449787,0.5386,-0.8027,-0.1431,4.15,-4.15,3.35
625,132454785,0.5347,-0.8057,-0.1401,4.09,-4.02,3.48
626,132459787,0.5400,-0.8057,-0.1411,3.96,-4.02,3.72
627,132464787,0.5391,-0.8052,-0.1436,3.84,-3.96,3.96
628,132469787,0.5396,-0.8086,-0.1401,3.72,-3.96,3.96
629,132474787,0.5415,-0.8071,-0.1421,3.29,-3.84,4.15
630,132479787,0.5405,-0.8081,-0.1431,3.11,-3.66,4.51
631,132484884,0.5391,-0.8076,-0.1445,2.87,-3.72,4.57
632,132489787,0.5400,-0.8052,-0.1377,2.44,-3.60,4.76
633,132494785,0.5352,-0.8091,-0.1489,2.32,-3.54,4.82
634,132499789,0.5352,-0.8076,-0.1416,2.01,-3.48,5.00
635,132504787,0.5356,-0.8081,-0.1460,1.59,-3.35,5.12
636,132509787,0.5337,-0.8101,-0.1494,1.46,-3.23,5.30
637,132514787,0.5356,-0.8135,-0.1445,1.28,-3.29,5.37
638,132519787,0.5352,-0.8096,-0.1465,1.10,-3.17,5.49
639,132525260,0.5332,-0.8081,-0.1465,1.04,-3.11,5.55
640,132529788,0.5327,-0.8110,-0.1396,1.16,-3.11,5.79
641,132534787,0.5317,-0.8125,-0.1445,1.04,-2.93,5.79
642,132539790,0.5293,-0.8135,-0.1416,1.16,-2.93,5.91
643,132544787,0.5273,-0.8120,-0.1411,1.04,-3.05,5.91
644,132549785,0.5229,-0.8105,-0.1406,0.79,-2.80,5.91
645,132554785,0.5225,-0.8154,-0.1377,0.67,-2.74,5.85
646,132559785,0.5225,-0.8105,-0.1401,0.37,-2.44,5.85
647,132564789,0.5249,-0.8154,-0.1406,0.37,-2.32,5.73
648,132569785,0.5176,-0.8135,-0.1353,0.00,-2.44,5.85
649,132574785,0.5200,-0.8193,-0.1362,-0.24,-2.20,5.79
650,132579787,0.5190,-0.8193,-0.1323,-0.55,-2.20,5.73
651,132584787,0.5171,-0.8179,-0.1304,-0.79,-2.07,5.61
652,132589787,0.5127,-0.8164,-0.1270,-0.98,-2.01,5.49
653,132594787,0.5127,-0.8174,-0.1318,-1.10,-1.89,5.43
654,132599788,0.5127,-0.8164,-0.1304,-1.22,-1.71,5.30
655,132604787,0.5117,-0.8159,-0.1353,-1.22,-1.59,5.18
656,132609787,0.5127,-0.8203,-0.1392,-1.10,-1.65,5.00
657,132614787,0.5117,-0.8213,-0.1372,-0.91,-1.40,5.00
658,132619788,0.5107,-0.8237,-0.1343,-0.85,-1.34,4.76
659,132624787,0.5088,-0.8179,-0.1348,-0.67,-1.16,4.63
660,132629788,0.5039,-0.8188,-0.1294,-0.55,-1.04,4.33
661,132634787,0.5034,-0.8149,-0.1333,-0.55,-1.16,4.15
662,132639787,0.5054,-0.8159,-0.1260,-0.67,-0.67,4.09
663,132644787,0.5020,-0.8115,-0.1260,-0.85,-0.73,3.78
664,132649787,0.5054,-0.8101,-0.1240,-1.04,-0.79,3.66
665,132654787,0.5063,-0.8135,-0.1230,-1.40,-0.49,3.35
666,132659787,0.5068,-0.8120,-0.1221,-1.59,-0.24,3.11
667,132664787,0.5073,-0.8159,-0.1230,-2.07,-0.06,2.99
668,132669787,0.5044,-0.8096,-0.1240,-2.38,0.24,2.87
669,132674787,0.5068,-0.8115,-0.1304,-2.56,0.30,2.68
670,132679787,0.5112,-0.8071,-0.1270,-2.74,0.55,2.44
671,132684787,0.5088,-0.8062,-0.1274,-2.62,0.73,2.32
672,132689787,0.5117,-0.8105,-0.1270,-2.74,0.91,2.26
673,132694787,0.5083,-0.8110,-0.1245,-2.56,1.22,2.20
674,132699787,0.5107,-0.8110,-0.1221,-2.38,1.40,2.13
675,132704787,0.5146,-0.8188,-0.1182,-2.20,1.65,1.89
676,132709786,0.5122,-0.8140,-0.1270,-1.89,1.89,1.77
677,132714787,0.5132,-0.8105,-0.1279,-1.52,2.20,1.46
678,132719786,0.5166,-0.8184,-0.1313,-1.10,2.56,1.46
679,132724787,0.5156,-0.8198,-0.1245,-0.67,2.93,1.34
680,132729787,0.5127,-0.8154,-0.1235,-0.12,3.17,1.22
681,132734785,0.5103,-0.8115,-0.1201,0.24,3.41,1.04
682,132739787,0.5146,-0.8193,-0.1245,0.49,3.72,0.79
683,132744918,0.5146,-0.8198,-0.1206,0.98,3.96,0.49
684,132749787,0.5146,-0.8198,-0.1313,1.28,4.21,0.37
685,132754787,0.5181,-0.8228,-0.1299,1.71,4.33,0.06
686,132759787,0.5093,-0.8223,-0.1260,1.71,4.70,-0.18
687,132764785,0.5083,-0.8198,-0.1279,1.95,4.94,-0.55
688,132769787,0.5122,-0.8193,-0.1309,1.77,5.06,-0.73
689,132774787,0.5073,-0.8179,-0.1348,1.65,5.37,-0.98
690,132779787,0.5093,-0.8213,-0.1260,1.46,5.49,-1.22
691,132784787,0.5117,-0.8228,-0.1201,1.22,5.61,-1.46
692,132789787,0.5103,-0.8198,-0.1240,0.98,5.79,-1.77
693,132794785,0.5122,-0.8257,-0.1299,0.73,6.04,-2.01
694,132799785,0.5117,-0.8218,-0.1230,0.43,6.16,-2.20
695,132804787,0.5161,-0.8213,-0.1313,0.43,6.16,-2.44
696,132809797,0.5161,-0.8232,-0.1245,0.06,6.28,-2.68
697,132814787,0.5195,-0.8242,-0.1279,0.18,6.46,-2.87
698,132819787,0.5229,-0.8242,-0.1177,0.18,6.52,-3.05
699,132824788,0.5195,-0.8218,-0.1274,0.24,6.65,-3.23
700,132829787,0.5195,-0.8169,-0.1221,0.49,6.77,-3.35
701,132834787,0.5220,-0.8208,-0.1211,0.61,6.83,-3.66
702,132839787,0.5200,-0.8159,-0.1235,0.67,6.95,-3.78
703,132844787,0.5200,-0.8208,-0.1211,0.91,6.83,-4.02
704,132849788,0.5239,-0.8198,-0.1226,0.98,7.01,-4.15
705,132854787,0.5205,-0.8159,-0.1230,1.16,6.95,-4.27
706,132859787,0.5254,-0.8135,-0.1284,1.22,7.13,-4.57
707,132864785,0.5234,-0.8130,-0.1211,1.16,7.01,-4.57
708,132869787,0.5293,-0.8105,-0.1250,1.16,7.07,-4.76
709,132874787,0.5249,-0.8125,-0.1221,0.85,7.07,-4.82
710,132879786,0.5283,-0.8110,-0.1152,0.67,7.20,-5.00
711,132884787,0.5273,-0.8071,-0.1235,0.24,7.13,-5.18
712,132889787,0.5283,-0.8013,-0.1191,-0.24,7.20,-5.24
713,132894787,0.5259,-0.8037,-0.1274,-0.55,7.20,-5.37
714,132899786,0.5269,-0.8032,-0.1265,-0.91,7.07,-5.43
715,132904785,0.5312,-0.8066,-0.1250,-1.22,7.01,-5.49
716,132909787,0.5322,-0.8066,-0.1270,-1.46,7.13,-5.49
717,132914787,0.5386,-0.8032,-0.1250,-1.52,7.13,-5.49
718,132919787,0.5391,-0.8022,-0.1304,-1.71,6.89,-5.55
719,132924787,0.5410,-0.8032,-0.1284,-1.65,6.95,-5.49
720,132929788,0.5386,-0.8008,-0.1274,-1.65,6.89,-5.49
721,132934785,0.5381,-0.7974,-0.1313,-1.28,6.95,-5.55
722,132939789,0.5342,-0.7969,-0.1328,-1.10,7.01,-5.49
723,132944787,0.5366,-0.8018,-0.1367,-0.73,6.83,-5.43
724,132949787,0.5405,-0.7954,-0.1309,-0.61,6.77,-5.37
725,132954787,0.5410,-0.7988,-0.1304,-0.30,6.83,-5.37
726,132959787,0.5391,-0.7944,-0.1284,-0.06,6.65,-5.30
727,132964785,0.5435,-0.7954,-0.1328,0.00,6.77,-5.18
728,132969867,0.5454,-0.7905,-0.1353,0.00,6.71,-5.06
729,132974787,0.5454,-0.7944,-0.1411,-0.06,6.59,-5.00
730,132979787,0.5493,-0.7930,-0.1382,-0.12,6.71,-4.94
731,132984786,0.5488,-0.7896,-0.1387,-0.18,6.65,-4.82
732,132989787,0.5430,-0.7944,-0.1313,-0.24,6.71,-4.76
733,132994787,0.5430,-0.7905,-0.1421,-0.18,6.77,-4.63
734,132999787,0.5449,-0.7896,-0.1470,-0.18,6.77,-4.51
735,133004785,0.5430,-0.7891,-0.1479,-0.37,6.83,-4.39
736,133009787,0.5430,-0.7852,-0.1460,-0.24,6.89,-4.39
737,133014787,0.5410,-0.7837,-0.1431,-0.30,7.01,-4.27
738,133019787,0.5425,-0.7817,-0.1455,-0.24,7.26,-4.27
739,133024787,0.5483,-0.7866,-0.1460,-0.06,7.38,-4.27
740,133029786,0.5508,-0.7881,-0.1436,0.37,7.68,-4.09
741,133034787,0.5518,-0.7896,-0.1455,0.79,7.99,-4.02
742,133039786,0.5527,-0.7920,-0.1470,1.46,8.35,-3.96
743,133044787,0.5547,-0.7949,-0.1440,2.20,8.60,-3.78
744,133049786,0.5571,-0.7974,-0.1504,2.74,8.96,-3.72
745,133054787,0.5586,-0.7969,-0.1548,3.11,9.33,-3.66
746,133059787,0.5601,-0.7998,-0.1494,3.05,9.63,-3.48
747,133064785,0.5610,-0.8003,-0.1450,2.62,9.88,-3.41
748,133069787,0.5581,-0.7983,-0.1455,1.83,10.24,-3.29
749,133074787,0.5527,-0.7930,-0.1416,0.43,10.43,-3.35
750,133079786,0.5488,-0.7964,-0.1421,-1.16,10.73,-3.35
751,133084919,0.5503,-0.7998,-0.1455,-3.05,10.85,-3.17
752,133089788,0.5493,-0.7959,-0.1377,-5.00,11.16,-3.29
753,133094787,0.5449,-0.7998,-0.1416,-6.77,11.59,-3.29
754,133099787,0.5474,-0.7959,-0.1528,-8.48,11.83,-3.23
755,133104785,0.5469,-0.7988,-0.1440,-9.94,12.01,-3.23
756,133109804,0.5488,-0.7998,-0.1401,-11.22,12.26,-3.23
757,133114790,0.5508,-0.8022,-0.1455,-12.01,12.50,-3.17
758,133119786,0.5430,-0.8013,-0.1431,-12.68,12.62,-3.29
759,133124785,0.5430,-0.7979,-0.1328,-12.99,12.87,-3.29
760,133129789,0.5415,-0.7939,-0.1357,-13.05,13.17,-3.35
761,133134787,0.5439,-0.7959,-0.1367,-13.05,13.48,-3.41
762,133139787,0.5459,-0.7920,-0.1309,-12.80,13.84,-3.54
763,133144809,0.5435,-0.7930,-0.1318,-12.56,14.02,-3.54
764,133149787,0.5410,-0.7920,-0.1265,-12.20,14.45,-3.66
765,133154812,0.5435,-0.7925,-0.1284,-11.89,14.70,-3.78
766,133159787,0.5454,-0.7871,-0.1250,-11.52,15.00,-3.84
767,133164786,0.5459,-0.7886,-0.1265,-11.28,15.24,-4.02
768,133169787,0.5449,-0.7837,-0.1230,-11.04,15.73,-4.09
769,133175179,0.5498,-0.7871,-0.1240,-10.79,15.85,-4.33
770,133179788,0.5522,-0.7881,-0.1245,-10.67,16.04,-4.45
771,133184787,0.5513,-0.7827,-0.1187,-10.49,16.28,-4.51
772,133189786,0.5518,-0.7822,-0.1128,-10.30,16.59,-4.76
773,133194790,0.5576,-0.7817,-0.1216,-10.30,16.83,-4.94
774,133199788,0.5532,-0.7837,-0.1201,-10.18,17.07,-5.12
775,133204786,0.5513,-0.7803,-0.1221,-10.18,17.32,-5.24
776,133209786,0.5518,-0.7803,-0.1191,-10.06,17.56,-5.49
777,133214786,0.5630,-0.7827,-0.1182,-10.06,17.80,-5.73
778,133219787,0.5625,-0.7803,-0.1133,-10.18,17.87,-5.85
779,133224787,0.5688,-0.7822,-0.1128,-10.18,18.17,-6.04
780,133229787,0.5723,-0.7812,-0.1147,-10.00,18.23,-6.40
781,133234788,0.5674,-0.7812,-0.1118,-10.18,18.54,-6.40
782,133239787,0.5684,-0.7778,-0.1094,-10.18,18.60,-6.65
783,133244786,0.5684,-0.7754,-0.1113,-10.12,18.78,-6.83
784,133249786,0.5679,-0.7754,-0.1089,-10.06,18.78,-7.07
785,133254787,0.5718,-0.7744,-0.1050,-9.94,19.02,-7.26
786,133259786,0.5693,-0.7749,-0.1084,-9.76,19.02,-7.44
787,133264787,0.5762,-0.7773,-0.1123,-9.57,19.09,-7.62
788,133269787,0.5791,-0.7764,-0.1099,-9.39,19.33,-7.74
789,133274787,0.5825,-0.7749,-0.1064,-9.15,19.45,-7.99
790,133279786,0.5820,-0.7739,-0.1064,-8.90,19.33,-8.11
791,133284789,0.5840,-0.7759,-0.1089,-8.72,19.51,-8.29
792,133289786,0.5859,-0.7695,-0.1084,-8.41,19.33,-8.35
793,133294787,0.5894,-0.7744,-0.1118,-8.17,19.27,-8.60
794,133299786,0.5918,-0.7720,-0.1074,-7.80,19.33,-8.60
795,133304787,0.5918,-0.7690,-0.1133,-7.56,19.27,-8.78
796,133309785,0.5913,-0.7656,-0.1040,-7.13,19.21,-8.90
797,133314785,0.5962,-0.7627,-0.1045,-6.89,19.09,-8.96
798,133319790,0.5996,-0.7622,-0.1094,-6.52,19.02,-9.15
799,133324787,0.6011,-0.7612,-0.1084,-6.10,18.78,-9.33
800,133329787,0.5991,-0.7627,-0.1099,-5.73,18.66,-9.33
801,133334786,0.6035,-0.7646,-0.1084,-5.37,18.48,-9.39
802,133339788,0.6045,-0.7607,-0.1104,-4.94,18.35,-9.63
803,133344787,0.6094,-0.7563,-0.1143,-4.39,18.11,-9.57
804,133349787,0.6123,-0.7612,-0.1191,-4.02,17.93,-9.70
805,133354785,0.6108,-0.7651,-0.1216,-3.60,17.62,-9.82
806,133359787,0.6182,-0.7666,-0.1323,-3.29,17.50,-9.94
807,133365114,0.6216,-0.7651,-0.1353,-2.93,17.20,-9.94
808,133369787,0.6172,-0.7622,-0.1338,-2.80,17.07,-10.24
809,133374786,0.6167,-0.7627,-0.1411,-2.80,16.77,-10.37
810,133379787,0.6187,-0.7578,-0.1411,-3.05,16.65,-10.55
811,133384815,0.6196,-0.7520,-0.1406,-3.23,16.28,-10.73
812,133389789,0.6211,-0.7563,-0.1401,-3.29,16.40,-11.10
813,133394787,0.6177,-0.7529,-0.1396,-3.60,16.40,-11.40
814,133399786,0.6211,-0.7476,-0.1328,-3.78,16.46,-11.71
815,133404787,0.6206,-0.7500,-0.1377,-3.72,16.34,-12.01
816,133409785,0.6235,-0.7480,-0.1392,-3.48,16.40,-12.32
817,133414785,0.6250,-0.7485,-0.1416,-2.93,16.52,-12.68
818,133419789,0.6250,-0.7495,-0.1416,-2.44,16.52,-12.93
819,133424787,0.6240,-0.7510,-0.1362,-1.83,16.65,-13.11
820,133429786,0.6226,-0.7505,-0.1431,-1.34,16.77,-13.41
821,133434785,0.6216,-0.7490,-0.1348,-0.85,16.71,-13.84
822,133439787,0.6187,-0.7529,-0.1323,-0.55,16.77,-13.96
823,133444790,0.6177,-0.7500,-0.1323,-0.49,16.83,-14.27
824,133449787,0.6206,-0.7480,-0.1289,-0.79,16.83,-14.51
825,133454787,0.6177,-0.7485,-0.1191,-1.16,16.77,-14.82
826,133459810,0.6123,-0.7490,-0.1221,-1.83,16.89,-15.18
827,133464786,0.6157,-0.7490,-0.1196,-2.68,16.83,-15.43
828,133469940,0.6147,-0.7437,-0.1123,-3.78,16.71,-15.85
829,133474786,0.6118,-0.7432,-0.1069,-5.00,16.77,-16.10
830,133479785,0.6108,-0.7437,-0.1113,-6.28,16.77,-16.46
831,133484787,0.6104,-0.7393,-0.1021,-7.50,16.83,-16.83
832,133489786,0.6094,-0.7407,-0.1035,-8.78,16.95,-17.07
833,133494787,0.6157,-0.7393,-0.1040,-10.00,16.83,-17.26
834,133499786,0.6099,-0.7397,-0.0957,-11.04,16.77,-17.44
835,133504787,0.6094,-0.7373,-0.1006,-12.13,16.71,-17.80
836,133509785,0.6162,-0.7349,-0.1050,-12.87,16.59,-17.87
837,133514786,0.6157,-0.7329,-0.0967,-13.78,16.83,-18.05
838,133519786,0.6206,-0.7305,-0.0986,-14.33,16.71,-18.23
839,133524789,0.6196,-0.7285,-0.0918,-14.94,16.89,-18.29
840,133529786,0.6235,-0.7256,-0.0908,-15.43,16.89,-18.54
841,133534787,0.6230,-0.7227,-0.0889,-15.79,16.95,-18.48
842,133539786,0.6294,-0.7144,-0.0869,-16.22,16.95,-18.66
843,133544785,0.6328,-0.7139,-0.0884,-16.40,16.89,-18.72
844,133549787,0.6348,-0.7134,-0.0840,-16.52,17.13,-18.60
845,133554787,0.6357,-0.7090,-0.0845,-16.46,17.13,-18.48
846,133559785,0.6387,-0.7036,-0.0815,-16.52,17.13,-18.48
847,133564785,0.6450,-0.7031,-0.0820,-16.34,17.50,-18.29
848,133569786,0.6460,-0.7012,-0.0820,-16.04,17.56,-18.11
849,133574786,0.6509,-0.6973,-0.0723,-15.67,17.62,-17.93
850,133579788,0.6528,-0.6904,-0.0806,-15.24,17.80,-17.56
851,133584787,0.6592,-0.6904,-0.0762,-14.88,17.99,-17.50
852,133589787,0.6602,-0.6860,-0.0767,-14.39,18.23,-17.20
853,133594786,0.6631,-0.6831,-0.0767,-13.84,18.17,-16.83
854,133599787,0.6641,-0.6826,-0.0806,-13.35,18.48,-16.46
855,133604787,0.6719,-0.6821,-0.0747,-12.93,18.60,-16.22
856,133609787,0.6758,-0.6821,-0.0796,-12.44,18.60,-15.79
857,133614785,0.6782,-0.6816,-0.0806,-12.01,18.60,-15.30
858,133619785,0.6772,-0.6777,-0.0781,-11.77,18.66,-15.00
859,133624789,0.6826,-0.6709,-0.0757,-11.65,18.84,-14.70
860,133629786,0.6816,-0.6689,-0.0767,-11.59,18.84,-14.21
861,133634787,0.6851,-0.6709,-0.0718,-11.28,18.96,-13.90
862,133639786,0.6860,-0.6685,-0.0713,-11.34,19.15,-13.48
863,133644787,0.6895,-0.6675,-0.0625,-11.04,19.21,-13.11
864,133649786,0.6934,-0.6709,-0.0635,-10.73,19.39,-12.68
865,133654932,0.6987,-0.6685,-0.0640,-10.24,19.33,-12.32
866,133659787,0.6987,-0.6719,-0.0630,-9.76,19.39,-11.71
867,133664786,0.7007,-0.6724,-0.0645,-9.02,19.39,-11.28
868,133669789,0.7021,-0.6729,-0.0698,-8.41,19.45,-10.85
869,133674787,0.7070,-0.6709,-0.0630,-7.93,19.39,-10.30
870,133679787,0.7041,-0.6704,-0.0649,-7.44,19.39,-9.94
871,133684785,0.7075,-0.6675,-0.0610,-7.13,19.15,-9.39
872,133689787,0.6997,-0.6650,-0.0527,-6.83,19.21,-9.09
873,133694787,0.7002,-0.6631,-0.0571,-6.46,19.09,-8.60
874,133699787,0.7021,-0.6670,-0.0498,-6.34,18.84,-8.17
875,133704786,0.7090,-0.6689,-0.0552,-6.16,18.72,-7.93
876,133709787,0.7080,-0.6685,-0.0498,-5.91,18.48,-7.38
877,133714787,0.7080,-0.6670,-0.0532,-5.91,18.29,-7.01
878,133719787,0.7129,-0.6680,-0.0508,-5.73,17.87,-6.83
879,133725009,0.7119,-0.6709,-0.0483,-5.49,17.74,-6.34
880,133729787,0.7104,-0.6660,-0.0483,-5.43,17.44,-6.04
881,133734787,0.7056,-0.6611,-0.0488,-5.30,17.13,-5.79
882,133739787,0.7041,-0.6646,-0.0498,-5.12,16.83,-5.49
883,133744786,0.7017,-0.6592,-0.0483,-5.06,16.52,-5.37
884,133749787,0.6997,-0.6606,-0.0420,-4.70,16.10,-5.18
885,133754787,0.6982,-0.6626,-0.0444,-4.70,15.73,-5.00
886,133759787,0.7007,-0.6621,-0.0459,-4.45,15.12,-4.88
887,133764786,0.7002,-0.6577,-0.0439,-4.15,14.88,-4.70
888,133769788,0.7012,-0.6577,-0.0488,-3.84,14.33,-4.63
889,133774787,0.7017,-0.6611,-0.0488,-3.48,13.78,-4.39
890,133779787,0.7036,-0.6606,-0.0454,-3.29,13.35,-4.27
891,133784785,0.7046,-0.6587,-0.0405,-2.80,12.68,-4.15
892,133789787,0.7036,-0.6621,-0.0435,-2.62,12.13,-4.02
893,133794787,0.7070,-0.6587,-0.0498,-2.44,11.65,-3.84
894,133799787,0.7070,-0.6650,-0.0449,-2.38,11.28,-3.66
895,133804860,0.7070,-0.6587,-0.0464,-2.26,10.67,-3.48
896,133809787,0.7095,-0.6543,-0.0503,-2.13,10.12,-3.41
897,133814787,0.7119,-0.6562,-0.0493,-2.26,9.63,-3.48
898,133819787,0.7139,-0.6543,-0.0498,-2.26,9.15,-3.29
899,133824785,0.7134,-0.6582,-0.0513,-2.26,8.66,-3.17
900,133830017,0.7148,-0.6572,-0.0522,-2.38,8.11,-3.17
901,133834787,0.7114,-0.6533,-0.0439,-2.50,7.50,-2.99
902,133839786,0.7139,-0.6514,-0.0586,-2.50,7.38,-2.87
903,133844787,0.7153,-0.6509,-0.0518,-2.56,6.65,-2.80
904,133849786,0.7178,-0.6519,-0.0542,-2.74,6.16,-2.80
905,133854787,0.7163,-0.6528,-0.0581,-2.68,5.73,-2.62
906,133859787,0.7153,-0.6572,-0.0581,-2.68,5.43,-2.56
907,133864787,0.7197,-0.6538,-0.0620,-2.87,4.88,-2.44
908,133869786,0.7231,-0.6538,-0.0664,-3.17,4.63,-2.32
909,133874788,0.7266,-0.6582,-0.0688,-3.41,4.21,-2.20
910,133879785,0.7197,-0.6714,-0.0845,-3.78,3.78,-1.89
911,133884785,0.7144,-0.6763,-0.0898,-4.27,3.35,-1.59
912,133889786,0.7236,-0.6694,-0.0815,-4.70,2.87,-1.28
913,133894787,0.7275,-0.6670,-0.0757,-5.12,2.38,-0.91
914,133899786,0.7275,-0.6499,-0.0757,-5.24,2.26,-0.73
915,133904787,0.7305,-0.6514,-0.0737,-5.49,2.01,-0.43
916,133909786,0.7295,-0.6577,-0.0737,-5.73,1.83,-0.24
917,133914787,0.7246,-0.6567,-0.0762,-5.67,1.65,0.12
918,133919785,0.7236,-0.6504,-0.0747,-5.67,1.59,0.49
919,133924785,0.7231,-0.6558,-0.0796,-5.30,1.40,0.73
920,133929786,0.7222,-0.6533,-0.0728,-4.82,1.34,1.04
921,133934787,0.7192,-0.6533,-0.0781,-4.15,1.10,1.40
922,133939786,0.7173,-0.6509,-0.0796,-3.41,1.16,1.65
923,133944787,0.7173,-0.6509,-0.0801,-2.68,0.98,2.01
924,133949786,0.7148,-0.6514,-0.0791,-1.89,0.85,2.20
925,133955085,0.7144,-0.6562,-0.0708,-1.10,0.67,2.44
926,133959787,0.7148,-0.6587,-0.0762,-0.37,0.61,2.80
927,133965356,0.7158,-0.6567,-0.0781,0.18,0.37,3.05
928,133969788,0.7192,-0.6602,-0.0708,0.43,0.18,3.23
929,133974785,0.7197,-0.6611,-0.0757,0.61,-0.06,3.41
930,133979788,0.7202,-0.6631,-0.0742,0.49,0.06,3.72
931,133984787,0.7178,-0.6636,-0.0698,0.24,-0.30,3.90
932,133989787,0.7109,-0.6577,-0.0742,-0.06,-0.43,4.09
933,133994786,0.7134,-0.6567,-0.0693,-0.49,-0.49,4.02
934,133999788,0.7100,-0.6553,-0.0767,-1.16,-0.67,4.21
935,134004787,0.7095,-0.6572,-0.0674,-1.52,-0.73,4.21
936,134009787,0.7065,-0.6558,-0.0669,-2.13,-0.85,4.33
937,134014786,0.7075,-0.6582,-0.0693,-2.50,-0.98,4.39
938,134019787,0.7070,-0.6567,-0.0713,-2.87,-1.16,4.45
939,134024786,0.7065,-0.6582,-0.0718,-3.17,-1.22,4.70
940,134029785,0.7070,-0.6582,-0.0747,-3.11,-1.28,4.63
941,134034788,0.7095,-0.6587,-0.0679,-3.11,-1.52,4.82
942,134039787,0.7051,-0.6611,-0.0674,-2.87,-1.59,4.88
943,134044787,0.7085,-0.6660,-0.0684,-2.68,-1.65,4.94
944,134049787,0.7085,-0.6616,-0.0688,-2.44,-1.71,5.06
945,134054786,0.7065,-0.6616,-0.0664,-2.07,-1.77,5.18
946,134059787,0.7046,-0.6606,-0.0664,-1.52,-1.77,5.12
947,134064787,0.7109,-0.6621,-0.0669,-1.10,-1.77,5.12
948,134069787,0.7080,-0.6660,-0.0649,-0.43,-1.83,5.24
949,134074786,0.7051,-0.6616,-0.0630,0.06,-1.83,5.30
950,134079787,0.7026,-0.6641,-0.0649,0.43,-2.01,5.24
951,134084800,0.7012,-0.6631,-0.0654,1.04,-2.07,5.24
952,134089787,0.7021,-0.6592,-0.0649,1.46,-2.26,5.24
953,134094785,0.7021,-0.6597,-0.0713,2.01,-2.38,5.06
954,134099787,0.7021,-0.6621,-0.0659,2.26,-2.32,5.00
955,134104787,0.7026,-0.6616,-0.0635,2.44,-2.50,4.94
956,134109787,0.7041,-0.6626,-0.0645,2.74,-2.44,5.00
957,134114789,0.7051,-0.6621,-0.0669,2.62,-2.56,4.88
958,134119787,0.7046,-0.6611,-0.0669,2.80,-2.62,4.94
959,134124786,0.7061,-0.6621,-0.0640,2.80,-2.80,4.76
960,134129785,0.7051,-0.6646,-0.0620,2.99,-2.87,4.70
961,134134806,0.7041,-0.6641,-0.0654,2.74,-3.05,4.70
962,134139787,0.7056,-0.6621,-0.0566,2.80,-2.93,4.57
963,134144787,0.7095,-0.6641,-0.0630,2.74,-3.11,4.39
964,134149787,0.7061,-0.6670,-0.0635,2.99,-3.05,4.33
965,134154786,0.7095,-0.6650,-0.0669,2.87,-3.23,4.27
966,134159787,0.7124,-0.6670,-0.0728,2.99,-3.35,4.15
967,134164787,0.7124,-0.6699,-0.0688,3.29,-3.41,4.02
968,134169788,0.7139,-0.6650,-0.0684,3.48,-3.41,3.96
969,134174785,0.7148,-0.6685,-0.0679,3.90,-3.54,3.84
970,134179786,0.7168,-0.6689,-0.0664,4.33,-3.41,3.78
971,134184788,0.7168,-0.6709,-0.0679,4.63,-3.66,3.60
972,134189785,0.7144,-0.6694,-0.0674,5.00,-3.72,3.54
973,134194962,0.7163,-0.6753,-0.0737,5.37,-3.78,3.48
974,134199900,0.7197,-0.6733,-0.0684,5.67,-3.84,3.41
975,134204787,0.7173,-0.6772,-0.0737,5.98,-3.90,3.29
976,134209787,0.7178,-0.6772,-0.0747,6.28,-3.84,3.17
977,134214786,0.7178,-0.6748,-0.0786,6.22,-3.90,2.99
978,134219787,0.7178,-0.6748,-0.0752,6.28,-3.84,2.93
979,134224787,0.7173,-0.6768,-0.0767,6.34,-4.02,2.68
980,134229787,0.7192,-0.6797,-0.0752,6.34,-4.02,2.56
981,134234785,0.7178,-0.6797,-0.0781,6.28,-4.02,2.44
982,134239789,0.7197,-0.6743,-0.0796,6.16,-4.09,2.26
983,134244786,0.7207,-0.6797,-0.0767,6.10,-4.02,2.20
984,134249787,0.7168,-0.6792,-0.0830,6.04,-4.33,1.83
985,134254791,0.7173,-0.6831,-0.0796,6.04,-4.21,1.71
986,134259787,0.7158,-0.6797,-0.0806,6.04,-4.15,1.52
987,134264787,0.7188,-0.6836,-0.0903,6.04,-4.33,1.34
988,134269788,0.7163,-0.6821,-0.0864,6.22,-4.33,1.28
989,134274786,0.7217,-0.6777,-0.0928,6.04,-4.33,0.98
990,134279787,0.7207,-0.6782,-0.0898,6.04,-4.51,0.85
991,134284787,0.7231,-0.6758,-0.0889,5.98,-4.63,0.49
992,134289882,0.7275,-0.6787,-0.0952,5.98,-4.57,0.43
993,134294786,0.7290,-0.6831,-0.0884,5.91,-4.63,0.12
994,134299788,0.7329,-0.6826,-0.0918,5.79,-4.57,-0.06
995,134304787,0.7358,-0.6855,-0.0913,5.73,-4.70,-0.18
996,134309787,0.7373,-0.6885,-0.0938,5.79,-4.63,-0.37
997,134314785,0.7437,-0.6890,-0.0903,5.49,-4.51,-0.49
998,134319787,0.7427,-0.6924,-0.0972,5.49,-4.70,-0.67
999,134324787,0.7432,-0.6934,-0.1001,5.37,-4.82,-0.79
1000,134329787,0.7417,-0.6948,-0.1001,5.24,-4.82,-0.85
1001,134334785,0.7422,-0.6953,-0.1001,5.00,-4.94,-0.98
1002,134339847,0.7397,-0.6997,-0.1025,4.57,-4.82,-1.16
1003,134344788,0.7393,-0.7036,-0.0972,4.39,-5.00,-1.28
1004,134349785,0.7397,-0.7002,-0.0952,3.90,-5.06,-1.46
1005,134354785,0.7373,-0.7041,-0.0933,3.41,-5.12,-1.59
1006,134359787,0.7295,-0.7041,-0.0957,2.68,-5.30,-1.95
1007,134364787,0.7275,-0.7041,-0.0864,1.89,-5.30,-1.95
1008,134369787,0.7212,-0.7046,-0.0825,1.10,-5.61,-2.20
1009,134374786,0.7192,-0.7021,-0.0835,-0.06,-5.79,-2.38
1010,134379787,0.7163,-0.7056,-0.0771,-1.10,-5.91,-2.74
1011,134384787,0.7148,-0.7051,-0.0698,-2.32,-5.98,-2.87
1012,134389786,0.7129,-0.7051,-0.0659,-3.78,-6.28,-3.17
1013,134395289,0.7051,-0.6992,-0.0703,-5.49,-6.34,-3.35
1014,134399787,0.7046,-0.7012,-0.0601,-6.59,-6.46,-3.54
1015,134404786,0.7026,-0.6992,-0.0586,-8.05,-6.40,-3.90
1016,134409787,0.7021,-0.7031,-0.0552,-9.45,-6.71,-4.15
1017,134414787,0.7046,-0.7012,-0.0552,-10.79,-6.89,-4.33
1018,134419787,0.7017,-0.6982,-0.0562,-12.26,-6.95,-4.39
1019,134424786,0.6968,-0.6929,-0.0586,-13.60,-6.89,-4.63
1020,134429787,0.6997,-0.6968,-0.0542,-14.94,-6.95,-4.76
1021,134434786,0.6992,-0.6904,-0.0503,-16.16,-7.01,-4.88
1022,134439785,0.6968,-0.6885,-0.0469,-17.50,-7.01,-4.94
1023,134444789,0.7007,-0.6812,-0.0513,-18.96,-7.01,-5.00
1024,134449786,0.7129,-0.6821,-0.0483,-20.24,-6.77,-5.00
1025,134454787,0.7158,-0.6787,-0.0513,-21.52,-6.59,-5.00
1026,134459786,0.7178,-0.6753,-0.0527,-23.05,-6.52,-4.88
1027,134464787,0.7212,-0.6729,-0.0464,-24.33,-6.28,-4.76
1028,134469786,0.7271,-0.6626,-0.0498,-25.79,-6.04,-4.51
1029,134474787,0.7275,-0.6602,-0.0449,-27.26,-5.79,-4.45
1030,134479786,0.7300,-0.6592,-0.0483,-28.72,-5.30,-4.15
1031,134484785,0.7324,-0.6533,-0.0454,-30.30,-4.70,-3.72
1032,134489787,0.7344,-0.6440,-0.0405,-31.16,-4.45,-3.60
1033,134494787,0.7314,-0.6426,-0.0439,-32.44,-3.96,-3.23
1034,134499787,0.7310,-0.6362,-0.0474,-33.54,-3.29,-2.93
1035,134504785,0.7314,-0.6304,-0.0391,-34.33,-2.80,-2.50
1036,134509787,0.7300,-0.6240,-0.0488,-35.24,-2.26,-2.20
1037,134514787,0.7300,-0.6216,-0.0444,-36.10,-1.65,-1.71
1038,134519787,0.7266,-0.6172,-0.0522,-36.83,-1.04,-1.40
1039,134524785,0.7280,-0.6172,-0.0527,-37.62,-0.43,-1.04
1040,134529787,0.7285,-0.6147,-0.0542,-38.48,0.18,-0.67
1041,134534789,0.7290,-0.6099,-0.0566,-39.39,0.67,-0.12
1042,134539788,0.7300,-0.6035,-0.0566,-40.49,1.46,0.18
1043,134544787,0.7329,-0.6074,-0.0513,-41.71,1.95,0.67
1044,134549786,0.7334,-0.6035,-0.0498,-43.17,2.62,1.22
1045,134554787,0.7363,-0.5977,-0.0479,-44.82,3.11,1.59
1046,134559786,0.7432,-0.5928,-0.0518,-46.52,3.84,2.01
1047,134564787,0.7446,-0.5972,-0.0469,-48.41,4.57,2.50
1048,134569786,0.7480,-0.5933,-0.0400,-50.37,5.12,2.99
1049,134574787,0.7563,-0.5894,-0.0381,-52.56,6.04,3.54
1050,134579786,0.7559,-0.5869,-0.0381,-54.45,6.77,3.84
1051,134584787,0.7603,-0.5908,-0.0312,-56.34,7.56,4.33
1052,134589786,0.7563,-0.5894,-0.0283,-58.11,8.29,4.70
1053,134594788,0.7593,-0.5864,-0.0322,-59.76,9.02,5.24
1054,134599785,0.7534,-0.5903,-0.0269,-61.16,9.88,5.73
1055,134604786,0.7520,-0.5884,-0.0244,-62.01,10.61,6.04
1056,134609787,0.7524,-0.5811,-0.0259,-62.74,11.34,6.34
1057,134614787,0.7432,-0.5806,-0.0298,-63.11,12.01,6.83
1058,134619786,0.7432,-0.5835,-0.0347,-62.93,12.62,7.07
1059,134624787,0.7393,-0.5815,-0.0308,-62.62,13.29,7.38
1060,134629786,0.7368,-0.5845,-0.0298,-61.95,14.02,7.62
1061,134634787,0.7344,-0.5835,-0.0215,-61.10,14.57,7.80
1062,134639785,0.7363,-0.5908,-0.0308,-60.06,15.12,8.05
1063,134644786,0.7344,-0.5942,-0.0264,-58.90,15.55,8.23
1064,134649787,0.7344,-0.6016,-0.0229,-57.68,15.98,8.35
1065,134654788,0.7324,-0.6055,-0.0229,-56.40,16.34,8.54
1066,134659787,0.7334,-0.6094,-0.0142,-55.18,16.83,8.72
1067,134664786,0.7373,-0.6143,-0.0093,-53.96,16.89,8.78
1068,134669788,0.7354,-0.6172,0.0010,-52.99,17.13,8.84
1069,134674787,0.7349,-0.6201,-0.0015,-52.07,17.38,8.90
1070,134679788,0.7339,-0.6226,0.0039,-51.04,17.50,9.15
1071,134684786,0.7373,-0.6221,0.0054,-50.43,17.50,9.09
1072,134689788,0.7349,-0.6240,0.0024,-49.70,17.26,9.33
1073,134694787,0.7368,-0.6284,0.0015,-48.96,17.20,9.21
1074,134699787,0.7354,-0.6279,0.0059,-48.29,17.01,9.33
1075,134704785,0.7334,-0.6367,0.0107,-47.87,16.59,9.33
1076,134709789,0.7349,-0.6323,0.0068,-47.44,16.28,9.27
1077,134714787,0.7344,-0.6392,-0.0024,-47.07,15.79,9.27
1078,134719787,0.7417,-0.6465,0.0000,-46.89,15.12,9.33
1079,134724786,0.7505,-0.6494,-0.0034,-46.95,14.39,9.51
1080,134729787,0.7568,-0.6602,0.0020,-47.13,13.84,9.39
1081,134734787,0.7646,-0.6611,0.0049,-47.62,13.05,9.57
1082,134739787,0.7778,-0.6670,0.0024,-48.11,12.32,9.57
1083,134744787,0.7827,-0.6758,0.0098,-48.84,11.52,9.57
1084,134749787,0.7920,-0.6763,0.0137,-49.82,10.49,9.70
1085,134754788,0.7944,-0.6812,0.0142,-50.79,9.88,9.82
1086,134759787,0.7964,-0.6855,0.0161,-51.71,9.21,9.82
1087,134764786,0.8022,-0.6865,0.0146,-52.87,8.41,9.82
1088,134769834,0.8047,-0.6895,0.0181,-54.27,7.20,9.94
1089,134774787,0.7983,-0.6909,0.0142,-55.24,6.65,10.06
1090,134779788,0.7935,-0.6860,0.0142,-56.10,5.61,10.18
1091,134784892,0.7793,-0.6831,0.0107,-57.38,4.39,10.18
1092,134789787,0.7754,-0.6821,-0.0020,-58.11,3.60,10.18
1093,134794787,0.7700,-0.6748,-0.0020,-58.96,2.50,10.30
1094,134799787,0.7646,-0.6704,-0.0020,-59.76,1.52,10.12
1095,134804785,0.7563,-0.6675,-0.0054,-60.55,0.24,9.94
1096,134809786,0.7520,-0.6611,-0.0137,-61.10,-0.73,10.06
1097,134814788,0.7544,-0.6528,-0.0088,-61.77,-1.77,10.06
1098,134819789,0.7529,-0.6509,-0.0088,-62.38,-2.74,10.00
1099,134824787,0.7554,-0.6436,-0.0073,-62.80,-3.66,9.94
1100,134829787,0.7607,-0.6455,-0.0117,-63.11,-4.76,10.12
1101,134834786,0.7627,-0.6416,-0.0171,-63.17,-5.61,10.18
1102,134839788,0.7651,-0.6401,-0.0308,-63.11,-6.65,10.30
1103,134844786,0.7612,-0.6348,-0.0386,-62.99,-7.50,10.49
1104,134849785,0.7529,-0.6348,-0.0415,-62.62,-8.54,10.61
1105,134854789,0.7505,-0.6299,-0.0586,-62.07,-9.57,10.91
1106,134859786,0.7451,-0.6250,-0.0776,-61.52,-10.61,11.16
1107,134864787,0.7358,-0.6162,-0.0923,-61.04,-11.71,11.40
1108,134869786,0.7285,-0.6030,-0.0986,-60.55,-12.87,11.65
1109,134874787,0.7251,-0.5947,-0.1064,-60.24,-13.96,11.89
1110,134879787,0.7241,-0.5859,-0.1230,-59.82,-15.12,12.13
1111,134884787,0.7280,-0.5767,-0.1387,-59.63,-16.22,12.44
1112,134889786,0.7217,-0.5708,-0.1489,-59.09,-17.20,12.74
1113,134894804,0.7266,-0.5635,-0.1597,-58.66,-18.11,13.11
1114,134899787,0.7329,-0.5576,-0.1807,-58.23,-19.21,13.60
1115,134904785,0.7358,-0.5503,-0.2002,-57.26,-20.18,14.02
1116,134909789,0.7495,-0.5483,-0.2290,-56.28,-21.34,14.70
1117,134914786,0.7661,-0.5503,-0.2495,-54.76,-22.38,15.30
1118,134919789,0.7417,-0.6016,-0.1997,-52.74,-22.87,16.40
1119,134924786,0.7188,-0.6958,-0.0010,-48.60,-20.79,19.45
1120,134929787,0.8188,-0.5044,-0.2515,-43.23,-17.32,22.68
1121,134934787,0.7993,-0.4185,-0.5254,-37.99,-15.43,24.70
1122,134939787,0.7231,-0.5171,-0.2656,-32.93,-13.84,26.83
1123,134944785,0.6621,-0.5991,-0.2241,-27.56,-11.22,30.18
1124,134949785,0.6890,-0.6255,-0.4800,-22.56,-10.00,34.09
1125,134955140,0.7017,-0.6401,-0.4873,-17.87,-9.09,38.17
1126,134959787,0.7095,-0.6484,-0.3765,-13.66,-7.50,42.44
1127,134964787,0.7261,-0.6470,-0.4565,-10.18,-5.85,46.95
1128,134969789,0.7427,-0.6597,-0.5508,-7.74,-5.49,51.52
1129,134974787,0.7646,-0.6602,-0.5015,-6.46,-5.30,55.79
1130,134979787,0.8193,-0.6631,-0.4482,-6.04,-4.94,59.94
1131,134984787,0.8418,-0.6816,-0.4868,-6.59,-4.94,63.90
1132,134989787,0.8472,-0.6846,-0.5083,-7.56,-5.67,67.56
1133,134994787,0.8643,-0.6694,-0.4727,-9.02,-5.91,70.73
1134,134999787,0.8594,-0.6514,-0.4497,-10.85,-6.40,73.54
1135,135004787,0.8423,-0.6465,-0.4937,-12.68,-7.32,76.04
1136,135009785,0.8286,-0.6362,-0.5186,-14.76,-8.48,78.29
1137,135014787,0.8184,-0.6191,-0.5103,-16.77,-9.57,80.30
1138,135019787,0.7915,-0.3071,-0.5083,-19.39,-10.79,80.98
1139,135024787,0.7720,-0.5151,-0.4238,-23.54,-11.83,77.93
1140,135029788,0.7578,-0.4858,-0.3892,-26.52,-12.13,76.28
1141,135034787,0.7881,-0.4473,-0.4556,-28.90,-12.74,74.02
1142,135039788,0.8066,-0.3984,-0.4902,-29.94,-13.66,71.46
1143,135044787,0.7852,-0.3901,-0.4863,-30.24,-14.76,68.60
1144,135049788,0.7529,-0.4033,-0.4751,-29.76,-15.49,65.49
1145,135054785,0.7344,-0.4111,-0.4736,-28.35,-16.16,62.13
1146,135059789,0.7168,-0.4209,-0.4995,-25.98,-16.65,58.96
1147,135064787,0.6992,-0.4209,-0.5098,-22.32,-17.13,55.61
1148,135069787,0.6660,-0.4175,-0.5332,-17.62,-17.68,52.80
1149,135074787,0.6279,-0.4214,-0.5718,-11.83,-18.54,49.88
1150,135079787,0.5869,-0.4604,-0.6006,-5.18,-19.39,47.32
1151,135084790,0.5635,-0.4980,-0.6226,2.56,-20.73,45.61
1152,135089788,0.5659,-0.5347,-0.6426,11.16,-22.13,44.51
1153,135094787,0.5938,-0.5439,-0.6646,20.00,-23.78,44.21
1154,135099788,0.6089,-0.5439,-0.6748,28.78,-25.18,44.33
1155,135104787,0.6074,-0.5732,-0.6538,37.13,-26.65,44.82
1156,135109787,0.5869,-0.6094,-0.5000,45.55,-26.10,46.52
1157,135114787,0.5469,-0.5562,-0.4438,54.27,-23.11,48.84
1158,135119787,0.5215,-0.4351,-0.5737,62.50,-18.41,51.34
1159,135124786,0.4702,-0.3994,-0.6274,69.21,-13.72,53.48
1160,135129789,0.3896,-0.3989,-0.6587,74.57,-8.96,55.43
1161,135134785,0.2964,-0.3931,-0.7197,78.84,-4.63,56.95
1162,135139787,0.2246,-0.4004,-0.7412,82.13,-1.95,57.80
1163,135144786,0.2163,-0.4468,-0.7505,84.57,-0.18,57.68
1164,135149787,0.2583,-0.5400,-0.7114,86.46,0.98,57.68
1165,135154787,0.2988,-0.5859,-0.6929,87.62,2.13,58.05
1166,135159786,0.3438,-0.5806,-0.6885,88.35,3.23,58.23
1167,135164787,0.3784,-0.5771,-0.6621,88.35,4.39,57.93
1168,135169786,0.4014,-0.5854,-0.6406,87.38,5.85,57.20
1169,135174785,0.4199,-0.6162,-0.6299,85.79,7.26,56.34
1170,135180094,0.4380,-0.6562,-0.6240,83.54,8.66,55.37
1171,135184787,0.4478,-0.7080,-0.6152,80.67,9.09,54.63
1172,135189785,0.4546,-0.7432,-0.6279,77.44,9.82,54.27
1173,135194789,0.4570,-0.7749,-0.6323,73.48,10.18,54.21
1174,135199788,0.4688,-0.8047,-0.6455,68.78,10.30,54.88
1175,135204787,0.4761,-0.8110,-0.6421,63.29,10.43,55.79
1176,135209787,0.4849,-0.7979,-0.6436,57.20,10.49,57.01
1177,135214787,0.4844,-0.7842,-0.6494,50.24,10.98,58.17
1178,135219787,0.5322,-0.7700,-0.6836,43.41,11.46,59.02
1179,135224787,0.4805,-0.7524,-0.6455,37.56,12.32,59.63
1180,135229787,0.4180,-0.7681,-0.5811,31.95,13.84,60.12
1181,135234787,0.3696,-0.7578,-0.5820,26.59,15.18,59.94
1182,135239787,0.3398,-0.7344,-0.5781,21.04,16.34,59.70
1183,135244786,0.3369,-0.7065,-0.5552,15.12,17.68,58.96
1184,135249787,0.3325,-0.6919,-0.5342,8.78,18.96,58.05
1185,135254785,0.3228,-0.6968,-0.5435,2.44,20.49,56.65
1186,135259787,0.3086,-0.7041,-0.5361,-3.96,21.77,55.43
1187,135264787,0.2935,-0.7129,-0.5234,-9.76,23.23,53.90
1188,135269786,0.2886,-0.7173,-0.5073,-14.15,24.45,52.68
1189,135274787,0.2905,-0.7144,-0.5015,-19.21,25.91,51.10
1190,135279856,0.3242,-0.7285,-0.4985,-24.45,27.80,48.96
1191,135284963,0.3262,-0.7144,-0.5376,-27.99,28.96,47.01
1192,135289787,0.3120,-0.7432,-0.4941,-29.70,30.06,45.49
1193,135294786,0.2524,-0.7798,-0.4277,-31.28,31.77,43.54
1194,135299787,0.2402,-0.7837,-0.4390,-32.80,33.17,41.65
1195,135304935,0.2549,-0.7788,-0.4580,-34.45,35.12,39.15
1196,135309787,0.2593,-0.7681,-0.4536,-35.73,36.10,37.07
1197,135314786,0.2373,-0.7661,-0.4673,-37.20,37.74,34.57
1198,135319785,0.2578,-0.7764,-0.4858,-38.29,39.27,32.07
1199,135324787,0.2109,-0.8066,-0.4263,-38.23,41.46,29.21
1200,135329787,0.2026,-0.8042,-0.4102,-37.80,43.29,27.50
1201,135334786,0.2305,-0.7847,-0.4248,-36.46,45.49,25.24
1202,135339862,0.2222,-0.7666,-0.4165,-33.66,47.93,22.26
1203,135344786,0.2271,-0.7817,-0.4204,-31.28,49.33,20.30
1204,135349787,0.2114,-0.7495,-0.4521,-27.62,51.22,17.99
1205,135354786,0.2041,-0.7510,-0.4365,-22.50,52.74,15.55
1206,135359787,0.2124,-0.7832,-0.4102,-16.52,54.33,13.54
1207,135364788,0.2310,-0.7808,-0.4121,-9.94,55.61,11.46
1208,135369787,0.2632,-0.7759,-0.4146,-2.56,56.89,9.51
1209,135374786,0.2993,-0.7739,-0.4111,5.00,57.99,7.74
1210,135379787,0.3208,-0.7812,-0.4126,12.74,59.27,5.98
1211,135384786,0.3335,-0.7979,-0.4219,20.43,60.43,4.51
1212,135389789,0.3486,-0.8013,-0.4185,27.80,61.46,3.29
1213,135394786,0.3638,-0.8042,-0.4165,34.82,62.68,2.13
1214,135399787,0.3760,-0.7993,-0.4175,41.46,64.09,0.79
1215,135404786,0.3892,-0.7876,-0.4292,47.20,65.67,-0.37
1216,135409787,0.4004,-0.7998,-0.4292,52.44,67.26,-1.40
1217,135414787,0.4219,-0.8208,-0.4243,56.83,68.90,-2.07
1218,135419787,0.4487,-0.8174,-0.4272,60.61,70.49,-2.50
1219,135424832,0.4775,-0.8174,-0.4224,63.72,72.13,-2.74
1220,135429786,0.5249,-0.8271,-0.4131,65.98,73.54,-2.68
1221,135434789,0.5522,-0.8301,-0.4341,67.80,74.88,-2.50
1222,135439786,0.5405,-0.8257,-0.4009,69.27,76.28,-2.13
1223,135444787,0.5439,-0.8340,-0.4014,69.88,77.80,-1.65
1224,135449787,0.5342,-0.8315,-0.4321,69.51,79.09,-0.91
1225,135454787,0.5449,-0.8330,-0.4097,68.35,80.30,-0.24
1226,135459785,0.5571,-0.8335,-0.3633,66.71,82.62,0.30
1227,135464972,0.5610,-0.8398,-0.3530,64.70,84.57,1.04
1228,135469787,0.5552,-0.8418,-0.3525,62.62,86.10,1.65
1229,135474787,0.5386,-0.8408,-0.3359,60.79,85.91,2.20
1230,135479787,0.5308,-0.8398,-0.3364,59.02,85.98,2.68
1231,135484785,0.5190,-0.8433,-0.3418,57.93,88.29,2.99
1232,135489789,0.5073,-0.8428,-0.3369,57.32,89.27,3.29
1233,135494787,0.4937,-0.8438,-0.3237,56.77,90.00,3.29
1234,135499788,0.4731,-0.8403,-0.3271,56.46,90.73,3.17
1235,135504785,0.4561,-0.8384,-0.3130,55.79,91.46,2.99
1236,135509789,0.4473,-0.8364,-0.3076,55.00,91.95,2.62
1237,135514786,0.4346,-0.8369,-0.2979,53.78,92.38,2.01
1238,135519787,0.4287,-0.8408,-0.2856,52.01,93.17,1.22
1239,135524786,0.4263,-0.8486,-0.2705,49.88,93.72,0.49
1240,135529787,0.4287,-0.8389,-0.2617,47.32,94.21,-0.24
1241,135534787,0.4180,-0.8398,-0.2407,44.57,94.76,-1.34
1242,135539787,0.4131,-0.8467,-0.2183,41.34,95.30,-2.50
1243,135544787,0.4033,-0.8472,-0.2095,37.68,96.16,-3.84
1244,135549787,0.3994,-0.8516,-0.1938,34.09,96.71,-5.06
1245,135554787,0.3970,-0.8574,-0.1748,30.06,97.26,-6.52
1246,135559786,0.3921,-0.8545,-0.1558,26.04,97.93,-7.99
1247,135564785,0.3857,-0.8501,-0.1411,22.13,98.41,-9.39
1248,135569791,0.3804,-0.8433,-0.1157,18.23,98.72,-10.73
1249,135574786,0.3696,-0.8281,-0.1016,14.27,98.96,-12.13
1250,135579787,0.3442,-0.8062,-0.1064,10.30,99.09,-13.41
1251,135584787,0.3350,-0.8013,-0.1055,5.37,99.27,-14.45
1252,135589789,0.3364,-0.7954,-0.0815,-0.24,99.39,-15.30
1253,135594824,0.3403,-0.7964,-0.0815,-6.52,99.51,-16.16
1254,135599787,0.3467,-0.8101,-0.0693,-13.23,99.57,-16.71
1255,135604787,0.3618,-0.8110,-0.0679,-20.37,99.82,-17.20
1256,135609787,0.3745,-0.8237,-0.0620,-27.87,100.24,-17.68
1257,135614785,0.3789,-0.8433,-0.0645,-35.43,100.61,-17.99
1258,135619786,0.3857,-0.8540,-0.0562,-42.99,101.10,-18.17
1259,135624785,0.3965,-0.8652,-0.0454,-50.24,101.71,-18.48
1260,135629785,0.4033,-0.8833,-0.0488,-56.83,102.50,-18.60
1261,135634786,0.4097,-0.8857,-0.0454,-62.62,103.29,-18.54
1262,135639787,0.3936,-0.9111,-0.1021,-67.87,103.72,-18.72
1263,135644785,0.3857,-0.9023,-0.0322,-72.38,104.21,-18.84
1264,135649787,0.3931,-0.9150,-0.0396,-76.28,104.82,-18.84
1265,135654786,0.3882,-0.9146,-0.0630,-79.76,105.18,-18.90
1266,135659787,0.3848,-0.9165,-0.0396,-83.17,105.55,-19.02
1267,135664785,0.3848,-0.9297,-0.0244,-86.34,106.34,-19.09
1268,135669785,0.3823,-0.9336,-0.0303,-89.09,106.89,-19.27
1269,135674787,0.3833,-0.9336,-0.0254,-91.89,107.38,-19.39
1270,135679786,0.3799,-0.9355,-0.0127,-94.15,108.05,-19.57
1271,135684787,0.3789,-0.9365,-0.0059,-96.04,108.72,-19.63
1272,135689787,0.3755,-0.9316,-0.0103,-97.26,109.33,-19.76
1273,135694785,0.3794,-0.9321,-0.0034,-97.80,109.70,-19.82
1274,135700106,0.3813,-0.9277,0.0024,-97.62,110.30,-19.88
1275,135704787,0.3813,-0.9321,0.0127,-96.89,110.73,-19.94
1276,135709786,0.3779,-0.9253,0.0166,-95.43,111.22,-19.94
1277,135714788,0.3750,-0.9189,0.0166,-93.54,111.46,-20.00
1278,135719787,0.3804,-0.9155,0.0312,-91.22,111.77,-19.88
1279,135724785,0.3867,-0.9038,0.0464,-88.72,112.01,-19.82
1280,135729785,0.3989,-0.9004,0.0615,-85.91,112.13,-19.82
1281,135735034,0.4033,-0.8911,0.0659,-82.99,112.32,-19.76
1282,135739787,0.4067,-0.8730,0.0596,-80.06,112.32,-19.57
1283,135744787,0.3945,-0.8682,0.0781,-77.44,112.01,-19.51
1284,135749787,0.4028,-0.8594,0.1001,-75.55,111.83,-19.45
1285,135754786,0.4185,-0.8359,0.1226,-74.09,111.77,-19.15
1286,135759787,0.4414,-0.8242,0.1250,-73.23,111.89,-19.02
1287,135764787,0.4561,-0.8154,0.1323,-72.56,111.71,-18.72
1288,135769786,0.4531,-0.8076,0.1064,-72.13,111.28,-18.17
1289,135774787,0.4678,-0.7749,0.2036,-70.49,110.85,-17.62
1290,135779786,0.5049,-0.7739,0.1729,-69.15,110.61,-16.95
1291,135784787,0.5278,-0.7515,0.1802,-67.56,110.55,-16.16
1292,135789788,0.5435,-0.7417,0.2114,-65.79,110.06,-15.18
1293,135794787,0.5581,-0.7319,0.2046,-64.09,109.57,-14.21
1294,135799787,0.5757,-0.7153,0.2002,-62.56,108.78,-13.05
1295,135804787,0.5942,-0.7021,0.2251,-61.10,107.93,-11.71
1296,135809787,0.6089,-0.6899,0.2354,-59.94,107.07,-10.37
1297,135814787,0.6270,-0.6846,0.2446,-58.72,106.28,-8.84
1298,135819787,0.6382,-0.6753,0.2588,-58.05,105.49,-7.62
1299,135824787,0.6523,-0.6558,0.2690,-57.26,104.21,-5.67
1300,135829787,0.6650,-0.6509,0.2705,-56.77,103.29,-4.27
1301,135834785,0.6704,-0.6357,0.2715,-56.28,101.95,-2.68
1302,135839787,0.6802,-0.6309,0.2861,-55.67,100.91,-1.04
1303,135844787,0.6738,-0.6245,0.2900,-55.00,99.33,0.67
1304,135849786,0.6733,-0.6089,0.2944,-54.33,97.99,2.38
1305,135854785,0.6748,-0.5977,0.2969,-53.60,96.83,3.90
1306,135859787,0.6680,-0.5957,0.3018,-52.62,95.18,5.43
1307,135864787,0.6689,-0.5913,0.3071,-51.71,93.66,6.95
1308,135869786,0.6646,-0.5806,0.3037,-50.85,92.13,8.48
1309,135874786,0.6484,-0.5366,0.3120,-50.24,90.49,9.70
1310,135879789,0.6309,-0.5674,0.2930,-50.79,89.02,10.85
1311,135884918,0.6299,-0.5801,0.3066,-52.44,87.74,12.62
1312,135889787,0.6528,-0.5581,0.3037,-53.23,85.61,13.90
1313,135894786,0.6758,-0.5435,0.3086,-54.09,85.24,15.06
1314,135899881,0.6680,-0.5425,0.3120,-55.06,84.02,16.16
1315,135905144,0.6519,-0.5415,0.3169,-55.49,81.77,17.44
1316,135909881,0.6392,-0.5439,0.3154,-55.67,80.73,18.23
1317,135914786,0.6284,-0.5415,0.3130,-55.43,79.21,19.02
1318,135919789,0.6191,-0.5459,0.3130,-54.70,77.99,19.94
1319,135924786,0.6304,-0.5508,0.3174,-53.54,76.65,20.79
1320,135929787,0.6377,-0.5522,0.3105,-51.77,75.30,21.83
1321,135934785,0.6538,-0.5635,0.3184,-49.63,74.09,22.68
1322,135939787,0.6714,-0.5698,0.3247,-47.26,72.87,23.60
1323,135944787,0.6851,-0.5776,0.3262,-44.57,72.07,24.45
1324,135949789,0.6904,-0.5854,0.3296,-41.89,70.98,25.43
1325,135954786,0.6885,-0.5933,0.3281,-38.96,69.94,26.34
1326,135959789,0.6860,-0.5967,0.3315,-36.04,69.27,27.26
1327,135964925,0.6885,-0.6025,0.3262,-33.11,68.60,27.93
1328,135969787,0.6914,-0.6196,0.3330,-30.24,67.80,28.66
1329,135974785,0.7007,-0.6304,0.3379,-27.38,67.20,29.39
1330,135979786,0.7148,-0.6401,0.3374,-24.88,66.46,30.12
1331,135984789,0.7227,-0.6436,0.3408,-22.50,65.98,30.61
1332,135989787,0.7241,-0.6523,0.3462,-20.43,65.43,31.16
1333,135994787,0.7368,-0.6582,0.3486,-18.66,64.88,31.77
1334,135999786,0.7461,-0.6636,0.3560,-17.44,64.27,32.13
1335,136004787,0.7520,-0.6748,0.3564,-16.46,63.84,32.68
1336,136009787,0.7588,-0.6821,0.3604,-15.79,63.29,33.05
1337,136014785,0.7612,-0.6865,0.3652,-15.55,62.68,33.48
1338,136019785,0.7573,-0.6948,0.3687,-15.67,62.32,33.78
1339,136024787,0.7607,-0.7031,0.3696,-16.04,61.83,34.02
1340,136029787,0.7617,-0.7114,0.3691,-16.52,61.40,34.02
1341,136034786,0.7627,-0.7192,0.3730,-17.07,60.79,34.09
1342,136039785,0.7593,-0.7275,0.3687,-17.50,60.30,34.27
1343,136044853,0.7544,-0.7324,0.3730,-17.99,59.57,34.33
1344,136049786,0.7461,-0.7378,0.3706,-18.48,58.78,34.27
1345,136054787,0.7446,-0.7456,0.3765,-19.09,58.17,34.15
1346,136059787,0.7373,-0.7529,0.3745,-19.57,57.44,34.09
1347,136064786,0.7285,-0.7578,0.3682,-20.06,56.59,33.90
1348,136069787,0.7173,-0.7642,0.3677,-20.49,55.91,33.66
1349,136074785,0.7095,-0.7710,0.3672,-20.98,55.06,33.41
1350,136080238,0.6997,-0.7739,0.3589,-21.28,54.15,33.17
1351,136084788,0.6821,-0.7754,0.3564,-21.52,53.23,32.62
1352,136089785,0.6748,-0.7754,0.3501,-21.71,52.32,32.13
1353,136094785,0.6689,-0.7773,0.3472,-21.77,51.28,31.46
1354,136099786,0.6602,-0.7739,0.3467,-21.71,50.18,31.04
1355,136104835,0.6543,-0.7788,0.3408,-21.65,49.27,30.30
1356,136109787,0.6445,-0.7744,0.3398,-21.59,48.11,29.76
1357,136114788,0.6396,-0.7778,0.3413,-21.46,47.01,28.96
1358,136119787,0.6309,-0.7793,0.3418,-21.46,45.98,28.11
1359,136124788,0.6299,-0.7812,0.3398,-21.40,45.12,27.50
1360,136129787,0.6230,-0.7793,0.3350,-21.28,44.15,26.59
1361,136135145,0.6226,-0.7788,0.3359,-21.28,43.17,25.85
1362,136139788,0.6187,-0.7798,0.3276,-21.28,42.26,25.06
1363,136144786,0.6299,-0.7812,0.3311,-21.10,41.16,24.39
1364,136149789,0.6333,-0.7798,0.3311,-21.04,40.18,23.60
1365,136154787,0.6396,-0.7793,0.3311,-20.85,39.39,22.99
1366,136159788,0.6436,-0.7803,0.3340,-20.79,38.48,22.50
1367,136164787,0.6514,-0.7803,0.3281,-20.67,37.50,21.95
1368,136169787,0.6572,-0.7754,0.3350,-20.61,36.46,21.34
1369,136174785,0.6626,-0.7759,0.3335,-20.61,35.49,20.85
1370,136179785,0.6631,-0.7773,0.3315,-20.43,34.70,20.37
1371,136184788,0.6689,-0.7695,0.3335,-20.43,33.72,20.00
1372,136189787,0.6748,-0.7700,0.3330,-20.43,32.87,19.70
1373,136194788,0.6763,-0.7637,0.3335,-20.24,31.95,19.21
1374,136199788,0.6816,-0.7651,0.3271,-20.18,30.91,18.96
1375,136204854,0.6851,-0.7612,0.3330,-20.12,30.00,18.66
1376,136209787,0.6870,-0.7656,0.3257,-19.88,29.09,18.54
1377,136214787,0.6890,-0.7603,0.3271,-19.45,28.17,18.48
1378,136219787,0.6938,-0.7603,0.3184,-19.09,27.32,18.29
1379,136224787,0.6953,-0.7632,0.3169,-18.78,26.40,18.23
1380,136229787,0.6929,-0.7612,0.3159,-18.35,25.61,18.11
1381,136234787,0.6895,-0.7622,0.3130,-18.23,24.76,17.99
1382,136239785,0.6934,-0.7627,0.3008,-17.80,24.02,17.99
1383,136244787,0.6880,-0.7676,0.3018,-17.50,23.29,17.93
1384,136249788,0.6851,-0.7676,0.2900,-17.26,22.74,17.80
1385,136254787,0.6777,-0.7686,0.2905,-16.71,22.20,17.68
1386,136259788,0.6753,-0.7734,0.2822,-16.16,21.65,17.87
1387,136264787,0.6685,-0.7769,0.2749,-15.37,21.28,17.93
1388,136269786,0.6606,-0.7749,0.2700,-14.45,20.85,17.74
1389,136274787,0.6548,-0.7778,0.2627,-13.48,20.43,17.74
1390,136279785,0.6489,-0.7817,0.2534,-12.32,20.12,17.74
1391,136285225,0.6499,-0.7866,0.2446,-10.98,19.88,17.68
1392,136289787,0.6416,-0.7910,0.2412,-9.76,19.57,17.68
1393,136294787,0.6396,-0.7974,0.2358,-8.29,19.33,17.74
1394,136299787,0.6348,-0.7939,0.2280,-6.83,19.15,17.93
1395,136304787,0.6284,-0.7983,0.2227,-5.61,18.96,18.05
1396,136309787,0.6250,-0.7998,0.2109,-4.21,18.66,18.05
1397,136314787,0.6177,-0.8003,0.2104,-3.11,18.54,18.23
1398,136319787,0.6123,-0.8018,0.2041,-2.13,18.35,18.41
1399,136324789,0.6108,-0.8042,0.2017,-1.40,18.23,18.60
1400,136329787,0.6089,-0.8037,0.1963,-0.55,18.11,18.66
1401,136334787,0.6035,-0.8052,0.1968,-0.18,17.87,18.78
1402,136339787,0.5986,-0.8052,0.1953,0.30,17.80,19.15
1403,136344786,0.5977,-0.8062,0.1924,0.49,17.44,19.27
1404,136349786,0.5854,-0.8027,0.1885,0.61,17.32,19.51
1405,136354787,0.5850,-0.8091,0.1831,0.73,17.26,19.63
1406,136359789,0.5820,-0.8062,0.1772,0.67,17.07,19.76
1407,136364787,0.5757,-0.8052,0.1738,0.79,16.95,19.82
1408,136369788,0.5703,-0.8062,0.1758,0.85,16.71,20.12
1409,136374801,0.5640,-0.8101,0.1709,0.98,16.40,20.12
1410,136379787,0.5596,-0.8062,0.1699,1.40,16.28,20.24
1411,136384785,0.5547,-0.8071,0.1660,1.71,15.98,20.24
1412,136390108,0.5508,-0.8174,0.1665,2.62,15.79,20.43
1413,136394787,0.5469,-0.8105,0.1626,2.99,15.30,20.49
1414,136399786,0.5356,-0.8115,0.1602,3.72,15.00,20.61
1415,136404787,0.5273,-0.8159,0.1562,4.27,14.51,20.79
1416,136409786,0.5239,-0.8096,0.1553,4.82,14.15,20.61
1417,136414787,0.5186,-0.8110,0.1538,5.37,13.84,20.61
1418,136419786,0.5078,-0.8149,0.1543,5.67,13.35,20.61
1419,136424787,0.5020,-0.8164,0.1504,6.04,12.93,20.43
1420,136429786,0.4990,-0.8184,0.1475,6.16,12.56,20.30
1421,136434788,0.4922,-0.8164,0.1499,6.22,12.07,20.12
1422,136439787,0.4878,-0.8169,0.1479,5.91,11.34,19.94
1423,136444787,0.4868,-0.8188,0.1489,5.49,10.91,19.63
1424,136449785,0.4878,-0.8145,0.1470,5.24,10.67,19.33
1425,136454953,0.4810,-0.8164,0.1514,4.70,9.94,19.09
1426,136459787,0.4795,-0.8159,0.1489,4.39,9.51,18.84
1427,136464787,0.4805,-0.8154,0.1465,3.96,8.72,18.60
1428,136469787,0.4814,-0.8149,0.1406,3.23,8.17,18.41
1429,136474786,0.4912,-0.8198,0.1455,2.87,7.74,18.29
1430,136479787,0.4971,-0.8164,0.1431,2.38,7.01,18.11
1431,136484785,0.4995,-0.8174,0.1367,1.65,6.46,17.99
1432,136489831,0.5034,-0.8184,0.1514,0.98,5.98,17.93
1433,136494786,0.5024,-0.8169,0.1426,0.06,5.49,17.87
1434,136499787,0.5054,-0.8198,0.1470,-0.61,4.88,17.68
1435,136504787,0.5049,-0.8145,0.1455,-1.46,4.45,17.74
1436,136509787,0.5039,-0.8232,0.1445,-2.38,3.84,17.80
1437,136515314,0.5132,-0.8237,0.1528,-3.41,3.35,17.87
1438,136519787,0.5190,-0.8252,0.1543,-4.02,3.05,18.05
1439,136524787,0.5273,-0.8286,0.1548,-4.82,2.62,18.11
1440,136529787,0.5288,-0.8306,0.1484,-5.49,2.13,18.29
1441,136534788,0.5352,-0.8354,0.1582,-6.28,1.77,18.54
1442,136539787,0.5327,-0.8384,0.1611,-7.01,1.71,18.60
1443,136544787,0.5298,-0.8428,0.1611,-7.87,1.34,18.72
1444,136549787,0.5356,-0.8467,0.1577,-8.48,1.22,18.90
1445,136554786,0.5308,-0.8579,0.1582,-8.84,1.04,19.09
1446,136559787,0.5254,-0.8569,0.1587,-9.15,0.91,19.09
1447,136564787,0.5254,-0.8633,0.1699,-9.15,0.85,19.15
1448,136569787,0.5200,-0.8667,0.1611,-8.90,0.85,19.15
1449,136574786,0.5107,-0.8672,0.1562,-8.41,0.91,19.15
1450,136579787,0.5054,-0.8750,0.1626,-7.68,0.73,19.15
1451,136584788,0.5039,-0.8789,0.1528,-6.71,0.73,18.96
1452,136589787,0.4961,-0.8833,0.1602,-5.55,0.79,18.78
1453,136594786,0.4893,-0.8857,0.1631,-4.09,0.79,18.66
1454,136599787,0.4912,-0.8896,0.1597,-2.62,0.73,18.41
1455,136604788,0.4858,-0.8926,0.1582,-1.04,0.91,18.29
1456,136609787,0.4839,-0.8955,0.1577,0.43,0.91,18.05
1457,136614786,0.4751,-0.8979,0.1646,1.83,0.98,17.68
1458,136619787,0.4653,-0.9062,0.1577,3.11,1.04,17.32
1459,136624787,0.4683,-0.9121,0.1553,4.39,1.10,16.95
1460,136629788,0.4634,-0.9185,0.1606,5.49,1.16,16.46
1461,136634786,0.4585,-0.9214,0.1597,6.59,1.28,15.98
1462,136639788,0.4565,-0.9253,0.1602,7.38,1.46,15.37
1463,136644914,0.4541,-0.9316,0.1646,8.23,1.46,14.82
1464,136649785,0.4512,-0.9341,0.1597,8.96,1.52,14.27
1465,136654785,0.4468,-0.9360,0.1602,9.57,1.59,13.60
1466,136659787,0.4468,-0.9380,0.1587,10.18,1.59,12.93
1467,136664787,0.4419,-0.9399,0.1660,10.55,1.83,12.32
1468,136669787,0.4424,-0.9355,0.1670,10.79,1.71,11.59
1469,136674786,0.4419,-0.9414,0.1685,10.73,1.77,11.04
1470,136679788,0.4404,-0.9419,0.1646,10.79,1.77,10.18
1471,136684786,0.4453,-0.9438,0.1660,10.85,1.77,9.70
1472,136689785,0.4487,-0.9385,0.1665,10.73,1.83,9.09
1473,136694786,0.4438,-0.9395,0.1685,10.55,1.77,8.48
1474,136699788,0.4473,-0.9341,0.1729,10.30,1.71,7.93
1475,136704787,0.4492,-0.9341,0.1646,10.12,1.71,7.44
1476,136709787,0.4517,-0.9346,0.1724,9.82,1.77,6.95
1477,136714786,0.4590,-0.9365,0.1719,9.57,1.65,6.59
1478,136719787,0.4561,-0.9380,0.1680,9.33,1.77,6.16
1479,136724787,0.4561,-0.9385,0.1743,9.15,1.65,5.79
1480,136729787,0.4609,-0.9360,0.1689,9.09,1.59,5.37
1481,136734786,0.4604,-0.9370,0.1685,8.72,1.52,5.18
1482,136739788,0.4531,-0.9336,0.1680,8.54,1.34,4.88
1483,136744787,0.4521,-0.9297,0.1680,7.99,1.46,4.63
1484,136749787,0.4531,-0.9341,0.1748,7.50,1.16,4.27
1485,136754785,0.4507,-0.9277,0.1743,6.95,0.91,4.02
1486,136759785,0.4487,-0.9282,0.1694,6.22,0.98,3.78
1487,136764787,0.4507,-0.9258,0.1719,5.73,0.79,3.60
1488,136769786,0.4492,-0.9263,0.1675,5.06,0.67,3.35
1489,136774787,0.4414,-0.9233,0.1738,4.45,0.49,3.23
1490,136779786,0.4404,-0.9204,0.1714,3.96,0.30,2.87
1491,136784787,0.4385,-0.9219,0.1704,3.48,0.12,2.74
1492,136789785,0.4316,-0.9189,0.1689,3.35,0.00,2.56
1493,136794785,0.4346,-0.9180,0.1655,3.17,-0.24,2.32
1494,136799787,0.4336,-0.9199,0.1694,3.29,-0.43,2.13
1495,136804787,0.4336,-0.9141,0.1675,3.23,-0.61,1.89
1496,136809786,0.4297,-0.9155,0.1675,3.23,-0.85,1.77
1497,136815335,0.4268,-0.9141,0.1626,3.35,-1.10,1.65
1498,136819787,0.4233,-0.9180,0.1641,3.41,-1.22,1.40
1499,136824787,0.4233,-0.9199,0.1660,3.41,-1.46,1.28
1500,136829787,0.4224,-0.9199,0.1587,3.23,-1.59,1.10
1501,136834786,0.4224,-0.9170,0.1587,3.29,-1.89,0.98
1502,136839787,0.4204,-0.9189,0.1567,3.41,-1.95,0.79
1503,136844786,0.4204,-0.9204,0.1646,3.41,-2.32,0.73
1504,136849787,0.4224,-0.9219,0.1553,3.54,-2.32,0.55
1505,136854786,0.4229,-0.9238,0.1465,3.54,-2.44,0.37
1506,136859785,0.4185,-0.9209,0.1582,3.41,-2.62,0.37
1507,136864787,0.4229,-0.9224,0.1558,3.60,-2.74,0.24
1508,136869787,0.4219,-0.9224,0.1558,3.41,-2.87,0.24
1509,136874787,0.4219,-0.9180,0.1460,3.60,-2.99,0.24
1510,136879787,0.4268,-0.9146,0.1558,3.54,-3.23,0.12
1511,136884789,0.4219,-0.9165,0.1499,3.48,-3.23,0.12
1512,136889785,0.4253,-0.9175,0.1538,3.29,-3.54,0.06
1513,136894785,0.4214,-0.9150,0.1558,3.17,-3.66,0.24
1514,136899830,0.4238,-0.9155,0.1567,3.11,-3.78,0.24
1515,136904787,0.4248,-0.9116,0.1445,2.80,-3.78,0.37
1516,136909786,0.4219,-0.9141,0.1411,2.68,-3.96,0.24
1517,136914787,0.4219,-0.9146,0.1494,2.38,-4.15,0.30
1518,136919787,0.4219,-0.9141,0.1489,2.26,-4.15,0.30
1519,136924786,0.4204,-0.9116,0.1489,2.20,-4.27,0.49
1520,136929787,0.4175,-0.9072,0.1470,1.71,-4.45,0.43
1521,136934787,0.4204,-0.9062,0.1460,1.71,-4.63,0.49
1522,136939787,0.4199,-0.9092,0.1460,1.40,-4.88,0.43
1523,136944787,0.4219,-0.9038,0.1436,1.22,-4.82,0.49
1524,136949787,0.4180,-0.9058,0.1445,0.98,-5.00,0.49
1525,136954969,0.4229,-0.9077,0.1440,0.79,-5.12,0.55
1526,136959787,0.4224,-0.9014,0.1382,0.73,-5.30,0.61
1527,136964787,0.4233,-0.9004,0.1460,0.55,-5.18,0.73
1528,136969789,0.4209,-0.8965,0.1450,0.67,-5.37,0.79
1529,136974787,0.4238,-0.8940,0.1377,0.61,-5.55,0.85
1530,136979787,0.4297,-0.8950,0.1445,0.61,-5.67,1.16
1531,136984787,0.4272,-0.8887,0.1450,0.79,-5.73,1.22
1532,136989787,0.4341,-0.8931,0.1436,0.67,-5.79,1.40
1533,136994785,0.4336,-0.8955,0.1450,0.73,-6.04,1.46
1534,136999785,0.4355,-0.8901,0.1509,0.61,-6.04,1.71
1535,137004789,0.4341,-0.8892,0.1421,0.37,-5.98,1.95
1536,137009789,0.4346,-0.8872,0.1465,0.18,-6.28,2.01
1537,137014787,0.4360,-0.8892,0.1396,-0.06,-6.22,2.13
1538,137019787,0.4351,-0.8882,0.1387,-0.37,-5.98,2.26
1539,137024787,0.4336,-0.8901,0.1357,-0.67,-6.16,2.38
1540,137029787,0.4385,-0.8872,0.1348,-0.85,-6.16,2.32
1541,137034787,0.4380,-0.8901,0.1421,-0.98,-5.91,2.44
1542,137039787,0.4375,-0.8877,0.1392,-1.10,-5.91,2.50
1543,137044787,0.4360,-0.8843,0.1377,-1.10,-5.85,2.38
1544,137049789,0.4375,-0.8838,0.1387,-0.91,-5.73,2.68
1545,137054786,0.4390,-0.8818,0.1382,-0.79,-5.73,2.62
1546,137059790,0.4409,-0.8838,0.1348,-0.61,-5.61,2.68
1547,137064786,0.4390,-0.8804,0.1392,-0.30,-5.49,2.80
1548,137069787,0.4380,-0.8838,0.1353,0.00,-5.49,2.62
1549,137074787,0.4351,-0.8799,0.1338,0.12,-5.49,2.74
1550,137079786,0.4355,-0.8804,0.1348,0.43,-5.55,2.68
1551,137084825,0.4395,-0.8789,0.1362,0.55,-5.24,2.56
1552,137089786,0.4390,-0.8774,0.1353,0.61,-5.18,2.62
1553,137094785,0.4458,-0.8779,0.1313,0.67,-5.12,2.62
1554,137099785,0.4429,-0.8779,0.1421,0.61,-5.12,2.62
1555,137104787,0.4434,-0.8794,0.1333,0.24,-5.18,2.68
1556,137109787,0.4438,-0.8789,0.1362,0.06,-5.00,2.62
1557,137114789,0.4424,-0.8765,0.1348,-0.18,-4.88,2.62
1558,137119786,0.4434,-0.8765,0.1362,-0.49,-4.82,2.50
1559,137124787,0.4438,-0.8740,0.1362,-1.04,-4.76,2.44
1560,137129786,0.4448,-0.8770,0.1343,-1.22,-4.51,2.38
1561,137134787,0.4468,-0.8706,0.1343,-1.77,-4.63,2.44
1562,137139787,0.4521,-0.8706,0.1372,-2.01,-4.39,2.38
1563,137144785,0.4565,-0.8687,0.1396,-2.38,-4.39,2.44
1564,137149787,0.4541,-0.8701,0.1309,-2.56,-4.27,2.44
1565,137154788,0.4565,-0.8726,0.1357,-2.80,-4.15,2.44
1566,137159786,0.4585,-0.8730,0.1382,-2.87,-3.96,2.50
1567,137164785,0.4585,-0.8691,0.1353,-2.74,-3.90,2.50
1568,137169787,0.4595,-0.8740,0.1348,-2.74,-3.78,2.50
1569,137174787,0.4546,-0.8706,0.1357,-2.56,-3.54,2.38
1570,137179786,0.4604,-0.8696,0.1338,-2.26,-3.35,2.50
1571,137184788,0.4575,-0.8745,0.1377,-1.77,-3.48,2.56
1572,137189785,0.4639,-0.8770,0.1313,-1.34,-3.05,2.62
1573,137194790,0.4629,-0.8730,0.1333,-0.79,-3.11,2.80
1574,137199785,0.4609,-0.8711,0.1348,-0.49,-2.80,2.74
1575,137204785,0.4614,-0.8740,0.1392,-0.12,-2.74,2.87
1576,137209789,0.4604,-0.8760,0.1431,0.18,-2.56,2.80
1577,137214787,0.4619,-0.8735,0.1396,0.49,-2.44,2.87
1578,137219787,0.4614,-0.8711,0.1421,0.73,-2.38,2.93
1579,137224786,0.4634,-0.8750,0.1426,0.98,-2.26,2.99
1580,137229787,0.4658,-0.8755,0.1362,1.10,-2.13,2.93
1581,137234787,0.4668,-0.8779,0.1411,0.91,-2.07,3.05
1582,137239787,0.4580,-0.8799,0.1426,1.10,-1.95,3.11
1583,137245015,0.4531,-0.8779,0.1460,0.91,-1.89,2.99
1584,137249788,0.4541,-0.8804,0.1416,0.61,-1.71,3.11
1585,137254786,0.4497,-0.8833,0.1372,0.24,-1.52,2.99
1586,137259787,0.4517,-0.8843,0.1401,-0.18,-1.46,2.93
1587,137264786,0.4521,-0.8853,0.1367,-0.30,-1.34,2.93
1588,137269787,0.4526,-0.8882,0.1367,-0.61,-1.22,2.93
1589,137274787,0.4526,-0.8926,0.1299,-0.98,-1.10,2.87
1590,137279787,0.4497,-0.8931,0.1401,-1.28,-1.04,2.74
1591,137284786,0.4463,-0.8916,0.1401,-1.34,-0.91,2.62
1592,137289787,0.4478,-0.8955,0.1416,-1.65,-0.85,2.56
1593,137294787,0.4482,-0.8950,0.1382,-1.59,-0.61,2.56
1594,137299787,0.4448,-0.8936,0.1333,-1.52,-0.49,2.38
1595,137304785,0.4478,-0.9019,0.1343,-1.34,-0.43,2.44
1596,137309787,0.4409,-0.8994,0.1377,-1.34,-0.30,2.44
1597,137315347,0.4385,-0.9023,0.1362,-0.98,-0.12,2.20
1598,137319788,0.4360,-0.9009,0.1338,-0.85,-0.06,2.26
1599,137324787,0.4365,-0.9033,0.1353,-0.85,0.12,2.20
1600,137329787,0.4390,-0.9033,0.1338,-0.85,0.12,2.07
1601,137334787,0.4375,-0.9053,0.1372,-0.79,0.24,1.95
1602,137339787,0.4351,-0.9033,0.1392,-0.55,0.37,1.83
1603,137344787,0.4336,-0.9033,0.1377,-0.49,0.55,1.77
1604,137349787,0.4375,-0.9067,0.1362,-0.30,0.61,1.65
1605,137354850,0.4385,-0.8999,0.1406,-0.18,0.79,1.52
1606,137359787,0.4331,-0.9009,0.1372,0.18,0.91,1.46
1607,137364824,0.4331,-0.9019,0.1328,0.43,0.98,1.40
1608,137369785,0.4380,-0.9014,0.1289,0.67,1.04,1.28
1609,137374785,0.4399,-0.8945,0.1392,1.10,1.04,1.22
1610,137379785,0.4375,-0.8989,0.1411,1.34,1.10,1.28
1611,137384789,0.4409,-0.8960,0.1338,1.52,1.22,1.28
1612,137389786,0.4375,-0.8965,0.1362,1.65,1.34,1.22
1613,137394785,0.4326,-0.8960,0.1372,1.59,1.40,1.28
1614,137399787,0.4385,-0.8926,0.1392,1.71,1.40,1.22
1615,137404787,0.4370,-0.8945,0.1313,1.52,1.46,1.10
1616,137409786,0.4404,-0.8882,0.1406,1.22,1.59,1.28
1617,137414785,0.4370,-0.8921,0.1362,0.73,1.52,1.22
1618,137419789,0.4375,-0.8921,0.1323,0.24,1.46,1.16
1619,137424786,0.4385,-0.8911,0.1377,-0.37,1.65,1.16
1620,137429787,0.4390,-0.8887,0.1382,-1.04,1.71,1.16
1621,137434787,0.4385,-0.8906,0.1313,-1.71,1.83,1.22
1622,137439785,0.4409,-0.8862,0.1392,-2.32,1.83,1.16
1623,137444785,0.4395,-0.8877,0.1377,-2.68,1.77,1.10
1624,137449785,0.4370,-0.8828,0.1392,-3.05,1.89,1.10
1625,137454785,0.4351,-0.8877,0.1357,-3.23,2.01,1.16
1626,137459785,0.4355,-0.8813,0.1436,-3.17,2.07,1.16
1627,137464787,0.4331,-0.8789,0.1396,-2.93,2.20,1.16
1628,137469786,0.4336,-0.8818,0.1450,-2.87,2.26,1.16
1629,137474787,0.4331,-0.8809,0.1377,-2.62,2.13,1.34
1630,137479787,0.4395,-0.8774,0.1489,-2.20,2.44,1.28
1631,137484787,0.4438,-0.8789,0.1475,-1.83,2.50,1.34
1632,137489785,0.4463,-0.8784,0.1494,-1.52,2.44,1.40
1633,137494785,0.4487,-0.8784,0.1528,-1.04,2.56,1.46
1634,137499787,0.4512,-0.8843,0.1558,-0.67,2.56,1.46
1635,137504786,0.4551,-0.8818,0.1650,-0.43,2.56,1.59
1636,137509785,0.4600,-0.8896,0.1665,-0.12,2.50,1.71
1637,137515341,0.4614,-0.8896,0.1724,0.24,2.38,1.77
1638,137519789,0.4634,-0.8911,0.1802,0.55,2.26,1.83
1639,137524787,0.4663,-0.8955,0.1753,0.85,2.07,1.65
1640,137529787,0.4590,-0.8979,0.1855,0.98,1.95,1.59
1641,137534787,0.4609,-0.9033,0.1890,1.16,1.71,1.52
1642,137539787,0.4624,-0.9082,0.1914,1.28,1.40,1.40
1643,137544785,0.4683,-0.9155,0.1968,1.59,1.10,1.22
1644,137549789,0.4678,-0.9150,0.2109,1.83,0.55,0.98
1645,137554787,0.4634,-0.9258,0.2251,2.13,0.06,0.61
1646,137559787,0.4604,-0.9282,0.2344,2.50,-0.67,0.00
1647,137564787,0.4629,-0.9297,0.2368,2.87,-1.59,-0.43
1648,137569787,0.4658,-0.9331,0.2432,3.41,-2.50,-1.22
1649,137574785,0.4648,-0.9375,0.2510,3.60,-3.48,-1.83
1650,137579787,0.4727,-0.9326,0.2627,4.15,-4.63,-2.56
1651,137584787,0.4697,-0.9351,0.2715,4.33,-5.67,-3.29
1652,137589786,0.4741,-0.9307,0.2700,4.63,-6.95,-4.33
1653,137594787,0.4819,-0.9321,0.2817,4.82,-8.05,-5.24
1654,137599786,0.4834,-0.9346,0.2852,5.06,-9.33,-6.10
1655,137604785,0.4849,-0.9360,0.2900,5.43,-10.49,-7.07
1656,137609787,0.4888,-0.9336,0.2983,5.85,-11.77,-8.23
1657,137614785,0.4980,-0.9346,0.3052,6.46,-13.17,-9.21
1658,137619789,0.5088,-0.9380,0.3091,7.13,-14.27,-10.18
1659,137624787,0.5176,-0.9360,0.3247,7.99,-15.61,-11.04
1660,137629787,0.5283,-0.9370,0.3301,8.90,-16.89,-11.89
1661,137634787,0.5420,-0.9414,0.3364,9.88,-18.11,-12.87
1662,137639787,0.5522,-0.9380,0.3462,10.98,-19.27,-13.60
1663,137644787,0.5640,-0.9395,0.3540,12.32,-20.61,-14.21
1664,137649788,0.5747,-0.9424,0.3638,13.84,-22.01,-14.94
1665,137654787,0.5864,-0.9380,0.3608,15.43,-23.23,-15.37
1666,137659788,0.5967,-0.9404,0.3809,16.89,-24.51,-15.91
1667,137664786,0.5938,-0.9385,0.3833,18.48,-26.10,-16.34
1668,137669787,0.6035,-0.9282,0.3784,19.63,-27.26,-16.65
1669,137674786,0.6040,-0.9214,0.3735,20.91,-28.72,-17.01
1670,137679785,0.5947,-0.9180,0.3672,22.50,-30.18,-17.38
1671,137684788,0.5835,-0.9092,0.3804,24.09,-32.26,-17.87
1672,137689787,0.5850,-0.9019,0.3774,24.94,-33.54,-18.23
1673,137694787,0.5845,-0.8950,0.3765,26.22,-35.18,-18.54
1674,137699787,0.5806,-0.8926,0.3789,27.26,-36.95,-18.96
1675,137704787,0.5747,-0.8901,0.3765,28.35,-38.78,-19.57
1676,137709787,0.5708,-0.8872,0.3809,29.33,-40.37,-20.12
1677,137714785,0.5688,-0.8838,0.3770,30.18,-42.13,-20.55
1678,137719787,0.5649,-0.8853,0.3652,31.04,-43.78,-21.16
1679,137724787,0.5591,-0.8809,0.3638,31.65,-45.49,-21.71
1680,137729786,0.5610,-0.8770,0.3687,32.44,-47.13,-22.13
1681,137734787,0.5630,-0.8809,0.3599,33.23,-48.90,-22.68
1682,137739787,0.5659,-0.8774,0.3599,33.84,-50.55,-22.99
1683,137744787,0.5664,-0.8711,0.3540,34.63,-52.26,-23.23
1684,137749787,0.5674,-0.8643,0.3511,35.67,-53.60,-23.48
1685,137754787,0.5718,-0.8589,0.3516,36.52,-55.43,-23.54
1686,137759787,0.5713,-0.8535,0.3423,38.23,-56.83,-23.48
1687,137764787,0.5684,-0.8442,0.3340,39.76,-58.35,-23.29
1688,137769787,0.5693,-0.8345,0.3330,41.59,-59.94,-22.99
1689,137774785,0.5664,-0.8271,0.3247,43.41,-61.40,-22.38
1690,137779785,0.5703,-0.8213,0.3193,45.43,-62.87,-21.89
1691,137784787,0.5679,-0.8159,0.3105,47.32,-64.45,-20.91
1692,137789788,0.5703,-0.8091,0.3105,48.78,-65.73,-20.18
1693,137794787,0.5718,-0.8027,0.3037,50.06,-67.01,-19.21
1694,137799787,0.5732,-0.7998,0.3081,51.10,-68.17,-18.23
1695,137804787,0.5723,-0.7964,0.2954,52.07,-69.15,-17.07
1696,137809787,0.5791,-0.7939,0.2886,52.74,-70.18,-15.85
1697,137814785,0.5728,-0.7915,0.2827,53.17,-71.10,-14.45
1698,137819785,0.5679,-0.7852,0.2759,53.90,-71.89,-12.93
1699,137824789,0.5625,-0.7842,0.2666,54.27,-72.50,-11.40
1700,137829786,0.5552,-0.7808,0.2632,54.76,-73.23,-9.76
1701,137834787,0.5518,-0.7812,0.2603,55.18,-73.66,-7.99
1702,137839786,0.5557,-0.7847,0.2573,55.85,-74.02,-6.04
1703,137844785,0.5483,-0.7852,0.2588,56.77,-74.39,-3.96
1704,137849787,0.5415,-0.7852,0.2534,58.05,-74.63,-1.77
1705,137854789,0.5322,-0.7866,0.2466,59.39,-74.94,0.43
1706,137859786,0.5225,-0.7896,0.2407,61.52,-75.12,2.62
1707,137864787,0.5000,-0.7852,0.2407,63.35,-75.30,4.88
1708,137869787,0.4873,-0.7856,0.2373,65.67,-75.30,7.20
1709,137874787,0.4668,-0.7847,0.2363,67.99,-75.43,9.33
1710,137879786,0.4507,-0.7808,0.2368,70.55,-75.49,11.34
1711,137884809,0.4380,-0.7803,0.2339,73.17,-75.61,13.41
1712,137889789,0.4243,-0.7793,0.2363,75.67,-75.49,15.61
1713,137895309,0.4165,-0.7725,0.2363,78.05,-75.55,17.62
1714,137899787,0.3838,-0.7539,0.2534,80.61,-75.61,19.70
1715,137904787,0.4126,-0.7671,0.2217,83.48,-75.43,21.77
1716,137909787,0.4194,-0.8027,0.2417,85.98,-75.37,24.21
1717,137914785,0.3906,-0.7837,0.2563,87.80,-75.24,26.40
1718,137919785,0.3657,-0.7695,0.2637,89.21,-75.00,28.35
1719,137924787,0.3364,-0.7778,0.2656,89.82,-74.51,30.00
1720,137929787,0.3145,-0.7749,0.2725,90.12,-74.09,31.46
1721,137934787,0.3101,-0.7759,0.2720,90.00,-73.60,32.68
1722,137939787,0.3018,-0.7798,0.2700,90.24,-73.11,34.21
1723,137944796,0.2856,-0.7793,0.2754,90.06,-72.68,35.37
1724,137949787,0.2607,-0.7773,0.2812,89.82,-72.20,36.46
1725,137954787,0.2402,-0.7651,0.2847,89.15,-71.77,37.50
1726,137959786,0.2324,-0.7637,0.2866,88.29,-71.22,38.23
1727,137964787,0.2310,-0.7554,0.2891,87.26,-70.73,39.02
1728,137969787,0.2388,-0.7373,0.2993,85.98,-70.06,39.63
1729,137974787,0.2256,-0.7603,0.2769,84.70,-69.70,40.55
1730,137979787,0.2144,-0.7500,0.2925,83.48,-69.21,41.46
1731,137984787,0.2139,-0.7480,0.3003,82.32,-68.84,42.26
1732,137989787,0.2100,-0.7285,0.2925,81.46,-68.29,43.41
1733,137994787,0.2251,-0.7227,0.2856,80.67,-67.93,44.39
1734,137999787,0.2388,-0.7427,0.2925,80.18,-67.80,45.49
1735,138004787,0.2358,-0.7212,0.2974,79.82,-67.50,46.89
1736,138009787,0.2173,-0.7280,0.3032,79.15,-67.26,47.93
1737,138014787,0.2031,-0.7241,0.3013,78.23,-67.13,49.02
1738,138019785,0.1895,-0.7202,0.3013,77.13,-66.71,50.06
1739,138024785,0.1797,-0.7144,0.2949,75.79,-66.28,51.10
1740,138029787,0.1694,-0.7134,0.2998,74.39,-66.10,51.95
1741,138034787,0.1606,-0.7109,0.2959,72.68,-65.73,52.87
1742,138039786,0.1567,-0.7114,0.2983,70.61,-65.37,53.60
1743,138045022,0.1772,-0.7437,0.2969,68.60,-65.18,54.27
1744,138049787,0.2407,-0.8359,0.2651,66.59,-64.88,55.00
1745,138054787,0.2700,-0.8281,0.2271,64.57,-64.63,54.94
1746,138059787,0.3296,-0.9292,0.1812,61.83,-64.33,54.57
1747,138064787,0.4302,-1.0171,0.1426,57.62,-63.90,54.21
1748,138069787,0.4277,-0.9883,0.1279,52.93,-62.99,53.23
1749,138074790,0.3306,-0.9175,0.0884,47.93,-62.26,51.65
1750,138079786,0.2754,-0.8501,0.1445,42.38,-61.52,50.55
1751,138084785,0.2495,-0.8130,0.1895,36.71,-60.55,50.18
1752,138089787,0.2705,-0.7871,0.1826,31.52,-59.63,50.37
1753,138094786,0.3276,-0.7969,0.1904,27.32,-58.96,50.55
1754,138099787,0.3838,-0.8218,0.2075,24.02,-58.54,50.61
1755,138104787,0.4297,-0.8447,0.2139,21.34,-57.87,50.79
1756,138109787,0.5093,-0.8584,0.1821,19.27,-57.56,50.79
1757,138114789,0.5073,-0.8267,0.2300,17.99,-56.95,50.61
1758,138119786,0.5044,-0.8413,0.2705,16.59,-56.22,50.24
1759,138124785,0.4395,-0.8770,0.2905,14.63,-55.24,50.18
1760,138129788,0.3481,-0.8916,0.3125,12.56,-54.09,50.06
1761,138134787,0.2666,-0.9014,0.3179,10.24,-53.11,49.94
1762,138139787,0.2285,-0.9224,0.3169,8.23,-52.44,49.76
1763,138144787,0.2207,-0.9263,0.3608,6.04,-51.77,49.39
1764,138149789,0.2393,-0.9326,0.4141,4.76,-50.91,48.72
1765,138154787,0.2622,-0.8779,0.4272,5.37,-50.24,47.62
1766,138159787,0.3149,-0.9404,0.4512,6.52,-50.06,46.22
1767,138164787,0.3193,-0.9702,0.4429,7.26,-50.24,45.55
1768,138169787,0.2827,-0.9780,0.4292,7.13,-50.61,44.70
1769,138174787,0.2607,-0.9927,0.4316,6.52,-50.73,43.72
1770,138179789,0.2676,-0.9976,0.4048,5.24,-50.98,42.38
1771,138184787,0.2827,-1.0054,0.3755,3.23,-51.16,40.79
1772,138189786,0.3115,-1.0249,0.3389,0.91,-50.98,38.96
1773,138194790,0.3213,-1.0459,0.3237,-2.01,-50.73,37.32
1774,138199787,0.3120,-1.0537,0.2910,-5.18,-50.37,35.73
1775,138204864,0.2900,-1.0664,0.2656,-8.60,-49.94,34.27
1776,138209787,0.2666,-1.0786,0.2466,-11.59,-49.39,32.74
1777,138214787,0.2510,-1.0835,0.2212,-14.51,-48.78,31.40
1778,138219787,0.2417,-1.0874,0.1987,-17.01,-48.54,30.12
1779,138224787,0.2339,-1.0669,0.1807,-19.09,-48.05,29.02
1780,138229787,0.2334,-1.0747,0.1494,-20.55,-47.99,27.62
1781,138234787,0.2373,-1.0898,0.1426,-21.59,-47.93,26.34
1782,138239787,0.2397,-1.1152,0.1558,-22.07,-48.05,25.49
1783,138244787,0.2271,-1.0889,0.1338,-21.95,-48.35,24.51
1784,138249787,0.1978,-1.0522,0.1108,-20.73,-48.84,23.17
1785,138254787,0.1885,-1.0518,0.1069,-18.48,-49.70,21.83
1786,138259787,0.1885,-1.0503,0.1055,-15.00,-50.73,20.49
1787,138264787,0.1982,-1.0571,0.1143,-10.49,-51.95,19.27
1788,138269787,0.2041,-1.0645,0.1768,-5.43,-53.17,18.48
1789,138274787,0.2109,-1.0962,0.2485,0.00,-53.90,18.11
1790,138279787,0.2617,-1.1099,0.1733,5.30,-55.06,17.74
1791,138284786,0.2520,-1.0781,0.1372,10.67,-56.83,17.50
1792,138289789,0.2651,-1.0796,0.2471,15.73,-57.87,17.20
1793,138295117,0.2544,-1.0698,0.2314,21.40,-58.41,16.89
1794,138299787,0.2710,-1.0591,0.1240,24.88,-59.21,16.95
1795,138304787,0.2490,-1.0239,0.1577,28.72,-60.18,16.77
1796,138309787,0.2588,-1.0078,0.1768,31.65,-60.55,16.16
1797,138314787,0.2505,-1.0083,0.1431,34.33,-61.22,15.37
1798,138319787,0.2402,-1.0049,0.0732,35.85,-61.71,14.51
1799,138324785,0.2373,-0.9912,0.0903,37.20,-62.32,13.54
1800,138329785,0.2168,-0.9512,0.1484,37.93,-62.44,12.44
1801,138334787,0.2192,-0.9473,0.1060,38.11,-62.44,11.34
1802,138339787,0.2065,-0.9468,0.0679,38.23,-62.68,10.12
1803,138344787,0.1768,-0.9434,0.1055,37.87,-62.62,8.84
1804,138349786,0.1699,-0.9512,0.1401,37.38,-62.01,7.44
1805,138354787,0.1602,-0.9692,0.1094,37.26,-61.52,6.16
1806,138359788,0.1709,-0.9834,0.0312,37.13,-61.52,5.37
1807,138364787,0.1738,-0.9932,0.0239,37.50,-61.95,5.06
1808,138369787,0.1880,-1.0005,0.0806,38.29,-61.95,5.24
1809,138374785,0.1523,-0.9858,0.0859,39.51,-61.77,5.79
1810,138379788,0.1108,-0.9941,0.0366,40.98,-61.77,6.65
1811,138384788,0.0737,-0.9878,0.0542,42.26,-61.59,7.74
1812,138389786,0.0820,-0.9854,0.0566,43.17,-60.79,8.96
1813,138394787,0.1064,-0.9844,0.0098,44.02,-60.18,10.30
1814,138399786,0.1167,-0.9634,-0.0635,44.39,-59.63,11.65
1815,138404787,0.1372,-0.9551,-0.0522,44.57,-58.66,12.99
1816,138409786,0.1538,-0.9478,-0.0259,44.51,-57.20,14.27
1817,138414787,0.1606,-0.9365,-0.0732,44.33,-55.61,15.43
1818,138419786,0.1641,-0.9341,-0.1045,43.72,-54.09,16.40
1819,138424787,0.1514,-0.9307,-0.0776,42.99,-52.13,17.50
1820,138429786,0.1431,-0.9331,-0.0601,41.83,-49.94,18.41
1821,138434785,0.1553,-0.9287,-0.0894,40.30,-47.99,19.27
1822,138439787,0.1631,-0.9375,-0.1006,38.60,-45.79,20.06
1823,138444787,0.1807,-0.9570,-0.0654,36.59,-43.11,20.85
1824,138449787,0.2051,-0.9888,-0.0532,34.57,-40.18,21.83
1825,138454811,0.2266,-0.9702,-0.0791,32.32,-36.46,23.05
1826,138459786,0.2324,-0.9507,-0.1240,30.00,-32.99,23.90
1827,138464787,0.2412,-0.9634,-0.1440,28.17,-29.45,24.57
1828,138469786,0.2437,-0.9746,-0.1689,26.83,-26.22,25.18
1829,138474787,0.2324,-0.9937,-0.2100,25.98,-22.80,25.61
1830,138479786,0.2383,-1.0034,-0.2256,25.30,-19.45,26.10
1831,138484788,0.2451,-0.9775,-0.2383,24.70,-16.22,26.22
1832,138489786,0.2446,-0.9971,-0.2651,23.78,-12.80,25.98
1833,138494787,0.2402,-1.0024,-0.2925,22.50,-9.39,25.67
1834,138499786,0.2495,-1.0068,-0.3013,21.04,-5.98,24.82
1835,138504787,0.2583,-1.0210,-0.3164,19.02,-2.74,23.72
1836,138509786,0.2759,-1.0273,-0.3154,16.40,0.67,22.26
1837,138514787,0.2920,-1.0498,-0.3086,12.99,3.84,20.67
1838,138519786,0.3027,-1.0659,-0.3027,8.78,7.26,18.96
1839,138524787,0.3179,-1.0830,-0.2944,3.96,10.79,17.01
1840,138529786,0.3242,-1.1118,-0.3032,-1.46,14.33,15.06
1841,138534785,0.3330,-1.1396,-0.3130,-6.95,17.74,12.99
1842,138539787,0.3359,-1.1582,-0.3135,-12.87,21.40,11.04
1843,138544787,0.3384,-1.1841,-0.3286,-18.84,25.12,8.84
1844,138549787,0.3379,-1.1782,-0.3481,-24.94,28.84,6.52
1845,138554787,0.3540,-1.1958,-0.4014,-30.85,32.74,4.21
1846,138559787,0.3809,-1.2002,-0.4058,-36.22,36.28,1.71
1847,138564787,0.4067,-1.2383,-0.3662,-40.85,40.37,-0.67
1848,138569787,0.4502,-1.2627,-0.4229,-45.24,44.15,-2.93
1849,138574787,0.4624,-1.2734,-0.4619,-48.35,47.87,-5.43
1850,138579787,0.4580,-1.2793,-0.4595,-51.28,51.16,-8.05
1851,138584787,0.4644,-1.3096,-0.3960,-53.66,54.76,-10.79
1852,138589787,0.4946,-1.3564,-0.3984,-55.43,58.35,-13.66
1853,138594787,0.5039,-1.4067,-0.4028,-57.07,61.77,-16.89
1854,138599786,0.5000,-1.4448,-0.3647,-58.72,65.06,-20.00
1855,138604787,0.4902,-1.4692,-0.3154,-60.98,68.54,-23.48
1856,138609786,0.5146,-1.5269,-0.3105,-64.09,72.01,-27.07
1857,138614787,0.5171,-1.5576,-0.3579,-67.68,75.24,-30.73
1858,138619787,0.5073,-1.5952,-0.3687,-71.40,78.54,-34.09
1859,138624787,0.4702,-1.6421,-0.3179,-73.78,82.62,-37.07
1860,138629786,0.5137,-1.6016,-0.3853,-75.37,85.43,-40.49
1861,138634787,0.5596,-1.5913,-0.3916,-75.49,86.22,-44.70
1862,138639785,0.5742,-1.6348,-0.3242,-74.94,89.88,-49.09
1863,138644787,0.5771,-1.6655,-0.2969,-74.21,93.05,-53.29
1864,138649787,0.5771,-1.6836,-0.3032,-73.60,95.85,-57.38
1865,138654787,0.5835,-1.6963,-0.2778,-73.05,98.35,-61.65
1866,138659787,0.5811,-1.7100,-0.2534,-72.93,100.91,-65.85
1867,138664787,0.5801,-1.7124,-0.2427,-73.23,103.41,-69.94
1868,138669787,0.5776,-1.7104,-0.2168,-74.27,105.67,-74.09
1869,138674787,0.5693,-1.7080,-0.1992,-75.85,107.87,-78.17
1870,138679787,0.5654,-1.7031,-0.1743,-78.05,109.94,-82.38
1871,138684788,0.5557,-1.6987,-0.1489,-80.30,112.07,-86.52
1872,138689787,0.5542,-1.6963,-0.1167,-82.44,114.15,-90.85
1873,138694785,0.5498,-1.6978,-0.1021,-84.02,115.98,-95.18
1874,138699785,0.5508,-1.6958,-0.0815,-84.82,117.68,-99.39
1875,138704788,0.5537,-1.6904,-0.0537,-84.57,118.96,-103.41
1876,138709787,0.5825,-1.6787,-0.0264,-83.66,120.30,-107.50
1877,138714787,0.6021,-1.6284,-0.0322,-82.50,120.91,-111.22
1878,138719788,0.6167,-1.6162,-0.0054,-81.16,121.46,-114.39
1879,138724787,0.6079,-1.6060,0.0127,-78.60,121.89,-118.23
1880,138729787,0.6133,-1.5864,0.0518,-75.30,122.13,-121.65
1881,138734785,0.6123,-1.5723,0.0952,-71.22,121.89,-125.18
1882,138739785,0.6011,-1.5596,0.1216,-66.28,121.40,-128.84
1883,138744789,0.5796,-1.5312,0.1533,-61.22,120.67,-132.38
1884,138749786,0.5605,-1.4941,0.1890,-55.73,119.70,-136.04
1885,138754787,0.5410,-1.4604,0.2158,-50.18,118.72,-139.82
1886,138759786,0.5347,-1.4106,0.2305,-44.88,117.26,-143.66
1887,138764789,0.5410,-1.3555,0.2471,-40.55,115.91,-147.32
1888,138769786,0.5469,-1.3413,0.2344,-38.29,114.45,-150.98
1889,138775306,0.5293,-1.2920,0.2407,-38.35,112.74,-154.70
1890,138779787,0.5449,-1.2295,0.2646,-39.21,111.52,-157.13
1891,138784787,0.5747,-1.2119,0.2930,-41.10,110.06,-160.00
1892,138789787,0.5786,-1.1890,0.2866,-43.96,108.72,-162.32
1893,138794787,0.5728,-1.1611,0.2832,-47.68,107.07,-164.70
1894,138799787,0.5635,-1.1323,0.2881,-52.32,105.43,-166.77
1895,138804785,0.5596,-1.1011,0.2935,-57.68,103.84,-168.66
1896,138809787,0.5664,-1.0742,0.2939,-63.35,102.07,-170.49
1897,138815013,0.5537,-1.0425,0.3062,-70.06,99.82,-172.38
1898,138819787,0.5469,-1.0317,0.3184,-74.33,98.41,-173.60
1899,138824787,0.5454,-1.0132,0.3291,-79.21,96.59,-174.82
1900,138829788,0.5347,-0.9868,0.3394,-83.29,95.18,-176.04
1901,138834787,0.5229,-0.9634,0.3452,-86.77,93.54,-176.95
1902,138839787,0.5054,-0.9502,0.3662,-89.21,92.26,-177.56
1903,138844789,0.4966,-0.9448,0.3838,-90.67,90.61,-178.23
1904,138849787,0.4868,-0.9404,0.3994,-90.67,89.63,-178.66
1905,138854787,0.4727,-0.9385,0.4175,-90.12,87.93,-179.02
1906,138859788,0.4600,-0.9346,0.4277,-88.78,86.77,-179.39
1907,138864790,0.4512,-0.9258,0.4438,-86.52,85.67,-179.63
1908,138869789,0.4443,-0.9165,0.4497,-83.60,85.12,-179.76
1909,138874785,0.4385,-0.9014,0.4609,-80.12,85.43,-179.88
1910,138879789,0.4321,-0.8848,0.4727,-76.28,85.37,-179.94
1911,138884787,0.4194,-0.8652,0.4673,-72.26,85.18,-179.76
1912,138889786,0.4033,-0.8486,0.4839,-68.23,83.05,-179.76
1913,138894789,0.3994,-0.8232,0.4854,-64.21,82.50,-179.51
1914,138899786,0.3994,-0.7949,0.4971,-60.73,81.65,-179.27
1915,138904791,0.3975,-0.7739,0.5005,-57.07,80.67,-178.72
1916,138909788,0.3970,-0.7520,0.5020,-54.88,80.00,-178.35
1917,138914788,0.3955,-0.7251,0.5122,-52.56,79.33,-177.62
1918,138919787,0.3975,-0.6895,0.4985,-50.43,78.48,-177.01
1919,138924785,0.3984,-0.6636,0.5049,-48.84,77.68,-176.28
1920,138929789,0.3926,-0.6338,0.5142,-47.62,77.01,-175.30
1921,138934787,0.3945,-0.6055,0.5195,-47.01,76.40,-174.39
1922,138939787,0.3916,-0.5703,0.5166,-46.89,75.73,-173.41
1923,138944785,0.3989,-0.5400,0.5161,-46.89,75.00,-172.44
1924,138949789,0.3965,-0.5117,0.5127,-47.32,74.45,-171.22
1925,138954787,0.3955,-0.4785,0.5088,-47.80,73.72,-170.12
1926,138959786,0.3960,-0.4497,0.5093,-48.35,73.05,-168.84
1927,138964787,0.3965,-0.4141,0.5088,-48.90,72.38,-167.62
1928,138969786,0.4019,-0.3857,0.4985,-49.39,71.65,-166.34
1929,138974789,0.4038,-0.3550,0.4941,-49.70,70.98,-164.88
1930,138979786,0.4067,-0.3306,0.4888,-49.57,70.37,-163.41
1931,138984787,0.4165,-0.2998,0.4839,-49.02,69.76,-161.77
1932,138989786,0.4341,-0.2690,0.4707,-48.11,68.72,-160.00
1933,138994788,0.4395,-0.2412,0.4668,-46.59,67.80,-158.23
1934,138999786,0.4409,-0.2148,0.4580,-44.63,67.20,-156.40
1935,139004789,0.4399,-0.1914,0.4604,-42.26,66.46,-154.63
1936,139009786,0.4487,-0.1636,0.4478,-39.70,65.85,-152.99
1937,139014787,0.4531,-0.1396,0.4463,-37.01,65.37,-151.34
1938,139019786,0.4570,-0.1182,0.4453,-34.21,64.70,-149.76
1939,139024787,0.4609,-0.0952,0.4443,-31.34,64.15,-148.41
1940,139029786,0.4531,-0.0698,0.4395,-28.48,63.48,-147.01
1941,139034787,0.4482,-0.0503,0.4316,-25.49,63.17,-145.98
1942,139039786,0.4453,-0.0273,0.4316,-22.87,62.62,-144.57
1943,139044785,0.4468,-0.0034,0.4277,-20.30,62.26,-143.54
1944,139049987,0.4600,0.0269,0.4282,-17.80,61.95,-142.44
1945,139054787,0.4683,0.0527,0.4146,-15.43,61.46,-141.28
1946,139059786,0.4736,0.0767,0.4165,-13.41,61.04,-140.12
1947,139064787,0.4834,0.0972,0.4214,-11.65,60.73,-138.84
1948,139069786,0.4922,0.1211,0.4243,-10.12,60.55,-137.62
1949,139075301,0.4985,0.1489,0.4316,-8.78,60.49,-136.10
1950,139079788,0.5039,0.1689,0.4395,-7.87,60.30,-134.70
1951,139084787,0.5083,0.1982,0.4453,-6.95,60.24,-133.23
1952,139089787,0.5103,0.2227,0.4468,-5.73,60.24,-131.59
1953,139094790,0.5063,0.2466,0.4478,-4.33,60.00,-130.06
1954,139099787,0.5005,0.2734,0.4551,-2.87,59.94,-128.41
1955,139104788,0.4956,0.2993,0.4570,-1.34,59.63,-126.65
1956,139109787,0.4888,0.3281,0.4614,0.30,59.39,-124.88
1957,139114790,0.4800,0.3516,0.4614,1.95,59.09,-123.05
1958,139119787,0.4722,0.3765,0.4653,3.60,58.60,-121.28
1959,139124787,0.4629,0.3999,0.4639,5.06,58.29,-119.21
1960,139129787,0.4585,0.4219,0.4868,6.04,57.93,-116.89
1961,139134787,0.4575,0.4473,0.5044,6.59,57.56,-114.70
1962,139139787,0.4531,0.4614,0.5229,6.59,57.80,-112.07
1963,139144785,0.4463,0.4810,0.5518,6.10,57.99,-109.33
1964,139149785,0.4365,0.5015,0.5596,5.49,58.23,-106.40
1965,139154788,0.4268,0.5171,0.5708,5.06,58.54,-103.41
1966,139159787,0.4194,0.5342,0.5859,4.82,59.02,-100.12
1967,139164787,0.4131,0.5508,0.6001,5.12,59.33,-96.59
1968,139169787,0.4092,0.5635,0.6113,5.98,59.63,-92.99
1969,139174787,0.4072,0.5776,0.6230,7.38,59.94,-89.02
1970,139179787,0.4038,0.5879,0.6348,9.45,60.12,-84.94
1971,139184787,0.3950,0.5938,0.6431,11.71,60.12,-80.85
1972,139189786,0.3906,0.6016,0.6509,14.45,60.37,-76.52
1973,139194790,0.3789,0.6201,0.6475,17.74,60.12,-72.13
1974,139199788,0.3628,0.6255,0.6548,21.16,60.00,-67.50
1975,139204787,0.3496,0.6328,0.6553,24.82,59.51,-62.99
1976,139209787,0.3340,0.6382,0.6602,28.54,58.96,-58.41
1977,139214785,0.3149,0.6445,0.6562,32.07,58.54,-53.54
1978,139219789,0.2842,0.6465,0.6616,35.18,57.62,-48.78
1979,139225047,0.2671,0.6504,0.6694,37.80,56.71,-43.90
1980,139229787,0.2417,0.6587,0.6733,39.63,56.04,-38.96
1981,139234893,0.2207,0.6528,0.6709,40.49,55.61,-34.02
1982,139239787,0.2046,0.6597,0.6758,40.55,55.00,-29.09
1983,139244786,0.1899,0.6582,0.6807,39.94,54.63,-23.84
1984,139249785,0.1812,0.6592,0.6812,38.35,54.27,-18.66
1985,139254785,0.1685,0.6538,0.6831,36.28,53.96,-13.29
1986,139259788,0.1602,0.6499,0.6753,34.15,53.60,-7.93
1987,139264787,0.1572,0.6348,0.6743,32.26,53.05,-2.26
1988,139269787,0.1499,0.6177,0.6699,30.37,52.80,3.66
1989,139274785,0.1421,0.6094,0.6646,28.41,52.32,9.70
1990,139279785,0.1289,0.5996,0.6606,27.07,51.77,14.63
1991,139284785,0.1206,0.5830,0.6558,25.18,50.91,22.13
1992,139289789,0.1104,0.5723,0.6533,23.78,50.24,28.48
1993,139294786,0.1040,0.5591,0.6558,22.80,49.70,33.66
1994,139299787,0.1050,0.5439,0.6543,21.59,48.29,41.52
1995,139304786,0.1064,0.5381,0.6504,20.67,47.50,46.83
1996,139309785,0.1045,0.5264,0.6479,19.88,46.40,53.66
1997,139314785,0.1118,0.5068,0.6450,18.96,44.94,60.67
1998,139319789,0.1240,0.4863,0.6426,18.35,43.72,67.87
1999,139324786,0.1333,0.4688,0.6401,17.62,42.32,75.30
2000,139329790,0.1401,0.4551,0.6401,16.46,40.98,83.23
2001,139334786,0.1504,0.4233,0.6475,14.82,39.57,91.77
2002,139339787,0.1543,0.4043,0.6372,13.72,38.72,98.11
2003,139344788,0.1655,0.3804,0.6362,12.20,37.68,105.91
2004,139349787,0.1714,0.3633,0.6323,10.79,36.40,113.84
2005,139354785,0.1753,0.3428,0.6274,9.33,35.49,121.52
2006,139359789,0.1885,0.3281,0.6221,8.11,34.63,129.51
2007,139364787,0.2095,0.2910,0.6309,7.20,33.72,137.50
2008,139369786,0.2349,0.2578,0.6328,6.46,32.99,145.79
2009,139375001,0.2476,0.2236,0.6406,5.85,32.01,156.10
2010,139379787,0.2598,0.1890,0.6440,5.18,31.46,163.05
2011,139384788,0.2769,0.1465,0.6499,4.57,30.67,171.77
2012,139389787,0.2886,0.1011,0.6440,3.90,30.00,180.18
2013,139394788,0.2979,0.0605,0.6538,3.29,29.21,188.48
2014,139399787,0.3096,0.0254,0.6528,2.80,28.35,196.22
2015,139404788,0.3296,-0.0181,0.6465,2.56,27.26,203.35
2016,139409921,0.3428,-0.0688,0.6382,2.50,26.16,210.12
2017,139414785,0.3672,-0.1250,0.6338,2.56,25.12,216.34
2018,139419785,0.4038,-0.1948,0.6230,2.68,23.90,222.26
2019,139424789,0.4380,-0.2661,0.6240,2.62,22.80,227.62
2020,139429786,0.4673,-0.3403,0.6284,1.77,21.95,232.20
2021,139434823,0.4927,-0.4189,0.6279,0.30,20.85,236.04
2022,139439787,0.5244,-0.5137,0.6436,-1.22,19.88,239.02
2023,139444786,0.5547,-0.6206,0.6470,-2.68,18.84,241.16
2024,139449789,0.5923,-0.7139,0.6597,-3.78,17.62,242.50
2025,139454876,0.6201,-0.8218,0.6699,-3.90,16.52,242.74
2026,139459787,0.6504,-0.9395,0.6880,-2.87,15.37,242.13
2027,139464787,0.6758,-1.0464,0.7012,-0.43,14.45,240.37
2028,139469787,0.6875,-1.1572,0.7188,3.23,13.48,237.56
2029,139474788,0.6899,-1.2412,0.7256,7.99,12.74,233.54
2030,139479787,0.7036,-1.3472,0.7427,13.17,12.38,228.66
2031,139484785,0.7192,-1.4385,0.7207,18.78,11.95,222.80
2032,139489788,0.7290,-1.5181,0.7417,24.15,11.71,216.04
2033,139494789,0.7417,-1.5903,0.7544,28.54,11.59,208.23
2034,139499786,0.7549,-1.6533,0.7568,31.83,11.83,199.70
2035,139504789,0.7734,-1.7070,0.7666,33.66,11.89,190.43
2036,139509786,0.7939,-1.7485,0.7788,34.02,11.89,180.67
2037,139514785,0.8262,-1.7710,0.7871,32.80,11.83,170.49
2038,139519925,0.8618,-1.7881,0.7930,30.55,11.40,159.94
2039,139524787,0.9053,-1.7856,0.7988,27.20,10.73,149.27
2040,139529789,0.9478,-1.7817,0.8052,22.99,9.82,138.72
2041,139534787,0.9907,-1.7622,0.8003,18.23,8.72,128.23
2042,139539787,1.0210,-1.7432,0.8062,12.99,7.56,117.68
2043,139544787,1.0488,-1.7090,0.8145,7.68,6.16,107.62
2044,139549787,1.0752,-1.6738,0.8071,2.56,4.76,97.62
2045,139554785,1.0962,-1.6353,0.8066,-2.07,3.17,88.72
2046,139559785,1.1162,-1.5938,0.8081,-6.34,1.83,79.09
2047,139564789,1.1284,-1.5420,0.8120,-9.70,0.55,70.30
2048,139569786,1.1421,-1.4927,0.8052,-12.32,-0.73,62.13
2049,139574787,1.1523,-1.4390,0.8081,-14.21,-2.01,54.21
2050,139579786,1.1646,-1.3882,0.8042,-15.43,-2.99,47.13
2051,139584789,1.1689,-1.3311,0.7974,-16.04,-3.84,40.67
2052,139589786,1.1782,-1.2739,0.7998,-16.22,-4.70,34.63
2053,139594787,1.1777,-1.2227,0.7988,-15.98,-5.49,29.15
2054,139599786,1.1841,-1.1704,0.7998,-15.73,-5.98,24.27
2055,139604785,1.1821,-1.1084,0.7866,-14.94,-6.71,18.96
2056,139609787,1.1802,-1.0757,0.7866,-14.39,-7.20,15.85
2057,139614786,1.1733,-1.0317,0.7734,-13.23,-7.62,12.32
2058,139619785,1.1665,-0.9902,0.7661,-11.89,-8.17,9.09
2059,139624789,1.1553,-0.9561,0.7598,-10.43,-8.60,6.40
2060,139629787,1.1377,-0.9214,0.7524,-8.90,-9.15,4.09
2061,139634786,1.1230,-0.8872,0.7407,-7.01,-9.88,2.13
2062,139639787,1.1011,-0.8560,0.7373,-5.55,-10.55,0.37
2063,139644787,1.0850,-0.8301,0.7256,-4.15,-11.04,-0.98
2064,139649787,1.0635,-0.8013,0.7144,-2.87,-11.59,-2.01
2065,139654785,1.0425,-0.7773,0.7031,-1.71,-12.01,-2.87
2066,139659785,1.0146,-0.7563,0.7061,-0.85,-12.50,-3.48
2067,139664787,0.9937,-0.7295,0.6914,-0.06,-12.99,-4.02
2068,139669787,0.9731,-0.7129,0.6836,0.79,-13.35,-4.33
2069,139674787,0.9512,-0.6973,0.6729,1.46,-13.90,-4.51
2070,139679787,0.9302,-0.6831,0.6733,2.38,-14.27,-4.70
2071,139684787,0.9077,-0.6675,0.6655,3.17,-14.70,-4.82
2072,139689787,0.8931,-0.6553,0.6494,4.39,-15.06,-4.88
2073,139694787,0.8789,-0.6426,0.6401,5.67,-15.61,-4.82
2074,139699787,0.8618,-0.6377,0.6406,6.59,-16.10,-4.76
2075,139704866,0.8496,-0.6279,0.6289,7.80,-16.52,-4.57
2076,139709788,0.8276,-0.6201,0.6191,8.78,-16.95,-4.51
2077,139714789,0.8125,-0.6182,0.6235,9.51,-17.44,-4.21
2078,139719786,0.8022,-0.6128,0.6128,9.76,-17.99,-3.90
2079,139724789,0.7915,-0.6045,0.6069,10.00,-18.72,-3.66
2080,139729786,0.7729,-0.6006,0.5986,9.76,-18.78,-3.48
2081,139734789,0.7651,-0.5933,0.6030,9.15,-19.27,-3.29
2082,139739786,0.7607,-0.5972,0.5962,8.41,-19.57,-3.17
2083,139744787,0.7505,-0.5908,0.5913,7.56,-20.12,-2.87
2084,139749786,0.7393,-0.5908,0.5947,6.52,-20.30,-2.62
2085,139754789,0.7256,-0.5884,0.5850,5.73,-20.61,-2.56
2086,139759785,0.7168,-0.5869,0.5830,5.06,-20.91,-2.50
2087,139764785,0.7090,-0.5820,0.5840,4.51,-21.16,-2.32
2088,139769787,0.7012,-0.5811,0.5845,3.96,-21.59,-2.26
2089,139774788,0.6929,-0.5732,0.5815,3.72,-21.89,-2.20
2090,139779787,0.6880,-0.5708,0.5801,3.35,-22.26,-2.01
2091,139784786,0.6797,-0.5693,0.5723,2.99,-22.50,-1.95
2092,139789787,0.6733,-0.5708,0.5703,2.87,-22.68,-1.89
2093,139794788,0.6685,-0.5640,0.5732,2.62,-22.87,-1.95
2094,139799787,0.6636,-0.5605,0.5718,2.50,-22.99,-1.83
2095,139804786,0.6665,-0.5610,0.5688,2.38,-23.05,-1.89
2096,139809846,0.6597,-0.5562,0.5718,2.38,-23.05,-1.59
2097,139814788,0.6631,-0.5586,0.5703,2.44,-22.99,-1.52
2098,139819787,0.6631,-0.5562,0.5703,2.62,-23.05,-1.40
2099,139824785,0.6582,-0.5566,0.5654,3.05,-22.99,-1.22
2100,139829789,0.6602,-0.5552,0.5649,3.35,-22.87,-1.10
2101,139834787,0.6631,-0.5518,0.5723,3.84,-22.87,-0.85
2102,139839787,0.6597,-0.5449,0.5659,4.27,-22.87,-0.61
2103,139844812,0.6631,-0.5415,0.5562,4.39,-22.80,-0.30
2104,139849787,0.6626,-0.5425,0.5576,4.70,-22.93,-0.12
2105,139854787,0.6655,-0.5356,0.5532,4.63,-22.93,0.24
2106,139859787,0.6694,-0.5332,0.5591,4.57,-22.99,0.37
2107,139864785,0.6694,-0.5269,0.5547,4.45,-22.74,0.61
2108,139869804,0.6675,-0.5259,0.5591,3.84,-22.62,0.98
2109,139874786,0.6636,-0.5210,0.5527,3.23,-22.68,1.28
2110,139879789,0.6685,-0.5166,0.5566,2.74,-22.50,1.65
2111,139884786,0.6689,-0.5151,0.5518,2.13,-22.20,1.89
2112,139889787,0.6704,-0.5146,0.5542,1.59,-21.89,2.20
2113,139894852,0.6704,-0.5093,0.5503,1.04,-21.52,2.62
2114,139899787,0.6719,-0.5078,0.5488,0.91,-21.34,2.93
2115,139904788,0.6748,-0.5039,0.5488,0.85,-21.04,3.35
2116,139909787,0.6719,-0.4990,0.5518,1.04,-20.43,3.72
2117,139914787,0.6714,-0.4995,0.5469,1.52,-20.12,4.15
2118,139919787,0.6763,-0.4976,0.5415,2.13,-19.63,4.63
2119,139924788,0.6821,-0.4937,0.5454,2.93,-19.45,5.24
2120,139929787,0.6831,-0.4849,0.5381,3.60,-18.84,5.85
2121,139934786,0.6831,-0.4829,0.5400,4.51,-18.48,6.46
2122,139939789,0.6855,-0.4795,0.5405,5.37,-18.17,7.07
2123,139944786,0.6904,-0.4795,0.5386,5.98,-17.68,7.68
2124,139949789,0.6919,-0.4780,0.5342,6.16,-17.20,8.41
2125,139954925,0.6963,-0.4741,0.5308,6.16,-16.65,9.27
2126,139959787,0.6909,-0.4785,0.5298,5.91,-16.28,9.88
2127,139964786,0.6958,-0.4741,0.5391,5.49,-15.79,10.55
2128,139969785,0.6904,-0.4771,0.5371,4.88,-15.30,11.22
2129,139974788,0.6909,-0.4766,0.5337,4.33,-14.82,11.89
2130,139979787,0.6934,-0.4727,0.5381,3.84,-14.33,12.56
2131,139984786,0.6948,-0.4756,0.5361,3.48,-13.72,13.23
2132,139989788,0.6943,-0.4756,0.5356,3.35,-13.35,13.84
2133,139994789,0.6953,-0.4775,0.5337,3.54,-12.93,14.51
2134,139999786,0.6948,-0.4824,0.5371,4.02,-12.62,15.12
2135,140004789,0.6953,-0.4805,0.5293,4.39,-12.07,15.91
2136,140009785,0.6973,-0.4839,0.5356,5.06,-11.71,16.59
2137,140014786,0.6963,-0.4888,0.5439,5.91,-11.34,17.13
2138,140019789,0.6968,-0.4868,0.5420,6.34,-11.04,17.80
2139,140024786,0.6968,-0.4907,0.5356,7.13,-10.67,18.29
2140,140029789,0.6968,-0.4966,0.5371,7.68,-10.24,18.84
2141,140034786,0.6948,-0.4985,0.5361,8.05,-10.00,19.39
2142,140039789,0.6919,-0.4995,0.5366,8.54,-9.63,19.76
2143,140044787,0.6895,-0.5015,0.5435,9.02,-9.27,20.06
2144,140049787,0.6895,-0.5029,0.5327,9.33,-8.90,20.37
2145,140054786,0.6904,-0.5083,0.5342,9.57,-8.66,20.67
2146,140059787,0.6924,-0.5122,0.5337,9.82,-8.35,20.85
2147,140064786,0.6899,-0.5151,0.5293,9.88,-8.05,21.04
2148,140069785,0.6938,-0.5146,0.5308,9.88,-7.93,21.16
2149,140075260,0.6899,-0.5186,0.5278,9.70,-7.62,21.28
2150,140079788,0.6924,-0.5210,0.5308,9.51,-7.56,21.22
2151,140084787,0.6909,-0.5254,0.5298,9.27,-7.26,21.28
2152,140089787,0.6982,-0.5293,0.5317,8.96,-7.13,21.40
2153,140094786,0.6948,-0.5337,0.5259,8.54,-6.95,21.40
2154,140099787,0.6948,-0.5347,0.5308,8.23,-6.77,21.52
2155,140105225,0.6938,-0.5391,0.5317,7.93,-6.71,21.34
2156,140109788,0.6948,-0.5425,0.5259,7.80,-6.59,21.28
2157,140114788,0.6924,-0.5469,0.5312,7.68,-6.52,21.40
2158,140119787,0.6895,-0.5493,0.5303,7.74,-6.40,21.34
2159,140124788,0.6934,-0.5537,0.5303,7.68,-6.22,21.34
2160,140129787,0.6890,-0.5522,0.5278,7.80,-6.10,21.46
2161,140134786,0.6826,-0.5601,0.5312,8.11,-6.04,21.46
2162,140139789,0.6855,-0.5625,0.5312,8.60,-5.91,21.59
2163,140144787,0.6792,-0.5640,0.5308,9.15,-5.98,21.65
2164,140149786,0.6787,-0.5703,0.5327,9.82,-5.85,21.71
2165,140154787,0.6787,-0.5693,0.5298,10.61,-5.79,21.77
2166,140159786,0.6768,-0.5747,0.5254,11.34,-5.79,21.77
2167,140164787,0.6802,-0.5776,0.5254,12.26,-5.98,22.01
2168,140169785,0.6777,-0.5845,0.5303,12.93,-6.04,22.13
2169,140174785,0.6768,-0.5879,0.5327,13.90,-6.28,22.20
2170,140179789,0.6733,-0.5933,0.5327,14.57,-6.46,22.56
