# skilleye imu stream v1
# device=xiao_esp32c6 imu=mpu6050 addr=0x68
# rate_hz=200 accel_range_g=16 gyro_range_dps=2000 dlpf_hz=94
# units: accel in g, gyro in deg/s, t_us in microseconds since boot (monotonic)
# no shared clock with the camera -- tap the racket once before each take
# so both recordings share a spike to align on
seq,t_us,ax,ay,az,gx,gy,gz
0,690264515,-1.0537,0.1807,0.1255,-66.52,51.34,-33.78
1,690269520,-1.0400,0.1743,0.1284,-66.65,51.28,-32.44
2,690274516,-1.0317,0.1719,0.1294,-66.89,50.79,-30.98
3,690279515,-1.0273,0.1636,0.1230,-66.95,50.30,-29.27
4,690284516,-1.0107,0.1572,0.1162,-67.01,49.76,-27.62
5,690289516,-0.9990,0.1538,0.1157,-67.01,49.02,-25.98
6,690294517,-0.9932,0.1499,0.1113,-66.89,48.35,-24.15
7,690299515,-0.9849,0.1489,0.1108,-66.59,47.38,-22.38
8,690304516,-0.9766,0.1465,0.1123,-66.28,46.71,-20.73
9,690309516,-0.9761,0.1436,0.1074,-65.73,45.61,-19.02
10,690314516,-0.9683,0.1406,0.1045,-65.12,44.45,-17.26
11,690319517,-0.9634,0.1382,0.1040,-64.33,43.35,-15.67
12,690324516,-0.9648,0.1323,0.1006,-63.41,42.20,-14.02
13,690329516,-0.9609,0.1338,0.0957,-62.32,40.85,-12.56
14,690334516,-0.9604,0.1289,0.0933,-61.04,39.70,-11.04
15,690339515,-0.9629,0.1245,0.0884,-59.76,38.35,-9.57
16,690344516,-0.9683,0.1313,0.0806,-58.11,36.89,-8.17
17,690349516,-0.9736,0.1309,0.0825,-56.34,35.55,-6.89
18,690354516,-0.9775,0.1372,0.0835,-54.39,34.15,-5.55
19,690359515,-0.9800,0.1396,0.0801,-52.20,32.56,-4.51
20,690364516,-0.9775,0.1416,0.0728,-50.00,31.10,-3.48
21,690369516,-0.9829,0.1509,0.0781,-46.83,29.33,-2.38
22,690374517,-0.9839,0.1519,0.0767,-44.15,27.68,-1.71
23,690379515,-0.9839,0.1533,0.0771,-41.52,26.22,-1.10
24,690384516,-0.9819,0.1548,0.0771,-39.27,24.94,-0.55
25,690389516,-0.9771,0.1577,0.0713,-36.16,23.11,-0.06
26,690394516,-0.9727,0.1577,0.0684,-33.54,21.65,0.37
27,690399517,-0.9761,0.1548,0.0732,-31.16,20.06,0.79
28,690404516,-0.9717,0.1553,0.0630,-29.02,18.48,1.10
29,690409516,-0.9751,0.1528,0.0708,-26.83,16.83,1.40
30,690414516,-0.9761,0.1509,0.0630,-25.00,15.24,1.71
31,690419515,-0.9775,0.1504,0.0649,-23.48,13.90,2.01
32,690424516,-0.9771,0.1479,0.0654,-22.13,12.26,2.32
33,690429516,-0.9751,0.1440,0.0615,-20.91,10.79,2.62
34,690434516,-0.9722,0.1357,0.0674,-20.30,9.21,3.05
35,690439515,-0.9692,0.1313,0.0522,-19.82,7.80,3.35
36,690444516,-0.9663,0.1309,0.0615,-19.88,6.22,3.78
37,690449516,-0.9653,0.1299,0.0620,-20.12,4.82,4.15
38,690454516,-0.9595,0.1294,0.0562,-20.73,3.29,4.51
39,690459515,-0.9590,0.1284,0.0532,-21.40,1.89,4.88
40,690464516,-0.9521,0.1196,0.0537,-22.32,0.37,5.18
41,690469516,-0.9458,0.1260,0.0537,-23.35,-0.98,5.61
42,690474517,-0.9478,0.1191,0.0435,-24.63,-2.26,5.98
43,690479515,-0.9438,0.1182,0.0405,-25.79,-3.66,6.34
44,690484516,-0.9448,0.1118,0.0410,-27.07,-5.18,6.71
45,690489516,-0.9399,0.1050,0.0405,-28.54,-6.46,7.01
46,690494516,-0.9370,0.1016,0.0415,-29.94,-7.87,7.44
47,690499514,-0.9287,0.0972,0.0449,-31.28,-9.09,7.87
48,690504515,-0.9272,0.0903,0.0469,-32.80,-10.43,8.29
49,690509516,-0.9238,0.0850,0.0474,-34.39,-11.59,8.84
50,690514515,-0.9214,0.0757,0.0522,-35.85,-12.62,9.33
51,690519516,-0.9238,0.0747,0.0601,-37.56,-13.23,9.70
52,690524515,-0.9165,0.0723,0.0581,-39.39,-14.09,10.12
53,690529563,-0.9194,0.0679,0.0586,-41.34,-14.70,10.67
54,690534515,-0.9170,0.0635,0.0581,-43.54,-15.43,11.10
55,690539516,-0.9150,0.0654,0.0610,-45.67,-15.98,11.59
56,690544514,-0.9189,0.0591,0.0547,-48.05,-16.46,11.95
57,690549516,-0.9204,0.0547,0.0557,-50.55,-16.89,12.38
58,690554516,-0.9253,0.0513,0.0464,-53.23,-17.38,12.62
59,690559516,-0.9321,0.0474,0.0425,-55.79,-17.50,12.93
60,690564516,-0.9429,0.0522,0.0435,-58.29,-17.80,13.29
61,690569516,-0.9609,0.0640,0.0342,-60.85,-18.23,13.41
62,690574515,-0.9712,0.0718,0.0366,-63.05,-18.35,13.60
63,690579516,-0.9873,0.0747,0.0347,-65.00,-18.35,13.54
64,690584514,-0.9961,0.0757,0.0381,-66.95,-18.48,13.48
65,690589519,-1.0044,0.0835,0.0410,-68.35,-18.41,13.29
66,690594515,-1.0298,0.0908,0.0400,-69.94,-18.11,13.05
67,690599514,-1.0347,0.1001,0.0386,-71.34,-17.99,12.80
68,690604514,-1.0356,0.1006,0.0405,-72.56,-17.32,12.44
69,690609516,-1.0273,0.0991,0.0454,-73.78,-16.95,12.01
70,690614515,-1.0200,0.1069,0.0449,-75.18,-16.34,11.71
71,690619516,-1.0098,0.1069,0.0498,-76.59,-15.61,11.22
72,690624517,-0.9902,0.1064,0.0469,-77.99,-14.82,10.79
73,690629515,-0.9756,0.1060,0.0532,-79.63,-13.78,10.24
74,690634516,-0.9697,0.1099,0.0444,-81.34,-12.93,9.88
75,690639516,-0.9600,0.1094,0.0498,-83.35,-12.01,9.39
76,690644515,-0.9478,0.1064,0.0459,-85.43,-10.98,8.96
77,690649518,-0.9360,0.1074,0.0493,-87.68,-9.88,8.54
78,690654515,-0.9346,0.1060,0.0366,-90.18,-8.90,8.23
79,690659516,-0.9263,0.1050,0.0396,-92.80,-7.74,7.74
80,690664515,-0.9229,0.0977,0.0361,-95.61,-6.83,7.44
81,690669516,-0.9214,0.0918,0.0342,-98.60,-5.79,7.26
82,690674515,-0.9233,0.0854,0.0234,-101.71,-4.76,7.01
83,690679518,-0.9199,0.0859,0.0229,-104.88,-3.90,6.83
84,690684515,-0.9189,0.0771,0.0195,-108.17,-2.74,6.89
85,690689842,-0.9116,0.0728,0.0190,-111.28,-1.71,6.89
86,690694517,-0.9102,0.0708,0.0161,-114.45,-0.79,6.77
87,690699516,-0.9092,0.0693,0.0132,-117.44,0.18,6.83
88,690704517,-0.9028,0.0659,0.0122,-120.43,1.10,6.89
89,690709516,-0.9004,0.0674,-0.0024,-123.11,2.07,6.95
90,690714516,-0.9053,0.0664,0.0039,-125.67,2.87,7.13
91,690719516,-0.9092,0.0713,0.0029,-127.93,3.72,7.32
92,690724516,-0.9204,0.0684,-0.0063,-129.70,4.51,7.38
93,690729516,-0.9263,0.0610,-0.0166,-131.28,5.55,7.62
94,690734516,-0.9409,0.0605,-0.0137,-132.68,6.22,7.99
95,690739516,-0.9497,0.0684,-0.0278,-133.72,7.07,8.23
96,690744516,-0.9604,0.0674,-0.0303,-134.70,7.87,8.54
97,690749517,-0.9624,0.0625,-0.0337,-135.55,8.41,8.78
98,690754516,-0.9683,0.0591,-0.0356,-136.28,9.39,9.09
99,690759516,-0.9653,0.0576,-0.0391,-136.77,10.18,9.45
100,690764517,-0.9600,0.0562,-0.0371,-137.38,10.91,9.88
101,690769516,-0.9580,0.0576,-0.0396,-137.99,11.59,10.43
102,690774516,-0.9541,0.0596,-0.0483,-138.60,12.44,10.67
103,690779516,-0.9531,0.0557,-0.0542,-139.21,13.23,11.10
104,690784516,-0.9551,0.0576,-0.0571,-139.76,14.27,11.46
105,690789516,-0.9678,0.0601,-0.0605,-140.30,15.24,11.95
106,690794516,-0.9839,0.0605,-0.0684,-140.79,16.28,12.38
107,690799516,-1.0083,0.0586,-0.0698,-141.10,17.38,12.93
108,690804516,-1.0259,0.0610,-0.0723,-141.34,18.60,13.35
109,690809517,-1.0366,0.0640,-0.0693,-141.34,19.88,13.66
110,690814516,-1.0498,0.0742,-0.0713,-141.16,21.52,14.09
111,690819516,-1.0581,0.0884,-0.0645,-140.85,23.05,14.27
112,690824516,-1.0581,0.0981,-0.0605,-140.24,24.94,14.39
113,690829516,-1.0601,0.1089,-0.0483,-139.15,27.01,14.39
114,690834516,-1.0610,0.1157,-0.0488,-137.93,29.15,14.39
115,690839514,-1.0620,0.1250,-0.0400,-136.52,31.59,14.33
116,690844516,-1.0615,0.1289,-0.0361,-134.94,34.09,14.15
117,690849516,-1.0635,0.1343,-0.0312,-133.29,36.89,14.09
118,690854516,-1.0645,0.1416,-0.0391,-131.65,39.76,13.72
119,690859517,-1.0664,0.1436,-0.0464,-130.12,42.62,13.60
120,690864516,-1.0625,0.1426,-0.0596,-128.72,45.67,13.54
121,690869516,-1.0591,0.1396,-0.0801,-127.44,48.48,13.60
122,690874516,-1.0547,0.1294,-0.0898,-126.28,51.52,13.72
123,690879516,-1.0537,0.1250,-0.1123,-125.37,54.39,13.84
124,690884516,-1.0513,0.1138,-0.1226,-124.70,57.32,14.33
125,690889516,-1.0469,0.1055,-0.1465,-124.02,60.24,15.00
126,690894516,-1.0361,0.1021,-0.1592,-123.72,62.74,15.79
127,690899516,-1.0312,0.0918,-0.1694,-123.41,65.61,16.83
128,690904516,-1.0293,0.0894,-0.1812,-123.17,68.35,17.87
129,690909516,-1.0176,0.0840,-0.1885,-123.11,71.22,19.21
130,690914516,-1.0068,0.0771,-0.1909,-123.11,73.96,20.67
131,690919516,-0.9980,0.0742,-0.2041,-123.17,77.01,22.32
132,690924516,-0.9922,0.0742,-0.2109,-123.23,80.00,24.02
133,690929516,-0.9834,0.0767,-0.2261,-123.54,82.38,25.79
134,690934516,-0.9849,0.0786,-0.2441,-123.78,85.85,27.62
135,690939516,-0.9912,0.0884,-0.2544,-123.96,86.28,29.70
136,690944516,-0.9932,0.1006,-0.2695,-124.15,89.82,31.65
137,690949516,-1.0005,0.1104,-0.2856,-124.21,92.38,33.48
138,690955015,-0.9980,0.1050,-0.2959,-124.45,94.82,35.43
139,690959519,-0.9932,0.1025,-0.3037,-124.63,96.95,37.50
140,690964514,-0.9937,0.1128,-0.3081,-124.88,99.21,39.45
141,690969514,-0.9980,0.1177,-0.3257,-125.24,101.46,41.46
142,690974516,-1.0000,0.1240,-0.3335,-125.67,103.66,43.60
143,690979516,-1.0020,0.1382,-0.3408,-126.34,105.67,45.55
144,690984516,-0.9863,0.1392,-0.3472,-126.95,107.68,47.50
145,690989515,-0.9653,0.1475,-0.3506,-127.80,109.45,49.15
146,690994516,-0.9512,0.1670,-0.3628,-128.48,111.22,50.98
147,690999514,-0.9473,0.1812,-0.3721,-129.02,112.74,52.56
148,691004516,-0.9438,0.1963,-0.3857,-129.45,114.21,54.21
149,691009516,-0.9326,0.2007,-0.3857,-129.45,115.67,55.85
150,691014514,-0.9312,0.2163,-0.3984,-129.39,116.89,57.44
151,691019516,-0.9336,0.2349,-0.4102,-129.15,118.17,59.27
152,691024515,-0.9409,0.2505,-0.4097,-128.66,119.27,60.91
153,691029518,-0.9487,0.2622,-0.4233,-127.93,120.43,62.74
154,691034515,-0.9614,0.2676,-0.4375,-127.38,121.34,64.63
155,691039516,-0.9673,0.2812,-0.4419,-126.89,122.07,66.77
156,691044515,-0.9668,0.2861,-0.4546,-126.52,122.80,68.90
157,691049516,-0.9707,0.2886,-0.4673,-126.34,123.48,71.16
158,691054515,-0.9761,0.2910,-0.4810,-126.52,123.78,73.54
159,691059516,-0.9849,0.2939,-0.4800,-126.71,124.21,75.91
160,691064516,-0.9868,0.2979,-0.4746,-126.65,124.51,78.29
161,691069516,-0.9927,0.3110,-0.4756,-126.40,125.12,80.85
162,691074515,-0.9902,0.3184,-0.4663,-125.85,125.61,83.23
163,691079516,-0.9922,0.3340,-0.4648,-124.88,125.91,86.46
164,691084515,-0.9873,0.3521,-0.4653,-123.48,126.52,87.93
165,691089518,-0.9780,0.3711,-0.4668,-121.71,127.07,89.76
166,691094515,-0.9761,0.3857,-0.4629,-119.51,127.68,91.83
167,691099514,-0.9697,0.4033,-0.4570,-117.13,127.93,93.96
168,691104558,-0.9717,0.4160,-0.4644,-114.33,128.23,95.91
169,691109516,-0.9727,0.4355,-0.4663,-111.28,128.66,97.80
170,691114515,-0.9746,0.4561,-0.4653,-107.99,128.96,99.63
171,691119518,-0.9819,0.4697,-0.4697,-104.63,129.27,101.59
172,691124515,-0.9912,0.4824,-0.4692,-101.10,129.45,103.41
173,691129516,-0.9951,0.4956,-0.4585,-97.74,129.94,105.49
174,691134515,-1.0010,0.5107,-0.4531,-94.45,130.18,107.44
175,691139517,-1.0112,0.5269,-0.4517,-91.10,130.67,109.63
176,691144515,-1.0171,0.5522,-0.4414,-88.11,131.10,111.46
177,691149516,-1.0205,0.5708,-0.4463,-85.18,131.71,113.35
178,691154515,-1.0293,0.5952,-0.4478,-82.56,132.32,115.18
179,691159516,-1.0342,0.6182,-0.4458,-80.00,132.93,116.89
180,691164515,-1.0444,0.6362,-0.4414,-77.50,133.35,118.35
181,691169516,-1.0566,0.6548,-0.4448,-74.94,133.90,119.88
182,691174516,-1.0688,0.6763,-0.4521,-72.56,134.63,121.34
183,691179516,-1.0747,0.6885,-0.4575,-70.30,135.24,122.80
184,691184515,-0.9731,0.6299,-0.4126,-68.41,135.85,124.39
185,691189517,-0.9390,0.7090,-0.4878,-67.99,136.16,126.16
186,691194518,-1.0605,0.8125,-0.5767,-67.38,135.55,126.95
187,691199516,-1.1733,0.8228,-0.4907,-66.40,135.18,127.93
188,691204515,-1.1987,0.8062,-0.4761,-65.18,135.49,128.96
189,691209516,-1.1646,0.8086,-0.5161,-63.41,135.73,130.30
190,691214516,-1.1211,0.7944,-0.4902,-61.59,135.79,131.46
191,691219516,-1.0981,0.7969,-0.4575,-59.39,136.40,132.74
192,691224516,-1.0898,0.8125,-0.4668,-57.26,137.07,134.09
193,691229515,-1.0879,0.8584,-0.4897,-54.82,137.50,135.30
194,691234517,-1.0898,0.8877,-0.4492,-52.32,138.23,136.40
195,691239516,-1.0928,0.8906,-0.4238,-49.82,139.39,137.68
196,691244516,-1.0776,0.8735,-0.4419,-47.20,140.06,139.09
197,691249515,-1.0503,0.8633,-0.4551,-44.94,140.91,140.61
198,691254516,-1.0225,0.8564,-0.4175,-42.87,141.52,142.13
199,691259516,-1.0054,0.8672,-0.4160,-41.28,142.32,143.72
200,691264516,-0.9834,0.8906,-0.4434,-39.76,142.74,145.18
201,691269516,-0.9810,0.9199,-0.4395,-38.72,142.87,146.52
202,691274516,-0.9834,0.9346,-0.4146,-37.99,143.29,147.80
203,691279983,-0.9858,0.9380,-0.4224,-37.68,143.41,148.84
204,691284516,-0.9868,0.9429,-0.4419,-38.05,143.17,150.06
205,691289516,-0.9780,0.9507,-0.4375,-38.60,142.87,151.22
206,691294516,-0.9673,0.9561,-0.4121,-39.88,142.38,152.01
207,691299516,-0.9453,0.9624,-0.4189,-41.83,141.89,152.87
208,691304516,-0.9131,0.9648,-0.4277,-44.45,141.04,153.54
209,691309516,-0.8706,0.9712,-0.4082,-47.68,140.06,154.21
210,691314516,-0.8315,0.9736,-0.3872,-51.34,139.02,154.82
211,691319521,-0.7935,0.9717,-0.3867,-55.61,137.68,155.43
212,691324516,-0.7549,0.9556,-0.3784,-60.24,136.40,155.85
213,691329516,-0.7153,0.9644,-0.3579,-65.12,134.94,156.22
214,691334515,-0.6792,0.9741,-0.3350,-70.00,133.48,156.28
215,691339519,-0.6382,0.9810,-0.3257,-75.18,131.95,156.34
216,691344516,-0.6074,0.9907,-0.3120,-80.43,130.24,156.28
217,691349516,-0.5771,1.0044,-0.2827,-85.98,128.60,156.34
218,691354516,-0.5586,1.0156,-0.2598,-91.65,127.20,156.16
219,691359515,-0.5469,1.0122,-0.2656,-97.68,125.55,156.10
220,691364516,-0.5435,1.0049,-0.2466,-103.90,123.78,156.34
221,691369516,-0.5503,0.9956,-0.2183,-110.73,122.26,156.34
222,691374517,-0.5391,0.9810,-0.2100,-117.99,120.61,156.52
223,691379514,-0.5122,0.9731,-0.2129,-125.85,118.66,157.01
224,691384516,-0.4858,0.9731,-0.2139,-134.09,116.71,157.38
225,691389517,-0.4551,0.9585,-0.2021,-142.50,114.33,157.74
226,691394516,-0.4219,0.9526,-0.1914,-151.34,111.95,158.35
227,691399515,-0.3887,0.9502,-0.1772,-160.12,109.15,158.78
228,691404517,-0.3564,0.9453,-0.1470,-169.09,106.34,159.39
229,691409515,-0.3203,0.9419,-0.1206,-177.50,103.60,159.82
230,691414515,-0.2808,0.9419,-0.0923,-186.10,100.55,160.37
231,691419517,-0.2529,0.9443,-0.0635,-194.39,97.62,161.10
232,691424516,-0.2427,0.9438,-0.0283,-202.62,94.57,161.40
233,691429516,-0.2720,0.9346,-0.0093,-210.61,91.71,161.95
234,691434515,-0.2295,0.9448,0.0254,-218.84,87.99,162.38
235,691439516,-0.1865,0.9341,0.0566,-227.01,87.01,162.68
236,691444515,-0.1616,0.9087,0.0889,-235.06,84.33,162.87
237,691449516,-0.1377,0.8936,0.1030,-243.05,80.49,163.41
238,691454515,-0.1001,0.8799,0.1157,-250.55,77.26,163.72
239,691459516,-0.0674,0.8779,0.1416,-258.05,73.96,164.09
240,691464515,-0.0488,0.8711,0.1582,-264.94,70.61,164.09
241,691469516,-0.0293,0.8447,0.1758,-271.46,67.13,164.21
242,691474515,-0.0142,0.8257,0.1938,-277.56,63.60,164.21
243,691479516,-0.0073,0.8076,0.2285,-282.87,60.12,164.15
244,691484516,-0.0005,0.7949,0.2554,-287.74,56.65,163.78
245,691489516,0.0142,0.7876,0.2734,-291.83,53.05,163.41
246,691494516,0.0269,0.7764,0.2847,-295.00,49.45,162.74
247,691499515,0.0469,0.7642,0.3149,-297.32,45.79,161.89
248,691504516,0.0771,0.7529,0.3320,-298.84,42.26,160.91
249,691509517,0.1094,0.7344,0.3472,-299.15,38.54,159.70
250,691514516,0.1489,0.7197,0.3584,-298.84,35.18,158.17
251,691519514,0.1914,0.6997,0.3838,-297.68,31.65,156.59
252,691524514,0.2397,0.6826,0.3916,-295.61,28.35,154.82
253,691529514,0.2822,0.6655,0.4023,-292.56,24.94,152.93
254,691534516,0.3320,0.6479,0.4268,-288.78,21.83,150.79
255,691539516,0.3696,0.6279,0.4497,-283.66,18.72,148.41
256,691544515,0.3965,0.6182,0.4526,-277.74,15.91,145.98
257,691549610,0.4243,0.5952,0.4463,-270.67,13.23,143.23
258,691554514,0.4360,0.5879,0.4438,-262.44,10.43,140.30
259,691559516,0.4385,0.5850,0.4507,-253.41,7.93,137.26
260,691564515,0.4370,0.5835,0.4390,-243.41,5.55,133.90
261,691569516,0.4336,0.5718,0.4243,-232.74,3.05,130.55
262,691574515,0.4287,0.5649,0.4233,-221.52,0.67,127.07
263,691579516,0.4194,0.5498,0.4199,-209.70,-1.59,123.48
264,691584515,0.4131,0.5352,0.4189,-197.68,-3.60,119.82
265,691589550,0.4106,0.5303,0.4224,-185.30,-5.43,116.04
266,691594516,0.4131,0.5142,0.4194,-172.80,-7.20,112.50
267,691599516,0.4141,0.5000,0.4224,-160.30,-8.78,108.78
268,691604515,0.4238,0.4897,0.4268,-147.68,-10.06,105.18
269,691609516,0.4243,0.4805,0.4385,-135.18,-11.40,101.59
270,691614514,0.4312,0.4683,0.4478,-122.80,-12.38,97.99
271,691619516,0.4248,0.4551,0.4595,-110.79,-13.11,94.33
272,691624516,0.4312,0.4395,0.4561,-99.15,-13.48,91.04
273,691629514,0.4316,0.4302,0.4663,-87.99,-14.09,86.52
274,691634516,0.4258,0.4292,0.4702,-77.44,-14.39,84.51
275,691639517,0.4282,0.4341,0.4756,-67.74,-14.63,80.98
276,691644516,0.4209,0.4331,0.4829,-58.78,-14.57,77.56
277,691649515,0.4243,0.4316,0.4839,-50.67,-14.70,74.09
278,691654516,0.4268,0.4331,0.4873,-43.60,-14.51,70.73
279,691659516,0.4268,0.4429,0.4834,-37.20,-14.39,67.50
280,691664516,0.4243,0.4526,0.4844,-31.83,-14.21,63.96
281,691669515,0.4248,0.4551,0.4775,-27.44,-14.33,60.49
282,691674516,0.4214,0.4536,0.4780,-23.78,-14.33,57.26
283,691679516,0.4258,0.4585,0.4624,-20.91,-14.33,53.90
284,691684517,0.4282,0.4648,0.4648,-19.21,-14.45,50.61
285,691689653,0.4287,0.4487,0.4580,-18.05,-14.76,47.44
286,691694516,0.4331,0.4487,0.4243,-17.99,-15.00,44.51
287,691699516,0.4336,0.4624,0.4331,-18.29,-15.49,41.59
288,691704517,0.4321,0.4688,0.4497,-19.63,-15.67,38.60
289,691709514,0.4287,0.4814,0.4365,-21.40,-15.98,35.67
290,691714516,0.4253,0.4883,0.4341,-24.02,-16.34,32.87
291,691719516,0.4146,0.4927,0.4409,-26.89,-16.65,30.00
292,691724516,0.4062,0.4878,0.4448,-30.55,-16.95,27.38
293,691729516,0.4092,0.4824,0.4614,-34.51,-17.20,24.88
294,691734516,0.4141,0.4678,0.4678,-38.72,-17.50,22.38
295,691739516,0.4326,0.4658,0.4648,-43.54,-17.62,20.00
296,691744516,0.4575,0.4702,0.4727,-48.60,-17.80,17.87
297,691749515,0.4805,0.4780,0.4805,-53.90,-18.11,15.61
298,691754516,0.5029,0.4819,0.4707,-59.45,-18.29,13.35
299,691759516,0.5264,0.4810,0.4639,-65.12,-18.60,11.16
300,691764516,0.5396,0.4883,0.4551,-70.91,-18.90,8.96
301,691769515,0.5557,0.4932,0.4414,-76.59,-19.27,6.65
302,691774516,0.5679,0.5015,0.4341,-81.83,-19.76,4.45
303,691779516,0.5737,0.5078,0.4326,-86.77,-20.18,2.26
304,691784516,0.5752,0.5195,0.4292,-90.91,-20.43,0.00
305,691789515,0.5747,0.5229,0.4297,-94.45,-20.61,-2.01
306,691794516,0.5737,0.5244,0.4448,-97.20,-20.79,-4.09
307,691799516,0.5708,0.5176,0.4590,-98.96,-20.67,-6.04
308,691804517,0.5703,0.5112,0.4780,-100.06,-20.49,-7.74
309,691809515,0.5752,0.5063,0.4985,-100.30,-20.30,-9.51
310,691814516,0.5771,0.4971,0.5137,-99.76,-19.70,-10.91
311,691819516,0.5718,0.4932,0.5308,-98.72,-19.21,-12.38
312,691824516,0.5747,0.4932,0.5400,-97.07,-18.29,-13.54
313,691829516,0.5781,0.4995,0.5479,-95.12,-17.80,-14.82
314,691834515,0.5830,0.5044,0.5479,-92.93,-17.13,-16.10
315,691839516,0.5894,0.5103,0.5498,-90.37,-16.59,-17.26
316,691844515,0.5942,0.5122,0.5410,-87.74,-16.04,-18.48
317,691849516,0.6025,0.5083,0.5327,-84.94,-15.67,-19.51
318,691854515,0.6040,0.5176,0.5317,-82.20,-15.43,-20.67
319,691859533,0.6060,0.5142,0.5283,-79.39,-15.37,-21.71
320,691864516,0.6069,0.5127,0.5254,-76.46,-15.12,-22.62
321,691869516,0.6084,0.5088,0.5254,-73.48,-15.06,-23.48
322,691874516,0.6064,0.5024,0.5215,-70.37,-14.94,-24.27
323,691879515,0.5977,0.4990,0.5293,-67.07,-15.12,-24.88
324,691884516,0.5889,0.4990,0.5488,-63.66,-15.12,-25.49
325,691889899,0.5776,0.5054,0.5654,-59.09,-15.06,-26.16
326,691894516,0.5703,0.5044,0.5615,-55.79,-15.06,-26.65
327,691899516,0.5674,0.5176,0.5693,-51.52,-15.00,-27.13
328,691904517,0.5571,0.5259,0.5723,-47.32,-14.88,-27.68
329,691909515,0.5503,0.5366,0.5732,-43.05,-15.06,-28.23
330,691914516,0.5396,0.5371,0.5825,-38.96,-14.82,-28.78
331,691919516,0.5317,0.5415,0.5840,-35.24,-14.94,-29.33
332,691924516,0.5298,0.5425,0.5859,-31.46,-14.88,-29.82
333,691929515,0.5229,0.5376,0.5889,-28.05,-14.76,-30.30
334,691934517,0.4932,0.5693,0.6230,-24.88,-14.57,-30.67
335,691939516,0.5083,0.5591,0.6069,-21.28,-14.39,-31.34
336,691944516,0.5273,0.5288,0.5820,-18.17,-14.39,-31.65
337,691949515,0.5317,0.5039,0.5811,-15.43,-14.57,-31.71
338,691954516,0.5332,0.4922,0.5781,-13.23,-14.82,-31.59
339,691959516,0.5117,0.4946,0.5527,-11.34,-15.24,-31.34
340,691964516,0.5073,0.4985,0.5493,-10.00,-15.91,-31.16
341,691969519,0.5127,0.5171,0.5396,-8.48,-16.46,-30.85
342,691974518,0.5122,0.5361,0.5312,-7.68,-17.07,-30.85
343,691979514,0.5366,0.5474,0.5234,-6.83,-17.99,-30.73
344,691984515,0.5537,0.5903,0.4854,-6.10,-19.27,-30.73
345,691989516,0.5723,0.6206,0.4458,-5.12,-21.28,-31.40
346,691994516,0.5859,0.6162,0.4160,-3.60,-23.78,-32.20
347,691999515,0.6108,0.5894,0.4600,-2.01,-26.59,-32.93
348,692004516,0.6025,0.5659,0.4932,-0.49,-28.90,-33.35
349,692009516,0.5991,0.5664,0.5225,0.67,-30.85,-33.41
350,692014514,0.5981,0.5571,0.5225,2.13,-32.62,-33.48
351,692019515,0.5952,0.5391,0.5371,3.60,-34.57,-33.29
352,692024516,0.5864,0.5342,0.5552,5.18,-36.10,-32.80
353,692029516,0.5825,0.5405,0.5845,6.89,-37.44,-32.26
354,692034516,0.5723,0.5303,0.5771,8.90,-38.60,-31.77
355,692039520,0.5820,0.5156,0.5811,10.61,-39.76,-30.61
356,692044516,0.5732,0.5347,0.5889,12.50,-40.61,-29.21
357,692049516,0.5566,0.5957,0.5981,14.57,-41.40,-27.93
358,692054516,0.5552,0.6289,0.5894,16.83,-42.07,-27.13
359,692059515,0.5757,0.6465,0.5933,19.45,-42.62,-26.40
360,692064516,0.5884,0.6719,0.6089,22.20,-42.99,-25.85
361,692069516,0.5889,0.7056,0.6201,24.82,-43.41,-25.43
362,692074516,0.5898,0.7358,0.6353,27.62,-43.54,-25.43
363,692079515,0.5898,0.7651,0.6460,30.24,-43.23,-25.37
364,692084516,0.6001,0.7793,0.6699,32.62,-42.44,-25.73
365,692089518,0.6021,0.7959,0.7026,34.76,-41.59,-26.04
366,692094516,0.6138,0.7881,0.6958,36.59,-40.55,-26.28
367,692099516,0.6123,0.7832,0.6953,38.17,-39.27,-26.28
368,692104515,0.6152,0.7949,0.6953,39.57,-37.93,-26.22
369,692109516,0.6240,0.7920,0.6777,40.73,-36.95,-26.28
370,692114516,0.6406,0.7915,0.6611,41.89,-36.22,-26.10
371,692119516,0.6567,0.7866,0.6489,42.80,-35.61,-25.91
372,692124516,0.6616,0.7803,0.6509,43.90,-35.18,-25.73
373,692129516,0.6763,0.7812,0.6367,45.06,-34.70,-25.24
374,692134516,0.6924,0.7676,0.6279,46.22,-34.51,-24.51
375,692139613,0.7114,0.7646,0.6274,47.56,-34.27,-23.48
376,692144516,0.7285,0.7612,0.6323,48.90,-33.84,-22.13
377,692149516,0.7397,0.7607,0.6265,50.30,-33.66,-20.61
378,692154517,0.7690,0.7778,0.6064,52.01,-33.23,-18.84
379,692159515,0.8008,0.7930,0.5938,53.90,-33.05,-17.38
380,692164516,0.8022,0.7910,0.5762,55.67,-33.17,-15.67
381,692169516,0.7925,0.7949,0.5645,57.20,-33.17,-13.84
382,692174516,0.7852,0.8105,0.5522,58.48,-33.29,-11.83
383,692179515,0.7896,0.8076,0.5386,59.39,-33.66,-9.88
384,692184516,0.7729,0.8013,0.5449,59.76,-34.02,-8.11
385,692189515,0.7603,0.7876,0.5464,59.76,-33.96,-6.16
386,692194517,0.7349,0.7744,0.5469,59.33,-33.78,-4.39
387,692199517,0.7451,0.7471,0.5518,58.90,-33.41,-2.68
388,692204516,0.7305,0.7368,0.5732,58.23,-32.93,-0.73
389,692209516,0.7168,0.7295,0.5825,57.38,-31.77,1.04
390,692214517,0.7007,0.7256,0.5811,56.59,-30.43,2.50
391,692219515,0.6948,0.7188,0.5864,55.67,-28.96,3.66
392,692224516,0.6836,0.7168,0.5854,54.76,-27.32,4.63
393,692229514,0.6821,0.7192,0.6069,53.72,-25.67,5.18
394,692234518,0.7007,0.7114,0.6104,52.80,-23.72,5.49
395,692239515,0.7329,0.7031,0.5986,51.52,-21.95,5.67
396,692244516,0.7529,0.6904,0.5947,50.12,-20.06,5.55
397,692250039,0.7603,0.6841,0.5996,47.80,-17.99,5.18
398,692254516,0.7769,0.6792,0.6025,46.04,-16.59,4.88
399,692259516,0.7983,0.6689,0.5884,43.48,-14.94,4.27
400,692264516,0.8062,0.6572,0.5835,40.85,-13.60,3.78
401,692269514,0.8208,0.6562,0.5864,37.99,-12.07,3.29
402,692274516,0.8193,0.6538,0.5903,35.12,-10.85,2.44
403,692279516,0.8203,0.6431,0.5894,32.20,-9.70,1.71
404,692284517,0.8154,0.6343,0.6113,29.39,-8.05,0.79
405,692289514,0.8091,0.6460,0.6201,26.40,-6.28,-0.37
406,692294514,0.7969,0.6450,0.6289,23.17,-4.39,-1.59
407,692299516,0.7993,0.6558,0.6406,19.70,-2.38,-3.23
408,692304516,0.8110,0.6553,0.6323,16.28,-0.61,-5.00
409,692309516,0.7578,0.6606,0.5845,12.56,0.79,-6.71
410,692314515,0.7485,0.6445,0.6030,8.41,1.95,-8.60
411,692319516,0.7515,0.6357,0.6313,3.90,2.93,-10.06
412,692324516,0.7622,0.6206,0.6079,-1.10,3.66,-11.59
413,692329516,0.7646,0.6089,0.5977,-6.28,4.09,-12.87
414,692334515,0.7637,0.6064,0.6265,-11.28,4.39,-13.72
415,692339514,0.7578,0.6001,0.6279,-15.91,4.57,-14.45
416,692344517,0.7554,0.6006,0.6289,-19.76,4.57,-14.82
417,692349516,0.7378,0.6035,0.6401,-22.87,4.82,-14.94
418,692354515,0.7515,0.5967,0.6343,-24.63,4.88,-14.51
419,692359518,0.7485,0.6089,0.6348,-25.24,4.63,-13.90
420,692364515,0.7271,0.6069,0.6333,-24.39,4.51,-12.87
421,692369516,0.7017,0.6074,0.6265,-21.95,4.15,-11.65
422,692374515,0.6660,0.6128,0.6313,-18.23,3.84,-10.18
423,692379516,0.6489,0.6250,0.6187,-13.05,3.29,-8.54
424,692384515,0.6372,0.6411,0.6123,-6.77,2.87,-6.83
425,692389516,0.6274,0.6602,0.6216,0.43,2.32,-4.94
426,692394515,0.5952,0.7041,0.6416,8.35,1.59,-3.23
427,692399516,0.5859,0.7119,0.6060,17.32,0.85,-1.59
428,692404515,0.5811,0.6997,0.5815,26.89,-0.43,0.24
429,692409516,0.5830,0.6938,0.5874,36.77,-1.71,2.07
430,692414515,0.5850,0.6929,0.5825,46.65,-3.05,3.84
431,692419516,0.5864,0.6963,0.5786,56.83,-4.27,5.43
432,692424519,0.5791,0.6973,0.5703,67.26,-5.24,6.77
433,692429518,0.5820,0.6899,0.5635,77.80,-6.34,8.11
434,692434517,0.5928,0.6831,0.5547,88.54,-7.26,9.39
435,692439515,0.6064,0.6763,0.5356,99.39,-7.99,10.49
436,692444514,0.6152,0.6699,0.5220,110.00,-8.72,11.59
437,692449514,0.6147,0.6646,0.4893,120.61,-9.33,12.44
438,692455082,0.5874,0.6689,0.5132,132.13,-10.12,13.23
439,692459516,0.5845,0.6606,0.5098,140.24,-10.49,13.60
440,692464515,0.5991,0.6035,0.4614,149.51,-10.43,14.63
441,692469517,0.6147,0.6104,0.4517,157.87,-10.79,15.79
442,692474515,0.6616,0.6768,0.4341,164.76,-10.98,16.71
443,692479516,0.6626,0.6431,0.4077,169.02,-11.28,17.07
444,692484515,0.7939,0.6978,0.4331,171.46,-11.52,17.74
445,692489516,0.7485,0.7017,0.3843,171.89,-11.65,18.23
446,692494515,0.6807,0.7065,0.3662,170.79,-12.32,19.09
447,692499516,0.6318,0.6899,0.3584,168.11,-12.87,19.51
448,692504515,0.6182,0.6650,0.3433,164.15,-13.29,19.82
449,692509518,0.6230,0.6470,0.3174,159.45,-14.09,19.94
450,692514515,0.6357,0.6299,0.3149,153.90,-14.51,20.06
451,692519514,0.7163,0.6045,0.3218,147.44,-14.94,20.12
452,692524516,0.7280,0.6211,0.3208,140.24,-15.24,20.00
453,692529516,0.6973,0.6357,0.2930,133.05,-15.61,19.88
454,692534517,0.6763,0.6382,0.2935,125.91,-15.85,19.57
455,692539515,0.6748,0.6313,0.2837,118.05,-16.16,19.09
456,692544516,0.6875,0.6313,0.2783,110.61,-16.34,18.66
457,692549517,0.7085,0.6309,0.2749,103.84,-16.16,18.17
458,692554516,0.7129,0.6357,0.2695,97.62,-16.16,17.68
459,692559515,0.7163,0.6396,0.2559,92.01,-16.28,17.20
460,692564516,0.7119,0.6353,0.2441,87.20,-15.91,16.52
461,692569516,0.7070,0.6304,0.2437,83.17,-15.67,15.98
462,692574516,0.7100,0.6235,0.2383,80.00,-15.30,15.37
463,692579516,0.7046,0.6313,0.2251,77.80,-14.82,14.88
464,692584515,0.7051,0.6289,0.2197,76.71,-14.27,14.39
465,692589516,0.7061,0.6304,0.2104,76.40,-13.66,13.84
466,692594515,0.6958,0.6260,0.2070,77.01,-12.87,13.35
467,692599516,0.6992,0.6206,0.1929,78.41,-12.13,12.87
468,692604515,0.7041,0.6323,0.1870,80.30,-11.04,12.26
469,692609516,0.7104,0.6260,0.1733,82.62,-10.00,11.59
470,692614515,0.7070,0.6230,0.1631,85.12,-9.02,10.91
471,692619514,0.7070,0.6177,0.1592,87.68,-7.93,10.30
472,692624518,0.6987,0.6108,0.1470,90.30,-6.77,9.45
473,692629516,0.6973,0.6084,0.1377,92.62,-5.85,8.84
474,692634515,0.6938,0.6016,0.1245,94.45,-4.70,8.05
475,692639516,0.6895,0.5962,0.1191,95.55,-3.66,7.07
476,692644515,0.6831,0.5879,0.1079,96.16,-2.87,6.16
477,692649589,0.6748,0.5903,0.1040,96.16,-2.20,5.30
478,692654514,0.6812,0.5771,0.0889,95.49,-1.46,4.27
479,692659516,0.6670,0.5747,0.0967,94.21,-0.79,3.29
480,692664515,0.6577,0.5947,0.0938,92.50,-0.30,2.26
481,692669516,0.6641,0.6831,0.1274,90.18,0.24,1.22
482,692674515,0.6895,0.6577,0.1348,87.74,0.49,0.18
483,692679514,0.7241,0.6592,0.1719,85.18,0.55,0.30
484,692684516,0.7437,0.7368,0.1968,82.01,0.79,0.06
485,692689516,0.7524,0.7798,0.1729,78.66,0.85,-0.37
486,692694515,0.7656,0.8018,0.1558,75.43,0.43,-0.43
487,692699516,0.7715,0.7837,0.1406,72.38,0.06,0.06
488,692704515,0.7666,0.7407,0.1021,69.70,-0.49,0.98
489,692709516,0.7554,0.7085,0.0835,67.01,-1.04,2.07
490,692714515,0.7324,0.6865,0.0771,64.82,-1.22,3.11
491,692719516,0.7188,0.7207,0.0825,62.99,-1.16,3.84
492,692724515,0.7041,0.7690,0.0864,61.71,-0.91,4.33
493,692729516,0.7144,0.7837,0.0566,61.40,-0.73,5.12
494,692734620,0.7183,0.7817,0.0093,61.59,-0.55,6.59
495,692739516,0.7207,0.7905,-0.0098,61.71,-0.49,7.93
496,692744515,0.7085,0.7969,-0.0405,61.83,-0.12,9.63
497,692749514,0.6992,0.7983,-0.0557,62.01,0.00,11.34
498,692754514,0.6875,0.7988,-0.0679,61.59,0.18,12.99
499,692759516,0.6924,0.7866,-0.0747,61.16,0.55,14.88
500,692764515,0.7017,0.7686,-0.0801,60.55,0.98,16.89
501,692769516,0.7070,0.7588,-0.0718,59.82,1.28,18.90
502,692774515,0.7109,0.7578,-0.0742,59.27,1.89,21.10
503,692779516,0.7100,0.7588,-0.0679,58.78,2.50,23.17
504,692784515,0.7085,0.7666,-0.0654,58.54,3.11,25.12
505,692789516,0.6934,0.7588,-0.0791,58.78,3.90,27.32
506,692794515,0.6768,0.7632,-0.0806,60.37,4.51,29.45
507,692799516,0.6841,0.7612,-0.0942,63.35,5.37,31.59
508,692804515,0.6792,0.7871,-0.1128,67.62,6.40,33.78
509,692809516,0.7012,0.8374,-0.1040,73.29,7.50,36.22
510,692814515,0.7319,0.8477,-0.1782,79.51,8.35,38.23
511,692819516,0.7202,0.7700,-0.2153,86.59,9.02,40.12
512,692824515,0.7871,0.7944,-0.1260,94.15,10.06,41.77
513,692829516,0.8145,0.8013,-0.1646,101.65,11.71,43.11
514,692834515,0.8047,0.8105,-0.2598,108.60,12.44,44.27
515,692839514,0.5825,0.6855,-0.1548,116.16,14.15,46.34
516,692844514,0.6611,0.7583,-0.2163,124.70,16.04,48.78
517,692849518,0.7578,0.7427,-0.2119,134.09,18.48,51.28
518,692854515,0.8164,0.7612,-0.2119,142.38,20.55,53.29
519,692859514,0.8267,0.7676,-0.2500,148.60,22.26,54.63
520,692864516,0.8389,0.7725,-0.2739,157.20,24.21,56.40
521,692869516,0.8472,0.7725,-0.2710,163.72,25.85,57.74
522,692874515,0.8481,0.7617,-0.2656,168.48,27.38,58.35
523,692879517,0.8574,0.7715,-0.2891,174.63,29.51,58.96
524,692884515,0.8784,0.7876,-0.3193,177.80,30.98,59.27
525,692889516,0.9116,0.7646,-0.3418,180.61,32.99,59.57
526,692894515,0.9277,0.7622,-0.3374,181.16,34.27,59.88
527,692899516,0.9492,0.7329,-0.3579,179.63,35.67,60.55
528,692904515,0.9609,0.6909,-0.3755,177.50,36.46,61.22
529,692909516,0.9585,0.6792,-0.3799,172.38,37.56,62.20
530,692914515,0.9600,0.6621,-0.3726,167.99,38.23,62.87
531,692919516,0.9468,0.6426,-0.3633,160.61,39.21,63.78
532,692924515,0.9468,0.6436,-0.3770,155.00,40.00,64.21
533,692929516,0.9546,0.6152,-0.3867,146.04,40.85,64.94
534,692934515,0.9678,0.6147,-0.3770,139.63,41.28,65.43
535,692939516,0.9814,0.6167,-0.3716,130.67,42.13,65.85
536,692944514,0.9658,0.6035,-0.3730,124.09,42.68,65.91
537,692949515,0.9961,0.5713,-0.3779,115.79,43.78,65.85
538,692954518,1.0049,0.5449,-0.4121,109.51,44.51,66.16
539,692959515,1.0000,0.5547,-0.4141,103.60,45.37,66.71
540,692964516,1.0098,0.5630,-0.4302,98.48,46.10,67.13
541,692969516,1.0161,0.5630,-0.4448,94.21,46.77,67.68
542,692974516,1.0122,0.5508,-0.4565,90.73,47.74,68.41
543,692979515,1.0103,0.5366,-0.4521,88.17,48.48,69.39
544,692984516,1.0044,0.5249,-0.4614,86.65,49.39,70.43
545,692989516,0.9961,0.5234,-0.4658,86.34,50.06,71.40
546,692994516,0.9819,0.5210,-0.4614,87.38,50.98,72.44
547,692999515,0.9688,0.5161,-0.4561,89.94,52.13,73.29
548,693004516,0.9531,0.5132,-0.4653,93.96,53.54,74.02
549,693009516,0.9453,0.5127,-0.4575,99.39,55.12,75.00
550,693014516,0.9258,0.5137,-0.4604,105.98,57.01,75.98
551,693019515,0.9062,0.5156,-0.4785,113.11,59.51,76.83
552,693024516,0.9014,0.5112,-0.4873,120.79,61.89,77.50
553,693029516,0.9028,0.5127,-0.4985,128.11,64.45,78.11
554,693034517,0.9150,0.5166,-0.5161,134.82,66.83,78.48
555,693039514,0.9126,0.5122,-0.5376,141.04,69.51,78.54
556,693044515,0.8862,0.5674,-0.5410,147.20,71.83,78.11
557,693049541,0.9028,0.5371,-0.5537,153.11,73.96,77.56
558,693054516,0.9097,0.5176,-0.5532,158.48,76.22,76.89
559,693059517,0.9043,0.5068,-0.5537,163.35,78.05,76.04
560,693064516,0.9185,0.5034,-0.5679,168.23,79.76,75.24
561,693069516,0.9282,0.4941,-0.5786,172.74,81.16,74.70
562,693074515,0.9404,0.4907,-0.5776,177.07,82.68,73.96
563,693079516,0.9512,0.4810,-0.5693,181.28,84.15,73.23
564,693084516,0.9395,0.4771,-0.5508,186.40,85.24,72.68
565,693089617,0.9316,0.4561,-0.5742,192.13,86.40,72.01
566,693094515,0.9653,0.4468,-0.5381,198.23,85.85,71.46
567,693099516,0.9614,0.4619,-0.5483,204.51,85.85,70.91
568,693104516,0.9487,0.4453,-0.5791,210.67,86.16,70.24
569,693109516,0.9351,0.4443,-0.5737,216.46,88.35,69.57
570,693114515,0.9399,0.4390,-0.5635,221.71,89.45,69.02
571,693119518,0.9302,0.4341,-0.5771,226.16,90.24,68.29
572,693124515,0.9146,0.4302,-0.5762,229.70,91.22,67.87
573,693129516,0.8955,0.4224,-0.5615,232.01,91.95,67.20
574,693134514,0.8794,0.4126,-0.5430,233.05,92.99,67.07
575,693139516,0.8691,0.4048,-0.5356,232.38,94.09,67.07
576,693144515,0.8604,0.3975,-0.5278,230.37,95.24,67.13
577,693149514,0.8408,0.3926,-0.5278,227.13,96.52,67.07
578,693154514,0.8228,0.3755,-0.5317,222.80,97.87,66.95
579,693159516,0.8003,0.3638,-0.5151,217.68,99.09,67.01
580,693164514,0.7754,0.3628,-0.4961,212.44,100.49,66.77
581,693169516,0.7642,0.3691,-0.4961,207.01,101.89,66.40
582,693174515,0.7695,0.3716,-0.4780,202.13,103.17,65.73
583,693179516,0.7666,0.3647,-0.4619,197.62,104.57,65.06
584,693184515,0.7515,0.3618,-0.4619,193.96,106.04,64.45
585,693189516,0.7314,0.3579,-0.4443,191.28,107.56,63.84
586,693194516,0.7134,0.3604,-0.4370,189.21,109.21,63.54
587,693199516,0.7012,0.3721,-0.4229,187.87,110.85,63.11
588,693204515,0.6924,0.3682,-0.4033,186.65,112.50,62.38
589,693209516,0.6895,0.3608,-0.3843,185.61,114.33,61.59
590,693214515,0.6860,0.3569,-0.3789,184.76,115.85,60.73
591,693219516,0.6851,0.3535,-0.3789,183.72,117.38,59.82
592,693224515,0.6909,0.3438,-0.3701,182.87,118.84,58.84
593,693229516,0.7017,0.3447,-0.3643,182.01,119.94,57.74
594,693234515,0.7026,0.3447,-0.3594,181.22,121.16,56.40
595,693239516,0.7051,0.3350,-0.3462,180.55,122.44,55.06
596,693244516,0.7056,0.3315,-0.3374,179.94,123.35,53.54
597,693249514,0.7114,0.3257,-0.3262,179.51,124.09,52.01
598,693255034,0.7178,0.3062,-0.3188,179.39,124.88,50.61
599,693259516,0.7378,0.2944,-0.3135,179.33,125.43,49.33
600,693264516,0.7578,0.2852,-0.2896,179.33,125.79,48.23
601,693269516,0.7788,0.2827,-0.2749,179.39,125.73,47.07
602,693274515,0.7852,0.2817,-0.2632,179.63,125.67,45.85
603,693279516,0.7700,0.3091,-0.2310,180.24,125.24,44.45
604,693284515,0.7656,0.2666,-0.2095,181.77,124.82,43.05
605,693289517,0.7646,0.2485,-0.1655,184.09,124.45,42.01
606,693294515,0.7563,0.2559,-0.1392,186.16,124.21,40.73
607,693299516,0.7471,0.2515,-0.1294,188.60,123.66,39.39
608,693304516,0.7393,0.2539,-0.1309,191.22,123.11,37.87
609,693309516,0.7437,0.2559,-0.1123,194.15,122.62,36.59
610,693314515,0.7480,0.2524,-0.1045,197.26,122.13,35.12
611,693319516,0.7534,0.2578,-0.1011,200.49,121.46,33.72
612,693324516,0.7593,0.2622,-0.0938,203.84,120.73,32.13
613,693329516,0.7617,0.2715,-0.1021,207.20,120.18,30.67
614,693334515,0.7627,0.2788,-0.0942,210.67,119.39,28.96
615,693339516,0.7339,0.2788,-0.1157,214.27,118.60,27.26
616,693344516,0.6743,0.2378,-0.1768,218.48,117.50,25.55
617,693349514,0.6641,0.3652,-0.0786,225.00,116.71,23.60
618,693354514,0.7280,0.3989,-0.0659,231.89,116.52,20.85
619,693359516,0.7974,0.3428,-0.1016,239.15,116.16,18.66
620,693364518,0.7974,0.3296,-0.0659,245.61,115.43,16.40
621,693369515,0.7651,0.3428,-0.0586,250.85,114.88,13.78
622,693374514,0.7461,0.2827,-0.0454,254.82,114.09,10.85
623,693379516,0.7598,0.4116,-0.0439,258.05,113.23,7.93
624,693384515,0.7783,0.4126,0.0244,259.21,112.80,4.27
625,693389517,0.7544,0.3501,-0.0356,259.39,112.13,1.34
626,693394515,0.7397,0.3750,-0.0449,259.27,111.34,-1.22
627,693399516,0.7261,0.3828,-0.0078,258.23,111.10,-4.09
628,693404515,0.7510,0.3940,0.0137,256.40,110.98,-7.01
629,693409516,0.7856,0.4053,-0.0088,253.90,110.79,-9.70
630,693414515,0.6943,0.4243,-0.0537,250.73,110.37,-12.68
631,693419516,0.6670,0.4482,-0.0430,247.32,109.76,-15.67
632,693424515,0.6768,0.4663,0.0225,243.29,109.76,-18.72
633,693429516,0.6909,0.4756,0.0186,238.84,110.24,-21.52
634,693434515,0.7031,0.4795,0.0020,233.78,110.85,-24.21
635,693439516,0.6934,0.4741,0.0073,228.23,111.52,-26.83
636,693444516,0.6768,0.4727,-0.0073,222.68,112.32,-29.09
637,693449516,0.6670,0.4692,-0.0298,217.32,113.17,-31.10
638,693454514,0.6660,0.4766,-0.0391,211.89,113.84,-32.87
639,693459515,0.6650,0.4922,-0.0503,207.20,114.76,-34.51
640,693464516,0.6704,0.5322,-0.0625,203.29,115.61,-36.04
641,693469516,0.6782,0.5337,-0.0913,200.37,115.98,-37.26
642,693474516,0.6514,0.5366,-0.0566,198.41,116.52,-38.35
643,693479516,0.6270,0.5562,-0.0425,197.01,117.50,-39.21
644,693484517,0.5952,0.5874,-0.0439,196.10,118.35,-40.06
645,693489517,0.5835,0.6191,-0.0669,195.55,119.02,-41.10
646,693494516,0.5835,0.6396,-0.0498,195.18,119.63,-42.13
647,693499516,0.5464,0.6465,-0.0591,194.70,120.12,-43.11
648,693504516,0.5361,0.6455,-0.0557,193.41,120.30,-43.84
649,693509516,0.5591,0.6577,-0.0376,191.77,120.73,-44.21
650,693514516,0.5698,0.6689,-0.0215,189.88,121.52,-44.45
651,693519516,0.5664,0.6938,-0.0044,187.68,122.20,-44.76
652,693524517,0.5439,0.7251,0.0068,185.55,122.80,-45.00
653,693529516,0.5049,0.7446,0.0239,183.48,123.29,-45.37
654,693534517,0.4644,0.7520,0.0176,181.46,123.54,-45.30
655,693539516,0.4253,0.7666,0.0083,179.57,123.60,-44.76
656,693544517,0.4082,0.7891,0.0366,177.87,123.35,-43.96
657,693549516,0.4048,0.8135,0.0620,176.40,123.23,-43.17
658,693554515,0.3989,0.8374,0.0796,175.55,122.80,-42.20
659,693559518,0.3823,0.8647,0.0903,175.43,122.20,-41.46
660,693564516,0.3623,0.8843,0.0854,176.46,121.65,-40.91
661,693569516,0.3545,0.9043,0.0991,178.90,120.67,-40.43
662,693574546,0.3545,0.9102,0.1304,182.80,119.57,-40.00
663,693579516,0.3423,0.9141,0.1631,188.48,118.54,-39.63
664,693584515,0.3037,0.9043,0.1865,196.04,117.80,-39.39
665,693589516,0.2710,0.9077,0.1973,205.06,117.38,-39.09
666,693594515,0.2339,0.9116,0.1816,215.00,116.71,-38.90
667,693599516,0.2119,0.9165,0.1724,225.37,116.22,-38.96
668,693604515,0.2139,0.9087,0.1777,235.85,115.06,-39.09
669,693609516,0.2119,0.9014,0.1865,245.79,113.90,-39.57
670,693614516,0.2051,0.8916,0.1836,255.37,112.62,-40.12
671,693619516,0.1997,0.8853,0.1724,264.02,111.34,-40.79
672,693624515,0.1997,0.8828,0.1650,271.65,109.94,-41.77
673,693629516,0.2026,0.8809,0.1543,278.11,108.35,-42.93
674,693634515,0.1982,0.8818,0.1489,283.60,106.34,-44.15
675,693639516,0.1943,0.8755,0.1450,288.05,104.57,-45.67
676,693644515,0.1885,0.8706,0.1440,291.83,102.62,-47.32
677,693649518,0.1724,0.8711,0.1353,294.51,100.37,-49.15
678,693654515,0.1646,0.8638,0.1318,296.83,98.35,-50.91
679,693659516,0.1587,0.8691,0.1328,298.90,96.04,-52.87
680,693664515,0.1499,0.8667,0.1226,301.10,93.72,-54.88
681,693669514,0.1421,0.8643,0.1265,302.87,91.16,-57.07
682,693674516,0.1323,0.8564,0.1270,304.63,88.29,-59.39
683,693679516,0.1284,0.8491,0.1479,306.16,85.98,-61.71
684,693684515,0.1245,0.8452,0.1523,307.13,84.94,-63.96
685,693689516,0.1309,0.8506,0.1514,307.62,81.59,-66.71
686,693694515,0.1611,0.8530,0.1406,307.56,78.78,-69.33
687,693699517,0.1270,0.8652,0.1411,307.20,75.85,-72.20
688,693704515,0.1240,0.8599,0.0962,306.34,72.62,-75.24
689,693709516,0.1030,0.8359,0.0747,305.55,69.15,-78.23
690,693714515,0.1401,0.8447,0.0718,304.82,65.67,-81.34
691,693719516,0.1147,0.8525,0.0562,304.27,62.26,-84.51
692,693724516,0.1553,0.8672,0.0327,303.72,58.84,-87.93
693,693729516,0.1855,0.8848,0.0132,303.72,55.37,-91.59
694,693734515,0.1523,0.8940,-0.0127,304.15,51.77,-95.24
695,693739516,0.1846,0.9004,-0.0283,305.06,48.11,-98.96
696,693744515,0.1528,0.9087,-0.0410,306.52,44.33,-102.74
697,693749695,0.1250,0.9263,-0.0522,308.60,40.79,-106.71
698,693754516,0.0698,0.9302,-0.0649,311.16,36.77,-110.85
699,693759515,0.0889,0.9590,-0.0928,314.33,33.05,-114.94
700,693764514,0.1099,0.9761,-0.1016,318.35,29.15,-119.09
701,693769516,0.0962,1.0005,-0.1006,323.23,25.18,-123.35
702,693774516,0.0688,1.0293,-0.1113,328.23,21.04,-127.74
703,693779516,0.0605,1.0420,-0.1226,333.11,16.71,-132.07
704,693784516,0.0317,1.0684,-0.1284,337.80,12.50,-136.40
705,693789516,0.0132,1.0972,-0.1348,341.46,7.99,-140.55
706,693794515,-0.0127,1.1162,-0.1099,344.02,3.84,-144.51
707,693799517,-0.0366,1.1426,-0.0869,344.82,-0.49,-148.29
708,693804515,-0.0889,1.1748,-0.0854,343.84,-4.70,-152.07
709,693809516,-0.1245,1.2129,-0.0479,340.73,-8.90,-155.43
710,693814515,-0.1558,1.2407,-0.0024,335.79,-12.99,-158.84
711,693819516,-0.1606,1.2651,0.0449,328.72,-17.01,-161.89
712,693824516,-0.1924,1.2886,0.0889,319.51,-20.55,-164.39
713,693829516,-0.2524,1.3379,0.1094,308.29,-24.02,-166.52
714,693834516,-0.3032,1.3794,0.1318,295.55,-27.62,-167.87
715,693839516,-0.3623,1.4204,0.1440,281.28,-31.10,-168.41
716,693844515,-0.3804,1.4258,0.1792,265.55,-34.70,-168.23
717,693849719,-0.4346,1.4771,0.1982,248.35,-38.23,-167.13
718,693854516,-0.4644,1.5176,0.2246,230.30,-41.71,-165.49
719,693859516,-0.5029,1.5405,0.2446,212.07,-45.49,-162.93
720,693864517,-0.5015,1.5298,0.2622,193.78,-49.09,-159.70
721,693869568,-0.5176,1.5483,0.2881,175.79,-52.80,-155.79
722,693874516,-0.5005,1.5381,0.3110,158.17,-56.46,-151.52
723,693879515,-0.4805,1.5366,0.2788,141.65,-60.37,-146.71
724,693884516,-0.4946,1.5356,0.2539,126.16,-64.63,-141.52
725,693889516,-0.4678,1.5649,0.2729,110.18,-69.21,-136.10
726,693894517,-0.4717,1.5781,0.2729,93.48,-73.48,-130.61
727,693899516,-0.5312,1.5640,0.2144,76.28,-78.29,-124.76
728,693904516,-0.5459,1.6025,0.1826,60.06,-83.35,-118.90
729,693909516,-0.5669,1.6411,0.1597,46.52,-88.48,-113.05
730,693914516,-0.5918,1.6641,0.1372,36.34,-93.48,-107.20
731,693919516,-0.6118,1.6836,0.1460,29.57,-98.84,-101.46
732,693924516,-0.6265,1.6846,0.1841,25.85,-103.90,-95.79
733,693929516,-0.6519,1.6685,0.1973,25.24,-109.09,-89.88
734,693934516,-0.6904,1.6587,0.2026,27.13,-114.76,-84.27
735,693939516,-0.7295,1.6465,0.2280,31.16,-120.49,-78.48
736,693944516,-0.7617,1.6074,0.2700,36.71,-126.95,-72.44
737,693949516,-0.7837,1.5767,0.3057,43.11,-133.78,-66.34
738,693954516,-0.8242,1.5234,0.3589,50.06,-140.98,-59.88
739,693959516,-0.8657,1.4746,0.4014,56.95,-148.66,-53.29
740,693964516,-0.8960,1.4287,0.4370,63.84,-157.01,-46.83
741,693969516,-0.9346,1.3843,0.4551,71.10,-165.79,-40.06
742,693974517,-0.9717,1.3442,0.4395,78.41,-175.30,-33.29
743,693979517,-1.0073,1.3052,0.4683,86.16,-185.43,-26.46
744,693984516,-1.0234,1.2578,0.4468,94.39,-195.67,-19.70
745,693989516,-1.0005,1.2256,0.4331,103.48,-206.22,-12.32
746,693994516,-1.0396,1.2227,0.3857,113.35,-216.89,-5.43
747,693999515,-1.1392,1.1577,0.3301,122.56,-228.17,1.95
748,694004516,-1.1743,1.1250,0.3281,130.98,-239.94,9.76
749,694009516,-1.1870,1.1177,0.3320,140.67,-251.95,17.56
750,694014516,-1.2427,1.0806,0.3403,150.30,-264.02,25.49
751,694019515,-1.2764,1.0903,0.2930,160.91,-275.98,33.72
752,694024516,-1.3242,1.0620,0.2856,170.79,-287.74,42.13
753,694029516,-1.4531,1.0039,0.2554,178.23,-299.57,50.91
754,694034516,-1.5259,0.9707,0.2778,183.05,-311.46,60.24
755,694039514,-1.6030,0.9570,0.2671,185.73,-322.99,69.57
756,694044516,-1.6846,0.9307,0.2456,186.28,-334.33,79.27
757,694049516,-1.7466,0.9019,0.2334,185.18,-345.49,88.96
758,694054516,-1.8389,0.9170,0.2061,182.80,-356.28,98.84
759,694059515,-1.9727,0.8594,0.1768,178.05,-366.95,108.72
760,694064516,-2.0508,0.8252,0.1426,170.55,-377.56,119.02
761,694069516,-2.1494,0.8013,0.1304,161.40,-388.29,129.33
762,694074516,-2.2632,0.7896,0.0908,151.16,-398.90,139.33
763,694079514,-2.3594,0.7549,0.0620,140.43,-409.33,149.33
764,694084516,-2.4482,0.7534,0.0254,130.24,-419.51,159.15
765,694089516,-2.5640,0.7310,-0.0049,118.60,-429.88,168.72
766,694094516,-2.6670,0.7085,-0.0576,108.11,-440.24,178.17
767,694099514,-2.7603,0.7109,-0.0918,98.54,-450.43,187.20
768,694104516,-2.8965,0.6870,-0.1094,89.70,-460.37,195.98
769,694109516,-2.9995,0.6763,-0.1460,82.44,-470.12,204.70
770,694114516,-3.1279,0.6929,-0.1997,76.59,-479.94,213.17
771,694119517,-3.2808,0.6748,-0.1855,71.95,-489.27,221.71
772,694124516,-3.3984,0.6709,-0.2188,68.72,-498.90,230.30
773,694129516,-3.5220,0.6763,-0.2373,66.95,-507.99,238.96
774,694134516,-3.6631,0.6826,-0.2461,66.77,-517.01,247.80
775,694139515,-3.7871,0.6826,-0.2583,67.93,-525.55,256.52
776,694144516,-3.9482,0.7158,-0.3174,70.37,-534.02,265.43
777,694149516,-4.1260,0.7222,-0.3081,72.74,-542.62,274.70
778,694154516,-4.2437,0.7305,-0.3271,74.70,-550.79,283.84
779,694159515,-4.3691,0.7490,-0.3564,76.89,-559.15,293.54
780,694164516,-4.4966,0.7617,-0.3506,78.66,-567.32,302.68
781,694169515,-4.6255,0.7656,-0.3389,78.84,-575.24,311.83
782,694174514,-4.7974,0.7563,-0.3711,77.68,-583.29,320.73
783,694179517,-4.9053,0.7886,-0.4209,76.34,-591.65,329.09
784,694184516,-5.0352,0.8110,-0.4395,75.55,-599.94,337.32
785,694189515,-5.1128,0.8354,-0.4805,74.94,-607.93,345.18
786,694194517,-5.3428,0.8755,-0.4668,74.88,-616.10,352.80
787,694199517,-5.5283,0.9111,-0.4727,75.79,-623.66,360.00
788,694204516,-5.6855,0.9731,-0.4995,77.87,-631.10,367.26
789,694209516,-5.8569,1.0288,-0.4912,80.98,-638.05,374.27
790,694214516,-5.9634,1.0698,-0.4819,85.00,-644.21,381.16
791,694219516,-6.1089,1.1455,-0.5454,88.84,-650.06,387.44
792,694224515,-6.2725,1.2095,-0.5366,91.28,-655.49,393.48
793,694229516,-6.4077,1.2510,-0.5254,92.38,-660.30,399.21
794,694234515,-6.5005,1.2769,-0.5391,92.62,-664.76,404.63
795,694239516,-6.5669,1.3247,-0.5361,93.05,-668.54,409.76
796,694244515,-6.5962,1.3828,-0.5186,93.29,-671.04,414.27
797,694249518,-6.6328,1.4399,-0.4946,93.60,-672.62,418.29
798,694254515,-6.6436,1.4854,-0.4663,93.05,-672.99,421.95
799,694259516,-6.7241,1.5615,-0.5015,91.52,-672.80,425.30
800,694264515,-6.7886,1.6084,-0.4766,87.32,-671.95,427.74
801,694269518,-6.8125,1.6606,-0.5322,80.98,-670.37,429.76
802,694274515,-6.8174,1.7324,-0.5674,72.26,-668.17,431.65
803,694279516,-6.7778,1.7983,-0.6021,62.44,-665.12,433.05
804,694284516,-6.7769,1.8540,-0.6582,52.32,-660.61,433.72
805,694289514,-6.7393,1.9131,-0.7354,42.62,-655.55,434.15
806,694294516,-6.6709,1.9810,-0.7627,33.84,-649.09,434.33
807,694299516,-6.5962,2.0298,-0.8501,26.83,-641.83,434.02
808,694304516,-6.5161,2.0967,-0.9268,21.71,-633.66,434.15
809,694309515,-6.4478,2.1362,-0.9961,18.90,-624.51,434.39
810,694314642,-6.4019,2.2061,-1.0962,18.29,-614.94,435.24
811,694319516,-6.3633,2.2666,-1.1934,20.98,-604.57,436.89
812,694324516,-6.2969,2.3354,-1.2798,26.04,-593.72,439.51
813,694329515,-6.1816,2.3672,-1.3750,34.45,-582.01,443.11
814,694334516,-6.0913,2.4277,-1.4546,45.43,-569.70,448.05
815,694339516,-5.9932,2.4619,-1.5156,58.84,-556.34,454.27
816,694344516,-5.8770,2.5093,-1.5884,74.82,-542.01,462.01
817,694349517,-5.8076,2.5322,-1.6646,91.59,-526.89,471.22
818,694354516,-5.7158,2.5630,-1.7925,108.78,-510.79,482.07
819,694359515,-5.6460,2.5688,-1.8164,125.55,-493.90,494.63
820,694364515,-5.5757,2.5879,-1.8677,138.41,-475.79,508.29
821,694369516,-5.5303,2.5903,-1.9531,148.35,-457.38,522.93
822,694374515,-5.4937,2.5962,-1.9756,154.82,-438.29,538.17
823,694379516,-5.4556,2.6025,-2.0010,157.50,-418.23,553.96
824,694384516,-5.4326,2.5723,-2.0293,156.65,-398.11,569.57
825,694389515,-5.3838,2.5381,-2.0659,152.62,-377.99,585.18
826,694394544,-5.3091,2.5171,-2.1030,146.65,-357.38,600.30
827,694399515,-5.2656,2.4956,-2.0845,140.73,-336.65,615.00
828,694404516,-5.2700,2.3945,-2.1426,134.63,-316.83,628.54
829,694409515,-5.2695,2.3223,-2.1885,127.93,-297.38,641.71
830,694414517,-5.2373,2.2402,-2.1992,120.24,-277.93,653.96
831,694419583,-5.2197,2.1597,-2.2075,113.90,-259.27,665.30
832,694424516,-5.1616,2.0620,-2.2437,109.51,-241.16,675.73
833,694429516,-5.1338,1.9609,-2.2334,107.44,-223.41,685.49
834,694434515,-5.1436,1.8657,-2.2339,106.34,-205.79,694.82
835,694439516,-5.1680,1.7666,-2.2144,106.95,-187.99,703.48
836,694444515,-5.1323,1.6904,-2.1558,109.27,-170.61,711.34
837,694449516,-5.0376,1.5752,-2.1118,112.50,-153.60,718.29
838,694454515,-4.9512,1.4668,-2.0889,114.76,-136.52,724.63
839,694459516,-4.8994,1.3892,-2.0361,115.91,-119.82,730.06
840,694464516,-4.8599,1.3047,-1.9941,117.56,-103.60,734.70
841,694469516,-4.8198,1.2290,-1.9536,118.96,-88.23,737.99
842,694474803,-4.7686,1.1675,-1.9116,118.66,-73.48,740.18
843,694479514,-4.7246,1.0889,-1.8491,117.44,-59.15,741.34
844,694484519,-4.6914,1.0347,-1.8242,117.32,-45.30,741.40
845,694489516,-4.6411,0.9814,-1.7954,118.66,-31.46,740.49
846,694494516,-4.5903,0.8887,-1.7139,120.30,-17.87,738.84
847,694499514,-4.5503,0.8452,-1.6763,122.68,-1.52,736.46
848,694504516,-4.5146,0.8091,-1.7051,124.76,9.15,734.27
849,694509518,-4.4678,0.7480,-1.6606,129.88,22.20,731.28
850,694514515,-4.4185,0.6953,-1.6113,133.17,35.43,727.99
851,694519521,-4.4033,0.6499,-1.6079,139.09,48.48,724.33
852,694524516,-4.3643,0.5942,-1.5767,145.79,61.40,720.06
853,694529516,-4.2886,0.5254,-1.5239,152.74,74.33,715.79
854,694534515,-4.1909,0.4756,-1.5132,158.90,86.04,711.16
855,694539516,-4.0591,0.4380,-1.4736,164.51,98.60,705.67
856,694544516,-3.9746,0.2847,-1.3784,167.93,110.73,699.57
857,694549516,-3.9531,0.3369,-1.3716,171.46,122.38,692.80
858,694554516,-3.8833,0.3135,-1.3555,175.37,133.60,684.39
859,694559516,-3.7583,0.2729,-1.2871,177.93,144.09,674.94
860,694564515,-3.6865,0.2036,-1.1523,179.09,154.76,664.76
861,694569840,-3.6064,0.0400,-1.0796,176.04,166.46,651.83
862,694574516,-3.6143,0.0366,-1.1162,171.71,172.87,643.23
863,694579516,-3.5498,0.0254,-1.0791,165.12,179.63,631.46
864,694584569,-3.4419,-0.0635,-0.9795,157.68,185.49,619.09
865,694589516,-3.3657,-0.0635,-0.9209,149.15,190.18,606.52
866,694594543,-3.3071,-0.0898,-0.8945,141.10,193.54,593.17
867,694599518,-3.2329,-0.1338,-0.8003,132.68,196.77,576.65
868,694604516,-3.1958,-0.1538,-0.7368,130.85,198.35,565.43
869,694609762,-3.1465,-0.1616,-0.6987,128.66,199.70,551.22
870,694614516,-3.1104,-0.1841,-0.6274,128.48,200.24,536.83
871,694619514,-3.0513,-0.2002,-0.5205,130.24,200.85,522.07
872,694624514,-3.0229,-0.2070,-0.4834,131.83,201.22,507.26
873,694629516,-2.9980,-0.2036,-0.4307,136.89,201.59,492.20
874,694634516,-2.9619,-0.2236,-0.3716,142.74,202.01,476.77
875,694639515,-2.9219,-0.2461,-0.2803,148.66,202.87,461.77
876,694644973,-2.9180,-0.2700,-0.2236,155.18,204.09,443.60
877,694649516,-2.9272,-0.2832,-0.2324,158.72,204.76,431.65
878,694654516,-2.9380,-0.2759,-0.1631,162.38,205.85,417.01
879,694659516,-2.9346,-0.2759,-0.1313,165.12,206.89,402.38
880,694664516,-2.9287,-0.2803,-0.1035,167.07,208.23,387.87
881,694669516,-2.9131,-0.2935,-0.0566,166.95,209.39,373.48
882,694674516,-2.8872,-0.3140,-0.0254,164.15,210.73,359.27
883,694679516,-2.8735,-0.3408,0.0161,158.54,211.65,345.55
884,694684516,-2.8452,-0.3853,0.0654,149.63,212.07,332.26
885,694689516,-2.8213,-0.4536,0.1260,137.93,212.26,319.51
886,694694514,-2.8154,-0.5146,0.1763,125.00,211.65,307.50
887,694699516,-2.7861,-0.5864,0.2759,109.21,210.98,296.04
888,694704516,-2.7720,-0.6602,0.3345,92.50,209.70,285.00
889,694709515,-2.7671,-0.7085,0.3760,75.55,207.99,274.39
890,694714516,-2.7578,-0.7686,0.4292,59.94,206.28,264.09
891,694719515,-2.7388,-0.8369,0.4609,46.40,204.57,254.27
892,694724514,-2.7422,-0.9043,0.4844,35.43,202.50,245.37
893,694729516,-2.7217,-0.9653,0.5083,27.38,200.55,237.01
894,694734516,-2.7051,-1.0171,0.5352,22.13,198.60,228.78
895,694739515,-2.6812,-1.0669,0.5469,19.21,196.52,220.91
896,694744516,-2.6489,-1.1162,0.5493,17.50,194.70,213.11
897,694749515,-2.6055,-1.1646,0.5542,15.98,192.62,205.12
898,694754516,-2.5728,-1.2144,0.5420,13.41,190.30,197.32
899,694759516,-2.5273,-1.2642,0.5205,9.63,187.50,189.51
900,694764516,-2.4600,-1.3145,0.5063,4.57,184.39,182.01
901,694769515,-2.3828,-1.3677,0.5049,-1.22,180.43,174.39
902,694774516,-2.2832,-1.4204,0.4907,-6.89,176.16,167.01
903,694779516,-2.1680,-1.4551,0.4775,-11.89,171.28,159.15
904,694784514,-2.0454,-1.4888,0.4561,-14.88,166.28,151.22
905,694789514,-1.9126,-1.5205,0.4380,-16.10,160.79,142.56
906,694794516,-1.7739,-1.5454,0.4092,-14.88,154.94,133.17
907,694799630,-1.6270,-1.5723,0.3848,-11.59,149.02,123.23
908,694804516,-1.4839,-1.5864,0.3521,-6.59,142.87,112.56
909,694809516,-1.3467,-1.5977,0.3159,-0.12,136.46,101.34
910,694814516,-1.2153,-1.6138,0.2896,7.07,130.00,89.63
911,694819515,-1.1021,-1.6152,0.2583,14.51,123.60,76.95
912,694824517,-1.0166,-1.6201,0.2261,21.89,116.59,64.09
913,694829515,-0.9541,-1.6104,0.2026,28.96,109.76,50.98
914,694834516,-0.8975,-1.5977,0.1855,35.79,102.80,37.93
915,694839515,-0.8589,-1.5732,0.1758,42.07,95.67,24.88
916,694844516,-0.8198,-1.5449,0.1631,47.20,88.23,11.95
917,694849516,-0.7852,-1.5171,0.1543,51.28,81.65,-0.73
918,694854516,-0.7637,-1.4868,0.1582,53.96,74.21,-12.93
919,694859515,-0.7451,-1.4438,0.1631,55.18,66.71,-24.70
920,694864516,-0.7197,-1.4175,0.1621,54.88,59.02,-35.55
921,694869515,-0.7119,-1.3799,0.1587,53.96,51.83,-45.98
922,694874516,-0.6948,-1.3301,0.1611,53.60,44.21,-55.79
923,694879515,-0.6865,-1.2837,0.1426,53.60,37.07,-65.06
924,694884514,-0.6777,-1.2490,0.1362,53.78,29.94,-73.72
925,694889514,-0.6816,-1.2163,0.1587,54.94,23.29,-81.65
926,694894516,-0.6836,-1.1748,0.1465,56.71,16.83,-88.96
927,694899515,-0.6724,-1.1538,0.1479,58.23,10.49,-95.49
928,694904519,-0.6636,-1.1484,0.1997,58.84,4.70,-101.34
929,694909515,-0.6616,-1.0952,0.1372,58.72,-0.85,-106.83
930,694914516,-0.6694,-1.0645,0.1060,59.27,-6.28,-111.59
931,694919516,-0.6587,-1.0215,0.1724,59.82,-10.98,-115.91
932,694924515,-0.6636,-0.9932,0.1523,59.88,-15.37,-119.70
933,694929516,-0.6743,-0.9634,0.1123,59.70,-19.51,-122.99
934,694934516,-0.6924,-0.9424,0.1211,59.09,-23.17,-125.85
935,694939516,-0.7012,-0.9141,0.1133,58.23,-26.83,-128.29
936,694944517,-0.7090,-0.8823,0.0918,56.95,-30.00,-130.37
937,694949516,-0.7046,-0.8540,0.0757,55.18,-32.99,-132.07
938,694954516,-0.7090,-0.8389,0.0620,53.35,-36.04,-133.72
939,694959516,-0.7173,-0.8237,0.0527,51.52,-38.60,-135.06
940,694964516,-0.7124,-0.8174,0.0488,49.33,-41.16,-136.04
941,694969516,-0.6958,-0.8091,0.0479,46.83,-43.60,-136.77
942,694974516,-0.6914,-0.7832,0.0283,43.29,-45.91,-137.44
943,694979516,-0.6924,-0.7759,0.0039,40.43,-48.29,-138.11
944,694984516,-0.6987,-0.7695,-0.0200,39.09,-50.37,-138.66
945,694989515,-0.7334,-0.7593,-0.0117,38.90,-52.07,-139.02
946,694994514,-0.7422,-0.7490,-0.0166,38.84,-53.84,-139.15
947,694999518,-0.7197,-0.7451,-0.0278,38.78,-55.61,-139.27
948,695004515,-0.7041,-0.7520,-0.0527,38.90,-57.56,-139.51
949,695009516,-0.6890,-0.7573,-0.0601,39.76,-59.33,-139.63
950,695014516,-0.6826,-0.7588,-0.0557,40.91,-60.79,-139.51
951,695019515,-0.6699,-0.7544,-0.0693,42.38,-61.95,-139.82
952,695024516,-0.6543,-0.7544,-0.0776,43.66,-62.87,-140.00
953,695029515,-0.6318,-0.7598,-0.0869,44.27,-63.90,-140.30
954,695034784,-0.6177,-0.7646,-0.0981,44.15,-65.12,-140.98
955,695039516,-0.6069,-0.7651,-0.1069,43.29,-66.04,-141.40
956,695044516,-0.5947,-0.7681,-0.1162,41.83,-66.95,-142.20
957,695049516,-0.5771,-0.7764,-0.1313,39.94,-67.99,-143.17
958,695054516,-0.5669,-0.7783,-0.1372,37.93,-68.90,-144.21
959,695059516,-0.5518,-0.7827,-0.1499,35.98,-69.57,-145.61
960,695064516,-0.5322,-0.7910,-0.1597,34.45,-70.30,-147.13
961,695069516,-0.5107,-0.7949,-0.1616,33.23,-71.04,-148.84
962,695074516,-0.4878,-0.7974,-0.1709,32.32,-71.59,-150.85
963,695079516,-0.4736,-0.8037,-0.1699,31.89,-72.01,-153.05
964,695084516,-0.4600,-0.8110,-0.1675,31.77,-72.38,-155.37
965,695089516,-0.4468,-0.8145,-0.1719,31.83,-72.62,-157.56
966,695094516,-0.4419,-0.8208,-0.1753,32.01,-72.80,-159.63
967,695099516,-0.4268,-0.8232,-0.1816,31.95,-73.05,-162.01
968,695104516,-0.4204,-0.8276,-0.1797,31.28,-73.41,-164.09
969,695109516,-0.4165,-0.8232,-0.1831,30.18,-73.60,-166.16
970,695114516,-0.4189,-0.8247,-0.1846,28.72,-73.84,-168.29
971,695119516,-0.4102,-0.8276,-0.1831,26.77,-74.27,-170.30
972,695124516,-0.4072,-0.8311,-0.1831,24.57,-74.45,-172.26
973,695129515,-0.3975,-0.8389,-0.1772,22.26,-74.94,-174.27
974,695134516,-0.3774,-0.8472,-0.1670,20.55,-75.12,-176.10
975,695139515,-0.3516,-0.8574,-0.1509,19.76,-75.18,-177.74
976,695144516,-0.3335,-0.8672,-0.1396,20.43,-75.00,-179.15
977,695149515,-0.3062,-0.8696,-0.1221,22.50,-74.57,-180.24
978,695154516,-0.2866,-0.8730,-0.1089,26.34,-74.02,-181.22
979,695159516,-0.2695,-0.8823,-0.1035,31.46,-73.29,-181.59
980,695164516,-0.2559,-0.8804,-0.1089,37.13,-72.38,-181.65
981,695169515,-0.2397,-0.8818,-0.1089,43.17,-71.77,-181.28
982,695174514,-0.2324,-0.8813,-0.1006,48.72,-70.85,-180.55
983,695179516,-0.2285,-0.8809,-0.0908,53.23,-69.94,-179.57
984,695184516,-0.2124,-0.8848,-0.0845,56.22,-68.90,-178.35
985,695189515,-0.1772,-0.8838,-0.0757,56.83,-67.93,-176.83
986,695194517,-0.1753,-0.8872,-0.0806,54.51,-66.95,-175.43
987,695199518,-0.1284,-0.8862,-0.1064,49.57,-66.22,-174.15
988,695204516,-0.1250,-0.8745,-0.0952,42.26,-65.43,-172.80
989,695209515,-0.0786,-0.8623,-0.0645,33.72,-64.51,-171.46
990,695214516,-0.0698,-0.8672,-0.0679,24.94,-63.35,-170.24
991,695219515,-0.0181,-0.8745,-0.1021,16.28,-62.38,-169.09
992,695224516,0.0508,-0.8711,-0.1006,8.54,-60.91,-167.80
993,695229516,0.0225,-0.8564,-0.0815,1.83,-59.09,-166.59
994,695234515,0.0391,-0.8599,-0.0859,-3.41,-57.20,-165.18
995,695239516,0.0596,-0.8545,-0.1035,-7.01,-54.88,-163.66
996,695244516,0.0547,-0.8369,-0.0967,-9.39,-52.26,-161.89
997,695249516,0.1035,-0.8188,-0.0815,-10.49,-49.45,-160.12
998,695254516,0.1113,-0.8145,-0.0747,-10.73,-46.34,-158.05
999,695259516,0.1538,-0.7998,-0.1040,-10.37,-43.23,-155.61
1000,695264516,0.1719,-0.7876,-0.0732,-9.63,-40.18,-153.23
1001,695269516,0.1880,-0.7852,-0.0625,-9.51,-36.89,-150.61
1002,695274516,0.2192,-0.7881,-0.0889,-10.06,-34.09,-147.62
1003,695279516,0.2627,-0.7876,-0.1016,-10.98,-31.40,-144.45
1004,695284516,0.3110,-0.7871,-0.1108,-12.20,-28.78,-141.34
1005,695289516,0.3770,-0.7744,-0.1240,-13.96,-26.34,-138.41
1006,695294514,0.4258,-0.7656,-0.1455,-16.46,-24.45,-135.85
1007,695299516,0.5151,-0.7490,-0.1338,-19.63,-22.26,-133.60
1008,695304516,0.5640,-0.7363,-0.1484,-23.48,-20.24,-131.65
1009,695309517,0.5889,-0.7305,-0.1484,-27.13,-18.23,-130.00
1010,695314516,0.6147,-0.7295,-0.1470,-30.79,-16.10,-128.60
1011,695319516,0.6172,-0.7319,-0.1523,-33.84,-13.90,-126.89
1012,695324517,0.6143,-0.7334,-0.1587,-36.28,-11.95,-124.82
1013,695329516,0.6123,-0.7314,-0.1636,-37.99,-10.00,-122.74
1014,695334516,0.6045,-0.7280,-0.1772,-38.84,-7.99,-120.43
1015,695339516,0.5991,-0.7275,-0.1743,-39.02,-6.04,-117.80
1016,695344516,0.5889,-0.7271,-0.1802,-38.41,-4.21,-115.06
1017,695349516,0.5820,-0.7173,-0.1934,-37.20,-2.68,-112.13
1018,695354542,0.5869,-0.7041,-0.1909,-35.55,-0.73,-108.66
1019,695359516,0.5898,-0.6924,-0.1987,-34.15,0.18,-106.46
1020,695364516,0.6011,-0.6763,-0.2021,-31.52,1.95,-103.11
1021,695369516,0.6050,-0.6655,-0.2144,-29.57,2.80,-100.85
1022,695374516,0.6011,-0.6597,-0.2173,-26.65,4.33,-97.68
1023,695379516,0.6045,-0.6602,-0.2202,-24.51,5.06,-95.49
1024,695384516,0.6089,-0.6499,-0.2153,-21.52,6.34,-92.32
1025,695389516,0.6128,-0.6470,-0.2178,-19.51,6.95,-90.18
1026,695394516,0.6045,-0.6343,-0.2148,-16.83,8.29,-87.01
1027,695399516,0.6064,-0.6304,-0.2124,-15.30,9.02,-84.94
1028,695404514,0.6025,-0.6260,-0.2095,-13.60,9.88,-82.20
1029,695409518,0.5913,-0.6230,-0.1997,-11.77,11.10,-79.02
1030,695414515,0.5850,-0.6216,-0.1963,-10.67,11.95,-76.34
1031,695419516,0.5737,-0.6196,-0.1919,-10.00,12.93,-73.54
1032,695424516,0.5684,-0.6177,-0.1938,-9.82,13.96,-70.61
1033,695429516,0.5591,-0.6172,-0.1836,-9.82,14.76,-67.87
1034,695434945,0.5571,-0.6123,-0.1704,-10.30,15.49,-65.00
1035,695439516,0.5557,-0.6074,-0.1748,-11.46,16.04,-62.13
1036,695444607,0.5601,-0.6025,-0.1763,-12.74,16.71,-59.33
1037,695449516,0.5703,-0.5991,-0.1655,-14.51,17.13,-56.71
1038,695454516,0.5815,-0.6011,-0.1655,-16.22,17.68,-54.09
1039,695459515,0.5869,-0.5986,-0.1611,-17.87,18.05,-51.40
1040,695464516,0.5933,-0.6006,-0.1543,-18.78,18.35,-48.84
1041,695469515,0.5933,-0.6011,-0.1436,-19.45,19.09,-46.22
1042,695474516,0.5986,-0.6025,-0.1343,-19.57,19.76,-43.48
1043,695479515,0.5952,-0.6035,-0.1318,-19.27,20.43,-40.73
1044,695484518,0.5908,-0.6094,-0.1309,-18.66,21.22,-38.11
1045,695489515,0.5869,-0.6152,-0.1274,-17.44,21.95,-35.18
1046,695494518,0.5864,-0.6250,-0.1284,-16.40,22.74,-32.44
1047,695499515,0.5845,-0.6250,-0.1362,-14.94,23.23,-29.51
1048,695504516,0.5850,-0.6343,-0.1309,-13.72,23.96,-26.52
1049,695509515,0.5894,-0.6353,-0.1392,-12.32,24.39,-23.60
1050,695514514,0.5962,-0.6338,-0.1406,-11.34,24.94,-20.67
1051,695519516,0.6045,-0.6372,-0.1426,-10.12,25.37,-17.93
1052,695524516,0.6143,-0.6348,-0.1455,-9.09,25.73,-15.37
1053,695529516,0.6191,-0.6318,-0.1396,-8.17,26.46,-13.05
1054,695534516,0.6313,-0.6328,-0.1426,-7.38,26.77,-10.79
1055,695539517,0.6401,-0.6372,-0.1455,-6.77,27.32,-8.66
1056,695544516,0.6499,-0.6392,-0.1465,-6.40,27.50,-6.77
1057,695549516,0.6528,-0.6416,-0.1577,-6.22,28.05,-4.82
1058,695554516,0.6621,-0.6494,-0.1533,-6.46,28.41,-3.05
1059,695559516,0.6655,-0.6484,-0.1562,-6.89,28.41,-1.40
1060,695564516,0.6694,-0.6528,-0.1582,-7.44,28.54,0.18
1061,695569516,0.6792,-0.6592,-0.1675,-7.99,28.72,1.83
1062,695574517,0.6768,-0.6699,-0.1646,-8.90,28.66,3.41
1063,695579516,0.6812,-0.6670,-0.1655,-9.76,28.84,4.82
1064,695584516,0.6909,-0.6699,-0.1689,-10.61,28.72,6.34
1065,695589516,0.6943,-0.6689,-0.1675,-11.46,28.66,7.62
1066,695594516,0.7041,-0.6704,-0.1714,-12.26,28.78,8.84
1067,695599516,0.7095,-0.6655,-0.1685,-12.93,28.66,9.94
1068,695604514,0.7109,-0.6675,-0.1768,-13.54,28.72,10.85
1069,695609532,0.7114,-0.6626,-0.1714,-13.54,28.60,11.65
1070,695614516,0.7114,-0.6675,-0.1660,-13.41,28.66,12.50
1071,695619516,0.7056,-0.6680,-0.1714,-13.29,28.78,12.99
1072,695624516,0.7148,-0.6685,-0.1655,-12.68,28.78,13.60
1073,695629515,0.7124,-0.6675,-0.1631,-12.26,28.78,14.15
1074,695634516,0.7124,-0.6646,-0.1577,-11.46,28.84,14.51
1075,695639515,0.7114,-0.6685,-0.1567,-10.67,28.96,14.76
1076,695644517,0.7090,-0.6655,-0.1509,-9.94,29.21,15.00
1077,695649515,0.7041,-0.6660,-0.1504,-9.27,29.39,15.24
1078,695654516,0.7017,-0.6660,-0.1455,-8.84,29.45,15.37
1079,695659515,0.6934,-0.6689,-0.1416,-8.23,29.57,15.61
1080,695664516,0.6875,-0.6689,-0.1372,-7.99,29.94,15.67
1081,695669515,0.6787,-0.6689,-0.1348,-7.93,30.00,15.73
1082,695674516,0.6685,-0.6660,-0.1328,-7.80,30.24,15.85
1083,695679515,0.6606,-0.6665,-0.1348,-8.11,30.55,15.98
1084,695684516,0.6494,-0.6665,-0.1318,-8.54,30.91,16.04
1085,695689515,0.6445,-0.6719,-0.1260,-9.15,31.10,16.10
1086,695694516,0.6289,-0.6738,-0.1294,-9.82,31.34,16.28
1087,695699515,0.6201,-0.6748,-0.1235,-10.67,31.52,16.40
1088,695704516,0.6143,-0.6743,-0.1250,-11.83,32.01,16.59
1089,695709516,0.6074,-0.6768,-0.1221,-12.99,32.38,16.71
1090,695714516,0.6030,-0.6772,-0.1235,-14.21,32.56,16.83
1091,695719516,0.5962,-0.6797,-0.1221,-15.43,33.05,16.89
1092,695724516,0.5913,-0.6821,-0.1235,-16.71,33.23,17.07
1093,695729515,0.5933,-0.6943,-0.1289,-18.05,33.48,17.13
1094,695734516,0.5908,-0.6973,-0.1348,-19.33,33.72,17.38
1095,695739515,0.5859,-0.6992,-0.1406,-20.67,33.96,17.50
1096,695744517,0.5820,-0.7056,-0.1392,-22.32,34.02,17.62
1097,695749515,0.5830,-0.7144,-0.1455,-23.54,34.02,17.93
1098,695754516,0.5845,-0.7139,-0.1465,-24.70,34.09,18.11
1099,695759515,0.5859,-0.7173,-0.1494,-25.79,34.02,18.29
1100,695764516,0.5874,-0.7222,-0.1577,-26.59,33.90,18.54
1101,695769515,0.5894,-0.7217,-0.1592,-27.26,33.78,18.66
1102,695774516,0.5942,-0.7236,-0.1709,-27.74,33.66,18.78
1103,695779515,0.5957,-0.7271,-0.1685,-27.99,33.54,18.78
1104,695784516,0.5986,-0.7246,-0.1724,-28.23,33.23,18.90
1105,695789515,0.6011,-0.7314,-0.1831,-28.29,33.05,18.72
1106,695794516,0.6016,-0.7324,-0.1836,-28.23,32.74,18.78
1107,695799515,0.5986,-0.7334,-0.1860,-27.80,32.32,18.72
1108,695804516,0.6011,-0.7388,-0.1909,-27.32,32.07,18.48
1109,695809516,0.6011,-0.7373,-0.2021,-26.71,31.59,18.48
1110,695814514,0.5996,-0.7393,-0.1963,-25.79,31.22,18.41
1111,695819516,0.6030,-0.7485,-0.2061,-24.76,30.79,18.23
1112,695824515,0.6025,-0.7466,-0.2119,-23.72,30.24,18.11
1113,695829516,0.6064,-0.7534,-0.2129,-22.50,29.88,17.80
1114,695834516,0.6094,-0.7544,-0.2070,-21.10,29.33,17.68
1115,695839516,0.6187,-0.7549,-0.2134,-19.63,28.96,17.50
1116,695844516,0.6182,-0.7607,-0.2202,-18.29,28.54,17.20
1117,695849516,0.6201,-0.7612,-0.2246,-17.07,28.05,17.01
1118,695854516,0.6240,-0.7646,-0.2197,-15.85,27.56,16.71
1119,695859516,0.6274,-0.7656,-0.2173,-14.51,27.13,16.28
1120,695864516,0.6323,-0.7681,-0.2158,-13.35,26.95,15.85
1121,695869516,0.6353,-0.7720,-0.2095,-11.95,26.52,15.37
1122,695874516,0.6372,-0.7729,-0.2095,-10.73,26.34,14.82
1123,695879516,0.6401,-0.7734,-0.2104,-9.57,26.22,14.27
1124,695884516,0.6377,-0.7725,-0.2026,-8.35,26.16,13.66
1125,695889516,0.6294,-0.7754,-0.2095,-7.38,25.98,12.93
1126,695894516,0.6284,-0.7783,-0.1978,-6.52,25.79,12.38
1127,695899516,0.6226,-0.7778,-0.2012,-5.55,25.67,11.65
1128,695904516,0.6240,-0.7803,-0.1855,-4.82,25.79,11.04
1129,695909516,0.6260,-0.7793,-0.1851,-3.96,25.73,10.43
1130,695914516,0.6245,-0.7866,-0.1807,-3.41,25.85,9.76
1131,695919516,0.6226,-0.7871,-0.1836,-2.99,25.98,9.15
1132,695924516,0.6230,-0.7876,-0.1758,-2.44,25.98,8.48
1133,695929516,0.6250,-0.7910,-0.1646,-2.07,26.10,7.93
1134,695934517,0.6240,-0.7891,-0.1636,-1.83,26.16,7.26
1135,695939516,0.6255,-0.7871,-0.1602,-1.65,26.16,6.71
1136,695944516,0.6260,-0.7881,-0.1426,-1.46,26.22,6.10
1137,695949516,0.6260,-0.7900,-0.1514,-1.22,26.46,5.49
1138,695954514,0.6196,-0.7886,-0.1343,-0.85,26.40,4.88
1139,695959516,0.6152,-0.7881,-0.1260,-0.24,26.59,4.33
1140,695964516,0.5991,-0.8247,-0.0732,0.79,27.20,4.27
1141,695969515,0.5742,-0.7871,-0.1509,2.01,27.20,4.02
1142,695974516,0.6021,-0.7578,-0.1455,2.62,27.07,3.48
1143,695979515,0.6284,-0.7427,-0.0830,2.87,27.13,2.87
1144,695984516,0.6284,-0.7520,-0.1069,2.80,26.95,2.13
1145,695989515,0.6235,-0.7637,-0.1099,2.99,26.83,1.52
1146,695994516,0.6309,-0.7646,-0.0762,2.93,26.59,1.04
1147,695999515,0.6353,-0.7578,-0.0859,2.99,26.71,0.30
1148,696004516,0.6328,-0.7529,-0.0913,2.99,26.22,-0.18
1149,696009515,0.6313,-0.7549,-0.0742,2.74,25.91,-0.67
1150,696014516,0.6426,-0.7505,-0.0669,2.87,25.55,-1.10
1151,696019514,0.6484,-0.7524,-0.0708,2.93,25.37,-1.59
1152,696024516,0.6489,-0.7524,-0.0610,3.11,24.94,-2.13
1153,696029515,0.6592,-0.7456,-0.0552,3.35,24.63,-2.62
1154,696034516,0.6616,-0.7427,-0.0669,3.48,24.15,-3.05
1155,696039516,0.6650,-0.7407,-0.0601,3.35,23.60,-3.66
1156,696044516,0.6738,-0.7358,-0.0591,3.17,23.17,-4.09
1157,696049515,0.6772,-0.7305,-0.0576,3.11,22.38,-4.57
1158,696054517,0.6772,-0.7275,-0.0581,2.93,21.77,-4.94
1159,696059515,0.6763,-0.7246,-0.0586,3.05,21.16,-5.30
1160,696064516,0.6719,-0.7231,-0.0566,3.17,20.55,-5.67
1161,696069516,0.6724,-0.7178,-0.0532,3.48,20.00,-6.16
1162,696074516,0.6729,-0.7139,-0.0449,3.66,19.33,-6.65
1163,696079515,0.6772,-0.7119,-0.0444,3.96,18.84,-7.01
1164,696084516,0.6777,-0.7080,-0.0439,3.90,18.17,-7.38
1165,696089516,0.6797,-0.7046,-0.0415,4.02,17.26,-7.80
1166,696094518,0.6836,-0.7036,-0.0391,3.66,16.46,-8.17
1167,696099516,0.6841,-0.7026,-0.0337,3.41,15.91,-8.60
1168,696104516,0.6836,-0.6973,-0.0322,2.99,15.18,-9.02
1169,696109515,0.6826,-0.6963,-0.0298,2.50,14.63,-9.33
1170,696114514,0.6777,-0.6929,-0.0308,1.71,13.84,-9.76
1171,696119514,0.6753,-0.6919,-0.0342,0.85,13.17,-10.12
1172,696124518,0.6729,-0.6880,-0.0317,-0.30,12.32,-10.24
1173,696129516,0.6685,-0.6963,-0.0298,-1.46,11.65,-10.37
1174,696134516,0.6587,-0.6919,-0.0264,-2.50,10.79,-10.43
1175,696139515,0.6577,-0.6895,-0.0249,-3.41,10.18,-10.49
1176,696144516,0.6602,-0.6870,-0.0293,-4.15,9.33,-10.73
1177,696149515,0.6621,-0.6953,-0.0210,-4.63,8.72,-10.67
1178,696154517,0.6675,-0.6953,-0.0225,-4.57,8.05,-10.67
1179,696159515,0.6704,-0.6958,-0.0205,-4.21,7.32,-10.73
1180,696164516,0.6792,-0.6987,-0.0195,-3.48,6.71,-10.73
1181,696169515,0.6768,-0.7017,-0.0171,-2.20,6.04,-10.79
1182,696174516,0.6904,-0.7031,-0.0088,-0.61,5.43,-10.91
1183,696179516,0.6914,-0.7085,-0.0122,1.28,4.76,-10.98
1184,696184606,0.7017,-0.7148,-0.0171,3.23,4.21,-11.10
1185,696189514,0.7056,-0.7124,-0.0122,5.18,3.35,-11.22
1186,696194517,0.7153,-0.7144,-0.0073,7.13,2.87,-11.34
1187,696199517,0.7168,-0.7183,-0.0088,9.02,2.07,-11.52
1188,696204516,0.7168,-0.7236,-0.0093,11.10,1.52,-11.52
1189,696209515,0.7080,-0.7197,-0.0122,13.23,1.10,-11.46
1190,696214516,0.7109,-0.7261,0.0063,15.06,0.79,-11.46
1191,696219515,0.7207,-0.7183,-0.0205,16.52,0.18,-11.46
1192,696224514,0.7266,-0.7129,-0.0098,17.50,-0.37,-11.59
1193,696229516,0.7310,-0.7139,0.0029,17.87,-0.79,-11.83
1194,696234516,0.7329,-0.7144,-0.0112,17.93,-1.22,-12.07
1195,696239514,0.7329,-0.7202,-0.0068,17.44,-1.83,-12.26
1196,696244516,0.7285,-0.7241,0.0078,16.77,-2.20,-12.32
1197,696249516,0.7266,-0.7285,0.0098,15.61,-2.62,-12.38
1198,696254516,0.7266,-0.7271,0.0024,14.33,-3.11,-12.32
1199,696259515,0.7188,-0.7290,0.0146,13.05,-3.41,-12.32
1200,696264516,0.7168,-0.7319,0.0142,11.65,-3.72,-12.20
1201,696269515,0.7188,-0.7261,0.0073,10.37,-3.96,-12.07
1202,696274518,0.7183,-0.7285,0.0151,9.15,-4.27,-12.01
1203,696279515,0.7227,-0.7295,0.0151,8.23,-4.51,-11.83
1204,696284516,0.7197,-0.7231,0.0151,7.62,-4.70,-11.83
1205,696289516,0.7183,-0.7222,0.0205,7.20,-5.18,-11.77
1206,696294514,0.7207,-0.7192,0.0142,7.13,-5.37,-11.59
1207,696299516,0.7188,-0.7173,0.0195,7.32,-5.79,-11.40
1208,696304516,0.7168,-0.7100,0.0186,7.87,-5.91,-11.34
1209,696309516,0.7158,-0.7144,0.0239,8.35,-6.34,-11.28
1210,696314516,0.7153,-0.7114,0.0190,9.02,-6.59,-11.16
1211,696319516,0.7119,-0.7061,0.0210,9.88,-6.77,-11.04
1212,696324516,0.7100,-0.7002,0.0137,10.61,-7.07,-10.98
1213,696329516,0.7100,-0.6982,0.0195,11.10,-7.50,-10.79
1214,696334515,0.7075,-0.6968,0.0190,11.40,-7.74,-10.73
1215,696339516,0.7056,-0.6899,0.0190,11.59,-7.93,-10.61
1216,696344517,0.7085,-0.6870,0.0220,11.46,-8.29,-10.49
1217,696349516,0.7080,-0.6851,0.0229,10.98,-8.54,-10.43
1218,696354516,0.7085,-0.6816,0.0259,10.18,-8.78,-10.24
1219,696359516,0.7095,-0.6733,0.0200,9.21,-8.90,-10.43
1220,696364514,0.7090,-0.6704,0.0215,8.05,-9.21,-10.24
1221,696369517,0.7065,-0.6650,0.0225,6.83,-9.57,-10.24
1222,696374514,0.7065,-0.6626,0.0195,5.61,-10.12,-10.06
1223,696379701,0.7012,-0.6543,0.0166,4.57,-10.37,-9.94
1224,696384519,0.7007,-0.6553,0.0225,3.78,-10.79,-9.76
1225,696389516,0.6943,-0.6533,0.0156,3.23,-11.10,-9.63
1226,696394516,0.6934,-0.6489,0.0142,2.87,-11.34,-9.45
1227,696399516,0.6929,-0.6421,0.0127,2.80,-11.71,-9.33
1228,696404516,0.6938,-0.6431,0.0103,2.87,-12.20,-9.09
1229,696409517,0.6953,-0.6436,0.0103,3.11,-12.44,-8.96
1230,696414516,0.6919,-0.6416,0.0073,3.54,-12.74,-8.72
1231,696419516,0.6924,-0.6431,0.0107,4.21,-13.17,-8.54
1232,696424516,0.6963,-0.6392,0.0054,5.00,-13.66,-8.29
1233,696429516,0.6943,-0.6421,0.0029,5.67,-13.78,-8.05
1234,696434516,0.6978,-0.6445,-0.0005,6.59,-14.27,-7.93
1235,696439516,0.6992,-0.6455,-0.0020,7.44,-14.57,-7.68
1236,696444516,0.7002,-0.6392,-0.0054,8.17,-14.94,-7.44
1237,696449516,0.7012,-0.6445,-0.0078,8.72,-15.24,-7.32
1238,696454516,0.7036,-0.6431,-0.0039,9.21,-15.49,-7.13
1239,696459516,0.7085,-0.6465,-0.0098,9.39,-15.85,-6.95
1240,696464516,0.7163,-0.6509,-0.0103,9.45,-16.04,-6.89
1241,696469516,0.7178,-0.6479,-0.0088,9.63,-16.52,-6.83
1242,696474516,0.7227,-0.6533,-0.0142,9.39,-16.65,-6.65
1243,696479516,0.7271,-0.6523,-0.0171,9.09,-16.89,-6.77
1244,696484516,0.7275,-0.6567,-0.0234,8.72,-17.20,-6.77
1245,696489516,0.7314,-0.6587,-0.0195,8.17,-17.44,-6.71
